rt,responses,trial_type,time_elapsed,stimulus,button_pressed,key_press,name_trial,rating,probe,probe_accuracy,response,correct,accuracy,problems,smooth,distraction,strategies,familiar,memorable,unique,realistic,similar,comments
6904.39999999851,{worker_id:63bcbf7e0ac7e876387ef720},id_enter,6908,,,,,,,,,,,,,,,,,,,,
14002.30000000447,,fullscreen,20914,fullscreen,0,,,,,,,,,,,,,,,,,,
17965.30000000447,,intro_0,38882,instruct,,32,,,,,,,,,,,,,,,,,
8605.20000000298,,intro_1,47489,instruct,,32,,,,,,,,,,,,,,,,,
7665.20000000298,,intro_2,55156,instruct,,32,,,,,,,,,,,,,,,,,
null,,instruct_dir_4,56657,instruct,,null,,,,,,,,,,,,,,,,,
null,,thebreak,57159,break,,null,,,,,,,,,,,,,,,,,
6142.5,,familiar_rating,63305,Dothan,,49,Dothan,1,,,,,,,,,,,,,,,
null,,confidence_buffer,63407,confidence_buffer,,null,,,,,,,,,,,,,,,,,
3477,,probe_rating,66886,probe_rating,,52,,,4,1,,,,,,,,,,,,,
null,,confidence_buffer,66989,confidence_buffer,,null,,,,,,,,,,,,,,,,,
4761.60000000149,,unique_rating,71752,Dothan,,51,,3,,,,,,,,,,,,,,,
null,,confidence_buffer,71854,confidence_buffer,,null,,,,,,,,,,,,,,,,,
3575.0999999940395,,memorable_rating,75431,Dothan,,50,,2,,,,,,,,,,,,,,,
null,,confidence_buffer,75533,confidence_buffer,,null,,,,,,,,,,,,,,,,,
null,,thebreak,76035,break,,null,,,,,,,,,,,,,,,,,
5134.79999999702,,familiar_rating,81172,Palo Alto,,53,Palo Alto,5,,,,,,,,,,,,,,,
null,,confidence_buffer,81274,confidence_buffer,,null,,,,,,,,,,,,,,,,,
5340.10000000149,,unique_rating,86615,Palo Alto,,53,,5,,,,,,,,,,,,,,,
null,,confidence_buffer,86717,confidence_buffer,,null,,,,,,,,,,,,,,,,,
2055.9000000059605,,memorable_rating,88774,Palo Alto,,53,,5,,,,,,,,,,,,,,,
null,,confidence_buffer,88877,confidence_buffer,,null,,,,,,,,,,,,,,,,,
null,,thebreak,89379,break,,null,,,,,,,,,,,,,,,,,
8253.89999999851,,familiar_rating,97635,Frankfort,,49,Frankfort,1,,,,,,,,,,,,,,,
null,,confidence_buffer,97737,confidence_buffer,,null,,,,,,,,,,,,,,,,,
4331.79999999702,,unique_rating,102070,Frankfort,,50,,2,,,,,,,,,,,,,,,
null,,confidence_buffer,102172,confidence_buffer,,null,,,,,,,,,,,,,,,,,
5544.10000000149,,memorable_rating,107718,Frankfort,,49,,1,,,,,,,,,,,,,,,
null,,confidence_buffer,107820,confidence_buffer,,null,,,,,,,,,,,,,,,,,
null,,thebreak,108322,break,,null,,,,,,,,,,,,,,,,,
3483,,familiar_rating,111807,Annapolis,,53,Annapolis,5,,,,,,,,,,,,,,,
null,,confidence_buffer,111909,confidence_buffer,,null,,,,,,,,,,,,,,,,,
4854.39999999851,,unique_rating,116765,Annapolis,,51,,3,,,,,,,,,,,,,,,
null,,confidence_buffer,116866,confidence_buffer,,null,,,,,,,,,,,,,,,,,
2422.39999999851,,memorable_rating,119290,Annapolis,,53,,5,,,,,,,,,,,,,,,
null,,confidence_buffer,119391,confidence_buffer,,null,,,,,,,,,,,,,,,,,
null,,thebreak,119893,break,,null,,,,,,,,,,,,,,,,,
8733.30000000447,,familiar_rating,128628,Newport News,,49,Newport News,1,,,,,,,,,,,,,,,
null,,confidence_buffer,128731,confidence_buffer,,null,,,,,,,,,,,,,,,,,
2543.7999999970198,,unique_rating,131277,Newport News,,52,,4,,,,,,,,,,,,,,,
null,,confidence_buffer,131379,confidence_buffer,,null,,,,,,,,,,,,,,,,,
3669.8000000044703,,memorable_rating,135051,Newport News,,53,,5,,,,,,,,,,,,,,,
null,,confidence_buffer,135153,confidence_buffer,,null,,,,,,,,,,,,,,,,,
null,,thebreak,135655,break,,null,,,,,,,,,,,,,,,,,
3887.2000000029802,,familiar_rating,139543,Rock Springs,,51,Rock Springs,3,,,,,,,,,,,,,,,
null,,confidence_buffer,139645,confidence_buffer,,null,,,,,,,,,,,,,,,,,
2550,,unique_rating,142197,Rock Springs,,50,,2,,,,,,,,,,,,,,,
null,,confidence_buffer,142298,confidence_buffer,,null,,,,,,,,,,,,,,,,,
2508.10000000149,,memorable_rating,144808,Rock Springs,,51,,3,,,,,,,,,,,,,,,
null,,confidence_buffer,144911,confidence_buffer,,null,,,,,,,,,,,,,,,,,
null,,thebreak,145413,break,,null,,,,,,,,,,,,,,,,,
3094.60000000149,,familiar_rating,148509,Ann Arbor,,53,Ann Arbor,5,,,,,,,,,,,,,,,
null,,confidence_buffer,148611,confidence_buffer,,null,,,,,,,,,,,,,,,,,
2459.7000000029802,,unique_rating,151072,Ann Arbor,,53,,5,,,,,,,,,,,,,,,
null,,confidence_buffer,151173,confidence_buffer,,null,,,,,,,,,,,,,,,,,
2096.0999999940395,,memorable_rating,153272,Ann Arbor,,53,,5,,,,,,,,,,,,,,,
null,,confidence_buffer,153374,confidence_buffer,,null,,,,,,,,,,,,,,,,,
2802,,probe_rating,156178,probe_rating,,53,,,5,1,,,,,,,,,,,,,
null,,confidence_buffer,156281,confidence_buffer,,null,,,,,,,,,,,,,,,,,
null,,thebreak,156782,break,,null,,,,,,,,,,,,,,,,,
4278.80000000447,,familiar_rating,161063,Topeka,,53,Topeka,5,,,,,,,,,,,,,,,
null,,confidence_buffer,161165,confidence_buffer,,null,,,,,,,,,,,,,,,,,
2990.5,,unique_rating,164158,Topeka,,53,,5,,,,,,,,,,,,,,,
null,,confidence_buffer,164261,confidence_buffer,,null,,,,,,,,,,,,,,,,,
2707.39999999851,,memorable_rating,166969,Topeka,,53,,5,,,,,,,,,,,,,,,
null,,confidence_buffer,167070,confidence_buffer,,null,,,,,,,,,,,,,,,,,
null,,thebreak,167573,break,,null,,,,,,,,,,,,,,,,,
3490.5,,familiar_rating,171066,Carson City,,53,Carson City,5,,,,,,,,,,,,,,,
null,,confidence_buffer,171168,confidence_buffer,,null,,,,,,,,,,,,,,,,,
2855.39999999851,,unique_rating,174025,Carson City,,52,,4,,,,,,,,,,,,,,,
null,,confidence_buffer,174128,confidence_buffer,,null,,,,,,,,,,,,,,,,,
1962.5,,probe_rating,176092,probe_rating,,53,,,5,1,,,,,,,,,,,,,
null,,confidence_buffer,176195,confidence_buffer,,null,,,,,,,,,,,,,,,,,
3215.5,,memorable_rating,179412,Carson City,,52,,4,,,,,,,,,,,,,,,
null,,confidence_buffer,179513,confidence_buffer,,null,,,,,,,,,,,,,,,,,
null,,thebreak,180015,break,,null,,,,,,,,,,,,,,,,,
4068.89999999851,,familiar_rating,184085,Altoona,,49,Altoona,1,,,,,,,,,,,,,,,
null,,confidence_buffer,184187,confidence_buffer,,null,,,,,,,,,,,,,,,,,
3949.2000000029802,,unique_rating,188138,Altoona,,51,,3,,,,,,,,,,,,,,,
null,,confidence_buffer,188240,confidence_buffer,,null,,,,,,,,,,,,,,,,,
1982.5,,memorable_rating,190225,Altoona,,50,,2,,,,,,,,,,,,,,,
null,,confidence_buffer,190336,confidence_buffer,,null,,,,,,,,,,,,,,,,,
null,,thebreak,190838,break,,null,,,,,,,,,,,,,,,,,
3292.7999999970198,,familiar_rating,194132,Olympia,,53,Olympia,5,,,,,,,,,,,,,,,
null,,confidence_buffer,194234,confidence_buffer,,null,,,,,,,,,,,,,,,,,
2422.2000000029802,,probe_rating,196658,probe_rating,,49,,,1,1,,,,,,,,,,,,,
null,,confidence_buffer,196761,confidence_buffer,,null,,,,,,,,,,,,,,,,,
2792.6999999955297,,unique_rating,199555,Olympia,,50,,2,,,,,,,,,,,,,,,
null,,confidence_buffer,199656,confidence_buffer,,null,,,,,,,,,,,,,,,,,
1844.2000000029802,,memorable_rating,201502,Olympia,,53,,5,,,,,,,,,,,,,,,
null,,confidence_buffer,201604,confidence_buffer,,null,,,,,,,,,,,,,,,,,
null,,thebreak,202107,break,,null,,,,,,,,,,,,,,,,,
7065.70000000298,,familiar_rating,209174,Helena,,51,Helena,3,,,,,,,,,,,,,,,
null,,confidence_buffer,209276,confidence_buffer,,null,,,,,,,,,,,,,,,,,
3203.39999999851,,unique_rating,212480,Helena,,51,,3,,,,,,,,,,,,,,,
null,,confidence_buffer,212581,confidence_buffer,,null,,,,,,,,,,,,,,,,,
5158,,memorable_rating,217740,Helena,,50,,2,,,,,,,,,,,,,,,
null,,confidence_buffer,217842,confidence_buffer,,null,,,,,,,,,,,,,,,,,
null,,thebreak,218343,break,,null,,,,,,,,,,,,,,,,,
2993.10000000149,,familiar_rating,221338,Norfolk,,53,Norfolk,5,,,,,,,,,,,,,,,
null,,confidence_buffer,221441,confidence_buffer,,null,,,,,,,,,,,,,,,,,
2867.7999999970198,,unique_rating,224311,Norfolk,,52,,4,,,,,,,,,,,,,,,
null,,confidence_buffer,224414,confidence_buffer,,null,,,,,,,,,,,,,,,,,
1868.8999999985099,,probe_rating,226285,probe_rating,,49,,,1,1,,,,,,,,,,,,,
null,,confidence_buffer,226388,confidence_buffer,,null,,,,,,,,,,,,,,,,,
2475.5,,memorable_rating,228866,Norfolk,,53,,5,,,,,,,,,,,,,,,
null,,confidence_buffer,228969,confidence_buffer,,null,,,,,,,,,,,,,,,,,
null,,thebreak,229471,break,,null,,,,,,,,,,,,,,,,,
3761.10000000149,,familiar_rating,233233,Peoria,,53,Peoria,5,,,,,,,,,,,,,,,
null,,confidence_buffer,233336,confidence_buffer,,null,,,,,,,,,,,,,,,,,
2402.5,,unique_rating,235740,Peoria,,53,,5,,,,,,,,,,,,,,,
null,,confidence_buffer,235842,confidence_buffer,,null,,,,,,,,,,,,,,,,,
2030.3999999985099,,probe_rating,237874,probe_rating,,50,,,2,1,,,,,,,,,,,,,
null,,confidence_buffer,237975,confidence_buffer,,null,,,,,,,,,,,,,,,,,
2405.39999999851,,memorable_rating,240382,Peoria,,53,,5,,,,,,,,,,,,,,,
null,,confidence_buffer,240484,confidence_buffer,,null,,,,,,,,,,,,,,,,,
null,,thebreak,240986,break,,null,,,,,,,,,,,,,,,,,
2570.2000000029802,,familiar_rating,243557,Pasadena,,53,Pasadena,5,,,,,,,,,,,,,,,
null,,confidence_buffer,243659,confidence_buffer,,null,,,,,,,,,,,,,,,,,
3396.89999999851,,unique_rating,247057,Pasadena,,52,,4,,,,,,,,,,,,,,,
null,,confidence_buffer,247160,confidence_buffer,,null,,,,,,,,,,,,,,,,,
1727.2000000029802,,memorable_rating,248889,Pasadena,,53,,5,,,,,,,,,,,,,,,
null,,confidence_buffer,249003,confidence_buffer,,null,,,,,,,,,,,,,,,,,
null,,thebreak,249504,break,,null,,,,,,,,,,,,,,,,,
2460,,familiar_rating,251966,Boise,,53,Boise,5,,,,,,,,,,,,,,,
null,,confidence_buffer,252069,confidence_buffer,,null,,,,,,,,,,,,,,,,,
2515.10000000149,,unique_rating,254585,Boise,,53,,5,,,,,,,,,,,,,,,
null,,confidence_buffer,254686,confidence_buffer,,null,,,,,,,,,,,,,,,,,
2021.1000000014901,,memorable_rating,256708,Boise,,53,,5,,,,,,,,,,,,,,,
null,,confidence_buffer,256811,confidence_buffer,,null,,,,,,,,,,,,,,,,,
null,,thebreak,257312,break,,null,,,,,,,,,,,,,,,,,
3729.60000000149,,familiar_rating,261043,Berkeley,,53,Berkeley,5,,,,,,,,,,,,,,,
null,,confidence_buffer,261144,confidence_buffer,,null,,,,,,,,,,,,,,,,,
2052,,unique_rating,263198,Berkeley,,51,,3,,,,,,,,,,,,,,,
null,,confidence_buffer,263300,confidence_buffer,,null,,,,,,,,,,,,,,,,,
1671.5999999940395,,probe_rating,264974,probe_rating,,49,,,1,1,,,,,,,,,,,,,
null,,confidence_buffer,265076,confidence_buffer,,null,,,,,,,,,,,,,,,,,
2652.39999999851,,memorable_rating,267729,Berkeley,,53,,5,,,,,,,,,,,,,,,
null,,confidence_buffer,267830,confidence_buffer,,null,,,,,,,,,,,,,,,,,
null,,thebreak,268332,break,,null,,,,,,,,,,,,,,,,,
5354.10000000149,,familiar_rating,273687,Pueblo,,51,Pueblo,3,,,,,,,,,,,,,,,
null,,confidence_buffer,273795,confidence_buffer,,null,,,,,,,,,,,,,,,,,
1663,,unique_rating,275460,Pueblo,,50,,2,,,,,,,,,,,,,,,
null,,confidence_buffer,275561,confidence_buffer,,null,,,,,,,,,,,,,,,,,
2554.0999999940395,,memorable_rating,278117,Pueblo,,51,,3,,,,,,,,,,,,,,,
null,,confidence_buffer,278219,confidence_buffer,,null,,,,,,,,,,,,,,,,,
null,,thebreak,278720,break,,null,,,,,,,,,,,,,,,,,
3091.8000000044703,,familiar_rating,281814,Fargo,,53,Fargo,5,,,,,,,,,,,,,,,
null,,confidence_buffer,281916,confidence_buffer,,null,,,,,,,,,,,,,,,,,
3355,,unique_rating,285272,Fargo,,51,,3,,,,,,,,,,,,,,,
null,,confidence_buffer,285374,confidence_buffer,,null,,,,,,,,,,,,,,,,,
1739.1999999955297,,memorable_rating,287115,Fargo,,51,,3,,,,,,,,,,,,,,,
null,,confidence_buffer,287218,confidence_buffer,,null,,,,,,,,,,,,,,,,,
null,,thebreak,287720,break,,null,,,,,,,,,,,,,,,,,
2866.5,,familiar_rating,290588,Marquette,,52,Marquette,4,,,,,,,,,,,,,,,
null,,confidence_buffer,290691,confidence_buffer,,null,,,,,,,,,,,,,,,,,
2772.2999999970198,,unique_rating,293464,Marquette,,51,,3,,,,,,,,,,,,,,,
null,,confidence_buffer,293566,confidence_buffer,,null,,,,,,,,,,,,,,,,,
2207,,memorable_rating,295773,Marquette,,50,,2,,,,,,,,,,,,,,,
null,,confidence_buffer,295875,confidence_buffer,,null,,,,,,,,,,,,,,,,,
null,,thebreak,296380,break,,null,,,,,,,,,,,,,,,,,
2317.7000000029802,,familiar_rating,298700,Athens,,53,Athens,5,,,,,,,,,,,,,,,
null,,confidence_buffer,298802,confidence_buffer,,null,,,,,,,,,,,,,,,,,
3593.1999999955297,,unique_rating,302397,Athens,,51,,3,,,,,,,,,,,,,,,
null,,confidence_buffer,302500,confidence_buffer,,null,,,,,,,,,,,,,,,,,
1467.3000000044703,,memorable_rating,303969,Athens,,53,,5,,,,,,,,,,,,,,,
null,,confidence_buffer,304071,confidence_buffer,,null,,,,,,,,,,,,,,,,,
null,,thebreak,304573,break,,null,,,,,,,,,,,,,,,,,
5007.5,,familiar_rating,309582,Burlington,,51,Burlington,3,,,,,,,,,,,,,,,
null,,confidence_buffer,309683,confidence_buffer,,null,,,,,,,,,,,,,,,,,
1725.2000000029802,,probe_rating,311410,probe_rating,,50,,,2,1,,,,,,,,,,,,,
null,,confidence_buffer,311512,confidence_buffer,,null,,,,,,,,,,,,,,,,,
2413.8000000044703,,unique_rating,313927,Burlington,,50,,2,,,,,,,,,,,,,,,
null,,confidence_buffer,314031,confidence_buffer,,null,,,,,,,,,,,,,,,,,
2992.10000000149,,memorable_rating,317025,Burlington,,50,,2,,,,,,,,,,,,,,,
null,,confidence_buffer,317127,confidence_buffer,,null,,,,,,,,,,,,,,,,,
null,,thebreak,317628,break,,null,,,,,,,,,,,,,,,,,
3261.5,,familiar_rating,320891,Youngstown,,50,Youngstown,2,,,,,,,,,,,,,,,
null,,confidence_buffer,320993,confidence_buffer,,null,,,,,,,,,,,,,,,,,
2505.60000000149,,unique_rating,323500,Youngstown,,51,,3,,,,,,,,,,,,,,,
null,,confidence_buffer,323603,confidence_buffer,,null,,,,,,,,,,,,,,,,,
1863.2999999970198,,memorable_rating,325468,Youngstown,,50,,2,,,,,,,,,,,,,,,
null,,confidence_buffer,325570,confidence_buffer,,null,,,,,,,,,,,,,,,,,
null,,thebreak,326071,break,,null,,,,,,,,,,,,,,,,,
2559.9000000059605,,familiar_rating,328633,New Haven,,53,New Haven,5,,,,,,,,,,,,,,,
null,,confidence_buffer,328734,confidence_buffer,,null,,,,,,,,,,,,,,,,,
2922.89999999851,,unique_rating,331658,New Haven,,52,,4,,,,,,,,,,,,,,,
null,,confidence_buffer,331760,confidence_buffer,,null,,,,,,,,,,,,,,,,,
2052.10000000149,,memorable_rating,333813,New Haven,,53,,5,,,,,,,,,,,,,,,
null,,confidence_buffer,333915,confidence_buffer,,null,,,,,,,,,,,,,,,,,
null,,thebreak,334417,break,,null,,,,,,,,,,,,,,,,,
5069.20000000298,,familiar_rating,339487,Fort Collins,,51,Fort Collins,3,,,,,,,,,,,,,,,
null,,confidence_buffer,339588,confidence_buffer,,null,,,,,,,,,,,,,,,,,
3970.2999999970198,,unique_rating,343560,Fort Collins,,51,,3,,,,,,,,,,,,,,,
null,,confidence_buffer,343663,confidence_buffer,,null,,,,,,,,,,,,,,,,,
1967.2000000029802,,memorable_rating,345631,Fort Collins,,51,,3,,,,,,,,,,,,,,,
null,,confidence_buffer,345733,confidence_buffer,,null,,,,,,,,,,,,,,,,,
null,,thebreak,346235,break,,null,,,,,,,,,,,,,,,,,
4892.69999999553,,intro_0,351129,instruct,,32,,,,,,,,,,,,,,,,,
9964.70000000298,,intro_1,361096,instruct,,32,,,,,,,,,,,,,,,,,
28512.79999999702,,intro_2,389610,instruct,,32,,,,,,,,,,,,,,,,,
null,,instruct_dir_4,391113,instruct,,null,,,,,,,,,,,,,,,,,
6174.70000000298,,realistic_rating,397290,Altoona,,49,Altoona,1,,,,,,,,,,,,,,,
null,,confidence_buffer,397393,confidence_buffer,,null,,,,,,,,,,,,,,,,,
4236.5,,pt2_unique_rating,401630,Altoona,,52,,4,,,,,,,,,,,,,,,
null,,confidence_buffer,401732,confidence_buffer,,null,,,,,,,,,,,,,,,,,
3798.7000000029802,,pt2_memorable_rating,405532,Altoona,,51,,3,,,,,,,,,,,,,,,
null,,confidence_buffer,405634,confidence_buffer,,null,,,,,,,,,,,,,,,,,
3393.0999999940395,,recognition_phase,409028,Altoona,,49,,,,,old,1,1,,,,,,,,,,
null,,confidence_buffer,409132,confidence_buffer,,null,,,,,,,,,,,,,,,,,
null,,thebreak,409634,break,,null,,,,,,,,,,,,,,,,,
3671,,realistic_rating,413306,Boise,,53,Boise,5,,,,,,,,,,,,,,,
null,,confidence_buffer,413408,confidence_buffer,,null,,,,,,,,,,,,,,,,,
2084.60000000149,,pt2_unique_rating,415494,Boise,,53,,5,,,,,,,,,,,,,,,
null,,confidence_buffer,415596,confidence_buffer,,null,,,,,,,,,,,,,,,,,
1878.3000000044703,,pt2_memorable_rating,417475,Boise,,53,,5,,,,,,,,,,,,,,,
null,,confidence_buffer,417578,confidence_buffer,,null,,,,,,,,,,,,,,,,,
2548.2999999970198,,recognition_phase,420129,Boise,,49,,,,,old,1,1,,,,,,,,,,
null,,confidence_buffer,420231,confidence_buffer,,null,,,,,,,,,,,,,,,,,
null,,thebreak,420733,break,,null,,,,,,,,,,,,,,,,,
4205.69999999553,,realistic_rating,424940,Toledo,,53,Toledo,5,,,,,,,,,,,,,,,
null,,confidence_buffer,425041,confidence_buffer,,null,,,,,,,,,,,,,,,,,
2207,,pt2_unique_rating,427250,Toledo,,51,,3,,,,,,,,,,,,,,,
null,,confidence_buffer,427351,confidence_buffer,,null,,,,,,,,,,,,,,,,,
3596.60000000149,,pt2_memorable_rating,430949,Toledo,,52,,4,,,,,,,,,,,,,,,
null,,confidence_buffer,431051,confidence_buffer,,null,,,,,,,,,,,,,,,,,
3095.2000000029802,,recognition_phase,434147,Toledo,,52,,,,,new,1,1,,,,,,,,,,
null,,confidence_buffer,434249,confidence_buffer,,null,,,,,,,,,,,,,,,,,
null,,thebreak,434750,break,,null,,,,,,,,,,,,,,,,,
2908.10000000149,,realistic_rating,437659,Annapolis,,53,Annapolis,5,,,,,,,,,,,,,,,
null,,confidence_buffer,437761,confidence_buffer,,null,,,,,,,,,,,,,,,,,
3346.7999999970198,,pt2_unique_rating,441110,Annapolis,,53,,5,,,,,,,,,,,,,,,
null,,confidence_buffer,441212,confidence_buffer,,null,,,,,,,,,,,,,,,,,
2651.60000000149,,pt2_memorable_rating,443865,Annapolis,,53,,5,,,,,,,,,,,,,,,
null,,confidence_buffer,443968,confidence_buffer,,null,,,,,,,,,,,,,,,,,
1637.3999999985099,,recognition_phase,445608,Annapolis,,49,,,,,old,1,1,,,,,,,,,,
null,,confidence_buffer,445710,confidence_buffer,,null,,,,,,,,,,,,,,,,,
null,,thebreak,446212,break,,null,,,,,,,,,,,,,,,,,
2712,,realistic_rating,448926,Cambridge,,53,Cambridge,5,,,,,,,,,,,,,,,
null,,confidence_buffer,449027,confidence_buffer,,null,,,,,,,,,,,,,,,,,
2418,,pt2_unique_rating,451446,Cambridge,,51,,3,,,,,,,,,,,,,,,
null,,confidence_buffer,451548,confidence_buffer,,null,,,,,,,,,,,,,,,,,
2244.5,,pt2_memorable_rating,453794,Cambridge,,53,,5,,,,,,,,,,,,,,,
null,,confidence_buffer,453896,confidence_buffer,,null,,,,,,,,,,,,,,,,,
2255.7000000029802,,recognition_phase,456154,Cambridge,,52,,,,,new,1,1,,,,,,,,,,
null,,confidence_buffer,456258,confidence_buffer,,null,,,,,,,,,,,,,,,,,
null,,thebreak,456760,break,,null,,,,,,,,,,,,,,,,,
3925.3000000044703,,realistic_rating,460687,Newport News,,49,Newport News,1,,,,,,,,,,,,,,,
null,,confidence_buffer,460790,confidence_buffer,,null,,,,,,,,,,,,,,,,,
2617.2999999970198,,pt2_unique_rating,463410,Newport News,,51,,3,,,,,,,,,,,,,,,
null,,confidence_buffer,463512,confidence_buffer,,null,,,,,,,,,,,,,,,,,
2703.2000000029802,,pt2_memorable_rating,466216,Newport News,,51,,3,,,,,,,,,,,,,,,
null,,confidence_buffer,466318,confidence_buffer,,null,,,,,,,,,,,,,,,,,
2403.8000000044703,,recognition_phase,468724,Newport News,,49,,,,,old,1,1,,,,,,,,,,
null,,confidence_buffer,468826,confidence_buffer,,null,,,,,,,,,,,,,,,,,
null,,thebreak,469326,break,,null,,,,,,,,,,,,,,,,,
4045.5,,realistic_rating,473373,Ann Arbor,,53,Ann Arbor,5,,,,,,,,,,,,,,,
null,,confidence_buffer,473476,confidence_buffer,,null,,,,,,,,,,,,,,,,,
2377.1999999955297,,pt2_unique_rating,475855,Ann Arbor,,53,,5,,,,,,,,,,,,,,,
null,,confidence_buffer,475958,confidence_buffer,,null,,,,,,,,,,,,,,,,,
1724.1000000014901,,pt2_memorable_rating,477684,Ann Arbor,,53,,5,,,,,,,,,,,,,,,
null,,confidence_buffer,477786,confidence_buffer,,null,,,,,,,,,,,,,,,,,
1869.6000000014901,,recognition_phase,479657,Ann Arbor,,49,,,,,old,1,1,,,,,,,,,,
null,,confidence_buffer,479760,confidence_buffer,,null,,,,,,,,,,,,,,,,,
null,,thebreak,480263,break,,null,,,,,,,,,,,,,,,,,
7828.19999999553,,realistic_rating,488092,Bozeman,,53,Bozeman,5,,,,,,,,,,,,,,,
null,,confidence_buffer,488195,confidence_buffer,,null,,,,,,,,,,,,,,,,,
2980.7000000029802,,pt2_unique_rating,491177,Bozeman,,53,,5,,,,,,,,,,,,,,,
null,,confidence_buffer,491279,confidence_buffer,,null,,,,,,,,,,,,,,,,,
2007.1000000014901,,pt2_memorable_rating,493288,Bozeman,,53,,5,,,,,,,,,,,,,,,
null,,confidence_buffer,493391,confidence_buffer,,null,,,,,,,,,,,,,,,,,
2926.39999999851,,recognition_phase,496319,Bozeman,,50,,,,,old,0,0.875,,,,,,,,,,
null,,confidence_buffer,496421,confidence_buffer,,null,,,,,,,,,,,,,,,,,
null,,thebreak,496922,break,,null,,,,,,,,,,,,,,,,,
6232.70000000298,,realistic_rating,503157,New Haven,,53,New Haven,5,,,,,,,,,,,,,,,
null,,confidence_buffer,503259,confidence_buffer,,null,,,,,,,,,,,,,,,,,
2753.5,,pt2_unique_rating,506014,New Haven,,52,,4,,,,,,,,,,,,,,,
null,,confidence_buffer,506117,confidence_buffer,,null,,,,,,,,,,,,,,,,,
1775.8000000044703,,pt2_memorable_rating,507895,New Haven,,53,,5,,,,,,,,,,,,,,,
null,,confidence_buffer,507996,confidence_buffer,,null,,,,,,,,,,,,,,,,,
2121.2000000029802,,recognition_phase,510118,New Haven,,49,,,,,old,1,0.8888888888888888,,,,,,,,,,
null,,confidence_buffer,510221,confidence_buffer,,null,,,,,,,,,,,,,,,,,
null,,thebreak,510723,break,,null,,,,,,,,,,,,,,,,,
2661.4000000059605,,realistic_rating,513386,Pueblo,,53,Pueblo,5,,,,,,,,,,,,,,,
null,,confidence_buffer,513487,confidence_buffer,,null,,,,,,,,,,,,,,,,,
1780.8999999985099,,pt2_unique_rating,515269,Pueblo,,51,,3,,,,,,,,,,,,,,,
null,,confidence_buffer,515372,confidence_buffer,,null,,,,,,,,,,,,,,,,,
1699.3999999985099,,probe_rating,517073,probe_rating,,51,,,3,1,,,,,,,,,,,,,
null,,confidence_buffer,517175,confidence_buffer,,null,,,,,,,,,,,,,,,,,
3272.2000000029802,,pt2_memorable_rating,520449,Pueblo,,52,,4,,,,,,,,,,,,,,,
null,,confidence_buffer,520550,confidence_buffer,,null,,,,,,,,,,,,,,,,,
1624.3999999985099,,recognition_phase,522177,Pueblo,,49,,,,,old,1,0.9,,,,,,,,,,
null,,confidence_buffer,522279,confidence_buffer,,null,,,,,,,,,,,,,,,,,
null,,thebreak,522781,break,,null,,,,,,,,,,,,,,,,,
5358,,realistic_rating,528140,Dover,,53,Dover,5,,,,,,,,,,,,,,,
null,,confidence_buffer,528242,confidence_buffer,,null,,,,,,,,,,,,,,,,,
3148.2999999970198,,pt2_unique_rating,531391,Dover,,53,,5,,,,,,,,,,,,,,,
null,,confidence_buffer,531494,confidence_buffer,,null,,,,,,,,,,,,,,,,,
1858,,pt2_memorable_rating,533354,Dover,,53,,5,,,,,,,,,,,,,,,
null,,confidence_buffer,533456,confidence_buffer,,null,,,,,,,,,,,,,,,,,
4844.29999999702,,recognition_phase,538302,Dover,,50,,,,,old,0,0.8181818181818182,,,,,,,,,,
null,,confidence_buffer,538404,confidence_buffer,,null,,,,,,,,,,,,,,,,,
null,,thebreak,538906,break,,null,,,,,,,,,,,,,,,,,
4655.29999999702,,realistic_rating,543563,Norfolk,,53,Norfolk,5,,,,,,,,,,,,,,,
null,,confidence_buffer,543665,confidence_buffer,,null,,,,,,,,,,,,,,,,,
1441.1000000014901,,pt2_unique_rating,545108,Norfolk,,53,,5,,,,,,,,,,,,,,,
null,,confidence_buffer,545210,confidence_buffer,,null,,,,,,,,,,,,,,,,,
1547.2000000029802,,pt2_memorable_rating,546760,Norfolk,,53,,5,,,,,,,,,,,,,,,
null,,confidence_buffer,546863,confidence_buffer,,null,,,,,,,,,,,,,,,,,
1877.7000000029802,,recognition_phase,548743,Norfolk,,49,,,,,old,1,0.8333333333333334,,,,,,,,,,
null,,confidence_buffer,548845,confidence_buffer,,null,,,,,,,,,,,,,,,,,
null,,thebreak,549348,break,,null,,,,,,,,,,,,,,,,,
4789.10000000149,,realistic_rating,554138,Peoria,,53,Peoria,5,,,,,,,,,,,,,,,
null,,confidence_buffer,554240,confidence_buffer,,null,,,,,,,,,,,,,,,,,
2175.10000000149,,pt2_unique_rating,556417,Peoria,,53,,5,,,,,,,,,,,,,,,
null,,confidence_buffer,556520,confidence_buffer,,null,,,,,,,,,,,,,,,,,
2590.39999999851,,pt2_memorable_rating,559112,Peoria,,53,,5,,,,,,,,,,,,,,,
null,,confidence_buffer,559214,confidence_buffer,,null,,,,,,,,,,,,,,,,,
2150.89999999851,,probe_rating,561366,probe_rating,,49,,,1,1,,,,,,,,,,,,,
null,,confidence_buffer,561468,confidence_buffer,,null,,,,,,,,,,,,,,,,,
1425.6000000014901,,recognition_phase,562895,Peoria,,49,,,,,old,1,0.8461538461538461,,,,,,,,,,
null,,confidence_buffer,562998,confidence_buffer,,null,,,,,,,,,,,,,,,,,
null,,thebreak,563501,break,,null,,,,,,,,,,,,,,,,,
4749.89999999851,,realistic_rating,568252,Montpelier,,52,Montpelier,4,,,,,,,,,,,,,,,
null,,confidence_buffer,568354,confidence_buffer,,null,,,,,,,,,,,,,,,,,
2301.5,,pt2_unique_rating,570657,Montpelier,,53,,5,,,,,,,,,,,,,,,
null,,confidence_buffer,570759,confidence_buffer,,null,,,,,,,,,,,,,,,,,
2695.89999999851,,pt2_memorable_rating,573456,Montpelier,,51,,3,,,,,,,,,,,,,,,
null,,confidence_buffer,573559,confidence_buffer,,null,,,,,,,,,,,,,,,,,
2199.7000000029802,,probe_rating,575760,probe_rating,,51,,,3,1,,,,,,,,,,,,,
null,,confidence_buffer,575861,confidence_buffer,,null,,,,,,,,,,,,,,,,,
3279.60000000149,,recognition_phase,579143,Montpelier,,52,,,,,new,1,0.8571428571428571,,,,,,,,,,
null,,confidence_buffer,579245,confidence_buffer,,null,,,,,,,,,,,,,,,,,
null,,thebreak,579747,break,,null,,,,,,,,,,,,,,,,,
3774.0999999940395,,realistic_rating,583523,Boulder,,53,Boulder,5,,,,,,,,,,,,,,,
null,,confidence_buffer,583625,confidence_buffer,,null,,,,,,,,,,,,,,,,,
2326.60000000149,,pt2_unique_rating,585954,Boulder,,51,,3,,,,,,,,,,,,,,,
null,,confidence_buffer,586064,confidence_buffer,,null,,,,,,,,,,,,,,,,,
2886.5,,pt2_memorable_rating,588952,Boulder,,53,,5,,,,,,,,,,,,,,,
null,,confidence_buffer,589055,confidence_buffer,,null,,,,,,,,,,,,,,,,,
1888.1000000014901,,recognition_phase,590944,Boulder,,49,,,,,old,0,0.8,,,,,,,,,,
null,,confidence_buffer,591046,confidence_buffer,,null,,,,,,,,,,,,,,,,,
null,,thebreak,591547,break,,null,,,,,,,,,,,,,,,,,
2996.2999999970198,,realistic_rating,594545,Burlington,,53,Burlington,5,,,,,,,,,,,,,,,
null,,confidence_buffer,594649,confidence_buffer,,null,,,,,,,,,,,,,,,,,
3479,,pt2_unique_rating,598130,Burlington,,51,,3,,,,,,,,,,,,,,,
null,,confidence_buffer,598232,confidence_buffer,,null,,,,,,,,,,,,,,,,,
3034.5999999940395,,pt2_memorable_rating,601268,Burlington,,53,,5,,,,,,,,,,,,,,,
null,,confidence_buffer,601370,confidence_buffer,,null,,,,,,,,,,,,,,,,,
1997.5,,recognition_phase,603370,Burlington,,49,,,,,old,1,0.8125,,,,,,,,,,
null,,confidence_buffer,603474,confidence_buffer,,null,,,,,,,,,,,,,,,,,
null,,thebreak,603978,break,,null,,,,,,,,,,,,,,,,,
4822.89999999851,,realistic_rating,608802,Las Cruces,,52,Las Cruces,4,,,,,,,,,,,,,,,
null,,confidence_buffer,608906,confidence_buffer,,null,,,,,,,,,,,,,,,,,
1899,,pt2_unique_rating,610807,Las Cruces,,52,,4,,,,,,,,,,,,,,,
null,,confidence_buffer,610910,confidence_buffer,,null,,,,,,,,,,,,,,,,,
2419.10000000149,,pt2_memorable_rating,613331,Las Cruces,,51,,3,,,,,,,,,,,,,,,
null,,confidence_buffer,613434,confidence_buffer,,null,,,,,,,,,,,,,,,,,
2826.0999999940395,,recognition_phase,616262,Las Cruces,,51,,,,,new,1,0.8235294117647058,,,,,,,,,,
null,,confidence_buffer,616364,confidence_buffer,,null,,,,,,,,,,,,,,,,,
null,,thebreak,616865,break,,null,,,,,,,,,,,,,,,,,
3748.2000000029802,,realistic_rating,620616,Santa Monica,,53,Santa Monica,5,,,,,,,,,,,,,,,
null,,confidence_buffer,620717,confidence_buffer,,null,,,,,,,,,,,,,,,,,
2657.7999999970198,,pt2_unique_rating,623376,Santa Monica,,51,,3,,,,,,,,,,,,,,,
null,,confidence_buffer,623479,confidence_buffer,,null,,,,,,,,,,,,,,,,,
1721.2999999970198,,probe_rating,625202,probe_rating,,52,,,4,1,,,,,,,,,,,,,
null,,confidence_buffer,625304,confidence_buffer,,null,,,,,,,,,,,,,,,,,
2077.8000000044703,,pt2_memorable_rating,627384,Santa Monica,,53,,5,,,,,,,,,,,,,,,
null,,confidence_buffer,627487,confidence_buffer,,null,,,,,,,,,,,,,,,,,
5311.80000000447,,recognition_phase,632801,Santa Monica,,52,,,,,new,1,0.8333333333333334,,,,,,,,,,
null,,confidence_buffer,632904,confidence_buffer,,null,,,,,,,,,,,,,,,,,
null,,thebreak,633406,break,,null,,,,,,,,,,,,,,,,,
2980.8000000044703,,realistic_rating,636389,Decatur,,53,Decatur,5,,,,,,,,,,,,,,,
null,,confidence_buffer,636492,confidence_buffer,,null,,,,,,,,,,,,,,,,,
1216.1000000014901,,pt2_unique_rating,637710,Decatur,,53,,5,,,,,,,,,,,,,,,
null,,confidence_buffer,637812,confidence_buffer,,null,,,,,,,,,,,,,,,,,
1699,,pt2_memorable_rating,639513,Decatur,,53,,5,,,,,,,,,,,,,,,
null,,confidence_buffer,639615,confidence_buffer,,null,,,,,,,,,,,,,,,,,
3075.8000000044703,,recognition_phase,642693,Decatur,,52,,,,,new,1,0.8421052631578947,,,,,,,,,,
null,,confidence_buffer,642796,confidence_buffer,,null,,,,,,,,,,,,,,,,,
null,,thebreak,643298,break,,null,,,,,,,,,,,,,,,,,
3048.2999999970198,,realistic_rating,646348,Pasadena,,53,Pasadena,5,,,,,,,,,,,,,,,
null,,confidence_buffer,646450,confidence_buffer,,null,,,,,,,,,,,,,,,,,
2696.10000000149,,pt2_unique_rating,649147,Pasadena,,53,,5,,,,,,,,,,,,,,,
null,,confidence_buffer,649250,confidence_buffer,,null,,,,,,,,,,,,,,,,,
1871,,pt2_memorable_rating,651123,Pasadena,,53,,5,,,,,,,,,,,,,,,
null,,confidence_buffer,651224,confidence_buffer,,null,,,,,,,,,,,,,,,,,
1673.7000000029802,,recognition_phase,652900,Pasadena,,49,,,,,old,1,0.85,,,,,,,,,,
null,,confidence_buffer,653002,confidence_buffer,,null,,,,,,,,,,,,,,,,,
null,,thebreak,653503,break,,null,,,,,,,,,,,,,,,,,
4980.29999999702,,realistic_rating,658486,Stamford,,50,Stamford,2,,,,,,,,,,,,,,,
null,,confidence_buffer,658588,confidence_buffer,,null,,,,,,,,,,,,,,,,,
2209,,probe_rating,660799,probe_rating,,53,,,5,1,,,,,,,,,,,,,
null,,confidence_buffer,660901,confidence_buffer,,null,,,,,,,,,,,,,,,,,
3777.39999999851,,pt2_unique_rating,664680,Stamford,,52,,4,,,,,,,,,,,,,,,
null,,confidence_buffer,664781,confidence_buffer,,null,,,,,,,,,,,,,,,,,
2035.5,,pt2_memorable_rating,666818,Stamford,,50,,2,,,,,,,,,,,,,,,
null,,confidence_buffer,666920,confidence_buffer,,null,,,,,,,,,,,,,,,,,
2499.7000000029802,,recognition_phase,669422,Stamford,,52,,,,,new,1,0.8571428571428571,,,,,,,,,,
null,,confidence_buffer,669524,confidence_buffer,,null,,,,,,,,,,,,,,,,,
null,,thebreak,670025,break,,null,,,,,,,,,,,,,,,,,
10832.5,,realistic_rating,680859,Youngstown,,52,Youngstown,4,,,,,,,,,,,,,,,
null,,confidence_buffer,680961,confidence_buffer,,null,,,,,,,,,,,,,,,,,
2339.89999999851,,pt2_unique_rating,683303,Youngstown,,50,,2,,,,,,,,,,,,,,,
null,,confidence_buffer,683404,confidence_buffer,,null,,,,,,,,,,,,,,,,,
2005.5,,pt2_memorable_rating,685411,Youngstown,,51,,3,,,,,,,,,,,,,,,
null,,confidence_buffer,685513,confidence_buffer,,null,,,,,,,,,,,,,,,,,
2158.60000000149,,recognition_phase,687673,Youngstown,,49,,,,,old,1,0.8636363636363636,,,,,,,,,,
null,,confidence_buffer,687776,confidence_buffer,,null,,,,,,,,,,,,,,,,,
null,,thebreak,688277,break,,null,,,,,,,,,,,,,,,,,
5448.9000000059605,,realistic_rating,693729,Fort Wayne,,53,Fort Wayne,5,,,,,,,,,,,,,,,
null,,confidence_buffer,693831,confidence_buffer,,null,,,,,,,,,,,,,,,,,
2230.5,,pt2_unique_rating,696063,Fort Wayne,,50,,2,,,,,,,,,,,,,,,
null,,confidence_buffer,696166,confidence_buffer,,null,,,,,,,,,,,,,,,,,
1975.5,,pt2_memorable_rating,698143,Fort Wayne,,51,,3,,,,,,,,,,,,,,,
null,,confidence_buffer,698244,confidence_buffer,,null,,,,,,,,,,,,,,,,,
3448.7000000029802,,recognition_phase,701694,Fort Wayne,,50,,,,,old,0,0.8260869565217391,,,,,,,,,,
null,,confidence_buffer,701796,confidence_buffer,,null,,,,,,,,,,,,,,,,,
null,,thebreak,702299,break,,null,,,,,,,,,,,,,,,,,
5737.5,,realistic_rating,708038,Dubuque,,51,Dubuque,3,,,,,,,,,,,,,,,
null,,confidence_buffer,708140,confidence_buffer,,null,,,,,,,,,,,,,,,,,
1781.4000000059605,,probe_rating,709923,probe_rating,,52,,,4,1,,,,,,,,,,,,,
null,,confidence_buffer,710025,confidence_buffer,,null,,,,,,,,,,,,,,,,,
2812.5999999940395,,pt2_unique_rating,712840,Dubuque,,53,,5,,,,,,,,,,,,,,,
null,,confidence_buffer,712942,confidence_buffer,,null,,,,,,,,,,,,,,,,,
2440.89999999851,,pt2_memorable_rating,715385,Dubuque,,51,,3,,,,,,,,,,,,,,,
null,,confidence_buffer,715487,confidence_buffer,,null,,,,,,,,,,,,,,,,,
3224.10000000149,,recognition_phase,718713,Dubuque,,51,,,,,new,1,0.8333333333333334,,,,,,,,,,
null,,confidence_buffer,718816,confidence_buffer,,null,,,,,,,,,,,,,,,,,
null,,thebreak,719318,break,,null,,,,,,,,,,,,,,,,,
5042.4000000059605,,realistic_rating,724362,Berkeley,,53,Berkeley,5,,,,,,,,,,,,,,,
null,,confidence_buffer,724466,confidence_buffer,,null,,,,,,,,,,,,,,,,,
1922.3999999985099,,pt2_unique_rating,726390,Berkeley,,52,,4,,,,,,,,,,,,,,,
null,,confidence_buffer,726493,confidence_buffer,,null,,,,,,,,,,,,,,,,,
1448.3999999985099,,pt2_memorable_rating,727943,Berkeley,,53,,5,,,,,,,,,,,,,,,
null,,confidence_buffer,728045,confidence_buffer,,null,,,,,,,,,,,,,,,,,
1671.9000000059605,,recognition_phase,729719,Berkeley,,49,,,,,old,1,0.84,,,,,,,,,,
null,,confidence_buffer,729821,confidence_buffer,,null,,,,,,,,,,,,,,,,,
null,,thebreak,730322,break,,null,,,,,,,,,,,,,,,,,
4504.19999999553,,realistic_rating,734829,Scottsdale,,53,Scottsdale,5,,,,,,,,,,,,,,,
null,,confidence_buffer,734932,confidence_buffer,,null,,,,,,,,,,,,,,,,,
2135.60000000149,,pt2_unique_rating,737070,Scottsdale,,51,,3,,,,,,,,,,,,,,,
null,,confidence_buffer,737172,confidence_buffer,,null,,,,,,,,,,,,,,,,,
1744.2000000029802,,pt2_memorable_rating,738918,Scottsdale,,51,,3,,,,,,,,,,,,,,,
null,,confidence_buffer,739019,confidence_buffer,,null,,,,,,,,,,,,,,,,,
3135,,recognition_phase,742155,Scottsdale,,51,,,,,new,1,0.8461538461538461,,,,,,,,,,
null,,confidence_buffer,742258,confidence_buffer,,null,,,,,,,,,,,,,,,,,
null,,thebreak,742760,break,,null,,,,,,,,,,,,,,,,,
2644.6999999955297,,realistic_rating,745407,Tallahassee,,53,Tallahassee,5,,,,,,,,,,,,,,,
null,,confidence_buffer,745509,confidence_buffer,,null,,,,,,,,,,,,,,,,,
1428.8999999985099,,pt2_unique_rating,746939,Tallahassee,,53,,5,,,,,,,,,,,,,,,
null,,confidence_buffer,747042,confidence_buffer,,null,,,,,,,,,,,,,,,,,
1321.0999999940395,,pt2_memorable_rating,748364,Tallahassee,,53,,5,,,,,,,,,,,,,,,
null,,confidence_buffer,748467,confidence_buffer,,null,,,,,,,,,,,,,,,,,
1501.8000000044703,,probe_rating,749970,probe_rating,,50,,,2,1,,,,,,,,,,,,,
null,,confidence_buffer,750072,confidence_buffer,,null,,,,,,,,,,,,,,,,,
3037.5,,recognition_phase,753111,Tallahassee,,52,,,,,new,1,0.8518518518518519,,,,,,,,,,
null,,confidence_buffer,753213,confidence_buffer,,null,,,,,,,,,,,,,,,,,
null,,thebreak,753719,break,,null,,,,,,,,,,,,,,,,,
2702.7999999970198,,realistic_rating,756423,Olympia,,53,Olympia,5,,,,,,,,,,,,,,,
null,,confidence_buffer,756526,confidence_buffer,,null,,,,,,,,,,,,,,,,,
2037.6999999955297,,pt2_unique_rating,758565,Olympia,,50,,2,,,,,,,,,,,,,,,
null,,confidence_buffer,758667,confidence_buffer,,null,,,,,,,,,,,,,,,,,
2070.3000000044703,,pt2_memorable_rating,760740,Olympia,,53,,5,,,,,,,,,,,,,,,
null,,confidence_buffer,760843,confidence_buffer,,null,,,,,,,,,,,,,,,,,
1556.3000000044703,,recognition_phase,762401,Olympia,,49,,,,,old,1,0.8571428571428571,,,,,,,,,,
null,,confidence_buffer,762503,confidence_buffer,,null,,,,,,,,,,,,,,,,,
null,,thebreak,763005,break,,null,,,,,,,,,,,,,,,,,
3221.6999999955297,,realistic_rating,766229,Carson City,,53,Carson City,5,,,,,,,,,,,,,,,
null,,confidence_buffer,766332,confidence_buffer,,null,,,,,,,,,,,,,,,,,
3381,,pt2_unique_rating,769714,Carson City,,51,,3,,,,,,,,,,,,,,,
null,,confidence_buffer,769827,confidence_buffer,,null,,,,,,,,,,,,,,,,,
1503.5999999940395,,pt2_memorable_rating,771332,Carson City,,53,,5,,,,,,,,,,,,,,,
null,,confidence_buffer,771435,confidence_buffer,,null,,,,,,,,,,,,,,,,,
2150,,probe_rating,773587,probe_rating,,52,,,4,1,,,,,,,,,,,,,
null,,confidence_buffer,773691,confidence_buffer,,null,,,,,,,,,,,,,,,,,
3097.10000000149,,recognition_phase,776790,Carson City,,49,,,,,old,1,0.8620689655172413,,,,,,,,,,
null,,confidence_buffer,776893,confidence_buffer,,null,,,,,,,,,,,,,,,,,
null,,thebreak,777409,break,,null,,,,,,,,,,,,,,,,,
2750.39999999851,,realistic_rating,780161,Reno,,53,Reno,5,,,,,,,,,,,,,,,
null,,confidence_buffer,780262,confidence_buffer,,null,,,,,,,,,,,,,,,,,
2178.5,,pt2_unique_rating,782442,Reno,,53,,5,,,,,,,,,,,,,,,
null,,confidence_buffer,782543,confidence_buffer,,null,,,,,,,,,,,,,,,,,
1765,,pt2_memorable_rating,784310,Reno,,53,,5,,,,,,,,,,,,,,,
null,,confidence_buffer,784412,confidence_buffer,,null,,,,,,,,,,,,,,,,,
2183.89999999851,,recognition_phase,786597,Reno,,52,,,,,new,1,0.8666666666666667,,,,,,,,,,
null,,confidence_buffer,786700,confidence_buffer,,null,,,,,,,,,,,,,,,,,
null,,thebreak,787202,break,,null,,,,,,,,,,,,,,,,,
2405.10000000149,,realistic_rating,789609,Muncie,,53,Muncie,5,,,,,,,,,,,,,,,
null,,confidence_buffer,789711,confidence_buffer,,null,,,,,,,,,,,,,,,,,
3227.39999999851,,pt2_unique_rating,792941,Muncie,,53,,5,,,,,,,,,,,,,,,
null,,confidence_buffer,793044,confidence_buffer,,null,,,,,,,,,,,,,,,,,
1964.2999999970198,,pt2_memorable_rating,795010,Muncie,,53,,5,,,,,,,,,,,,,,,
null,,confidence_buffer,795112,confidence_buffer,,null,,,,,,,,,,,,,,,,,
2050.39999999851,,recognition_phase,797164,Muncie,,52,,,,,new,1,0.8709677419354839,,,,,,,,,,
null,,confidence_buffer,797267,confidence_buffer,,null,,,,,,,,,,,,,,,,,
null,,thebreak,797768,break,,null,,,,,,,,,,,,,,,,,
3038.60000000149,,realistic_rating,800808,Abilene,,53,Abilene,5,,,,,,,,,,,,,,,
null,,confidence_buffer,800910,confidence_buffer,,null,,,,,,,,,,,,,,,,,
2238.7999999970198,,pt2_unique_rating,803150,Abilene,,53,,5,,,,,,,,,,,,,,,
null,,confidence_buffer,803252,confidence_buffer,,null,,,,,,,,,,,,,,,,,
1754.8999999985099,,pt2_memorable_rating,805009,Abilene,,53,,5,,,,,,,,,,,,,,,
null,,confidence_buffer,805110,confidence_buffer,,null,,,,,,,,,,,,,,,,,
2284.2999999970198,,recognition_phase,807396,Abilene,,51,,,,,new,1,0.875,,,,,,,,,,
null,,confidence_buffer,807498,confidence_buffer,,null,,,,,,,,,,,,,,,,,
null,,thebreak,807999,break,,null,,,,,,,,,,,,,,,,,
3201,,realistic_rating,811201,Cheyenne,,53,Cheyenne,5,,,,,,,,,,,,,,,
null,,confidence_buffer,811304,confidence_buffer,,null,,,,,,,,,,,,,,,,,
3595.2000000029802,,pt2_unique_rating,814901,Cheyenne,,51,,3,,,,,,,,,,,,,,,
null,,confidence_buffer,815003,confidence_buffer,,null,,,,,,,,,,,,,,,,,
1910.8000000044703,,pt2_memorable_rating,816916,Cheyenne,,53,,5,,,,,,,,,,,,,,,
null,,confidence_buffer,817018,confidence_buffer,,null,,,,,,,,,,,,,,,,,
2926.7000000029802,,recognition_phase,819946,Cheyenne,,51,,,,,new,1,0.8787878787878788,,,,,,,,,,
null,,confidence_buffer,820048,confidence_buffer,,null,,,,,,,,,,,,,,,,,
null,,thebreak,820551,break,,null,,,,,,,,,,,,,,,,,
2541.1999999955297,,realistic_rating,823094,Palo Alto,,53,Palo Alto,5,,,,,,,,,,,,,,,
null,,confidence_buffer,823196,confidence_buffer,,null,,,,,,,,,,,,,,,,,
3431.39999999851,,pt2_unique_rating,826629,Palo Alto,,53,,5,,,,,,,,,,,,,,,
null,,confidence_buffer,826730,confidence_buffer,,null,,,,,,,,,,,,,,,,,
1289.3000000044703,,pt2_memorable_rating,828021,Palo Alto,,53,,5,,,,,,,,,,,,,,,
null,,confidence_buffer,828123,confidence_buffer,,null,,,,,,,,,,,,,,,,,
1590.8999999985099,,recognition_phase,829715,Palo Alto,,49,,,,,old,1,0.8823529411764706,,,,,,,,,,
null,,confidence_buffer,829818,confidence_buffer,,null,,,,,,,,,,,,,,,,,
null,,thebreak,830319,break,,null,,,,,,,,,,,,,,,,,
3392.7000000029802,,realistic_rating,833713,Yakima,,53,Yakima,5,,,,,,,,,,,,,,,
null,,confidence_buffer,833816,confidence_buffer,,null,,,,,,,,,,,,,,,,,
1707,,pt2_unique_rating,835525,Yakima,,53,,5,,,,,,,,,,,,,,,
null,,confidence_buffer,835627,confidence_buffer,,null,,,,,,,,,,,,,,,,,
1500.2999999970198,,pt2_memorable_rating,837129,Yakima,,53,,5,,,,,,,,,,,,,,,
null,,confidence_buffer,837231,confidence_buffer,,null,,,,,,,,,,,,,,,,,
1958.1000000014901,,recognition_phase,839191,Yakima,,52,,,,,new,1,0.8857142857142857,,,,,,,,,,
null,,confidence_buffer,839294,confidence_buffer,,null,,,,,,,,,,,,,,,,,
null,,thebreak,839796,break,,null,,,,,,,,,,,,,,,,,
3704.60000000149,,realistic_rating,843503,Salem,,53,Salem,5,,,,,,,,,,,,,,,
null,,confidence_buffer,843605,confidence_buffer,,null,,,,,,,,,,,,,,,,,
1525.7000000029802,,pt2_unique_rating,845132,Salem,,51,,3,,,,,,,,,,,,,,,
null,,confidence_buffer,845234,confidence_buffer,,null,,,,,,,,,,,,,,,,,
1913.2999999970198,,pt2_memorable_rating,847149,Salem,,53,,5,,,,,,,,,,,,,,,
null,,confidence_buffer,847250,confidence_buffer,,null,,,,,,,,,,,,,,,,,
1817.8000000044703,,recognition_phase,849070,Salem,,52,,,,,new,1,0.8888888888888888,,,,,,,,,,
null,,confidence_buffer,849172,confidence_buffer,,null,,,,,,,,,,,,,,,,,
null,,thebreak,849674,break,,null,,,,,,,,,,,,,,,,,
2343.5999999940395,,realistic_rating,852020,Fargo,,53,Fargo,5,,,,,,,,,,,,,,,
null,,confidence_buffer,852122,confidence_buffer,,null,,,,,,,,,,,,,,,,,
5451.5,,pt2_unique_rating,857576,Fargo,,52,,4,,,,,,,,,,,,,,,
null,,confidence_buffer,857677,confidence_buffer,,null,,,,,,,,,,,,,,,,,
1795.8000000044703,,pt2_memorable_rating,859474,Fargo,,53,,5,,,,,,,,,,,,,,,
null,,confidence_buffer,859575,confidence_buffer,,null,,,,,,,,,,,,,,,,,
1735.2000000029802,,recognition_phase,861312,Fargo,,49,,,,,old,1,0.8918918918918919,,,,,,,,,,
null,,confidence_buffer,861414,confidence_buffer,,null,,,,,,,,,,,,,,,,,
null,,thebreak,861916,break,,null,,,,,,,,,,,,,,,,,
3644.2000000029802,,realistic_rating,865562,Helena,,53,Helena,5,,,,,,,,,,,,,,,
null,,confidence_buffer,865664,confidence_buffer,,null,,,,,,,,,,,,,,,,,
1919.3000000044703,,pt2_unique_rating,867585,Helena,,53,,5,,,,,,,,,,,,,,,
null,,confidence_buffer,867699,confidence_buffer,,null,,,,,,,,,,,,,,,,,
1046.5,,pt2_memorable_rating,868746,Helena,,53,,5,,,,,,,,,,,,,,,
null,,confidence_buffer,868848,confidence_buffer,,null,,,,,,,,,,,,,,,,,
1677.9000000059605,,recognition_phase,870527,Helena,,49,,,,,old,1,0.8947368421052632,,,,,,,,,,
null,,confidence_buffer,870630,confidence_buffer,,null,,,,,,,,,,,,,,,,,
null,,thebreak,871132,break,,null,,,,,,,,,,,,,,,,,
4580.9000000059605,,realistic_rating,875715,Marquette,,52,Marquette,4,,,,,,,,,,,,,,,
null,,confidence_buffer,875816,confidence_buffer,,null,,,,,,,,,,,,,,,,,
2917.7999999970198,,pt2_unique_rating,878735,Marquette,,52,,4,,,,,,,,,,,,,,,
null,,confidence_buffer,878837,confidence_buffer,,null,,,,,,,,,,,,,,,,,
2391.10000000149,,pt2_memorable_rating,881230,Marquette,,52,,4,,,,,,,,,,,,,,,
null,,confidence_buffer,881333,confidence_buffer,,null,,,,,,,,,,,,,,,,,
2716.5,,recognition_phase,884051,Marquette,,51,,,,,new,0,0.8717948717948718,,,,,,,,,,
null,,confidence_buffer,884153,confidence_buffer,,null,,,,,,,,,,,,,,,,,
null,,thebreak,884654,break,,null,,,,,,,,,,,,,,,,,
3419.5,,realistic_rating,888075,Concord,,53,Concord,5,,,,,,,,,,,,,,,
null,,confidence_buffer,888177,confidence_buffer,,null,,,,,,,,,,,,,,,,,
1698.7999999970198,,probe_rating,889878,probe_rating,,50,,,2,1,,,,,,,,,,,,,
null,,confidence_buffer,889981,confidence_buffer,,null,,,,,,,,,,,,,,,,,
3462.7999999970198,,pt2_unique_rating,893446,Concord,,52,,4,,,,,,,,,,,,,,,
null,,confidence_buffer,893548,confidence_buffer,,null,,,,,,,,,,,,,,,,,
3028.2000000029802,,pt2_memorable_rating,896578,Concord,,53,,5,,,,,,,,,,,,,,,
null,,confidence_buffer,896680,confidence_buffer,,null,,,,,,,,,,,,,,,,,
2127.0999999940395,,recognition_phase,898809,Concord,,52,,,,,new,1,0.875,,,,,,,,,,
null,,confidence_buffer,898911,confidence_buffer,,null,,,,,,,,,,,,,,,,,
null,,thebreak,899413,break,,null,,,,,,,,,,,,,,,,,
4643.39999999851,,realistic_rating,904058,Rock Springs,,52,Rock Springs,4,,,,,,,,,,,,,,,
null,,confidence_buffer,904160,confidence_buffer,,null,,,,,,,,,,,,,,,,,
2235.7000000029802,,pt2_unique_rating,906397,Rock Springs,,51,,3,,,,,,,,,,,,,,,
null,,confidence_buffer,906499,confidence_buffer,,null,,,,,,,,,,,,,,,,,
2256.60000000149,,pt2_memorable_rating,908758,Rock Springs,,52,,4,,,,,,,,,,,,,,,
null,,confidence_buffer,908861,confidence_buffer,,null,,,,,,,,,,,,,,,,,
2986.7999999970198,,recognition_phase,911849,Rock Springs,,50,,,,,old,1,0.8780487804878049,,,,,,,,,,
null,,confidence_buffer,911952,confidence_buffer,,null,,,,,,,,,,,,,,,,,
null,,thebreak,912453,break,,null,,,,,,,,,,,,,,,,,
2327.3000000044703,,realistic_rating,914782,Ithaca,,53,Ithaca,5,,,,,,,,,,,,,,,
null,,confidence_buffer,914885,confidence_buffer,,null,,,,,,,,,,,,,,,,,
2594.0999999940395,,pt2_unique_rating,917482,Ithaca,,53,,5,,,,,,,,,,,,,,,
null,,confidence_buffer,917583,confidence_buffer,,null,,,,,,,,,,,,,,,,,
2418.10000000149,,pt2_memorable_rating,920002,Ithaca,,53,,5,,,,,,,,,,,,,,,
null,,confidence_buffer,920105,confidence_buffer,,null,,,,,,,,,,,,,,,,,
2165.6999999955297,,recognition_phase,922273,Ithaca,,52,,,,,new,1,0.8809523809523809,,,,,,,,,,
null,,confidence_buffer,922375,confidence_buffer,,null,,,,,,,,,,,,,,,,,
null,,thebreak,922877,break,,null,,,,,,,,,,,,,,,,,
8284.89999999851,,realistic_rating,931163,McKinney,,50,McKinney,2,,,,,,,,,,,,,,,
null,,confidence_buffer,931265,confidence_buffer,,null,,,,,,,,,,,,,,,,,
4161,,pt2_unique_rating,935427,McKinney,,51,,3,,,,,,,,,,,,,,,
null,,confidence_buffer,935530,confidence_buffer,,null,,,,,,,,,,,,,,,,,
2900.2000000029802,,pt2_memorable_rating,938431,McKinney,,50,,2,,,,,,,,,,,,,,,
null,,confidence_buffer,938533,confidence_buffer,,null,,,,,,,,,,,,,,,,,
2477.4000000059605,,recognition_phase,941011,McKinney,,51,,,,,new,1,0.8837209302325582,,,,,,,,,,
null,,confidence_buffer,941114,confidence_buffer,,null,,,,,,,,,,,,,,,,,
null,,thebreak,941616,break,,null,,,,,,,,,,,,,,,,,
2700.5,,realistic_rating,944318,Frankfort,,49,Frankfort,1,,,,,,,,,,,,,,,
null,,confidence_buffer,944421,confidence_buffer,,null,,,,,,,,,,,,,,,,,
2838.10000000149,,pt2_unique_rating,947262,Frankfort,,51,,3,,,,,,,,,,,,,,,
null,,confidence_buffer,947365,confidence_buffer,,null,,,,,,,,,,,,,,,,,
2134.2000000029802,,pt2_memorable_rating,949500,Frankfort,,50,,2,,,,,,,,,,,,,,,
null,,confidence_buffer,949602,confidence_buffer,,null,,,,,,,,,,,,,,,,,
2474.0999999940395,,recognition_phase,952078,Frankfort,,49,,,,,old,1,0.8863636363636364,,,,,,,,,,
null,,confidence_buffer,952181,confidence_buffer,,null,,,,,,,,,,,,,,,,,
null,,thebreak,952683,break,,null,,,,,,,,,,,,,,,,,
3196.2000000029802,,realistic_rating,955882,Syracuse,,53,Syracuse,5,,,,,,,,,,,,,,,
null,,confidence_buffer,955984,confidence_buffer,,null,,,,,,,,,,,,,,,,,
2167,,probe_rating,958153,probe_rating,,53,,,5,1,,,,,,,,,,,,,
null,,confidence_buffer,958255,confidence_buffer,,null,,,,,,,,,,,,,,,,,
3510.10000000149,,pt2_unique_rating,961767,Syracuse,,50,,2,,,,,,,,,,,,,,,
null,,confidence_buffer,961869,confidence_buffer,,null,,,,,,,,,,,,,,,,,
2432.7000000029802,,pt2_memorable_rating,964304,Syracuse,,53,,5,,,,,,,,,,,,,,,
null,,confidence_buffer,964407,confidence_buffer,,null,,,,,,,,,,,,,,,,,
4788,,recognition_phase,969196,Syracuse,,51,,,,,new,1,0.8888888888888888,,,,,,,,,,
null,,confidence_buffer,969298,confidence_buffer,,null,,,,,,,,,,,,,,,,,
null,,thebreak,969800,break,,null,,,,,,,,,,,,,,,,,
2844.60000000149,,realistic_rating,972647,Gainesville,,53,Gainesville,5,,,,,,,,,,,,,,,
null,,confidence_buffer,972749,confidence_buffer,,null,,,,,,,,,,,,,,,,,
1792,,probe_rating,974543,probe_rating,,51,,,3,1,,,,,,,,,,,,,
null,,confidence_buffer,974654,confidence_buffer,,null,,,,,,,,,,,,,,,,,
2949,,pt2_unique_rating,977605,Gainesville,,52,,4,,,,,,,,,,,,,,,
null,,confidence_buffer,977707,confidence_buffer,,null,,,,,,,,,,,,,,,,,
2379.6999999955297,,pt2_memorable_rating,980087,Gainesville,,53,,5,,,,,,,,,,,,,,,
null,,confidence_buffer,980189,confidence_buffer,,null,,,,,,,,,,,,,,,,,
2288.39999999851,,recognition_phase,982479,Gainesville,,50,,,,,old,0,0.8695652173913043,,,,,,,,,,
null,,confidence_buffer,982581,confidence_buffer,,null,,,,,,,,,,,,,,,,,
null,,thebreak,983083,break,,null,,,,,,,,,,,,,,,,,
3105.8000000044703,,realistic_rating,986191,Fort Collins,,53,Fort Collins,5,,,,,,,,,,,,,,,
null,,confidence_buffer,986295,confidence_buffer,,null,,,,,,,,,,,,,,,,,
2287.2999999970198,,pt2_unique_rating,988584,Fort Collins,,51,,3,,,,,,,,,,,,,,,
null,,confidence_buffer,988686,confidence_buffer,,null,,,,,,,,,,,,,,,,,
1763.8999999985099,,pt2_memorable_rating,990451,Fort Collins,,51,,3,,,,,,,,,,,,,,,
null,,confidence_buffer,990553,confidence_buffer,,null,,,,,,,,,,,,,,,,,
3997.8000000044703,,recognition_phase,994552,Fort Collins,,50,,,,,old,1,0.8723404255319149,,,,,,,,,,
null,,confidence_buffer,994654,confidence_buffer,,null,,,,,,,,,,,,,,,,,
null,,thebreak,995155,break,,null,,,,,,,,,,,,,,,,,
2204.5,,realistic_rating,997361,Topeka,,53,Topeka,5,,,,,,,,,,,,,,,
null,,confidence_buffer,997463,confidence_buffer,,null,,,,,,,,,,,,,,,,,
2797.0999999940395,,pt2_unique_rating,1000262,Topeka,,53,,5,,,,,,,,,,,,,,,
null,,confidence_buffer,1000364,confidence_buffer,,null,,,,,,,,,,,,,,,,,
1726.2999999970198,,pt2_memorable_rating,1002092,Topeka,,53,,5,,,,,,,,,,,,,,,
null,,confidence_buffer,1002194,confidence_buffer,,null,,,,,,,,,,,,,,,,,
2456.89999999851,,recognition_phase,1004652,Topeka,,50,,,,,old,1,0.875,,,,,,,,,,
null,,confidence_buffer,1004754,confidence_buffer,,null,,,,,,,,,,,,,,,,,
null,,thebreak,1005255,break,,null,,,,,,,,,,,,,,,,,
6531,,realistic_rating,1011788,Dothan,,49,Dothan,1,,,,,,,,,,,,,,,
null,,confidence_buffer,1011892,confidence_buffer,,null,,,,,,,,,,,,,,,,,
2685.7999999970198,,pt2_unique_rating,1014580,Dothan,,50,,2,,,,,,,,,,,,,,,
null,,confidence_buffer,1014683,confidence_buffer,,null,,,,,,,,,,,,,,,,,
1907.1000000014901,,pt2_memorable_rating,1016592,Dothan,,50,,2,,,,,,,,,,,,,,,
null,,confidence_buffer,1016694,confidence_buffer,,null,,,,,,,,,,,,,,,,,
2755,,recognition_phase,1019451,Dothan,,50,,,,,old,1,0.8775510204081632,,,,,,,,,,
null,,confidence_buffer,1019553,confidence_buffer,,null,,,,,,,,,,,,,,,,,
null,,thebreak,1020054,break,,null,,,,,,,,,,,,,,,,,
2267.5999999940395,,realistic_rating,1022324,Athens,,53,Athens,5,,,,,,,,,,,,,,,
null,,confidence_buffer,1022426,confidence_buffer,,null,,,,,,,,,,,,,,,,,
3533.4000000059605,,pt2_unique_rating,1025961,Athens,,51,,3,,,,,,,,,,,,,,,
null,,confidence_buffer,1026063,confidence_buffer,,null,,,,,,,,,,,,,,,,,
1677.2999999970198,,pt2_memorable_rating,1027742,Athens,,53,,5,,,,,,,,,,,,,,,
null,,confidence_buffer,1027845,confidence_buffer,,null,,,,,,,,,,,,,,,,,
1594.7999999970198,,recognition_phase,1029441,Athens,,49,,,,,old,1,0.88,,,,,,,,,,
null,,confidence_buffer,1029544,confidence_buffer,,null,,,,,,,,,,,,,,,,,
null,,thebreak,1030046,break,,null,,,,,,,,,,,,,,,,,
,,survey,1260348,survey-questions,,,,,,,,,,none,high,I was doing nothing else.,I studied the instructions carefully and tried to follow them.,Whether I had been there or heard of it.,If I clearly remembered that it was a real place.,I tried to recall if there were several cities with the name or only one.,This was based on my travels; studies; research; and reading.,no,N/A
