rt,responses,trial_type,time_elapsed,stimulus,button_pressed,key_press,name_trial,rating,probe,probe_accuracy,response,correct,accuracy,problems,smooth,distraction,strategies,familiar,memorable,unique,realistic,similar,comments
3280.2999999970198,{worker_id:64077ddd11208afe2bec171a},id_enter,3281,,,,,,,,,,,,,,,,,,,,
51886.10000000149,,fullscreen,55169,fullscreen,0,,,,,,,,,,,,,,,,,,
5871.60000000149,,intro_0,61042,instruct,,32,,,,,,,,,,,,,,,,,
12831.20000000298,,intro_1,73874,instruct,,32,,,,,,,,,,,,,,,,,
4534.60000000149,,intro_2,78410,instruct,,32,,,,,,,,,,,,,,,,,
null,,instruct_dir_4,79911,instruct,,null,,,,,,,,,,,,,,,,,
null,,thebreak,80413,break,,null,,,,,,,,,,,,,,,,,
5933.20000000298,,familiar_rating,86347,Fargo,,51,Fargo,3,,,,,,,,,,,,,,,
null,,confidence_buffer,86449,confidence_buffer,,null,,,,,,,,,,,,,,,,,
3367.3000000044703,,unique_rating,89817,Fargo,,51,,3,,,,,,,,,,,,,,,
null,,confidence_buffer,89923,confidence_buffer,,null,,,,,,,,,,,,,,,,,
1397.7000000029802,,memorable_rating,91321,Fargo,,52,,4,,,,,,,,,,,,,,,
null,,confidence_buffer,91423,confidence_buffer,,null,,,,,,,,,,,,,,,,,
null,,thebreak,91925,break,,null,,,,,,,,,,,,,,,,,
3316.10000000149,,familiar_rating,95241,New Haven,,52,New Haven,4,,,,,,,,,,,,,,,
null,,confidence_buffer,95343,confidence_buffer,,null,,,,,,,,,,,,,,,,,
1338.7999999970198,,unique_rating,96682,New Haven,,52,,4,,,,,,,,,,,,,,,
null,,confidence_buffer,96784,confidence_buffer,,null,,,,,,,,,,,,,,,,,
1664.7000000029802,,memorable_rating,98449,New Haven,,53,,5,,,,,,,,,,,,,,,
null,,confidence_buffer,98551,confidence_buffer,,null,,,,,,,,,,,,,,,,,
null,,thebreak,99053,break,,null,,,,,,,,,,,,,,,,,
1299.9000000059605,,familiar_rating,100354,Toledo,,53,Toledo,5,,,,,,,,,,,,,,,
null,,confidence_buffer,100455,confidence_buffer,,null,,,,,,,,,,,,,,,,,
1529.1999999955297,,unique_rating,101985,Toledo,,52,,4,,,,,,,,,,,,,,,
null,,confidence_buffer,102086,confidence_buffer,,null,,,,,,,,,,,,,,,,,
786,,memorable_rating,102873,Toledo,,53,,5,,,,,,,,,,,,,,,
null,,confidence_buffer,102975,confidence_buffer,,null,,,,,,,,,,,,,,,,,
null,,thebreak,103476,break,,null,,,,,,,,,,,,,,,,,
2283.5,,familiar_rating,105760,Terre Haute,,49,Terre Haute,1,,,,,,,,,,,,,,,
null,,confidence_buffer,105862,confidence_buffer,,null,,,,,,,,,,,,,,,,,
2115.60000000149,,unique_rating,107978,Terre Haute,,52,,4,,,,,,,,,,,,,,,
null,,confidence_buffer,108095,confidence_buffer,,null,,,,,,,,,,,,,,,,,
1928.8999999985099,,memorable_rating,110024,Terre Haute,,49,,1,,,,,,,,,,,,,,,
null,,confidence_buffer,110127,confidence_buffer,,null,,,,,,,,,,,,,,,,,
null,,thebreak,110628,break,,null,,,,,,,,,,,,,,,,,
2092.60000000149,,familiar_rating,112721,Pueblo,,50,Pueblo,2,,,,,,,,,,,,,,,
null,,confidence_buffer,112823,confidence_buffer,,null,,,,,,,,,,,,,,,,,
1081.2000000029802,,unique_rating,113905,Pueblo,,50,,2,,,,,,,,,,,,,,,
null,,confidence_buffer,114007,confidence_buffer,,null,,,,,,,,,,,,,,,,,
1346,,memorable_rating,115354,Pueblo,,50,,2,,,,,,,,,,,,,,,
null,,confidence_buffer,115456,confidence_buffer,,null,,,,,,,,,,,,,,,,,
null,,thebreak,115958,break,,null,,,,,,,,,,,,,,,,,
1618.8999999985099,,familiar_rating,117578,Cheyenne,,51,Cheyenne,3,,,,,,,,,,,,,,,
null,,confidence_buffer,117689,confidence_buffer,,null,,,,,,,,,,,,,,,,,
1200.8999999985099,,unique_rating,118891,Cheyenne,,50,,2,,,,,,,,,,,,,,,
null,,confidence_buffer,118993,confidence_buffer,,null,,,,,,,,,,,,,,,,,
1767.3000000044703,,memorable_rating,120761,Cheyenne,,50,,2,,,,,,,,,,,,,,,
null,,confidence_buffer,120863,confidence_buffer,,null,,,,,,,,,,,,,,,,,
null,,thebreak,121364,break,,null,,,,,,,,,,,,,,,,,
1461,,familiar_rating,122826,Topeka,,53,Topeka,5,,,,,,,,,,,,,,,
null,,confidence_buffer,122927,confidence_buffer,,null,,,,,,,,,,,,,,,,,
3424.60000000149,,probe_rating,126353,probe_rating,,52,,,4,1,,,,,,,,,,,,,
null,,confidence_buffer,126454,confidence_buffer,,null,,,,,,,,,,,,,,,,,
2386.60000000149,,unique_rating,128841,Topeka,,52,,4,,,,,,,,,,,,,,,
null,,confidence_buffer,128943,confidence_buffer,,null,,,,,,,,,,,,,,,,,
2195,,memorable_rating,131138,Topeka,,52,,4,,,,,,,,,,,,,,,
null,,confidence_buffer,131240,confidence_buffer,,null,,,,,,,,,,,,,,,,,
null,,thebreak,131742,break,,null,,,,,,,,,,,,,,,,,
1450.7000000029802,,familiar_rating,133194,Dothan,,49,Dothan,1,,,,,,,,,,,,,,,
null,,confidence_buffer,133295,confidence_buffer,,null,,,,,,,,,,,,,,,,,
1401.6000000014901,,unique_rating,134697,Dothan,,50,,2,,,,,,,,,,,,,,,
null,,confidence_buffer,134805,confidence_buffer,,null,,,,,,,,,,,,,,,,,
1772,,memorable_rating,136577,Dothan,,49,,1,,,,,,,,,,,,,,,
null,,confidence_buffer,136679,confidence_buffer,,null,,,,,,,,,,,,,,,,,
null,,thebreak,137181,break,,null,,,,,,,,,,,,,,,,,
1011.5,,familiar_rating,138193,Athens,,53,Athens,5,,,,,,,,,,,,,,,
null,,confidence_buffer,138294,confidence_buffer,,null,,,,,,,,,,,,,,,,,
1915,,unique_rating,140209,Athens,,53,,5,,,,,,,,,,,,,,,
null,,confidence_buffer,140311,confidence_buffer,,null,,,,,,,,,,,,,,,,,
851.3999999985099,,memorable_rating,141163,Athens,,53,,5,,,,,,,,,,,,,,,
null,,confidence_buffer,141264,confidence_buffer,,null,,,,,,,,,,,,,,,,,
null,,thebreak,141767,break,,null,,,,,,,,,,,,,,,,,
1850,,familiar_rating,143617,Palo Alto,,51,Palo Alto,3,,,,,,,,,,,,,,,
null,,confidence_buffer,143720,confidence_buffer,,null,,,,,,,,,,,,,,,,,
984.5,,unique_rating,144705,Palo Alto,,50,,2,,,,,,,,,,,,,,,
null,,confidence_buffer,144807,confidence_buffer,,null,,,,,,,,,,,,,,,,,
865.6000000014901,,memorable_rating,145673,Palo Alto,,51,,3,,,,,,,,,,,,,,,
null,,confidence_buffer,145774,confidence_buffer,,null,,,,,,,,,,,,,,,,,
null,,thebreak,146275,break,,null,,,,,,,,,,,,,,,,,
1141.8000000044703,,familiar_rating,147417,Boise,,52,Boise,4,,,,,,,,,,,,,,,
null,,confidence_buffer,147519,confidence_buffer,,null,,,,,,,,,,,,,,,,,
1608.6999999955297,,unique_rating,149128,Boise,,50,,2,,,,,,,,,,,,,,,
null,,confidence_buffer,149231,confidence_buffer,,null,,,,,,,,,,,,,,,,,
1113.3999999985099,,memorable_rating,150345,Boise,,50,,2,,,,,,,,,,,,,,,
null,,confidence_buffer,150447,confidence_buffer,,null,,,,,,,,,,,,,,,,,
null,,thebreak,150948,break,,null,,,,,,,,,,,,,,,,,
1445.6000000014901,,familiar_rating,152395,Dubuque,,49,Dubuque,1,,,,,,,,,,,,,,,
null,,confidence_buffer,152497,confidence_buffer,,null,,,,,,,,,,,,,,,,,
2255.6999999955297,,unique_rating,154754,Dubuque,,52,,4,,,,,,,,,,,,,,,
null,,confidence_buffer,154855,confidence_buffer,,null,,,,,,,,,,,,,,,,,
232.60000000149012,,memorable_rating,155089,Dubuque,,49,,1,,,,,,,,,,,,,,,
null,,confidence_buffer,155190,confidence_buffer,,null,,,,,,,,,,,,,,,,,
null,,thebreak,155691,break,,null,,,,,,,,,,,,,,,,,
1909.3999999985099,,familiar_rating,157601,Marquette,,53,Marquette,5,,,,,,,,,,,,,,,
null,,confidence_buffer,157701,confidence_buffer,,null,,,,,,,,,,,,,,,,,
1098.8999999985099,,unique_rating,158801,Marquette,,52,,4,,,,,,,,,,,,,,,
null,,confidence_buffer,158902,confidence_buffer,,null,,,,,,,,,,,,,,,,,
1522.1000000014901,,memorable_rating,160425,Marquette,,52,,4,,,,,,,,,,,,,,,
null,,confidence_buffer,160528,confidence_buffer,,null,,,,,,,,,,,,,,,,,
null,,thebreak,161030,break,,null,,,,,,,,,,,,,,,,,
1947.7999999970198,,familiar_rating,162978,Annapolis,,49,Annapolis,1,,,,,,,,,,,,,,,
null,,confidence_buffer,163080,confidence_buffer,,null,,,,,,,,,,,,,,,,,
24649.60000000149,,unique_rating,187731,Annapolis,,49,,1,,,,,,,,,,,,,,,
null,,confidence_buffer,187832,confidence_buffer,,null,,,,,,,,,,,,,,,,,
1040.7000000029802,,memorable_rating,188874,Annapolis,,49,,1,,,,,,,,,,,,,,,
null,,confidence_buffer,188976,confidence_buffer,,null,,,,,,,,,,,,,,,,,
1377.1000000014901,,probe_rating,190353,probe_rating,,50,,,2,1,,,,,,,,,,,,,
null,,confidence_buffer,190455,confidence_buffer,,null,,,,,,,,,,,,,,,,,
null,,thebreak,190960,break,,null,,,,,,,,,,,,,,,,,
3513.60000000149,,familiar_rating,194474,Norfolk,,53,Norfolk,5,,,,,,,,,,,,,,,
null,,confidence_buffer,194575,confidence_buffer,,null,,,,,,,,,,,,,,,,,
1041.1999999955297,,unique_rating,195617,Norfolk,,52,,4,,,,,,,,,,,,,,,
null,,confidence_buffer,195719,confidence_buffer,,null,,,,,,,,,,,,,,,,,
874.0999999940395,,memorable_rating,196594,Norfolk,,52,,4,,,,,,,,,,,,,,,
null,,confidence_buffer,196695,confidence_buffer,,null,,,,,,,,,,,,,,,,,
null,,thebreak,197197,break,,null,,,,,,,,,,,,,,,,,
1237.1000000014901,,familiar_rating,198435,Fort Collins,,51,Fort Collins,3,,,,,,,,,,,,,,,
null,,confidence_buffer,198536,confidence_buffer,,null,,,,,,,,,,,,,,,,,
1264.8999999985099,,unique_rating,199802,Fort Collins,,52,,4,,,,,,,,,,,,,,,
null,,confidence_buffer,199903,confidence_buffer,,null,,,,,,,,,,,,,,,,,
1514,,memorable_rating,201418,Fort Collins,,52,,4,,,,,,,,,,,,,,,
null,,confidence_buffer,201518,confidence_buffer,,null,,,,,,,,,,,,,,,,,
null,,thebreak,202020,break,,null,,,,,,,,,,,,,,,,,
1125.4000000059605,,familiar_rating,203145,Berkeley,,53,Berkeley,5,,,,,,,,,,,,,,,
null,,confidence_buffer,203248,confidence_buffer,,null,,,,,,,,,,,,,,,,,
873.1000000014901,,unique_rating,204122,Berkeley,,51,,3,,,,,,,,,,,,,,,
null,,confidence_buffer,204223,confidence_buffer,,null,,,,,,,,,,,,,,,,,
1441.8999999985099,,memorable_rating,205665,Berkeley,,53,,5,,,,,,,,,,,,,,,
null,,confidence_buffer,205766,confidence_buffer,,null,,,,,,,,,,,,,,,,,
null,,thebreak,206267,break,,null,,,,,,,,,,,,,,,,,
1958,,familiar_rating,208225,Scottsdale,,52,Scottsdale,4,,,,,,,,,,,,,,,
null,,confidence_buffer,208327,confidence_buffer,,null,,,,,,,,,,,,,,,,,
2425.7000000029802,,unique_rating,210753,Scottsdale,,51,,3,,,,,,,,,,,,,,,
null,,confidence_buffer,210855,confidence_buffer,,null,,,,,,,,,,,,,,,,,
738.6999999955297,,memorable_rating,211594,Scottsdale,,52,,4,,,,,,,,,,,,,,,
null,,confidence_buffer,211697,confidence_buffer,,null,,,,,,,,,,,,,,,,,
null,,thebreak,212198,break,,null,,,,,,,,,,,,,,,,,
1346.6999999955297,,familiar_rating,213546,Champaign,,49,Champaign,1,,,,,,,,,,,,,,,
null,,confidence_buffer,213647,confidence_buffer,,null,,,,,,,,,,,,,,,,,
1649.5,,unique_rating,215297,Champaign,,50,,2,,,,,,,,,,,,,,,
null,,confidence_buffer,215397,confidence_buffer,,null,,,,,,,,,,,,,,,,,
1771.7999999970198,,memorable_rating,217170,Champaign,,49,,1,,,,,,,,,,,,,,,
null,,confidence_buffer,217270,confidence_buffer,,null,,,,,,,,,,,,,,,,,
null,,thebreak,217772,break,,null,,,,,,,,,,,,,,,,,
1844.3999999985099,,familiar_rating,219617,Cambridge,,53,Cambridge,5,,,,,,,,,,,,,,,
null,,confidence_buffer,219718,confidence_buffer,,null,,,,,,,,,,,,,,,,,
2404.10000000149,,unique_rating,222123,Cambridge,,51,,3,,,,,,,,,,,,,,,
null,,confidence_buffer,222224,confidence_buffer,,null,,,,,,,,,,,,,,,,,
1848.3999999985099,,memorable_rating,224073,Cambridge,,52,,4,,,,,,,,,,,,,,,
null,,confidence_buffer,224174,confidence_buffer,,null,,,,,,,,,,,,,,,,,
2026.1999999955297,,probe_rating,226201,probe_rating,,49,,,1,1,,,,,,,,,,,,,
null,,confidence_buffer,226302,confidence_buffer,,null,,,,,,,,,,,,,,,,,
null,,thebreak,226803,break,,null,,,,,,,,,,,,,,,,,
2828.5,,familiar_rating,229633,Peoria,,49,Peoria,1,,,,,,,,,,,,,,,
null,,confidence_buffer,229735,confidence_buffer,,null,,,,,,,,,,,,,,,,,
1418.1000000014901,,unique_rating,231153,Peoria,,51,,3,,,,,,,,,,,,,,,
null,,confidence_buffer,231256,confidence_buffer,,null,,,,,,,,,,,,,,,,,
857.1000000014901,,memorable_rating,232114,Peoria,,49,,1,,,,,,,,,,,,,,,
null,,confidence_buffer,232215,confidence_buffer,,null,,,,,,,,,,,,,,,,,
null,,thebreak,232716,break,,null,,,,,,,,,,,,,,,,,
1948.2000000029802,,familiar_rating,234665,Youngstown,,49,Youngstown,1,,,,,,,,,,,,,,,
null,,confidence_buffer,234767,confidence_buffer,,null,,,,,,,,,,,,,,,,,
1777,,unique_rating,236545,Youngstown,,49,,1,,,,,,,,,,,,,,,
null,,confidence_buffer,236647,confidence_buffer,,null,,,,,,,,,,,,,,,,,
1009.7999999970198,,memorable_rating,237658,Youngstown,,50,,2,,,,,,,,,,,,,,,
null,,confidence_buffer,237772,confidence_buffer,,null,,,,,,,,,,,,,,,,,
null,,thebreak,238274,break,,null,,,,,,,,,,,,,,,,,
2702.5,,familiar_rating,240977,Fort Wayne,,50,Fort Wayne,2,,,,,,,,,,,,,,,
null,,confidence_buffer,241079,confidence_buffer,,null,,,,,,,,,,,,,,,,,
2057.7999999970198,,unique_rating,243137,Fort Wayne,,51,,3,,,,,,,,,,,,,,,
null,,confidence_buffer,243238,confidence_buffer,,null,,,,,,,,,,,,,,,,,
1522.9000000059605,,memorable_rating,244762,Fort Wayne,,50,,2,,,,,,,,,,,,,,,
null,,confidence_buffer,244865,confidence_buffer,,null,,,,,,,,,,,,,,,,,
null,,thebreak,245366,break,,null,,,,,,,,,,,,,,,,,
3026.5,,familiar_rating,248393,Olympia,,50,Olympia,2,,,,,,,,,,,,,,,
null,,confidence_buffer,248495,confidence_buffer,,null,,,,,,,,,,,,,,,,,
1042.1999999955297,,unique_rating,249538,Olympia,,53,,5,,,,,,,,,,,,,,,
null,,confidence_buffer,249648,confidence_buffer,,null,,,,,,,,,,,,,,,,,
1048.1999999955297,,memorable_rating,250697,Olympia,,53,,5,,,,,,,,,,,,,,,
null,,confidence_buffer,250804,confidence_buffer,,null,,,,,,,,,,,,,,,,,
1301.1999999955297,,probe_rating,252105,probe_rating,,49,,,1,1,,,,,,,,,,,,,
null,,confidence_buffer,252207,confidence_buffer,,null,,,,,,,,,,,,,,,,,
null,,thebreak,252708,break,,null,,,,,,,,,,,,,,,,,
1947.8999999985099,,familiar_rating,254657,Dover,,49,Dover,1,,,,,,,,,,,,,,,
null,,confidence_buffer,254757,confidence_buffer,,null,,,,,,,,,,,,,,,,,
12.200000002980232,,unique_rating,254770,Dover,,49,,1,,,,,,,,,,,,,,,
null,,confidence_buffer,254872,confidence_buffer,,null,,,,,,,,,,,,,,,,,
2192.8000000044703,,memorable_rating,257065,Dover,,50,,2,,,,,,,,,,,,,,,
null,,confidence_buffer,257167,confidence_buffer,,null,,,,,,,,,,,,,,,,,
null,,thebreak,257668,break,,null,,,,,,,,,,,,,,,,,
3422.10000000149,,intro_0,261090,instruct,,32,,,,,,,,,,,,,,,,,
9648.60000000149,,intro_1,270739,instruct,,32,,,,,,,,,,,,,,,,,
13870.29999999702,,intro_2,284610,instruct,,32,,,,,,,,,,,,,,,,,
null,,instruct_dir_4,286111,instruct,,null,,,,,,,,,,,,,,,,,
4417.39999999851,,realistic_rating,290529,Dover,,51,Dover,3,,,,,,,,,,,,,,,
null,,confidence_buffer,290630,confidence_buffer,,null,,,,,,,,,,,,,,,,,
4115.69999999553,,pt2_unique_rating,294747,Dover,,50,,2,,,,,,,,,,,,,,,
null,,confidence_buffer,294850,confidence_buffer,,null,,,,,,,,,,,,,,,,,
1775.1000000014901,,pt2_memorable_rating,296626,Dover,,50,,2,,,,,,,,,,,,,,,
null,,confidence_buffer,296728,confidence_buffer,,null,,,,,,,,,,,,,,,,,
2889.2999999970198,,recognition_phase,299618,Dover,,49,,,,,old,1,1,,,,,,,,,,
null,,confidence_buffer,299720,confidence_buffer,,null,,,,,,,,,,,,,,,,,
null,,thebreak,300222,break,,null,,,,,,,,,,,,,,,,,
2673.89999999851,,realistic_rating,302897,Fort Collins,,52,Fort Collins,4,,,,,,,,,,,,,,,
null,,confidence_buffer,303005,confidence_buffer,,null,,,,,,,,,,,,,,,,,
2509,,pt2_unique_rating,305515,Fort Collins,,52,,4,,,,,,,,,,,,,,,
null,,confidence_buffer,305617,confidence_buffer,,null,,,,,,,,,,,,,,,,,
2600.1999999955297,,pt2_memorable_rating,308218,Fort Collins,,53,,5,,,,,,,,,,,,,,,
null,,confidence_buffer,308321,confidence_buffer,,null,,,,,,,,,,,,,,,,,
1792.1999999955297,,recognition_phase,310114,Fort Collins,,52,,,,,new,0,0.5,,,,,,,,,,
null,,confidence_buffer,310215,confidence_buffer,,null,,,,,,,,,,,,,,,,,
null,,thebreak,310717,break,,null,,,,,,,,,,,,,,,,,
1963.3999999985099,,realistic_rating,312681,Cheyenne,,52,Cheyenne,4,,,,,,,,,,,,,,,
null,,confidence_buffer,312783,confidence_buffer,,null,,,,,,,,,,,,,,,,,
2185.89999999851,,pt2_unique_rating,314969,Cheyenne,,51,,3,,,,,,,,,,,,,,,
null,,confidence_buffer,315071,confidence_buffer,,null,,,,,,,,,,,,,,,,,
2746.39999999851,,pt2_memorable_rating,317818,Cheyenne,,52,,4,,,,,,,,,,,,,,,
null,,confidence_buffer,317920,confidence_buffer,,null,,,,,,,,,,,,,,,,,
1769.5,,recognition_phase,319689,Cheyenne,,49,,,,,old,1,0.6666666666666666,,,,,,,,,,
null,,confidence_buffer,319792,confidence_buffer,,null,,,,,,,,,,,,,,,,,
null,,thebreak,320293,break,,null,,,,,,,,,,,,,,,,,
3323.2000000029802,,realistic_rating,323617,Muncie,,49,Muncie,1,,,,,,,,,,,,,,,
null,,confidence_buffer,323719,confidence_buffer,,null,,,,,,,,,,,,,,,,,
1225.6999999955297,,pt2_unique_rating,324945,Muncie,,51,,3,,,,,,,,,,,,,,,
null,,confidence_buffer,325046,confidence_buffer,,null,,,,,,,,,,,,,,,,,
2082.2999999970198,,pt2_memorable_rating,327129,Muncie,,50,,2,,,,,,,,,,,,,,,
null,,confidence_buffer,327231,confidence_buffer,,null,,,,,,,,,,,,,,,,,
1657.6000000014901,,recognition_phase,328889,Muncie,,52,,,,,new,1,0.75,,,,,,,,,,
null,,confidence_buffer,328991,confidence_buffer,,null,,,,,,,,,,,,,,,,,
null,,thebreak,329492,break,,null,,,,,,,,,,,,,,,,,
2876.39999999851,,realistic_rating,332370,Palo Alto,,52,Palo Alto,4,,,,,,,,,,,,,,,
null,,confidence_buffer,332472,confidence_buffer,,null,,,,,,,,,,,,,,,,,
1249.2000000029802,,pt2_unique_rating,333721,Palo Alto,,51,,3,,,,,,,,,,,,,,,
null,,confidence_buffer,333824,confidence_buffer,,null,,,,,,,,,,,,,,,,,
1192.5999999940395,,pt2_memorable_rating,335017,Palo Alto,,51,,3,,,,,,,,,,,,,,,
null,,confidence_buffer,335123,confidence_buffer,,null,,,,,,,,,,,,,,,,,
1582.6999999955297,,recognition_phase,336706,Palo Alto,,49,,,,,old,1,0.8,,,,,,,,,,
null,,confidence_buffer,336809,confidence_buffer,,null,,,,,,,,,,,,,,,,,
null,,thebreak,337310,break,,null,,,,,,,,,,,,,,,,,
2242.7000000029802,,realistic_rating,339554,Fargo,,50,Fargo,2,,,,,,,,,,,,,,,
null,,confidence_buffer,339655,confidence_buffer,,null,,,,,,,,,,,,,,,,,
1121.4000000059605,,pt2_unique_rating,340777,Fargo,,51,,3,,,,,,,,,,,,,,,
null,,confidence_buffer,340879,confidence_buffer,,null,,,,,,,,,,,,,,,,,
1378.1000000014901,,pt2_memorable_rating,342257,Fargo,,51,,3,,,,,,,,,,,,,,,
null,,confidence_buffer,342359,confidence_buffer,,null,,,,,,,,,,,,,,,,,
1456.8999999985099,,recognition_phase,343816,Fargo,,49,,,,,old,1,0.8333333333333334,,,,,,,,,,
null,,confidence_buffer,343918,confidence_buffer,,null,,,,,,,,,,,,,,,,,
null,,thebreak,344420,break,,null,,,,,,,,,,,,,,,,,
1468.8999999985099,,realistic_rating,345890,Salem,,53,Salem,5,,,,,,,,,,,,,,,
null,,confidence_buffer,345992,confidence_buffer,,null,,,,,,,,,,,,,,,,,
913.1000000014901,,pt2_unique_rating,346906,Salem,,53,,5,,,,,,,,,,,,,,,
null,,confidence_buffer,347007,confidence_buffer,,null,,,,,,,,,,,,,,,,,
1185.5,,pt2_memorable_rating,348193,Salem,,53,,5,,,,,,,,,,,,,,,
null,,confidence_buffer,348294,confidence_buffer,,null,,,,,,,,,,,,,,,,,
2140.39999999851,,probe_rating,350435,probe_rating,,49,,,1,1,,,,,,,,,,,,,
null,,confidence_buffer,350536,confidence_buffer,,null,,,,,,,,,,,,,,,,,
1864.6000000014901,,recognition_phase,352401,Salem,,52,,,,,new,1,0.8571428571428571,,,,,,,,,,
null,,confidence_buffer,352502,confidence_buffer,,null,,,,,,,,,,,,,,,,,
null,,thebreak,353004,break,,null,,,,,,,,,,,,,,,,,
2108.7000000029802,,realistic_rating,355113,Topeka,,52,Topeka,4,,,,,,,,,,,,,,,
null,,confidence_buffer,355215,confidence_buffer,,null,,,,,,,,,,,,,,,,,
848.7999999970198,,pt2_unique_rating,356065,Topeka,,52,,4,,,,,,,,,,,,,,,
null,,confidence_buffer,356166,confidence_buffer,,null,,,,,,,,,,,,,,,,,
1010.4000000059605,,pt2_memorable_rating,357177,Topeka,,52,,4,,,,,,,,,,,,,,,
null,,confidence_buffer,357278,confidence_buffer,,null,,,,,,,,,,,,,,,,,
1546.7000000029802,,recognition_phase,358825,Topeka,,49,,,,,old,1,0.875,,,,,,,,,,
null,,confidence_buffer,358928,confidence_buffer,,null,,,,,,,,,,,,,,,,,
null,,thebreak,359430,break,,null,,,,,,,,,,,,,,,,,
1722.3999999985099,,realistic_rating,361153,Boulder,,52,Boulder,4,,,,,,,,,,,,,,,
null,,confidence_buffer,361255,confidence_buffer,,null,,,,,,,,,,,,,,,,,
1210.3999999985099,,pt2_unique_rating,362466,Boulder,,52,,4,,,,,,,,,,,,,,,
null,,confidence_buffer,362568,confidence_buffer,,null,,,,,,,,,,,,,,,,,
631.5,,pt2_memorable_rating,363201,Boulder,,53,,5,,,,,,,,,,,,,,,
null,,confidence_buffer,363302,confidence_buffer,,null,,,,,,,,,,,,,,,,,
1068.1999999955297,,probe_rating,364371,probe_rating,,50,,,2,1,,,,,,,,,,,,,
null,,confidence_buffer,364472,confidence_buffer,,null,,,,,,,,,,,,,,,,,
1384.2000000029802,,recognition_phase,365857,Boulder,,52,,,,,new,1,0.8888888888888888,,,,,,,,,,
null,,confidence_buffer,365974,confidence_buffer,,null,,,,,,,,,,,,,,,,,
null,,thebreak,366475,break,,null,,,,,,,,,,,,,,,,,
1317.6999999955297,,realistic_rating,367793,Pasadena,,53,Pasadena,5,,,,,,,,,,,,,,,
null,,confidence_buffer,367894,confidence_buffer,,null,,,,,,,,,,,,,,,,,
1419,,pt2_unique_rating,369313,Pasadena,,52,,4,,,,,,,,,,,,,,,
null,,confidence_buffer,369415,confidence_buffer,,null,,,,,,,,,,,,,,,,,
776.8999999985099,,pt2_memorable_rating,370193,Pasadena,,53,,5,,,,,,,,,,,,,,,
null,,confidence_buffer,370294,confidence_buffer,,null,,,,,,,,,,,,,,,,,
1035.6000000014901,,recognition_phase,371331,Pasadena,,52,,,,,new,1,0.9,,,,,,,,,,
null,,confidence_buffer,371432,confidence_buffer,,null,,,,,,,,,,,,,,,,,
null,,thebreak,371934,break,,null,,,,,,,,,,,,,,,,,
1370.8999999985099,,realistic_rating,373305,Marquette,,52,Marquette,4,,,,,,,,,,,,,,,
null,,confidence_buffer,373407,confidence_buffer,,null,,,,,,,,,,,,,,,,,
1145.7000000029802,,pt2_unique_rating,374553,Marquette,,51,,3,,,,,,,,,,,,,,,
null,,confidence_buffer,374655,confidence_buffer,,null,,,,,,,,,,,,,,,,,
752.8999999985099,,pt2_memorable_rating,375409,Marquette,,52,,4,,,,,,,,,,,,,,,
null,,confidence_buffer,375511,confidence_buffer,,null,,,,,,,,,,,,,,,,,
1441.6000000014901,,recognition_phase,376953,Marquette,,51,,,,,new,0,0.8181818181818182,,,,,,,,,,
null,,confidence_buffer,377055,confidence_buffer,,null,,,,,,,,,,,,,,,,,
null,,thebreak,377556,break,,null,,,,,,,,,,,,,,,,,
2587.7000000029802,,realistic_rating,380145,Olympia,,52,Olympia,4,,,,,,,,,,,,,,,
null,,confidence_buffer,380247,confidence_buffer,,null,,,,,,,,,,,,,,,,,
1026.1999999955297,,pt2_unique_rating,381274,Olympia,,53,,5,,,,,,,,,,,,,,,
null,,confidence_buffer,381375,confidence_buffer,,null,,,,,,,,,,,,,,,,,
562.6000000014901,,pt2_memorable_rating,381938,Olympia,,53,,5,,,,,,,,,,,,,,,
null,,confidence_buffer,382039,confidence_buffer,,null,,,,,,,,,,,,,,,,,
1480.6999999955297,,recognition_phase,383520,Olympia,,49,,,,,old,1,0.8333333333333334,,,,,,,,,,
null,,confidence_buffer,383623,confidence_buffer,,null,,,,,,,,,,,,,,,,,
null,,thebreak,384125,break,,null,,,,,,,,,,,,,,,,,
2060.39999999851,,realistic_rating,386186,Reno,,52,Reno,4,,,,,,,,,,,,,,,
null,,confidence_buffer,386288,confidence_buffer,,null,,,,,,,,,,,,,,,,,
1568.8000000044703,,pt2_unique_rating,387858,Reno,,52,,4,,,,,,,,,,,,,,,
null,,confidence_buffer,387958,confidence_buffer,,null,,,,,,,,,,,,,,,,,
1650.6000000014901,,pt2_memorable_rating,389610,Reno,,53,,5,,,,,,,,,,,,,,,
null,,confidence_buffer,389711,confidence_buffer,,null,,,,,,,,,,,,,,,,,
1049.6000000014901,,recognition_phase,390760,Reno,,52,,,,,new,1,0.8461538461538461,,,,,,,,,,
null,,confidence_buffer,390862,confidence_buffer,,null,,,,,,,,,,,,,,,,,
null,,thebreak,391363,break,,null,,,,,,,,,,,,,,,,,
1294.2000000029802,,realistic_rating,392658,New Haven,,52,New Haven,4,,,,,,,,,,,,,,,
null,,confidence_buffer,392760,confidence_buffer,,null,,,,,,,,,,,,,,,,,
1289,,pt2_unique_rating,394049,New Haven,,51,,3,,,,,,,,,,,,,,,
null,,confidence_buffer,394151,confidence_buffer,,null,,,,,,,,,,,,,,,,,
1273.7999999970198,,pt2_memorable_rating,395425,New Haven,,52,,4,,,,,,,,,,,,,,,
null,,confidence_buffer,395528,confidence_buffer,,null,,,,,,,,,,,,,,,,,
1201.2000000029802,,recognition_phase,396730,New Haven,,49,,,,,old,1,0.8571428571428571,,,,,,,,,,
null,,confidence_buffer,396831,confidence_buffer,,null,,,,,,,,,,,,,,,,,
null,,thebreak,397331,break,,null,,,,,,,,,,,,,,,,,
1245.5999999940395,,realistic_rating,398578,Frankfort,,51,Frankfort,3,,,,,,,,,,,,,,,
null,,confidence_buffer,398685,confidence_buffer,,null,,,,,,,,,,,,,,,,,
1379.6999999955297,,pt2_unique_rating,400066,Frankfort,,52,,4,,,,,,,,,,,,,,,
null,,confidence_buffer,400167,confidence_buffer,,null,,,,,,,,,,,,,,,,,
1273.7999999970198,,pt2_memorable_rating,401441,Frankfort,,53,,5,,,,,,,,,,,,,,,
null,,confidence_buffer,401543,confidence_buffer,,null,,,,,,,,,,,,,,,,,
1707.0999999940395,,recognition_phase,403251,Frankfort,,52,,,,,new,1,0.8666666666666667,,,,,,,,,,
null,,confidence_buffer,403352,confidence_buffer,,null,,,,,,,,,,,,,,,,,
null,,thebreak,403854,break,,null,,,,,,,,,,,,,,,,,
2634.2999999970198,,realistic_rating,406488,Newport News,,49,Newport News,1,,,,,,,,,,,,,,,
null,,confidence_buffer,406590,confidence_buffer,,null,,,,,,,,,,,,,,,,,
2067.10000000149,,pt2_unique_rating,408657,Newport News,,49,,1,,,,,,,,,,,,,,,
null,,confidence_buffer,408769,confidence_buffer,,null,,,,,,,,,,,,,,,,,
1463.7000000029802,,pt2_memorable_rating,410233,Newport News,,49,,1,,,,,,,,,,,,,,,
null,,confidence_buffer,410335,confidence_buffer,,null,,,,,,,,,,,,,,,,,
1161.3000000044703,,recognition_phase,411497,Newport News,,52,,,,,new,1,0.875,,,,,,,,,,
null,,confidence_buffer,411600,confidence_buffer,,null,,,,,,,,,,,,,,,,,
null,,thebreak,412100,break,,null,,,,,,,,,,,,,,,,,
1412.2000000029802,,realistic_rating,413513,Concord,,51,Concord,3,,,,,,,,,,,,,,,
null,,confidence_buffer,413614,confidence_buffer,,null,,,,,,,,,,,,,,,,,
1345.9000000059605,,pt2_unique_rating,414961,Concord,,52,,4,,,,,,,,,,,,,,,
null,,confidence_buffer,415062,confidence_buffer,,null,,,,,,,,,,,,,,,,,
1426.6000000014901,,pt2_memorable_rating,416489,Concord,,52,,4,,,,,,,,,,,,,,,
null,,confidence_buffer,416591,confidence_buffer,,null,,,,,,,,,,,,,,,,,
1025.3999999985099,,recognition_phase,417617,Concord,,52,,,,,new,1,0.8823529411764706,,,,,,,,,,
null,,confidence_buffer,417725,confidence_buffer,,null,,,,,,,,,,,,,,,,,
null,,thebreak,418227,break,,null,,,,,,,,,,,,,,,,,
1693.1999999955297,,realistic_rating,419921,Champaign,,50,Champaign,2,,,,,,,,,,,,,,,
null,,confidence_buffer,420022,confidence_buffer,,null,,,,,,,,,,,,,,,,,
985.8999999985099,,pt2_unique_rating,421009,Champaign,,51,,3,,,,,,,,,,,,,,,
null,,confidence_buffer,421110,confidence_buffer,,null,,,,,,,,,,,,,,,,,
1354.7000000029802,,pt2_memorable_rating,422465,Champaign,,50,,2,,,,,,,,,,,,,,,
null,,confidence_buffer,422567,confidence_buffer,,null,,,,,,,,,,,,,,,,,
1258.8999999985099,,recognition_phase,423827,Champaign,,49,,,,,old,1,0.8888888888888888,,,,,,,,,,
null,,confidence_buffer,423939,confidence_buffer,,null,,,,,,,,,,,,,,,,,
null,,thebreak,424441,break,,null,,,,,,,,,,,,,,,,,
1895.1000000014901,,realistic_rating,426337,Dubuque,,49,Dubuque,1,,,,,,,,,,,,,,,
null,,confidence_buffer,426439,confidence_buffer,,null,,,,,,,,,,,,,,,,,
1577.1000000014901,,pt2_unique_rating,428017,Dubuque,,51,,3,,,,,,,,,,,,,,,
null,,confidence_buffer,428118,confidence_buffer,,null,,,,,,,,,,,,,,,,,
2890.60000000149,,probe_rating,431009,probe_rating,,51,,,3,1,,,,,,,,,,,,,
null,,confidence_buffer,431110,confidence_buffer,,null,,,,,,,,,,,,,,,,,
2466.2999999970198,,pt2_memorable_rating,433577,Dubuque,,50,,2,,,,,,,,,,,,,,,
null,,confidence_buffer,433680,confidence_buffer,,null,,,,,,,,,,,,,,,,,
2402.3000000044703,,recognition_phase,436082,Dubuque,,49,,,,,old,1,0.8947368421052632,,,,,,,,,,
null,,confidence_buffer,436184,confidence_buffer,,null,,,,,,,,,,,,,,,,,
null,,thebreak,436685,break,,null,,,,,,,,,,,,,,,,,
1938.8999999985099,,realistic_rating,438625,Norfolk,,52,Norfolk,4,,,,,,,,,,,,,,,
null,,confidence_buffer,438726,confidence_buffer,,null,,,,,,,,,,,,,,,,,
2688.7000000029802,,probe_rating,441416,probe_rating,,51,,,3,1,,,,,,,,,,,,,
null,,confidence_buffer,441519,confidence_buffer,,null,,,,,,,,,,,,,,,,,
2954,,pt2_unique_rating,444473,Norfolk,,51,,3,,,,,,,,,,,,,,,
null,,confidence_buffer,444574,confidence_buffer,,null,,,,,,,,,,,,,,,,,
1290,,pt2_memorable_rating,445865,Norfolk,,52,,4,,,,,,,,,,,,,,,
null,,confidence_buffer,445967,confidence_buffer,,null,,,,,,,,,,,,,,,,,
1491.1999999955297,,recognition_phase,447459,Norfolk,,49,,,,,old,1,0.9,,,,,,,,,,
null,,confidence_buffer,447560,confidence_buffer,,null,,,,,,,,,,,,,,,,,
null,,thebreak,448062,break,,null,,,,,,,,,,,,,,,,,
1299.3999999985099,,realistic_rating,449362,Berkeley,,53,Berkeley,5,,,,,,,,,,,,,,,
null,,confidence_buffer,449463,confidence_buffer,,null,,,,,,,,,,,,,,,,,
1145.8999999985099,,pt2_unique_rating,450610,Berkeley,,52,,4,,,,,,,,,,,,,,,
null,,confidence_buffer,450711,confidence_buffer,,null,,,,,,,,,,,,,,,,,
681.6000000014901,,pt2_memorable_rating,451393,Berkeley,,53,,5,,,,,,,,,,,,,,,
null,,confidence_buffer,451496,confidence_buffer,,null,,,,,,,,,,,,,,,,,
1497.1000000014901,,recognition_phase,452994,Berkeley,,49,,,,,old,1,0.9047619047619048,,,,,,,,,,
null,,confidence_buffer,453096,confidence_buffer,,null,,,,,,,,,,,,,,,,,
null,,thebreak,453597,break,,null,,,,,,,,,,,,,,,,,
1452.2999999970198,,realistic_rating,455050,Toledo,,53,Toledo,5,,,,,,,,,,,,,,,
null,,confidence_buffer,455151,confidence_buffer,,null,,,,,,,,,,,,,,,,,
897.3999999985099,,pt2_unique_rating,456049,Toledo,,53,,5,,,,,,,,,,,,,,,
null,,confidence_buffer,456152,confidence_buffer,,null,,,,,,,,,,,,,,,,,
856.5,,pt2_memorable_rating,457009,Toledo,,53,,5,,,,,,,,,,,,,,,
null,,confidence_buffer,457120,confidence_buffer,,null,,,,,,,,,,,,,,,,,
993.4000000059605,,recognition_phase,458114,Toledo,,49,,,,,old,1,0.9090909090909091,,,,,,,,,,
null,,confidence_buffer,458216,confidence_buffer,,null,,,,,,,,,,,,,,,,,
null,,thebreak,458722,break,,null,,,,,,,,,,,,,,,,,
1846.6000000014901,,realistic_rating,460569,McKinney,,50,McKinney,2,,,,,,,,,,,,,,,
null,,confidence_buffer,460671,confidence_buffer,,null,,,,,,,,,,,,,,,,,
1425.3000000044703,,pt2_unique_rating,462097,McKinney,,50,,2,,,,,,,,,,,,,,,
null,,confidence_buffer,462199,confidence_buffer,,null,,,,,,,,,,,,,,,,,
1641.3999999985099,,pt2_memorable_rating,463841,McKinney,,49,,1,,,,,,,,,,,,,,,
null,,confidence_buffer,463942,confidence_buffer,,null,,,,,,,,,,,,,,,,,
1338.3999999985099,,recognition_phase,465281,McKinney,,52,,,,,new,1,0.9130434782608695,,,,,,,,,,
null,,confidence_buffer,465382,confidence_buffer,,null,,,,,,,,,,,,,,,,,
null,,thebreak,465884,break,,null,,,,,,,,,,,,,,,,,
1668.5999999940395,,realistic_rating,467554,Abilene,,49,Abilene,1,,,,,,,,,,,,,,,
null,,confidence_buffer,467655,confidence_buffer,,null,,,,,,,,,,,,,,,,,
2249.6999999955297,,pt2_unique_rating,469905,Abilene,,51,,3,,,,,,,,,,,,,,,
null,,confidence_buffer,470007,confidence_buffer,,null,,,,,,,,,,,,,,,,,
1001.6000000014901,,pt2_memorable_rating,471009,Abilene,,49,,1,,,,,,,,,,,,,,,
null,,confidence_buffer,471117,confidence_buffer,,null,,,,,,,,,,,,,,,,,
1394.5,,recognition_phase,472513,Abilene,,52,,,,,new,1,0.9166666666666666,,,,,,,,,,
null,,confidence_buffer,472616,confidence_buffer,,null,,,,,,,,,,,,,,,,,
null,,thebreak,473117,break,,null,,,,,,,,,,,,,,,,,
1852,,realistic_rating,474970,Pueblo,,51,Pueblo,3,,,,,,,,,,,,,,,
null,,confidence_buffer,475071,confidence_buffer,,null,,,,,,,,,,,,,,,,,
1080.6000000014901,,pt2_unique_rating,476153,Pueblo,,51,,3,,,,,,,,,,,,,,,
null,,confidence_buffer,476254,confidence_buffer,,null,,,,,,,,,,,,,,,,,
2265.8000000044703,,pt2_memorable_rating,478521,Pueblo,,51,,3,,,,,,,,,,,,,,,
null,,confidence_buffer,478622,confidence_buffer,,null,,,,,,,,,,,,,,,,,
898.5,,recognition_phase,479522,Pueblo,,49,,,,,old,1,0.92,,,,,,,,,,
null,,confidence_buffer,479623,confidence_buffer,,null,,,,,,,,,,,,,,,,,
null,,thebreak,480125,break,,null,,,,,,,,,,,,,,,,,
1492.2999999970198,,realistic_rating,481618,Ann Arbor,,53,Ann Arbor,5,,,,,,,,,,,,,,,
null,,confidence_buffer,481719,confidence_buffer,,null,,,,,,,,,,,,,,,,,
1601.6000000014901,,pt2_unique_rating,483321,Ann Arbor,,53,,5,,,,,,,,,,,,,,,
null,,confidence_buffer,483423,confidence_buffer,,null,,,,,,,,,,,,,,,,,
1393.3000000044703,,pt2_memorable_rating,484817,Ann Arbor,,53,,5,,,,,,,,,,,,,,,
null,,confidence_buffer,484920,confidence_buffer,,null,,,,,,,,,,,,,,,,,
1104.8999999985099,,recognition_phase,486025,Ann Arbor,,52,,,,,new,1,0.9230769230769231,,,,,,,,,,
null,,confidence_buffer,486128,confidence_buffer,,null,,,,,,,,,,,,,,,,,
null,,thebreak,486629,break,,null,,,,,,,,,,,,,,,,,
1788.1000000014901,,realistic_rating,488418,Fort Wayne,,51,Fort Wayne,3,,,,,,,,,,,,,,,
null,,confidence_buffer,488520,confidence_buffer,,null,,,,,,,,,,,,,,,,,
2384.5,,probe_rating,490906,probe_rating,,50,,,2,1,,,,,,,,,,,,,
null,,confidence_buffer,491007,confidence_buffer,,null,,,,,,,,,,,,,,,,,
1907.1999999955297,,pt2_unique_rating,492915,Fort Wayne,,50,,2,,,,,,,,,,,,,,,
null,,confidence_buffer,493017,confidence_buffer,,null,,,,,,,,,,,,,,,,,
1128.3000000044703,,pt2_memorable_rating,494145,Fort Wayne,,51,,3,,,,,,,,,,,,,,,
null,,confidence_buffer,494248,confidence_buffer,,null,,,,,,,,,,,,,,,,,
2064.5,,recognition_phase,496313,Fort Wayne,,49,,,,,old,1,0.9259259259259259,,,,,,,,,,
null,,confidence_buffer,496415,confidence_buffer,,null,,,,,,,,,,,,,,,,,
null,,thebreak,496917,break,,null,,,,,,,,,,,,,,,,,
1420.0999999940395,,realistic_rating,498337,Syracuse,,53,Syracuse,5,,,,,,,,,,,,,,,
null,,confidence_buffer,498440,confidence_buffer,,null,,,,,,,,,,,,,,,,,
1288.9000000059605,,probe_rating,499729,probe_rating,,49,,,1,1,,,,,,,,,,,,,
null,,confidence_buffer,499831,confidence_buffer,,null,,,,,,,,,,,,,,,,,
1209,,pt2_unique_rating,501041,Syracuse,,53,,5,,,,,,,,,,,,,,,
null,,confidence_buffer,501143,confidence_buffer,,null,,,,,,,,,,,,,,,,,
1529.8999999985099,,pt2_memorable_rating,502673,Syracuse,,53,,5,,,,,,,,,,,,,,,
null,,confidence_buffer,502775,confidence_buffer,,null,,,,,,,,,,,,,,,,,
1467.6000000014901,,recognition_phase,504243,Syracuse,,52,,,,,new,1,0.9285714285714286,,,,,,,,,,
null,,confidence_buffer,504344,confidence_buffer,,null,,,,,,,,,,,,,,,,,
null,,thebreak,504845,break,,null,,,,,,,,,,,,,,,,,
1988.1999999955297,,realistic_rating,506834,Decatur,,51,Decatur,3,,,,,,,,,,,,,,,
null,,confidence_buffer,506937,confidence_buffer,,null,,,,,,,,,,,,,,,,,
1079.3999999985099,,pt2_unique_rating,508017,Decatur,,52,,4,,,,,,,,,,,,,,,
null,,confidence_buffer,508118,confidence_buffer,,null,,,,,,,,,,,,,,,,,
2195.1999999955297,,pt2_memorable_rating,510314,Decatur,,51,,3,,,,,,,,,,,,,,,
null,,confidence_buffer,510415,confidence_buffer,,null,,,,,,,,,,,,,,,,,
1001.3999999985099,,probe_rating,511417,probe_rating,,50,,,2,1,,,,,,,,,,,,,
null,,confidence_buffer,511520,confidence_buffer,,null,,,,,,,,,,,,,,,,,
1208.9000000059605,,recognition_phase,512729,Decatur,,52,,,,,new,1,0.9310344827586207,,,,,,,,,,
null,,confidence_buffer,512831,confidence_buffer,,null,,,,,,,,,,,,,,,,,
null,,thebreak,513332,break,,null,,,,,,,,,,,,,,,,,
1988.8999999985099,,realistic_rating,515321,Terre Haute,,50,Terre Haute,2,,,,,,,,,,,,,,,
null,,confidence_buffer,515422,confidence_buffer,,null,,,,,,,,,,,,,,,,,
1442.4000000059605,,pt2_unique_rating,516865,Terre Haute,,51,,3,,,,,,,,,,,,,,,
null,,confidence_buffer,516967,confidence_buffer,,null,,,,,,,,,,,,,,,,,
905.6999999955297,,pt2_memorable_rating,517874,Terre Haute,,49,,1,,,,,,,,,,,,,,,
null,,confidence_buffer,517975,confidence_buffer,,null,,,,,,,,,,,,,,,,,
1281.6000000014901,,recognition_phase,519257,Terre Haute,,49,,,,,old,1,0.9333333333333333,,,,,,,,,,
null,,confidence_buffer,519359,confidence_buffer,,null,,,,,,,,,,,,,,,,,
null,,thebreak,519862,break,,null,,,,,,,,,,,,,,,,,
1275.3000000044703,,realistic_rating,521137,Tallahassee,,53,Tallahassee,5,,,,,,,,,,,,,,,
null,,confidence_buffer,521240,confidence_buffer,,null,,,,,,,,,,,,,,,,,
1720.8000000044703,,pt2_unique_rating,522961,Tallahassee,,53,,5,,,,,,,,,,,,,,,
null,,confidence_buffer,523063,confidence_buffer,,null,,,,,,,,,,,,,,,,,
1224.6000000014901,,pt2_memorable_rating,524289,Tallahassee,,53,,5,,,,,,,,,,,,,,,
null,,confidence_buffer,524390,confidence_buffer,,null,,,,,,,,,,,,,,,,,
971.8999999985099,,recognition_phase,525362,Tallahassee,,52,,,,,new,1,0.9354838709677419,,,,,,,,,,
null,,confidence_buffer,525465,confidence_buffer,,null,,,,,,,,,,,,,,,,,
null,,thebreak,525966,break,,null,,,,,,,,,,,,,,,,,
1290.5,,realistic_rating,527257,Athens,,53,Athens,5,,,,,,,,,,,,,,,
null,,confidence_buffer,527364,confidence_buffer,,null,,,,,,,,,,,,,,,,,
1780.6000000014901,,pt2_unique_rating,529145,Athens,,52,,4,,,,,,,,,,,,,,,
null,,confidence_buffer,529248,confidence_buffer,,null,,,,,,,,,,,,,,,,,
832.1000000014901,,pt2_memorable_rating,530081,Athens,,53,,5,,,,,,,,,,,,,,,
null,,confidence_buffer,530182,confidence_buffer,,null,,,,,,,,,,,,,,,,,
1466.1000000014901,,recognition_phase,531649,Athens,,49,,,,,old,1,0.9375,,,,,,,,,,
null,,confidence_buffer,531751,confidence_buffer,,null,,,,,,,,,,,,,,,,,
null,,thebreak,532253,break,,null,,,,,,,,,,,,,,,,,
1468,,realistic_rating,533722,Helena,,52,Helena,4,,,,,,,,,,,,,,,
null,,confidence_buffer,533824,confidence_buffer,,null,,,,,,,,,,,,,,,,,
1136.3999999985099,,pt2_unique_rating,534961,Helena,,51,,3,,,,,,,,,,,,,,,
null,,confidence_buffer,535063,confidence_buffer,,null,,,,,,,,,,,,,,,,,
955.3999999985099,,pt2_memorable_rating,536019,Helena,,52,,4,,,,,,,,,,,,,,,
null,,confidence_buffer,536120,confidence_buffer,,null,,,,,,,,,,,,,,,,,
1136.3999999985099,,recognition_phase,537257,Helena,,52,,,,,new,1,0.9393939393939394,,,,,,,,,,
null,,confidence_buffer,537359,confidence_buffer,,null,,,,,,,,,,,,,,,,,
null,,thebreak,537861,break,,null,,,,,,,,,,,,,,,,,
1675.8999999985099,,realistic_rating,539538,Dothan,,49,Dothan,1,,,,,,,,,,,,,,,
null,,confidence_buffer,539640,confidence_buffer,,null,,,,,,,,,,,,,,,,,
1080.9000000059605,,pt2_unique_rating,540722,Dothan,,50,,2,,,,,,,,,,,,,,,
null,,confidence_buffer,540824,confidence_buffer,,null,,,,,,,,,,,,,,,,,
1024.1000000014901,,pt2_memorable_rating,541849,Dothan,,49,,1,,,,,,,,,,,,,,,
null,,confidence_buffer,541950,confidence_buffer,,null,,,,,,,,,,,,,,,,,
1690.7000000029802,,recognition_phase,543641,Dothan,,50,,,,,old,1,0.9411764705882353,,,,,,,,,,
null,,confidence_buffer,543743,confidence_buffer,,null,,,,,,,,,,,,,,,,,
null,,thebreak,544244,break,,null,,,,,,,,,,,,,,,,,
2838.4000000059605,,realistic_rating,547083,Carson City,,50,Carson City,2,,,,,,,,,,,,,,,
null,,confidence_buffer,547185,confidence_buffer,,null,,,,,,,,,,,,,,,,,
958.7999999970198,,pt2_unique_rating,548145,Carson City,,49,,1,,,,,,,,,,,,,,,
null,,confidence_buffer,548247,confidence_buffer,,null,,,,,,,,,,,,,,,,,
2024.8999999985099,,pt2_memorable_rating,550273,Carson City,,50,,2,,,,,,,,,,,,,,,
null,,confidence_buffer,550374,confidence_buffer,,null,,,,,,,,,,,,,,,,,
1571.1000000014901,,recognition_phase,551946,Carson City,,52,,,,,new,1,0.9428571428571428,,,,,,,,,,
null,,confidence_buffer,552048,confidence_buffer,,null,,,,,,,,,,,,,,,,,
null,,thebreak,552549,break,,null,,,,,,,,,,,,,,,,,
1100.1000000014901,,realistic_rating,553649,Cambridge,,52,Cambridge,4,,,,,,,,,,,,,,,
null,,confidence_buffer,553751,confidence_buffer,,null,,,,,,,,,,,,,,,,,
1169.8000000044703,,pt2_unique_rating,554921,Cambridge,,53,,5,,,,,,,,,,,,,,,
null,,confidence_buffer,555024,confidence_buffer,,null,,,,,,,,,,,,,,,,,
1160.6000000014901,,pt2_memorable_rating,556185,Cambridge,,53,,5,,,,,,,,,,,,,,,
null,,confidence_buffer,556287,confidence_buffer,,null,,,,,,,,,,,,,,,,,
1235.3000000044703,,recognition_phase,557523,Cambridge,,49,,,,,old,1,0.9444444444444444,,,,,,,,,,
null,,confidence_buffer,557624,confidence_buffer,,null,,,,,,,,,,,,,,,,,
null,,thebreak,558126,break,,null,,,,,,,,,,,,,,,,,
1730.6000000014901,,realistic_rating,559858,Yakima,,50,Yakima,2,,,,,,,,,,,,,,,
null,,confidence_buffer,559963,confidence_buffer,,null,,,,,,,,,,,,,,,,,
1444.7000000029802,,pt2_unique_rating,561409,Yakima,,51,,3,,,,,,,,,,,,,,,
null,,confidence_buffer,561523,confidence_buffer,,null,,,,,,,,,,,,,,,,,
1381.3999999985099,,pt2_memorable_rating,562906,Yakima,,51,,3,,,,,,,,,,,,,,,
null,,confidence_buffer,563007,confidence_buffer,,null,,,,,,,,,,,,,,,,,
1857.7999999970198,,recognition_phase,564866,Yakima,,51,,,,,new,1,0.9459459459459459,,,,,,,,,,
null,,confidence_buffer,564968,confidence_buffer,,null,,,,,,,,,,,,,,,,,
null,,thebreak,565469,break,,null,,,,,,,,,,,,,,,,,
2940.7000000029802,,realistic_rating,568411,Hagerstown,,51,Hagerstown,3,,,,,,,,,,,,,,,
null,,confidence_buffer,568513,confidence_buffer,,null,,,,,,,,,,,,,,,,,
983.6999999955297,,pt2_unique_rating,569497,Hagerstown,,50,,2,,,,,,,,,,,,,,,
null,,confidence_buffer,569599,confidence_buffer,,null,,,,,,,,,,,,,,,,,
1705.2000000029802,,pt2_memorable_rating,571305,Hagerstown,,51,,3,,,,,,,,,,,,,,,
null,,confidence_buffer,571406,confidence_buffer,,null,,,,,,,,,,,,,,,,,
1810.6999999955297,,recognition_phase,573218,Hagerstown,,52,,,,,new,1,0.9473684210526315,,,,,,,,,,
null,,confidence_buffer,573319,confidence_buffer,,null,,,,,,,,,,,,,,,,,
null,,thebreak,573821,break,,null,,,,,,,,,,,,,,,,,
2275.2999999970198,,realistic_rating,576097,Santa Monica,,52,Santa Monica,4,,,,,,,,,,,,,,,
null,,confidence_buffer,576199,confidence_buffer,,null,,,,,,,,,,,,,,,,,
2441.8000000044703,,pt2_unique_rating,578641,Santa Monica,,51,,3,,,,,,,,,,,,,,,
null,,confidence_buffer,578743,confidence_buffer,,null,,,,,,,,,,,,,,,,,
1537.2999999970198,,pt2_memorable_rating,580281,Santa Monica,,52,,4,,,,,,,,,,,,,,,
null,,confidence_buffer,580383,confidence_buffer,,null,,,,,,,,,,,,,,,,,
3297.2999999970198,,probe_rating,583682,probe_rating,,52,,,4,1,,,,,,,,,,,,,
null,,confidence_buffer,583784,confidence_buffer,,null,,,,,,,,,,,,,,,,,
1184.8999999985099,,recognition_phase,584970,Santa Monica,,52,,,,,new,1,0.9487179487179487,,,,,,,,,,
null,,confidence_buffer,585071,confidence_buffer,,null,,,,,,,,,,,,,,,,,
null,,thebreak,585572,break,,null,,,,,,,,,,,,,,,,,
2221.89999999851,,realistic_rating,587794,Altoona,,50,Altoona,2,,,,,,,,,,,,,,,
null,,confidence_buffer,587896,confidence_buffer,,null,,,,,,,,,,,,,,,,,
866.0999999940395,,pt2_unique_rating,588763,Altoona,,53,,5,,,,,,,,,,,,,,,
null,,confidence_buffer,588864,confidence_buffer,,null,,,,,,,,,,,,,,,,,
1393.3999999985099,,pt2_memorable_rating,590258,Altoona,,53,,5,,,,,,,,,,,,,,,
null,,confidence_buffer,590360,confidence_buffer,,null,,,,,,,,,,,,,,,,,
952.6000000014901,,recognition_phase,591314,Altoona,,52,,,,,new,1,0.95,,,,,,,,,,
null,,confidence_buffer,591415,confidence_buffer,,null,,,,,,,,,,,,,,,,,
null,,thebreak,591918,break,,null,,,,,,,,,,,,,,,,,
1362.8000000044703,,realistic_rating,593281,Ithaca,,53,Ithaca,5,,,,,,,,,,,,,,,
null,,confidence_buffer,593384,confidence_buffer,,null,,,,,,,,,,,,,,,,,
1880.2000000029802,,pt2_unique_rating,595265,Ithaca,,52,,4,,,,,,,,,,,,,,,
null,,confidence_buffer,595366,confidence_buffer,,null,,,,,,,,,,,,,,,,,
1009.5,,pt2_memorable_rating,596377,Ithaca,,53,,5,,,,,,,,,,,,,,,
null,,confidence_buffer,596478,confidence_buffer,,null,,,,,,,,,,,,,,,,,
970.8000000044703,,recognition_phase,597449,Ithaca,,52,,,,,new,1,0.9512195121951219,,,,,,,,,,
null,,confidence_buffer,597551,confidence_buffer,,null,,,,,,,,,,,,,,,,,
null,,thebreak,598053,break,,null,,,,,,,,,,,,,,,,,
2181.10000000149,,realistic_rating,600234,Stamford,,51,Stamford,3,,,,,,,,,,,,,,,
null,,confidence_buffer,600336,confidence_buffer,,null,,,,,,,,,,,,,,,,,
1736.4000000059605,,pt2_unique_rating,602073,Stamford,,50,,2,,,,,,,,,,,,,,,
null,,confidence_buffer,602175,confidence_buffer,,null,,,,,,,,,,,,,,,,,
1249.7000000029802,,pt2_memorable_rating,603425,Stamford,,52,,4,,,,,,,,,,,,,,,
null,,confidence_buffer,603527,confidence_buffer,,null,,,,,,,,,,,,,,,,,
2347,,recognition_phase,605874,Stamford,,52,,,,,new,1,0.9523809523809523,,,,,,,,,,
null,,confidence_buffer,605977,confidence_buffer,,null,,,,,,,,,,,,,,,,,
null,,thebreak,606478,break,,null,,,,,,,,,,,,,,,,,
3058.10000000149,,realistic_rating,609536,Annapolis,,49,Annapolis,1,,,,,,,,,,,,,,,
null,,confidence_buffer,609638,confidence_buffer,,null,,,,,,,,,,,,,,,,,
2459.2999999970198,,probe_rating,612097,probe_rating,,51,,,3,1,,,,,,,,,,,,,
null,,confidence_buffer,612211,confidence_buffer,,null,,,,,,,,,,,,,,,,,
2565.5,,pt2_unique_rating,614777,Annapolis,,49,,1,,,,,,,,,,,,,,,
null,,confidence_buffer,614879,confidence_buffer,,null,,,,,,,,,,,,,,,,,
2209.2000000029802,,pt2_memorable_rating,617089,Annapolis,,50,,2,,,,,,,,,,,,,,,
null,,confidence_buffer,617192,confidence_buffer,,null,,,,,,,,,,,,,,,,,
952.7000000029802,,recognition_phase,618145,Annapolis,,50,,,,,old,1,0.9534883720930233,,,,,,,,,,
null,,confidence_buffer,618246,confidence_buffer,,null,,,,,,,,,,,,,,,,,
null,,thebreak,618748,break,,null,,,,,,,,,,,,,,,,,
1484.9000000059605,,realistic_rating,620233,Bellingham,,50,Bellingham,2,,,,,,,,,,,,,,,
null,,confidence_buffer,620335,confidence_buffer,,null,,,,,,,,,,,,,,,,,
1322.2000000029802,,pt2_unique_rating,621658,Bellingham,,50,,2,,,,,,,,,,,,,,,
null,,confidence_buffer,621759,confidence_buffer,,null,,,,,,,,,,,,,,,,,
1771.3999999985099,,pt2_memorable_rating,623531,Bellingham,,51,,3,,,,,,,,,,,,,,,
null,,confidence_buffer,623633,confidence_buffer,,null,,,,,,,,,,,,,,,,,
1272.3999999985099,,recognition_phase,624905,Bellingham,,52,,,,,new,1,0.9545454545454546,,,,,,,,,,
null,,confidence_buffer,625008,confidence_buffer,,null,,,,,,,,,,,,,,,,,
null,,thebreak,625508,break,,null,,,,,,,,,,,,,,,,,
2012.3999999985099,,realistic_rating,627521,Peoria,,50,Peoria,2,,,,,,,,,,,,,,,
null,,confidence_buffer,627623,confidence_buffer,,null,,,,,,,,,,,,,,,,,
1040.5,,pt2_unique_rating,628665,Peoria,,51,,3,,,,,,,,,,,,,,,
null,,confidence_buffer,628766,confidence_buffer,,null,,,,,,,,,,,,,,,,,
1067.2999999970198,,pt2_memorable_rating,629834,Peoria,,49,,1,,,,,,,,,,,,,,,
null,,confidence_buffer,629935,confidence_buffer,,null,,,,,,,,,,,,,,,,,
2961.10000000149,,probe_rating,632897,probe_rating,,53,,,5,1,,,,,,,,,,,,,
null,,confidence_buffer,632998,confidence_buffer,,null,,,,,,,,,,,,,,,,,
1218.8999999985099,,recognition_phase,634218,Peoria,,50,,,,,old,1,0.9555555555555556,,,,,,,,,,
null,,confidence_buffer,634320,confidence_buffer,,null,,,,,,,,,,,,,,,,,
null,,thebreak,634822,break,,null,,,,,,,,,,,,,,,,,
1418.9000000059605,,realistic_rating,636241,Boise,,52,Boise,4,,,,,,,,,,,,,,,
null,,confidence_buffer,636342,confidence_buffer,,null,,,,,,,,,,,,,,,,,
2346.2999999970198,,probe_rating,638689,probe_rating,,51,,,3,1,,,,,,,,,,,,,
null,,confidence_buffer,638790,confidence_buffer,,null,,,,,,,,,,,,,,,,,
1706.2000000029802,,pt2_unique_rating,640497,Boise,,52,,4,,,,,,,,,,,,,,,
null,,confidence_buffer,640610,confidence_buffer,,null,,,,,,,,,,,,,,,,,
3855.6999999955297,,pt2_memorable_rating,644467,Boise,,52,,4,,,,,,,,,,,,,,,
null,,confidence_buffer,644569,confidence_buffer,,null,,,,,,,,,,,,,,,,,
1104.1999999955297,,recognition_phase,645673,Boise,,51,,,,,new,0,0.9347826086956522,,,,,,,,,,
null,,confidence_buffer,645775,confidence_buffer,,null,,,,,,,,,,,,,,,,,
null,,thebreak,646277,break,,null,,,,,,,,,,,,,,,,,
1635.6999999955297,,realistic_rating,647913,Montpelier,,50,Montpelier,2,,,,,,,,,,,,,,,
null,,confidence_buffer,648014,confidence_buffer,,null,,,,,,,,,,,,,,,,,
850.5,,pt2_unique_rating,648865,Montpelier,,51,,3,,,,,,,,,,,,,,,
null,,confidence_buffer,648968,confidence_buffer,,null,,,,,,,,,,,,,,,,,
1304.3000000044703,,pt2_memorable_rating,650273,Montpelier,,50,,2,,,,,,,,,,,,,,,
null,,confidence_buffer,650375,confidence_buffer,,null,,,,,,,,,,,,,,,,,
2602.7000000029802,,probe_rating,652978,probe_rating,,50,,,2,1,,,,,,,,,,,,,
null,,confidence_buffer,653080,confidence_buffer,,null,,,,,,,,,,,,,,,,,
1144.9000000059605,,recognition_phase,654226,Montpelier,,51,,,,,new,1,0.9361702127659575,,,,,,,,,,
null,,confidence_buffer,654328,confidence_buffer,,null,,,,,,,,,,,,,,,,,
null,,thebreak,654829,break,,null,,,,,,,,,,,,,,,,,
2028.3000000044703,,realistic_rating,656858,Youngstown,,50,Youngstown,2,,,,,,,,,,,,,,,
null,,confidence_buffer,656960,confidence_buffer,,null,,,,,,,,,,,,,,,,,
1136.7999999970198,,pt2_unique_rating,658097,Youngstown,,49,,1,,,,,,,,,,,,,,,
null,,confidence_buffer,658201,confidence_buffer,,null,,,,,,,,,,,,,,,,,
1736.5,,pt2_memorable_rating,659938,Youngstown,,50,,2,,,,,,,,,,,,,,,
null,,confidence_buffer,660040,confidence_buffer,,null,,,,,,,,,,,,,,,,,
1496.1000000014901,,recognition_phase,661537,Youngstown,,50,,,,,old,1,0.9375,,,,,,,,,,
null,,confidence_buffer,661638,confidence_buffer,,null,,,,,,,,,,,,,,,,,
null,,thebreak,662139,break,,null,,,,,,,,,,,,,,,,,
1150.1999999955297,,realistic_rating,663290,Burlington,,51,Burlington,3,,,,,,,,,,,,,,,
null,,confidence_buffer,663392,confidence_buffer,,null,,,,,,,,,,,,,,,,,
1983.8999999985099,,pt2_unique_rating,665377,Burlington,,51,,3,,,,,,,,,,,,,,,
null,,confidence_buffer,665479,confidence_buffer,,null,,,,,,,,,,,,,,,,,
961.7000000029802,,pt2_memorable_rating,666441,Burlington,,52,,4,,,,,,,,,,,,,,,
null,,confidence_buffer,666543,confidence_buffer,,null,,,,,,,,,,,,,,,,,
1826.8999999985099,,recognition_phase,668371,Burlington,,51,,,,,new,1,0.9387755102040817,,,,,,,,,,
null,,confidence_buffer,668472,confidence_buffer,,null,,,,,,,,,,,,,,,,,
null,,thebreak,668973,break,,null,,,,,,,,,,,,,,,,,
1380,,realistic_rating,670354,Scottsdale,,52,Scottsdale,4,,,,,,,,,,,,,,,
null,,confidence_buffer,670455,confidence_buffer,,null,,,,,,,,,,,,,,,,,
1328.5,,pt2_unique_rating,671785,Scottsdale,,51,,3,,,,,,,,,,,,,,,
null,,confidence_buffer,671886,confidence_buffer,,null,,,,,,,,,,,,,,,,,
1019.3999999985099,,pt2_memorable_rating,672905,Scottsdale,,52,,4,,,,,,,,,,,,,,,
null,,confidence_buffer,673007,confidence_buffer,,null,,,,,,,,,,,,,,,,,
1145.1000000014901,,recognition_phase,674152,Scottsdale,,50,,,,,old,1,0.94,,,,,,,,,,
null,,confidence_buffer,674254,confidence_buffer,,null,,,,,,,,,,,,,,,,,
null,,thebreak,674755,break,,null,,,,,,,,,,,,,,,,,
,,survey,801353,survey-questions,,,,,,,,,,none,high,No I was only focusing on the study.,I didn't really use any particular strategy. I used my gut intuition and memory.,Whether I've seen the name before or not.,How I would compare it to other names and how memorable they are.,How interesting the name sounds.,Whether I could imagine a town/city actually being named the name in question.,No I have not.,N/A
