rt,responses,trial_type,time_elapsed,stimulus,button_pressed,key_press,name_trial,rating,probe,probe_accuracy,response,correct,accuracy,problems,smooth,distraction,strategies,familiar,memorable,unique,realistic,similar,comments
12560.400000000373,{worker_id:653f2424042d03012eb92ef5},id_enter,12564,,,,,,,,,,,,,,,,,,,,
17668,,fullscreen,30236,fullscreen,0,,,,,,,,,,,,,,,,,,
9178.199999999255,,intro_0,39419,instruct,,32,,,,,,,,,,,,,,,,,
10464,,intro_1,49884,instruct,,32,,,,,,,,,,,,,,,,,
4486.5999999996275,,intro_2,54372,instruct,,32,,,,,,,,,,,,,,,,,
null,,instruct_dir_4,55874,instruct,,null,,,,,,,,,,,,,,,,,
null,,thebreak,56376,break,,null,,,,,,,,,,,,,,,,,
9938.199999999255,,familiar_rating,66316,Fort Collins,,52,Fort Collins,4,,,,,,,,,,,,,,,
null,,confidence_buffer,66418,confidence_buffer,,null,,,,,,,,,,,,,,,,,
6657.10000000149,,unique_rating,73076,Fort Collins,,50,,2,,,,,,,,,,,,,,,
null,,confidence_buffer,73179,confidence_buffer,,null,,,,,,,,,,,,,,,,,
1919.5999999996275,,memorable_rating,75100,Fort Collins,,50,,2,,,,,,,,,,,,,,,
null,,confidence_buffer,75203,confidence_buffer,,null,,,,,,,,,,,,,,,,,
null,,thebreak,75703,break,,null,,,,,,,,,,,,,,,,,
4539.200000001118,,familiar_rating,80244,Fort Wayne,,50,Fort Wayne,2,,,,,,,,,,,,,,,
null,,confidence_buffer,80345,confidence_buffer,,null,,,,,,,,,,,,,,,,,
4607.9000000003725,,unique_rating,84955,Fort Wayne,,50,,2,,,,,,,,,,,,,,,
null,,confidence_buffer,85055,confidence_buffer,,null,,,,,,,,,,,,,,,,,
3059.5,,memorable_rating,88116,Fort Wayne,,49,,1,,,,,,,,,,,,,,,
null,,confidence_buffer,88218,confidence_buffer,,null,,,,,,,,,,,,,,,,,
null,,thebreak,88719,break,,null,,,,,,,,,,,,,,,,,
6826.5999999996275,,familiar_rating,95547,Topeka,,51,Topeka,3,,,,,,,,,,,,,,,
null,,confidence_buffer,95648,confidence_buffer,,null,,,,,,,,,,,,,,,,,
3673.9000000003725,,unique_rating,99324,Topeka,,50,,2,,,,,,,,,,,,,,,
null,,confidence_buffer,99426,confidence_buffer,,null,,,,,,,,,,,,,,,,,
3136.5999999996275,,memorable_rating,102563,Topeka,,51,,3,,,,,,,,,,,,,,,
null,,confidence_buffer,102664,confidence_buffer,,null,,,,,,,,,,,,,,,,,
null,,thebreak,103166,break,,null,,,,,,,,,,,,,,,,,
7147.5,,familiar_rating,110315,Dover,,51,Dover,3,,,,,,,,,,,,,,,
null,,confidence_buffer,110416,confidence_buffer,,null,,,,,,,,,,,,,,,,,
3233.5999999996275,,unique_rating,113650,Dover,,50,,2,,,,,,,,,,,,,,,
null,,confidence_buffer,113753,confidence_buffer,,null,,,,,,,,,,,,,,,,,
1466.300000000745,,memorable_rating,115220,Dover,,51,,3,,,,,,,,,,,,,,,
null,,confidence_buffer,115322,confidence_buffer,,null,,,,,,,,,,,,,,,,,
null,,thebreak,115823,break,,null,,,,,,,,,,,,,,,,,
1907.7000000011176,,familiar_rating,117732,Olympia,,51,Olympia,3,,,,,,,,,,,,,,,
null,,confidence_buffer,117834,confidence_buffer,,null,,,,,,,,,,,,,,,,,
1416.7000000011176,,unique_rating,119252,Olympia,,50,,2,,,,,,,,,,,,,,,
null,,confidence_buffer,119353,confidence_buffer,,null,,,,,,,,,,,,,,,,,
977.4000000003725,,memorable_rating,120332,Olympia,,50,,2,,,,,,,,,,,,,,,
null,,confidence_buffer,120435,confidence_buffer,,null,,,,,,,,,,,,,,,,,
5375.5999999996275,,probe_rating,125812,probe_rating,,53,,,5,1,,,,,,,,,,,,,
null,,confidence_buffer,125915,confidence_buffer,,null,,,,,,,,,,,,,,,,,
null,,thebreak,126416,break,,null,,,,,,,,,,,,,,,,,
6001.699999999255,,familiar_rating,132419,Ann Arbor,,52,Ann Arbor,4,,,,,,,,,,,,,,,
null,,confidence_buffer,132520,confidence_buffer,,null,,,,,,,,,,,,,,,,,
3177.7999999988824,,unique_rating,135699,Ann Arbor,,51,,3,,,,,,,,,,,,,,,
null,,confidence_buffer,135800,confidence_buffer,,null,,,,,,,,,,,,,,,,,
1497.300000000745,,memorable_rating,137299,Ann Arbor,,51,,3,,,,,,,,,,,,,,,
null,,confidence_buffer,137401,confidence_buffer,,null,,,,,,,,,,,,,,,,,
null,,thebreak,137903,break,,null,,,,,,,,,,,,,,,,,
3643.4000000003725,,familiar_rating,141548,Boise,,52,Boise,4,,,,,,,,,,,,,,,
null,,confidence_buffer,141650,confidence_buffer,,null,,,,,,,,,,,,,,,,,
3521.10000000149,,probe_rating,145172,probe_rating,,51,,,3,1,,,,,,,,,,,,,
null,,confidence_buffer,145275,confidence_buffer,,null,,,,,,,,,,,,,,,,,
4791,,unique_rating,150068,Boise,,50,,2,,,,,,,,,,,,,,,
null,,confidence_buffer,150170,confidence_buffer,,null,,,,,,,,,,,,,,,,,
1671.7000000011176,,memorable_rating,151843,Boise,,50,,2,,,,,,,,,,,,,,,
null,,confidence_buffer,151944,confidence_buffer,,null,,,,,,,,,,,,,,,,,
null,,thebreak,152445,break,,null,,,,,,,,,,,,,,,,,
3629.60000000149,,familiar_rating,156076,Peoria,,51,Peoria,3,,,,,,,,,,,,,,,
null,,confidence_buffer,156179,confidence_buffer,,null,,,,,,,,,,,,,,,,,
1839.7000000011176,,unique_rating,158020,Peoria,,50,,2,,,,,,,,,,,,,,,
null,,confidence_buffer,158122,confidence_buffer,,null,,,,,,,,,,,,,,,,,
1495.4000000003725,,memorable_rating,159619,Peoria,,51,,3,,,,,,,,,,,,,,,
null,,confidence_buffer,159720,confidence_buffer,,null,,,,,,,,,,,,,,,,,
null,,thebreak,160222,break,,null,,,,,,,,,,,,,,,,,
2219.7999999988824,,familiar_rating,162444,Syracuse,,51,Syracuse,3,,,,,,,,,,,,,,,
null,,confidence_buffer,162545,confidence_buffer,,null,,,,,,,,,,,,,,,,,
1272.199999999255,,unique_rating,163819,Syracuse,,50,,2,,,,,,,,,,,,,,,
null,,confidence_buffer,163920,confidence_buffer,,null,,,,,,,,,,,,,,,,,
5402.700000001118,,probe_rating,169324,probe_rating,,53,,,5,1,,,,,,,,,,,,,
null,,confidence_buffer,169426,confidence_buffer,,null,,,,,,,,,,,,,,,,,
4121,,memorable_rating,173548,Syracuse,,50,,2,,,,,,,,,,,,,,,
null,,confidence_buffer,173650,confidence_buffer,,null,,,,,,,,,,,,,,,,,
null,,thebreak,174151,break,,null,,,,,,,,,,,,,,,,,
2643.2999999988824,,familiar_rating,176796,Youngstown,,50,Youngstown,2,,,,,,,,,,,,,,,
null,,confidence_buffer,176897,confidence_buffer,,null,,,,,,,,,,,,,,,,,
2192.800000000745,,unique_rating,179092,Youngstown,,50,,2,,,,,,,,,,,,,,,
null,,confidence_buffer,179194,confidence_buffer,,null,,,,,,,,,,,,,,,,,
1905.0999999996275,,memorable_rating,181100,Youngstown,,49,,1,,,,,,,,,,,,,,,
null,,confidence_buffer,181203,confidence_buffer,,null,,,,,,,,,,,,,,,,,
null,,thebreak,181704,break,,null,,,,,,,,,,,,,,,,,
4737.699999999255,,familiar_rating,186444,Bellingham,,50,Bellingham,2,,,,,,,,,,,,,,,
null,,confidence_buffer,186546,confidence_buffer,,null,,,,,,,,,,,,,,,,,
1535.300000000745,,unique_rating,188082,Bellingham,,50,,2,,,,,,,,,,,,,,,
null,,confidence_buffer,188183,confidence_buffer,,null,,,,,,,,,,,,,,,,,
2923.5,,probe_rating,191108,probe_rating,,51,,,3,1,,,,,,,,,,,,,
null,,confidence_buffer,191215,confidence_buffer,,null,,,,,,,,,,,,,,,,,
2218.7999999988824,,memorable_rating,193435,Bellingham,,51,,3,,,,,,,,,,,,,,,
null,,confidence_buffer,193537,confidence_buffer,,null,,,,,,,,,,,,,,,,,
null,,thebreak,194039,break,,null,,,,,,,,,,,,,,,,,
3066.9000000003725,,familiar_rating,197108,Concord,,50,Concord,2,,,,,,,,,,,,,,,
null,,confidence_buffer,197221,confidence_buffer,,null,,,,,,,,,,,,,,,,,
1220.2000000011176,,unique_rating,198442,Concord,,50,,2,,,,,,,,,,,,,,,
null,,confidence_buffer,198544,confidence_buffer,,null,,,,,,,,,,,,,,,,,
2410.300000000745,,memorable_rating,200955,Concord,,49,,1,,,,,,,,,,,,,,,
null,,confidence_buffer,201057,confidence_buffer,,null,,,,,,,,,,,,,,,,,
null,,thebreak,201559,break,,null,,,,,,,,,,,,,,,,,
4211.9000000003725,,familiar_rating,205772,Annapolis,,51,Annapolis,3,,,,,,,,,,,,,,,
null,,confidence_buffer,205874,confidence_buffer,,null,,,,,,,,,,,,,,,,,
1959.699999999255,,unique_rating,207835,Annapolis,,51,,3,,,,,,,,,,,,,,,
null,,confidence_buffer,207936,confidence_buffer,,null,,,,,,,,,,,,,,,,,
2122.5999999996275,,memorable_rating,210060,Annapolis,,51,,3,,,,,,,,,,,,,,,
null,,confidence_buffer,210162,confidence_buffer,,null,,,,,,,,,,,,,,,,,
null,,thebreak,210664,break,,null,,,,,,,,,,,,,,,,,
3810.300000000745,,familiar_rating,214475,Carson City,,51,Carson City,3,,,,,,,,,,,,,,,
null,,confidence_buffer,214577,confidence_buffer,,null,,,,,,,,,,,,,,,,,
3898.0999999996275,,probe_rating,218476,probe_rating,,51,,,3,1,,,,,,,,,,,,,
null,,confidence_buffer,218579,confidence_buffer,,null,,,,,,,,,,,,,,,,,
3631.0999999996275,,unique_rating,222211,Carson City,,50,,2,,,,,,,,,,,,,,,
null,,confidence_buffer,222313,confidence_buffer,,null,,,,,,,,,,,,,,,,,
1128.8999999985099,,memorable_rating,223442,Carson City,,50,,2,,,,,,,,,,,,,,,
null,,confidence_buffer,223543,confidence_buffer,,null,,,,,,,,,,,,,,,,,
null,,thebreak,224045,break,,null,,,,,,,,,,,,,,,,,
6669.699999999255,,familiar_rating,230716,Pueblo,,51,Pueblo,3,,,,,,,,,,,,,,,
null,,confidence_buffer,230818,confidence_buffer,,null,,,,,,,,,,,,,,,,,
1303.5999999996275,,unique_rating,232124,Pueblo,,51,,3,,,,,,,,,,,,,,,
null,,confidence_buffer,232225,confidence_buffer,,null,,,,,,,,,,,,,,,,,
2688.300000000745,,memorable_rating,234915,Pueblo,,52,,4,,,,,,,,,,,,,,,
null,,confidence_buffer,235016,confidence_buffer,,null,,,,,,,,,,,,,,,,,
null,,thebreak,235518,break,,null,,,,,,,,,,,,,,,,,
4356.0999999996275,,familiar_rating,239876,Burlington,,50,Burlington,2,,,,,,,,,,,,,,,
null,,confidence_buffer,239978,confidence_buffer,,null,,,,,,,,,,,,,,,,,
4447.700000001118,,unique_rating,244427,Burlington,,49,,1,,,,,,,,,,,,,,,
null,,confidence_buffer,244529,confidence_buffer,,null,,,,,,,,,,,,,,,,,
1264.9000000003725,,memorable_rating,245796,Burlington,,49,,1,,,,,,,,,,,,,,,
null,,confidence_buffer,245898,confidence_buffer,,null,,,,,,,,,,,,,,,,,
null,,thebreak,246407,break,,null,,,,,,,,,,,,,,,,,
4803.200000001118,,familiar_rating,251212,Berkeley,,51,Berkeley,3,,,,,,,,,,,,,,,
null,,confidence_buffer,251314,confidence_buffer,,null,,,,,,,,,,,,,,,,,
3279.5,,unique_rating,254595,Berkeley,,52,,4,,,,,,,,,,,,,,,
null,,confidence_buffer,254696,confidence_buffer,,null,,,,,,,,,,,,,,,,,
2017.5999999996275,,memorable_rating,256715,Berkeley,,52,,4,,,,,,,,,,,,,,,
null,,confidence_buffer,256816,confidence_buffer,,null,,,,,,,,,,,,,,,,,
null,,thebreak,257317,break,,null,,,,,,,,,,,,,,,,,
4364,,familiar_rating,261683,McKinney,,50,McKinney,2,,,,,,,,,,,,,,,
null,,confidence_buffer,261785,confidence_buffer,,null,,,,,,,,,,,,,,,,,
2834,,unique_rating,264620,McKinney,,51,,3,,,,,,,,,,,,,,,
null,,confidence_buffer,264723,confidence_buffer,,null,,,,,,,,,,,,,,,,,
1911.5,,memorable_rating,266635,McKinney,,50,,2,,,,,,,,,,,,,,,
null,,confidence_buffer,266737,confidence_buffer,,null,,,,,,,,,,,,,,,,,
null,,thebreak,267238,break,,null,,,,,,,,,,,,,,,,,
3708.0999999996275,,familiar_rating,270948,Boulder,,52,Boulder,4,,,,,,,,,,,,,,,
null,,confidence_buffer,271050,confidence_buffer,,null,,,,,,,,,,,,,,,,,
3063.9000000003725,,unique_rating,274115,Boulder,,51,,3,,,,,,,,,,,,,,,
null,,confidence_buffer,274216,confidence_buffer,,null,,,,,,,,,,,,,,,,,
1634.800000000745,,memorable_rating,275852,Boulder,,51,,3,,,,,,,,,,,,,,,
null,,confidence_buffer,275954,confidence_buffer,,null,,,,,,,,,,,,,,,,,
2144.800000000745,,probe_rating,278100,probe_rating,,49,,,1,1,,,,,,,,,,,,,
null,,confidence_buffer,278202,confidence_buffer,,null,,,,,,,,,,,,,,,,,
null,,thebreak,278703,break,,null,,,,,,,,,,,,,,,,,
4883.9000000003725,,familiar_rating,283588,Dothan,,49,Dothan,1,,,,,,,,,,,,,,,
null,,confidence_buffer,283690,confidence_buffer,,null,,,,,,,,,,,,,,,,,
2352.5999999996275,,probe_rating,286044,probe_rating,,53,,,5,1,,,,,,,,,,,,,
null,,confidence_buffer,286146,confidence_buffer,,null,,,,,,,,,,,,,,,,,
4727.9000000003725,,unique_rating,290874,Dothan,,52,,4,,,,,,,,,,,,,,,
null,,confidence_buffer,290976,confidence_buffer,,null,,,,,,,,,,,,,,,,,
3907,,memorable_rating,294884,Dothan,,51,,3,,,,,,,,,,,,,,,
null,,confidence_buffer,294985,confidence_buffer,,null,,,,,,,,,,,,,,,,,
null,,thebreak,295487,break,,null,,,,,,,,,,,,,,,,,
5339.799999998882,,familiar_rating,300828,Norfolk,,52,Norfolk,4,,,,,,,,,,,,,,,
null,,confidence_buffer,300936,confidence_buffer,,null,,,,,,,,,,,,,,,,,
3506.2999999988824,,probe_rating,304444,probe_rating,,51,,,3,1,,,,,,,,,,,,,
null,,confidence_buffer,304545,confidence_buffer,,null,,,,,,,,,,,,,,,,,
2345.5,,unique_rating,306892,Norfolk,,52,,4,,,,,,,,,,,,,,,
null,,confidence_buffer,306994,confidence_buffer,,null,,,,,,,,,,,,,,,,,
1232,,memorable_rating,308227,Norfolk,,51,,3,,,,,,,,,,,,,,,
null,,confidence_buffer,308328,confidence_buffer,,null,,,,,,,,,,,,,,,,,
null,,thebreak,308830,break,,null,,,,,,,,,,,,,,,,,
3907,,familiar_rating,312739,Cheyenne,,52,Cheyenne,4,,,,,,,,,,,,,,,
null,,confidence_buffer,312840,confidence_buffer,,null,,,,,,,,,,,,,,,,,
1778.5999999996275,,unique_rating,314620,Cheyenne,,52,,4,,,,,,,,,,,,,,,
null,,confidence_buffer,314723,confidence_buffer,,null,,,,,,,,,,,,,,,,,
4710.5999999996275,,memorable_rating,319435,Cheyenne,,53,,5,,,,,,,,,,,,,,,
null,,confidence_buffer,319537,confidence_buffer,,null,,,,,,,,,,,,,,,,,
null,,thebreak,320053,break,,null,,,,,,,,,,,,,,,,,
3708.2999999988824,,familiar_rating,323763,Tallahassee,,53,Tallahassee,5,,,,,,,,,,,,,,,
null,,confidence_buffer,323865,confidence_buffer,,null,,,,,,,,,,,,,,,,,
1961.2000000011176,,unique_rating,325827,Tallahassee,,53,,5,,,,,,,,,,,,,,,
null,,confidence_buffer,325929,confidence_buffer,,null,,,,,,,,,,,,,,,,,
3536.5999999996275,,memorable_rating,329467,Tallahassee,,53,,5,,,,,,,,,,,,,,,
null,,confidence_buffer,329568,confidence_buffer,,null,,,,,,,,,,,,,,,,,
2257.9000000003725,,probe_rating,331828,probe_rating,,52,,,4,1,,,,,,,,,,,,,
null,,confidence_buffer,331930,confidence_buffer,,null,,,,,,,,,,,,,,,,,
null,,thebreak,332431,break,,null,,,,,,,,,,,,,,,,,
4980.0999999996275,,familiar_rating,337412,Abilene,,51,Abilene,3,,,,,,,,,,,,,,,
null,,confidence_buffer,337514,confidence_buffer,,null,,,,,,,,,,,,,,,,,
1464.9000000003725,,unique_rating,338980,Abilene,,51,,3,,,,,,,,,,,,,,,
null,,confidence_buffer,339083,confidence_buffer,,null,,,,,,,,,,,,,,,,,
1879.199999999255,,memorable_rating,340964,Abilene,,52,,4,,,,,,,,,,,,,,,
null,,confidence_buffer,341065,confidence_buffer,,null,,,,,,,,,,,,,,,,,
null,,thebreak,341568,break,,null,,,,,,,,,,,,,,,,,
5017.9000000003725,,familiar_rating,346588,New Haven,,51,New Haven,3,,,,,,,,,,,,,,,
null,,confidence_buffer,346690,confidence_buffer,,null,,,,,,,,,,,,,,,,,
1960.9000000003725,,unique_rating,348652,New Haven,,51,,3,,,,,,,,,,,,,,,
null,,confidence_buffer,348754,confidence_buffer,,null,,,,,,,,,,,,,,,,,
1215.699999999255,,memorable_rating,349972,New Haven,,52,,4,,,,,,,,,,,,,,,
null,,confidence_buffer,350073,confidence_buffer,,null,,,,,,,,,,,,,,,,,
1807.9000000003725,,probe_rating,351882,probe_rating,,49,,,1,1,,,,,,,,,,,,,
null,,confidence_buffer,351984,confidence_buffer,,null,,,,,,,,,,,,,,,,,
null,,thebreak,352486,break,,null,,,,,,,,,,,,,,,,,
46140.89999999851,,intro_0,398628,instruct,,32,,,,,,,,,,,,,,,,,
7438.5,,intro_1,406068,instruct,,32,,,,,,,,,,,,,,,,,
84110.69999999925,,intro_2,490179,instruct,,32,,,,,,,,,,,,,,,,,
null,,instruct_dir_4,491683,instruct,,null,,,,,,,,,,,,,,,,,
9040,,realistic_rating,500724,Pasadena,,53,Pasadena,5,,,,,,,,,,,,,,,
null,,confidence_buffer,500826,confidence_buffer,,null,,,,,,,,,,,,,,,,,
2095.199999999255,,pt2_unique_rating,502922,Pasadena,,53,,5,,,,,,,,,,,,,,,
null,,confidence_buffer,503023,confidence_buffer,,null,,,,,,,,,,,,,,,,,
1842.699999999255,,pt2_memorable_rating,504868,Pasadena,,53,,5,,,,,,,,,,,,,,,
null,,confidence_buffer,504973,confidence_buffer,,null,,,,,,,,,,,,,,,,,
6197.800000000745,,recognition_phase,511172,Pasadena,,52,,,,,new,1,1,,,,,,,,,,
null,,confidence_buffer,511275,confidence_buffer,,null,,,,,,,,,,,,,,,,,
null,,thebreak,511776,break,,null,,,,,,,,,,,,,,,,,
4610.799999998882,,realistic_rating,516388,Scottsdale,,53,Scottsdale,5,,,,,,,,,,,,,,,
null,,confidence_buffer,516490,confidence_buffer,,null,,,,,,,,,,,,,,,,,
2136.699999999255,,pt2_unique_rating,518628,Scottsdale,,53,,5,,,,,,,,,,,,,,,
null,,confidence_buffer,518729,confidence_buffer,,null,,,,,,,,,,,,,,,,,
1296.8999999985099,,pt2_memorable_rating,520028,Scottsdale,,53,,5,,,,,,,,,,,,,,,
null,,confidence_buffer,520129,confidence_buffer,,null,,,,,,,,,,,,,,,,,
3944.5,,recognition_phase,524075,Scottsdale,,52,,,,,new,1,1,,,,,,,,,,
null,,confidence_buffer,524176,confidence_buffer,,null,,,,,,,,,,,,,,,,,
null,,thebreak,524678,break,,null,,,,,,,,,,,,,,,,,
5411.299999998882,,realistic_rating,530091,Topeka,,53,Topeka,5,,,,,,,,,,,,,,,
null,,confidence_buffer,530193,confidence_buffer,,null,,,,,,,,,,,,,,,,,
1593.199999999255,,pt2_unique_rating,531787,Topeka,,53,,5,,,,,,,,,,,,,,,
null,,confidence_buffer,531889,confidence_buffer,,null,,,,,,,,,,,,,,,,,
2257.7000000011176,,pt2_memorable_rating,534148,Topeka,,52,,4,,,,,,,,,,,,,,,
null,,confidence_buffer,534250,confidence_buffer,,null,,,,,,,,,,,,,,,,,
4823.700000001118,,recognition_phase,539076,Topeka,,49,,,,,old,1,1,,,,,,,,,,
null,,confidence_buffer,539178,confidence_buffer,,null,,,,,,,,,,,,,,,,,
null,,thebreak,539680,break,,null,,,,,,,,,,,,,,,,,
5194.799999998882,,realistic_rating,544876,Youngstown,,52,Youngstown,4,,,,,,,,,,,,,,,
null,,confidence_buffer,544978,confidence_buffer,,null,,,,,,,,,,,,,,,,,
3264.10000000149,,pt2_unique_rating,548244,Youngstown,,51,,3,,,,,,,,,,,,,,,
null,,confidence_buffer,548346,confidence_buffer,,null,,,,,,,,,,,,,,,,,
2008.5,,pt2_memorable_rating,550356,Youngstown,,52,,4,,,,,,,,,,,,,,,
null,,confidence_buffer,550459,confidence_buffer,,null,,,,,,,,,,,,,,,,,
6239.700000001118,,recognition_phase,556700,Youngstown,,50,,,,,old,1,1,,,,,,,,,,
null,,confidence_buffer,556803,confidence_buffer,,null,,,,,,,,,,,,,,,,,
null,,thebreak,557305,break,,null,,,,,,,,,,,,,,,,,
6512.5,,realistic_rating,563820,Cheyenne,,53,Cheyenne,5,,,,,,,,,,,,,,,
null,,confidence_buffer,563922,confidence_buffer,,null,,,,,,,,,,,,,,,,,
2169.2000000011176,,pt2_unique_rating,566092,Cheyenne,,53,,5,,,,,,,,,,,,,,,
null,,confidence_buffer,566193,confidence_buffer,,null,,,,,,,,,,,,,,,,,
2136.199999999255,,pt2_memorable_rating,568331,Cheyenne,,52,,4,,,,,,,,,,,,,,,
null,,confidence_buffer,568431,confidence_buffer,,null,,,,,,,,,,,,,,,,,
2307.300000000745,,probe_rating,570740,probe_rating,,52,,,4,1,,,,,,,,,,,,,
null,,confidence_buffer,570841,confidence_buffer,,null,,,,,,,,,,,,,,,,,
2936.699999999255,,recognition_phase,573779,Cheyenne,,49,,,,,old,1,1,,,,,,,,,,
null,,confidence_buffer,573883,confidence_buffer,,null,,,,,,,,,,,,,,,,,
null,,thebreak,574384,break,,null,,,,,,,,,,,,,,,,,
5217.5999999996275,,realistic_rating,579603,Syracuse,,53,Syracuse,5,,,,,,,,,,,,,,,
null,,confidence_buffer,579704,confidence_buffer,,null,,,,,,,,,,,,,,,,,
1891.5,,pt2_unique_rating,581596,Syracuse,,52,,4,,,,,,,,,,,,,,,
null,,confidence_buffer,581698,confidence_buffer,,null,,,,,,,,,,,,,,,,,
1504.0999999996275,,pt2_memorable_rating,583203,Syracuse,,52,,4,,,,,,,,,,,,,,,
null,,confidence_buffer,583305,confidence_buffer,,null,,,,,,,,,,,,,,,,,
2889.2000000011176,,recognition_phase,586196,Syracuse,,49,,,,,old,1,1,,,,,,,,,,
null,,confidence_buffer,586298,confidence_buffer,,null,,,,,,,,,,,,,,,,,
null,,thebreak,586800,break,,null,,,,,,,,,,,,,,,,,
5178.5,,realistic_rating,591980,Tallahassee,,53,Tallahassee,5,,,,,,,,,,,,,,,
null,,confidence_buffer,592083,confidence_buffer,,null,,,,,,,,,,,,,,,,,
1470.7999999988824,,pt2_unique_rating,593556,Tallahassee,,53,,5,,,,,,,,,,,,,,,
null,,confidence_buffer,593659,confidence_buffer,,null,,,,,,,,,,,,,,,,,
1270.7000000011176,,pt2_memorable_rating,594930,Tallahassee,,53,,5,,,,,,,,,,,,,,,
null,,confidence_buffer,595033,confidence_buffer,,null,,,,,,,,,,,,,,,,,
2041.6000000014901,,recognition_phase,597076,Tallahassee,,49,,,,,old,1,1,,,,,,,,,,
null,,confidence_buffer,597178,confidence_buffer,,null,,,,,,,,,,,,,,,,,
null,,thebreak,597680,break,,null,,,,,,,,,,,,,,,,,
4376.9000000003725,,realistic_rating,602059,Newport News,,53,Newport News,5,,,,,,,,,,,,,,,
null,,confidence_buffer,602160,confidence_buffer,,null,,,,,,,,,,,,,,,,,
2146.2999999988824,,pt2_unique_rating,604308,Newport News,,53,,5,,,,,,,,,,,,,,,
null,,confidence_buffer,604410,confidence_buffer,,null,,,,,,,,,,,,,,,,,
1656.7000000011176,,pt2_memorable_rating,606068,Newport News,,53,,5,,,,,,,,,,,,,,,
null,,confidence_buffer,606170,confidence_buffer,,null,,,,,,,,,,,,,,,,,
3176.7000000011176,,recognition_phase,609347,Newport News,,52,,,,,new,1,1,,,,,,,,,,
null,,confidence_buffer,609449,confidence_buffer,,null,,,,,,,,,,,,,,,,,
null,,thebreak,609951,break,,null,,,,,,,,,,,,,,,,,
4259.4000000003725,,realistic_rating,614212,Dubuque,,53,Dubuque,5,,,,,,,,,,,,,,,
null,,confidence_buffer,614315,confidence_buffer,,null,,,,,,,,,,,,,,,,,
2407.2999999988824,,pt2_unique_rating,616724,Dubuque,,52,,4,,,,,,,,,,,,,,,
null,,confidence_buffer,616825,confidence_buffer,,null,,,,,,,,,,,,,,,,,
1216.7999999988824,,pt2_memorable_rating,618044,Dubuque,,52,,4,,,,,,,,,,,,,,,
null,,confidence_buffer,618145,confidence_buffer,,null,,,,,,,,,,,,,,,,,
3897.300000000745,,recognition_phase,622044,Dubuque,,52,,,,,new,1,1,,,,,,,,,,
null,,confidence_buffer,622145,confidence_buffer,,null,,,,,,,,,,,,,,,,,
null,,thebreak,622647,break,,null,,,,,,,,,,,,,,,,,
3275.0999999996275,,realistic_rating,625923,Fargo,,53,Fargo,5,,,,,,,,,,,,,,,
null,,confidence_buffer,626024,confidence_buffer,,null,,,,,,,,,,,,,,,,,
1817.5999999996275,,pt2_unique_rating,627844,Fargo,,53,,5,,,,,,,,,,,,,,,
null,,confidence_buffer,627946,confidence_buffer,,null,,,,,,,,,,,,,,,,,
1008.8000000007451,,pt2_memorable_rating,628956,Fargo,,53,,5,,,,,,,,,,,,,,,
null,,confidence_buffer,629058,confidence_buffer,,null,,,,,,,,,,,,,,,,,
3960.10000000149,,recognition_phase,633020,Fargo,,52,,,,,new,1,1,,,,,,,,,,
null,,confidence_buffer,633122,confidence_buffer,,null,,,,,,,,,,,,,,,,,
null,,thebreak,633624,break,,null,,,,,,,,,,,,,,,,,
3802.9000000003725,,realistic_rating,637428,Bozeman,,53,Bozeman,5,,,,,,,,,,,,,,,
null,,confidence_buffer,637530,confidence_buffer,,null,,,,,,,,,,,,,,,,,
2128.0999999996275,,pt2_unique_rating,639660,Bozeman,,52,,4,,,,,,,,,,,,,,,
null,,confidence_buffer,639761,confidence_buffer,,null,,,,,,,,,,,,,,,,,
1832.300000000745,,pt2_memorable_rating,641595,Bozeman,,52,,4,,,,,,,,,,,,,,,
null,,confidence_buffer,641696,confidence_buffer,,null,,,,,,,,,,,,,,,,,
4753.5,,recognition_phase,646451,Bozeman,,52,,,,,new,1,1,,,,,,,,,,
null,,confidence_buffer,646553,confidence_buffer,,null,,,,,,,,,,,,,,,,,
null,,thebreak,647054,break,,null,,,,,,,,,,,,,,,,,
3996.800000000745,,realistic_rating,651052,Boulder,,52,Boulder,4,,,,,,,,,,,,,,,
null,,confidence_buffer,651154,confidence_buffer,,null,,,,,,,,,,,,,,,,,
1960.5999999996275,,pt2_unique_rating,653116,Boulder,,52,,4,,,,,,,,,,,,,,,
null,,confidence_buffer,653217,confidence_buffer,,null,,,,,,,,,,,,,,,,,
2017.0999999996275,,pt2_memorable_rating,655236,Boulder,,53,,5,,,,,,,,,,,,,,,
null,,confidence_buffer,655337,confidence_buffer,,null,,,,,,,,,,,,,,,,,
6729.699999999255,,recognition_phase,662068,Boulder,,50,,,,,old,1,1,,,,,,,,,,
null,,confidence_buffer,662171,confidence_buffer,,null,,,,,,,,,,,,,,,,,
null,,thebreak,662673,break,,null,,,,,,,,,,,,,,,,,
3633.2999999988824,,realistic_rating,666308,Toledo,,52,Toledo,4,,,,,,,,,,,,,,,
null,,confidence_buffer,666410,confidence_buffer,,null,,,,,,,,,,,,,,,,,
1487.7999999988824,,pt2_unique_rating,667899,Toledo,,53,,5,,,,,,,,,,,,,,,
null,,confidence_buffer,668000,confidence_buffer,,null,,,,,,,,,,,,,,,,,
1178.199999999255,,pt2_memorable_rating,669180,Toledo,,52,,4,,,,,,,,,,,,,,,
null,,confidence_buffer,669283,confidence_buffer,,null,,,,,,,,,,,,,,,,,
5655.5999999996275,,recognition_phase,674940,Toledo,,50,,,,,old,0,0.9230769230769231,,,,,,,,,,
null,,confidence_buffer,675042,confidence_buffer,,null,,,,,,,,,,,,,,,,,
null,,thebreak,675545,break,,null,,,,,,,,,,,,,,,,,
3753,,realistic_rating,679299,Frankfort,,53,Frankfort,5,,,,,,,,,,,,,,,
null,,confidence_buffer,679415,confidence_buffer,,null,,,,,,,,,,,,,,,,,
1196,,pt2_unique_rating,680612,Frankfort,,52,,4,,,,,,,,,,,,,,,
null,,confidence_buffer,680714,confidence_buffer,,null,,,,,,,,,,,,,,,,,
1032.7000000011176,,pt2_memorable_rating,681748,Frankfort,,52,,4,,,,,,,,,,,,,,,
null,,confidence_buffer,681850,confidence_buffer,,null,,,,,,,,,,,,,,,,,
4016.5,,recognition_phase,685868,Frankfort,,52,,,,,new,1,0.9285714285714286,,,,,,,,,,
null,,confidence_buffer,685970,confidence_buffer,,null,,,,,,,,,,,,,,,,,
null,,thebreak,686472,break,,null,,,,,,,,,,,,,,,,,
3585.7999999988824,,realistic_rating,690060,Olympia,,52,Olympia,4,,,,,,,,,,,,,,,
null,,confidence_buffer,690162,confidence_buffer,,null,,,,,,,,,,,,,,,,,
1720.5,,pt2_unique_rating,691884,Olympia,,52,,4,,,,,,,,,,,,,,,
null,,confidence_buffer,691985,confidence_buffer,,null,,,,,,,,,,,,,,,,,
2480.9000000003725,,pt2_memorable_rating,694468,Olympia,,51,,3,,,,,,,,,,,,,,,
null,,confidence_buffer,694570,confidence_buffer,,null,,,,,,,,,,,,,,,,,
3072.699999999255,,recognition_phase,697644,Olympia,,49,,,,,old,1,0.9333333333333333,,,,,,,,,,
null,,confidence_buffer,697746,confidence_buffer,,null,,,,,,,,,,,,,,,,,
null,,thebreak,698247,break,,null,,,,,,,,,,,,,,,,,
6267.200000001118,,realistic_rating,704516,Ithaca,,52,Ithaca,4,,,,,,,,,,,,,,,
null,,confidence_buffer,704618,confidence_buffer,,null,,,,,,,,,,,,,,,,,
3816.5,,pt2_unique_rating,708436,Ithaca,,52,,4,,,,,,,,,,,,,,,
null,,confidence_buffer,708539,confidence_buffer,,null,,,,,,,,,,,,,,,,,
1495.699999999255,,pt2_memorable_rating,710036,Ithaca,,52,,4,,,,,,,,,,,,,,,
null,,confidence_buffer,710138,confidence_buffer,,null,,,,,,,,,,,,,,,,,
3383.2000000011176,,recognition_phase,713522,Ithaca,,52,,,,,new,1,0.9375,,,,,,,,,,
null,,confidence_buffer,713623,confidence_buffer,,null,,,,,,,,,,,,,,,,,
null,,thebreak,714125,break,,null,,,,,,,,,,,,,,,,,
3276.5999999996275,,realistic_rating,717404,Norfolk,,53,Norfolk,5,,,,,,,,,,,,,,,
null,,confidence_buffer,717506,confidence_buffer,,null,,,,,,,,,,,,,,,,,
2824.5999999996275,,pt2_unique_rating,720332,Norfolk,,52,,4,,,,,,,,,,,,,,,
null,,confidence_buffer,720433,confidence_buffer,,null,,,,,,,,,,,,,,,,,
1809,,pt2_memorable_rating,722244,Norfolk,,52,,4,,,,,,,,,,,,,,,
null,,confidence_buffer,722346,confidence_buffer,,null,,,,,,,,,,,,,,,,,
3624.199999999255,,recognition_phase,725971,Norfolk,,49,,,,,old,1,0.9411764705882353,,,,,,,,,,
null,,confidence_buffer,726073,confidence_buffer,,null,,,,,,,,,,,,,,,,,
null,,thebreak,726574,break,,null,,,,,,,,,,,,,,,,,
3420.2000000011176,,realistic_rating,729996,Bellingham,,52,Bellingham,4,,,,,,,,,,,,,,,
null,,confidence_buffer,730097,confidence_buffer,,null,,,,,,,,,,,,,,,,,
3624.0999999996275,,pt2_unique_rating,733723,Bellingham,,53,,5,,,,,,,,,,,,,,,
null,,confidence_buffer,733824,confidence_buffer,,null,,,,,,,,,,,,,,,,,
2138.2000000011176,,pt2_memorable_rating,735962,Bellingham,,52,,4,,,,,,,,,,,,,,,
null,,confidence_buffer,736064,confidence_buffer,,null,,,,,,,,,,,,,,,,,
2393.699999999255,,probe_rating,738460,probe_rating,,53,,,5,1,,,,,,,,,,,,,
null,,confidence_buffer,738561,confidence_buffer,,null,,,,,,,,,,,,,,,,,
4104.699999999255,,recognition_phase,742667,Bellingham,,49,,,,,old,1,0.9444444444444444,,,,,,,,,,
null,,confidence_buffer,742769,confidence_buffer,,null,,,,,,,,,,,,,,,,,
null,,thebreak,743271,break,,null,,,,,,,,,,,,,,,,,
3644.0999999996275,,realistic_rating,746916,Athens,,52,Athens,4,,,,,,,,,,,,,,,
null,,confidence_buffer,747018,confidence_buffer,,null,,,,,,,,,,,,,,,,,
1303.0999999996275,,pt2_unique_rating,748323,Athens,,52,,4,,,,,,,,,,,,,,,
null,,confidence_buffer,748424,confidence_buffer,,null,,,,,,,,,,,,,,,,,
1536.699999999255,,pt2_memorable_rating,749962,Athens,,52,,4,,,,,,,,,,,,,,,
null,,confidence_buffer,750065,confidence_buffer,,null,,,,,,,,,,,,,,,,,
4145.200000001118,,recognition_phase,754212,Athens,,52,,,,,new,1,0.9473684210526315,,,,,,,,,,
null,,confidence_buffer,754314,confidence_buffer,,null,,,,,,,,,,,,,,,,,
null,,thebreak,754814,break,,null,,,,,,,,,,,,,,,,,
4642.5,,realistic_rating,759458,McKinney,,52,McKinney,4,,,,,,,,,,,,,,,
null,,confidence_buffer,759570,confidence_buffer,,null,,,,,,,,,,,,,,,,,
1864.4000000003725,,pt2_unique_rating,761436,McKinney,,51,,3,,,,,,,,,,,,,,,
null,,confidence_buffer,761538,confidence_buffer,,null,,,,,,,,,,,,,,,,,
2000.5,,pt2_memorable_rating,763540,McKinney,,51,,3,,,,,,,,,,,,,,,
null,,confidence_buffer,763641,confidence_buffer,,null,,,,,,,,,,,,,,,,,
3329.0999999996275,,recognition_phase,766971,McKinney,,49,,,,,old,1,0.95,,,,,,,,,,
null,,confidence_buffer,767072,confidence_buffer,,null,,,,,,,,,,,,,,,,,
null,,thebreak,767574,break,,null,,,,,,,,,,,,,,,,,
5060.699999999255,,realistic_rating,772636,Muncie,,52,Muncie,4,,,,,,,,,,,,,,,
null,,confidence_buffer,772739,confidence_buffer,,null,,,,,,,,,,,,,,,,,
1231.800000000745,,pt2_unique_rating,773972,Muncie,,52,,4,,,,,,,,,,,,,,,
null,,confidence_buffer,774074,confidence_buffer,,null,,,,,,,,,,,,,,,,,
1071.8999999985099,,pt2_memorable_rating,775146,Muncie,,52,,4,,,,,,,,,,,,,,,
null,,confidence_buffer,775248,confidence_buffer,,null,,,,,,,,,,,,,,,,,
4138,,recognition_phase,779387,Muncie,,52,,,,,new,1,0.9523809523809523,,,,,,,,,,
null,,confidence_buffer,779488,confidence_buffer,,null,,,,,,,,,,,,,,,,,
null,,thebreak,779990,break,,null,,,,,,,,,,,,,,,,,
1891.7999999988824,,realistic_rating,781884,Yakima,,52,Yakima,4,,,,,,,,,,,,,,,
null,,confidence_buffer,781985,confidence_buffer,,null,,,,,,,,,,,,,,,,,
1842,,pt2_unique_rating,783828,Yakima,,53,,5,,,,,,,,,,,,,,,
null,,confidence_buffer,783930,confidence_buffer,,null,,,,,,,,,,,,,,,,,
968.0999999996275,,pt2_memorable_rating,784900,Yakima,,53,,5,,,,,,,,,,,,,,,
null,,confidence_buffer,785002,confidence_buffer,,null,,,,,,,,,,,,,,,,,
3288,,recognition_phase,788292,Yakima,,52,,,,,new,1,0.9545454545454546,,,,,,,,,,
null,,confidence_buffer,788394,confidence_buffer,,null,,,,,,,,,,,,,,,,,
null,,thebreak,788906,break,,null,,,,,,,,,,,,,,,,,
4337.0999999996275,,realistic_rating,793244,Berkeley,,53,Berkeley,5,,,,,,,,,,,,,,,
null,,confidence_buffer,793345,confidence_buffer,,null,,,,,,,,,,,,,,,,,
1537.199999999255,,pt2_unique_rating,794883,Berkeley,,53,,5,,,,,,,,,,,,,,,
null,,confidence_buffer,794984,confidence_buffer,,null,,,,,,,,,,,,,,,,,
1265.7999999988824,,pt2_memorable_rating,796252,Berkeley,,53,,5,,,,,,,,,,,,,,,
null,,confidence_buffer,796354,confidence_buffer,,null,,,,,,,,,,,,,,,,,
2807.5,,recognition_phase,799162,Berkeley,,49,,,,,old,1,0.9565217391304348,,,,,,,,,,
null,,confidence_buffer,799264,confidence_buffer,,null,,,,,,,,,,,,,,,,,
null,,thebreak,799766,break,,null,,,,,,,,,,,,,,,,,
4212.5,,realistic_rating,803980,Annapolis,,53,Annapolis,5,,,,,,,,,,,,,,,
null,,confidence_buffer,804083,confidence_buffer,,null,,,,,,,,,,,,,,,,,
1279.199999999255,,pt2_unique_rating,805364,Annapolis,,52,,4,,,,,,,,,,,,,,,
null,,confidence_buffer,805466,confidence_buffer,,null,,,,,,,,,,,,,,,,,
1096.2999999988824,,pt2_memorable_rating,806564,Annapolis,,52,,4,,,,,,,,,,,,,,,
null,,confidence_buffer,806665,confidence_buffer,,null,,,,,,,,,,,,,,,,,
3376.9000000003725,,recognition_phase,810044,Annapolis,,49,,,,,old,1,0.9583333333333334,,,,,,,,,,
null,,confidence_buffer,810146,confidence_buffer,,null,,,,,,,,,,,,,,,,,
null,,thebreak,810648,break,,null,,,,,,,,,,,,,,,,,
5219,,realistic_rating,815868,Palo Alto,,52,Palo Alto,4,,,,,,,,,,,,,,,
null,,confidence_buffer,815970,confidence_buffer,,null,,,,,,,,,,,,,,,,,
935.8999999985099,,pt2_unique_rating,816908,Palo Alto,,53,,5,,,,,,,,,,,,,,,
null,,confidence_buffer,817009,confidence_buffer,,null,,,,,,,,,,,,,,,,,
1400.800000000745,,pt2_memorable_rating,818411,Palo Alto,,53,,5,,,,,,,,,,,,,,,
null,,confidence_buffer,818513,confidence_buffer,,null,,,,,,,,,,,,,,,,,
3176.2000000011176,,probe_rating,821691,probe_rating,,49,,,1,1,,,,,,,,,,,,,
null,,confidence_buffer,821805,confidence_buffer,,null,,,,,,,,,,,,,,,,,
3588.9000000003725,,recognition_phase,825395,Palo Alto,,52,,,,,new,1,0.96,,,,,,,,,,
null,,confidence_buffer,825496,confidence_buffer,,null,,,,,,,,,,,,,,,,,
null,,thebreak,825997,break,,null,,,,,,,,,,,,,,,,,
3589,,realistic_rating,829588,Gainesville,,52,Gainesville,4,,,,,,,,,,,,,,,
null,,confidence_buffer,829692,confidence_buffer,,null,,,,,,,,,,,,,,,,,
3254.60000000149,,pt2_unique_rating,832948,Gainesville,,51,,3,,,,,,,,,,,,,,,
null,,confidence_buffer,833050,confidence_buffer,,null,,,,,,,,,,,,,,,,,
1856,,pt2_memorable_rating,834908,Gainesville,,52,,4,,,,,,,,,,,,,,,
null,,confidence_buffer,835018,confidence_buffer,,null,,,,,,,,,,,,,,,,,
3056.5999999996275,,recognition_phase,838076,Gainesville,,52,,,,,new,1,0.9615384615384616,,,,,,,,,,
null,,confidence_buffer,838177,confidence_buffer,,null,,,,,,,,,,,,,,,,,
null,,thebreak,838679,break,,null,,,,,,,,,,,,,,,,,
2956,,realistic_rating,841636,Burlington,,52,Burlington,4,,,,,,,,,,,,,,,
null,,confidence_buffer,841739,confidence_buffer,,null,,,,,,,,,,,,,,,,,
1135.0999999996275,,pt2_unique_rating,842875,Burlington,,52,,4,,,,,,,,,,,,,,,
null,,confidence_buffer,842976,confidence_buffer,,null,,,,,,,,,,,,,,,,,
1792.7999999988824,,pt2_memorable_rating,844770,Burlington,,51,,3,,,,,,,,,,,,,,,
null,,confidence_buffer,844872,confidence_buffer,,null,,,,,,,,,,,,,,,,,
2867.10000000149,,recognition_phase,847740,Burlington,,49,,,,,old,1,0.9629629629629629,,,,,,,,,,
null,,confidence_buffer,847841,confidence_buffer,,null,,,,,,,,,,,,,,,,,
null,,thebreak,848342,break,,null,,,,,,,,,,,,,,,,,
3668.0999999996275,,realistic_rating,852012,New Haven,,53,New Haven,5,,,,,,,,,,,,,,,
null,,confidence_buffer,852115,confidence_buffer,,null,,,,,,,,,,,,,,,,,
1551.7000000011176,,pt2_unique_rating,853668,New Haven,,52,,4,,,,,,,,,,,,,,,
null,,confidence_buffer,853783,confidence_buffer,,null,,,,,,,,,,,,,,,,,
2739.5999999996275,,probe_rating,856524,probe_rating,,49,,,1,1,,,,,,,,,,,,,
null,,confidence_buffer,856625,confidence_buffer,,null,,,,,,,,,,,,,,,,,
2881,,pt2_memorable_rating,859508,New Haven,,52,,4,,,,,,,,,,,,,,,
null,,confidence_buffer,859609,confidence_buffer,,null,,,,,,,,,,,,,,,,,
4424.700000001118,,recognition_phase,864036,New Haven,,49,,,,,old,1,0.9642857142857143,,,,,,,,,,
null,,confidence_buffer,864137,confidence_buffer,,null,,,,,,,,,,,,,,,,,
null,,thebreak,864639,break,,null,,,,,,,,,,,,,,,,,
8418.799999998882,,realistic_rating,873060,Abilene,,52,Abilene,4,,,,,,,,,,,,,,,
null,,confidence_buffer,873162,confidence_buffer,,null,,,,,,,,,,,,,,,,,
1912,,pt2_unique_rating,875075,Abilene,,52,,4,,,,,,,,,,,,,,,
null,,confidence_buffer,875176,confidence_buffer,,null,,,,,,,,,,,,,,,,,
1313.8999999985099,,pt2_memorable_rating,876492,Abilene,,51,,3,,,,,,,,,,,,,,,
null,,confidence_buffer,876594,confidence_buffer,,null,,,,,,,,,,,,,,,,,
5048.200000001118,,recognition_phase,881644,Abilene,,50,,,,,old,1,0.9655172413793104,,,,,,,,,,
null,,confidence_buffer,881746,confidence_buffer,,null,,,,,,,,,,,,,,,,,
null,,thebreak,882247,break,,null,,,,,,,,,,,,,,,,,
11115,,realistic_rating,893364,Santa Monica,,53,Santa Monica,5,,,,,,,,,,,,,,,
null,,confidence_buffer,893466,confidence_buffer,,null,,,,,,,,,,,,,,,,,
2024.5999999996275,,pt2_unique_rating,895492,Santa Monica,,53,,5,,,,,,,,,,,,,,,
null,,confidence_buffer,895593,confidence_buffer,,null,,,,,,,,,,,,,,,,,
1657.5,,pt2_memorable_rating,897252,Santa Monica,,53,,5,,,,,,,,,,,,,,,
null,,confidence_buffer,897354,confidence_buffer,,null,,,,,,,,,,,,,,,,,
2640.60000000149,,recognition_phase,899996,Santa Monica,,52,,,,,new,1,0.9666666666666667,,,,,,,,,,
null,,confidence_buffer,900097,confidence_buffer,,null,,,,,,,,,,,,,,,,,
null,,thebreak,900599,break,,null,,,,,,,,,,,,,,,,,
3738.2999999988824,,realistic_rating,904339,Rock Springs,,52,Rock Springs,4,,,,,,,,,,,,,,,
null,,confidence_buffer,904441,confidence_buffer,,null,,,,,,,,,,,,,,,,,
2665.5999999996275,,pt2_unique_rating,907108,Rock Springs,,53,,5,,,,,,,,,,,,,,,
null,,confidence_buffer,907210,confidence_buffer,,null,,,,,,,,,,,,,,,,,
1664.5999999996275,,pt2_memorable_rating,908876,Rock Springs,,53,,5,,,,,,,,,,,,,,,
null,,confidence_buffer,908977,confidence_buffer,,null,,,,,,,,,,,,,,,,,
3153.199999999255,,recognition_phase,912132,Rock Springs,,52,,,,,new,1,0.967741935483871,,,,,,,,,,
null,,confidence_buffer,912233,confidence_buffer,,null,,,,,,,,,,,,,,,,,
null,,thebreak,912735,break,,null,,,,,,,,,,,,,,,,,
2442.2999999988824,,realistic_rating,915179,Carson City,,53,Carson City,5,,,,,,,,,,,,,,,
null,,confidence_buffer,915280,confidence_buffer,,null,,,,,,,,,,,,,,,,,
1721.4000000003725,,pt2_unique_rating,917003,Carson City,,52,,4,,,,,,,,,,,,,,,
null,,confidence_buffer,917104,confidence_buffer,,null,,,,,,,,,,,,,,,,,
2521.4000000003725,,pt2_memorable_rating,919627,Carson City,,53,,5,,,,,,,,,,,,,,,
null,,confidence_buffer,919728,confidence_buffer,,null,,,,,,,,,,,,,,,,,
5042.0999999996275,,recognition_phase,924772,Carson City,,52,,,,,new,0,0.9375,,,,,,,,,,
null,,confidence_buffer,924873,confidence_buffer,,null,,,,,,,,,,,,,,,,,
null,,thebreak,925376,break,,null,,,,,,,,,,,,,,,,,
4658.0999999996275,,realistic_rating,930036,Montpelier,,53,Montpelier,5,,,,,,,,,,,,,,,
null,,confidence_buffer,930138,confidence_buffer,,null,,,,,,,,,,,,,,,,,
1319.7000000011176,,pt2_unique_rating,931459,Montpelier,,53,,5,,,,,,,,,,,,,,,
null,,confidence_buffer,931560,confidence_buffer,,null,,,,,,,,,,,,,,,,,
1410.2000000011176,,pt2_memorable_rating,932972,Montpelier,,53,,5,,,,,,,,,,,,,,,
null,,confidence_buffer,933074,confidence_buffer,,null,,,,,,,,,,,,,,,,,
4223.800000000745,,recognition_phase,937300,Montpelier,,52,,,,,new,1,0.9393939393939394,,,,,,,,,,
null,,confidence_buffer,937402,confidence_buffer,,null,,,,,,,,,,,,,,,,,
null,,thebreak,937903,break,,null,,,,,,,,,,,,,,,,,
6194.699999999255,,realistic_rating,944098,Dothan,,50,Dothan,2,,,,,,,,,,,,,,,
null,,confidence_buffer,944200,confidence_buffer,,null,,,,,,,,,,,,,,,,,
2338.699999999255,,pt2_unique_rating,946540,Dothan,,51,,3,,,,,,,,,,,,,,,
null,,confidence_buffer,946641,confidence_buffer,,null,,,,,,,,,,,,,,,,,
2744.5,,pt2_memorable_rating,949387,Dothan,,50,,2,,,,,,,,,,,,,,,
null,,confidence_buffer,949488,confidence_buffer,,null,,,,,,,,,,,,,,,,,
2467.0999999996275,,recognition_phase,951956,Dothan,,49,,,,,old,1,0.9411764705882353,,,,,,,,,,
null,,confidence_buffer,952057,confidence_buffer,,null,,,,,,,,,,,,,,,,,
null,,thebreak,952559,break,,null,,,,,,,,,,,,,,,,,
3147.699999999255,,realistic_rating,955708,Marquette,,52,Marquette,4,,,,,,,,,,,,,,,
null,,confidence_buffer,955810,confidence_buffer,,null,,,,,,,,,,,,,,,,,
1855.9000000003725,,pt2_unique_rating,957668,Marquette,,53,,5,,,,,,,,,,,,,,,
null,,confidence_buffer,957769,confidence_buffer,,null,,,,,,,,,,,,,,,,,
2967.699999999255,,pt2_memorable_rating,960738,Marquette,,51,,3,,,,,,,,,,,,,,,
null,,confidence_buffer,960841,confidence_buffer,,null,,,,,,,,,,,,,,,,,
4402,,recognition_phase,965244,Marquette,,52,,,,,new,1,0.9428571428571428,,,,,,,,,,
null,,confidence_buffer,965346,confidence_buffer,,null,,,,,,,,,,,,,,,,,
null,,thebreak,965847,break,,null,,,,,,,,,,,,,,,,,
3051.300000000745,,realistic_rating,968899,Decatur,,53,Decatur,5,,,,,,,,,,,,,,,
null,,confidence_buffer,968999,confidence_buffer,,null,,,,,,,,,,,,,,,,,
1865.5999999996275,,pt2_unique_rating,970866,Decatur,,53,,5,,,,,,,,,,,,,,,
null,,confidence_buffer,970968,confidence_buffer,,null,,,,,,,,,,,,,,,,,
1371,,pt2_memorable_rating,972340,Decatur,,52,,4,,,,,,,,,,,,,,,
null,,confidence_buffer,972441,confidence_buffer,,null,,,,,,,,,,,,,,,,,
14081.900000000373,,probe_rating,986524,probe_rating,,50,,,2,0,,,,,,,,,,,,,
null,,confidence_buffer,986626,confidence_buffer,,null,,,,,,,,,,,,,,,,,
8072.200000001118,,recognition_phase,994700,Decatur,,50,,,,,old,0,0.9166666666666666,,,,,,,,,,
null,,confidence_buffer,994801,confidence_buffer,,null,,,,,,,,,,,,,,,,,
null,,thebreak,995303,break,,null,,,,,,,,,,,,,,,,,
4643.9000000003725,,realistic_rating,999948,Ann Arbor,,52,Ann Arbor,4,,,,,,,,,,,,,,,
null,,confidence_buffer,1000050,confidence_buffer,,null,,,,,,,,,,,,,,,,,
1656,,pt2_unique_rating,1001707,Ann Arbor,,52,,4,,,,,,,,,,,,,,,
null,,confidence_buffer,1001810,confidence_buffer,,null,,,,,,,,,,,,,,,,,
1680.3999999985099,,pt2_memorable_rating,1003492,Ann Arbor,,53,,5,,,,,,,,,,,,,,,
null,,confidence_buffer,1003594,confidence_buffer,,null,,,,,,,,,,,,,,,,,
4000.39999999851,,recognition_phase,1007596,Ann Arbor,,49,,,,,old,1,0.918918918918919,,,,,,,,,,
null,,confidence_buffer,1007697,confidence_buffer,,null,,,,,,,,,,,,,,,,,
null,,thebreak,1008199,break,,null,,,,,,,,,,,,,,,,,
3099.39999999851,,realistic_rating,1011300,Pueblo,,53,Pueblo,5,,,,,,,,,,,,,,,
null,,confidence_buffer,1011402,confidence_buffer,,null,,,,,,,,,,,,,,,,,
5959.5999999996275,,probe_rating,1017364,probe_rating,,51,,,3,1,,,,,,,,,,,,,
null,,confidence_buffer,1017465,confidence_buffer,,null,,,,,,,,,,,,,,,,,
1928.2000000011176,,pt2_unique_rating,1019395,Pueblo,,52,,4,,,,,,,,,,,,,,,
null,,confidence_buffer,1019496,confidence_buffer,,null,,,,,,,,,,,,,,,,,
8570.199999999255,,pt2_memorable_rating,1028068,Pueblo,,51,,3,,,,,,,,,,,,,,,
null,,confidence_buffer,1028170,confidence_buffer,,null,,,,,,,,,,,,,,,,,
4735.39999999851,,recognition_phase,1032906,Pueblo,,50,,,,,old,1,0.9210526315789473,,,,,,,,,,
null,,confidence_buffer,1033008,confidence_buffer,,null,,,,,,,,,,,,,,,,,
null,,thebreak,1033509,break,,null,,,,,,,,,,,,,,,,,
10269.199999999255,,realistic_rating,1043780,Concord,,52,Concord,4,,,,,,,,,,,,,,,
null,,confidence_buffer,1043883,confidence_buffer,,null,,,,,,,,,,,,,,,,,
2046.7999999988824,,pt2_unique_rating,1045932,Concord,,51,,3,,,,,,,,,,,,,,,
null,,confidence_buffer,1046034,confidence_buffer,,null,,,,,,,,,,,,,,,,,
2192.0999999996275,,pt2_memorable_rating,1048227,Concord,,52,,4,,,,,,,,,,,,,,,
null,,confidence_buffer,1048329,confidence_buffer,,null,,,,,,,,,,,,,,,,,
3304.9000000003725,,recognition_phase,1051635,Concord,,52,,,,,new,0,0.8974358974358975,,,,,,,,,,
null,,confidence_buffer,1051738,confidence_buffer,,null,,,,,,,,,,,,,,,,,
null,,thebreak,1052240,break,,null,,,,,,,,,,,,,,,,,
6906.60000000149,,realistic_rating,1059148,Salem,,52,Salem,4,,,,,,,,,,,,,,,
null,,confidence_buffer,1059260,confidence_buffer,,null,,,,,,,,,,,,,,,,,
2614,,pt2_unique_rating,1061876,Salem,,52,,4,,,,,,,,,,,,,,,
null,,confidence_buffer,1061978,confidence_buffer,,null,,,,,,,,,,,,,,,,,
2335.9000000003725,,pt2_memorable_rating,1064316,Salem,,51,,3,,,,,,,,,,,,,,,
null,,confidence_buffer,1064418,confidence_buffer,,null,,,,,,,,,,,,,,,,,
3047.300000000745,,recognition_phase,1067467,Salem,,52,,,,,new,1,0.9,,,,,,,,,,
null,,confidence_buffer,1067569,confidence_buffer,,null,,,,,,,,,,,,,,,,,
null,,thebreak,1068070,break,,null,,,,,,,,,,,,,,,,,
4363.5999999996275,,realistic_rating,1072435,Reno,,53,Reno,5,,,,,,,,,,,,,,,
null,,confidence_buffer,1072537,confidence_buffer,,null,,,,,,,,,,,,,,,,,
2665.2999999988824,,pt2_unique_rating,1075204,Reno,,53,,5,,,,,,,,,,,,,,,
null,,confidence_buffer,1075305,confidence_buffer,,null,,,,,,,,,,,,,,,,,
2376.89999999851,,pt2_memorable_rating,1077684,Reno,,52,,4,,,,,,,,,,,,,,,
null,,confidence_buffer,1077786,confidence_buffer,,null,,,,,,,,,,,,,,,,,
5631.699999999255,,recognition_phase,1083419,Reno,,52,,,,,new,1,0.9024390243902439,,,,,,,,,,
null,,confidence_buffer,1083521,confidence_buffer,,null,,,,,,,,,,,,,,,,,
null,,thebreak,1084023,break,,null,,,,,,,,,,,,,,,,,
4947,,realistic_rating,1088972,Peoria,,52,Peoria,4,,,,,,,,,,,,,,,
null,,confidence_buffer,1089074,confidence_buffer,,null,,,,,,,,,,,,,,,,,
2047.2000000011176,,pt2_unique_rating,1091122,Peoria,,51,,3,,,,,,,,,,,,,,,
null,,confidence_buffer,1091224,confidence_buffer,,null,,,,,,,,,,,,,,,,,
2329.5,,pt2_memorable_rating,1093555,Peoria,,51,,3,,,,,,,,,,,,,,,
null,,confidence_buffer,1093656,confidence_buffer,,null,,,,,,,,,,,,,,,,,
4193.89999999851,,recognition_phase,1097852,Peoria,,52,,,,,new,0,0.8809523809523809,,,,,,,,,,
null,,confidence_buffer,1097955,confidence_buffer,,null,,,,,,,,,,,,,,,,,
null,,thebreak,1098456,break,,null,,,,,,,,,,,,,,,,,
2969.5999999996275,,realistic_rating,1101428,Altoona,,53,Altoona,5,,,,,,,,,,,,,,,
null,,confidence_buffer,1101530,confidence_buffer,,null,,,,,,,,,,,,,,,,,
2200.5999999996275,,pt2_unique_rating,1103732,Altoona,,53,,5,,,,,,,,,,,,,,,
null,,confidence_buffer,1103834,confidence_buffer,,null,,,,,,,,,,,,,,,,,
1230.9000000003725,,pt2_memorable_rating,1105066,Altoona,,53,,5,,,,,,,,,,,,,,,
null,,confidence_buffer,1105167,confidence_buffer,,null,,,,,,,,,,,,,,,,,
2850.9000000003725,,recognition_phase,1108019,Altoona,,52,,,,,new,1,0.8837209302325582,,,,,,,,,,
null,,confidence_buffer,1108120,confidence_buffer,,null,,,,,,,,,,,,,,,,,
null,,thebreak,1108622,break,,null,,,,,,,,,,,,,,,,,
5740.9000000003725,,realistic_rating,1114364,Champaign,,53,Champaign,5,,,,,,,,,,,,,,,
null,,confidence_buffer,1114466,confidence_buffer,,null,,,,,,,,,,,,,,,,,
1223.4000000003725,,pt2_unique_rating,1115691,Champaign,,52,,4,,,,,,,,,,,,,,,
null,,confidence_buffer,1115793,confidence_buffer,,null,,,,,,,,,,,,,,,,,
2640.699999999255,,pt2_memorable_rating,1118434,Champaign,,52,,4,,,,,,,,,,,,,,,
null,,confidence_buffer,1118536,confidence_buffer,,null,,,,,,,,,,,,,,,,,
3409.199999999255,,recognition_phase,1121946,Champaign,,52,,,,,new,1,0.8863636363636364,,,,,,,,,,
null,,confidence_buffer,1122049,confidence_buffer,,null,,,,,,,,,,,,,,,,,
null,,thebreak,1122550,break,,null,,,,,,,,,,,,,,,,,
3227.5,,realistic_rating,1125778,Boise,,52,Boise,4,,,,,,,,,,,,,,,
null,,confidence_buffer,1125880,confidence_buffer,,null,,,,,,,,,,,,,,,,,
2978.2999999988824,,pt2_unique_rating,1128860,Boise,,53,,5,,,,,,,,,,,,,,,
null,,confidence_buffer,1128961,confidence_buffer,,null,,,,,,,,,,,,,,,,,
1448.7999999988824,,pt2_memorable_rating,1130412,Boise,,53,,5,,,,,,,,,,,,,,,
null,,confidence_buffer,1130513,confidence_buffer,,null,,,,,,,,,,,,,,,,,
5776.5999999996275,,recognition_phase,1136291,Boise,,52,,,,,new,0,0.8666666666666667,,,,,,,,,,
null,,confidence_buffer,1136393,confidence_buffer,,null,,,,,,,,,,,,,,,,,
null,,thebreak,1136894,break,,null,,,,,,,,,,,,,,,,,
3981.2000000011176,,realistic_rating,1140876,Terre Haute,,53,Terre Haute,5,,,,,,,,,,,,,,,
null,,confidence_buffer,1140977,confidence_buffer,,null,,,,,,,,,,,,,,,,,
1688.5999999996275,,pt2_unique_rating,1142668,Terre Haute,,53,,5,,,,,,,,,,,,,,,
null,,confidence_buffer,1142769,confidence_buffer,,null,,,,,,,,,,,,,,,,,
2192.699999999255,,pt2_memorable_rating,1144964,Terre Haute,,52,,4,,,,,,,,,,,,,,,
null,,confidence_buffer,1145066,confidence_buffer,,null,,,,,,,,,,,,,,,,,
4096.199999999255,,probe_rating,1149164,probe_rating,,51,,,3,1,,,,,,,,,,,,,
null,,confidence_buffer,1149266,confidence_buffer,,null,,,,,,,,,,,,,,,,,
4520.699999999255,,recognition_phase,1153788,Terre Haute,,52,,,,,new,1,0.8695652173913043,,,,,,,,,,
null,,confidence_buffer,1153891,confidence_buffer,,null,,,,,,,,,,,,,,,,,
null,,thebreak,1154393,break,,null,,,,,,,,,,,,,,,,,
5562,,realistic_rating,1159956,Fort Wayne,,53,Fort Wayne,5,,,,,,,,,,,,,,,
null,,confidence_buffer,1160058,confidence_buffer,,null,,,,,,,,,,,,,,,,,
1328.5999999996275,,pt2_unique_rating,1161388,Fort Wayne,,52,,4,,,,,,,,,,,,,,,
null,,confidence_buffer,1161503,confidence_buffer,,null,,,,,,,,,,,,,,,,,
1227.5,,pt2_memorable_rating,1162732,Fort Wayne,,52,,4,,,,,,,,,,,,,,,
null,,confidence_buffer,1162834,confidence_buffer,,null,,,,,,,,,,,,,,,,,
4656.199999999255,,recognition_phase,1167492,Fort Wayne,,49,,,,,old,1,0.8723404255319149,,,,,,,,,,
null,,confidence_buffer,1167593,confidence_buffer,,null,,,,,,,,,,,,,,,,,
null,,thebreak,1168095,break,,null,,,,,,,,,,,,,,,,,
3395.5999999996275,,realistic_rating,1171492,Hagerstown,,53,Hagerstown,5,,,,,,,,,,,,,,,
null,,confidence_buffer,1171594,confidence_buffer,,null,,,,,,,,,,,,,,,,,
1439.5999999996275,,pt2_unique_rating,1173035,Hagerstown,,52,,4,,,,,,,,,,,,,,,
null,,confidence_buffer,1173137,confidence_buffer,,null,,,,,,,,,,,,,,,,,
1319.9000000003725,,pt2_memorable_rating,1174458,Hagerstown,,52,,4,,,,,,,,,,,,,,,
null,,confidence_buffer,1174560,confidence_buffer,,null,,,,,,,,,,,,,,,,,
2738.2999999988824,,recognition_phase,1177300,Hagerstown,,52,,,,,new,1,0.875,,,,,,,,,,
null,,confidence_buffer,1177409,confidence_buffer,,null,,,,,,,,,,,,,,,,,
null,,thebreak,1177911,break,,null,,,,,,,,,,,,,,,,,
4347.299999998882,,realistic_rating,1182260,Dover,,52,Dover,4,,,,,,,,,,,,,,,
null,,confidence_buffer,1182368,confidence_buffer,,null,,,,,,,,,,,,,,,,,
1754,,pt2_unique_rating,1184123,Dover,,51,,3,,,,,,,,,,,,,,,
null,,confidence_buffer,1184226,confidence_buffer,,null,,,,,,,,,,,,,,,,,
1631.300000000745,,pt2_memorable_rating,1185859,Dover,,52,,4,,,,,,,,,,,,,,,
null,,confidence_buffer,1185960,confidence_buffer,,null,,,,,,,,,,,,,,,,,
2842.199999999255,,recognition_phase,1188804,Dover,,49,,,,,old,1,0.8775510204081632,,,,,,,,,,
null,,confidence_buffer,1188905,confidence_buffer,,null,,,,,,,,,,,,,,,,,
null,,thebreak,1189407,break,,null,,,,,,,,,,,,,,,,,
3804.199999999255,,realistic_rating,1193212,Fort Collins,,53,Fort Collins,5,,,,,,,,,,,,,,,
null,,confidence_buffer,1193314,confidence_buffer,,null,,,,,,,,,,,,,,,,,
1448,,pt2_unique_rating,1194763,Fort Collins,,53,,5,,,,,,,,,,,,,,,
null,,confidence_buffer,1194866,confidence_buffer,,null,,,,,,,,,,,,,,,,,
1455.699999999255,,pt2_memorable_rating,1196323,Fort Collins,,52,,4,,,,,,,,,,,,,,,
null,,confidence_buffer,1196426,confidence_buffer,,null,,,,,,,,,,,,,,,,,
2944.0999999996275,,recognition_phase,1199372,Fort Collins,,49,,,,,old,1,0.88,,,,,,,,,,
null,,confidence_buffer,1199473,confidence_buffer,,null,,,,,,,,,,,,,,,,,
null,,thebreak,1199975,break,,null,,,,,,,,,,,,,,,,,
,,survey,1440019,survey-questions,,,,,,,,,,none,high,no,I just tried to remember the names,Whether I had heard of them before or not,Whether I had heard of them before or not,IF the name was unusual ,If I knew it to be a real city,no,thanks
