rt,responses,trial_type,time_elapsed,stimulus,button_pressed,key_press,name_trial,city_type,rating,probe,probe_accuracy,response,correct,accuracy,problems,smooth,distraction,strategies,familiar,memorable,unique,realistic,similar,comments
5519.400000035763,{worker_id:65959bfed43a65c4d24b7445},id_enter,5520,,,,,,,,,,,,,,,,,,,,,
16495.19999998808,,fullscreen,22018,fullscreen,0,,,,,,,,,,,,,,,,,,,
12469.199999988079,,intro_0,34488,instruct,,32,,,,,,,,,,,,,,,,,,
49454.40000003576,,intro_1,83943,instruct,,32,,,,,,,,,,,,,,,,,,
11423.399999976158,,intro_2,95367,instruct,,32,,,,,,,,,,,,,,,,,,
null,,instruct_dir_4,96868,instruct,,null,,,,,,,,,,,,,,,,,,
null,,thebreak,97370,break,,null,,,,,,,,,,,,,,,,,,
8357.900000035763,,familiar_rating,105728,Leesburg,,49,Leesburg,US,1,,,,,,,,,,,,,,,
null,,confidence_buffer,105831,confidence_buffer,,null,,,,,,,,,,,,,,,,,,
5247.699999988079,,unique_rating,111079,Leesburg,,49,,,1,,,,,,,,,,,,,,,
null,,confidence_buffer,111181,confidence_buffer,,null,,,,,,,,,,,,,,,,,,
2497.300000011921,,memorable_rating,113679,Leesburg,,49,,,1,,,,,,,,,,,,,,,
null,,confidence_buffer,113782,confidence_buffer,,null,,,,,,,,,,,,,,,,,,
null,,thebreak,114284,break,,null,,,,,,,,,,,,,,,,,,
4671.5,,familiar_rating,118956,Driftwood Bay,,49,Driftwood Bay,Fictional,1,,,,,,,,,,,,,,,
null,,confidence_buffer,119057,confidence_buffer,,null,,,,,,,,,,,,,,,,,,
6997.300000011921,,unique_rating,126055,Driftwood Bay,,51,,,3,,,,,,,,,,,,,,,
null,,confidence_buffer,126157,confidence_buffer,,null,,,,,,,,,,,,,,,,,,
4106.600000023842,,probe_rating,130264,probe_rating,,51,,,,3,1,,,,,,,,,,,,,
null,,confidence_buffer,130366,confidence_buffer,,null,,,,,,,,,,,,,,,,,,
9456.199999988079,,memorable_rating,139823,Driftwood Bay,,53,,,5,,,,,,,,,,,,,,,
null,,confidence_buffer,139925,confidence_buffer,,null,,,,,,,,,,,,,,,,,,
null,,thebreak,140427,break,,null,,,,,,,,,,,,,,,,,,
6883.899999976158,,familiar_rating,147312,Athens,,52,Athens,US,4,,,,,,,,,,,,,,,
null,,confidence_buffer,147414,confidence_buffer,,null,,,,,,,,,,,,,,,,,,
7480.599999964237,,unique_rating,154895,Athens,,50,,,2,,,,,,,,,,,,,,,
null,,confidence_buffer,154997,confidence_buffer,,null,,,,,,,,,,,,,,,,,,
5042.899999976158,,memorable_rating,160040,Athens,,51,,,3,,,,,,,,,,,,,,,
null,,confidence_buffer,160142,confidence_buffer,,null,,,,,,,,,,,,,,,,,,
null,,thebreak,160645,break,,null,,,,,,,,,,,,,,,,,,
6393.600000023842,,familiar_rating,167040,Lake of the Ozarks,,51,Lake of the Ozarks,US,3,,,,,,,,,,,,,,,
null,,confidence_buffer,167142,confidence_buffer,,null,,,,,,,,,,,,,,,,,,
4881.300000011921,,unique_rating,172024,Lake of the Ozarks,,51,,,3,,,,,,,,,,,,,,,
null,,confidence_buffer,172125,confidence_buffer,,null,,,,,,,,,,,,,,,,,,
7953.5,,memorable_rating,180080,Lake of the Ozarks,,52,,,4,,,,,,,,,,,,,,,
null,,confidence_buffer,180182,confidence_buffer,,null,,,,,,,,,,,,,,,,,,
null,,thebreak,180684,break,,null,,,,,,,,,,,,,,,,,,
5099.100000023842,,familiar_rating,185784,Solara Glen,,49,Solara Glen,Fictional,1,,,,,,,,,,,,,,,
null,,confidence_buffer,185886,confidence_buffer,,null,,,,,,,,,,,,,,,,,,
6216.399999976158,,unique_rating,192103,Solara Glen,,53,,,5,,,,,,,,,,,,,,,
null,,confidence_buffer,192205,confidence_buffer,,null,,,,,,,,,,,,,,,,,,
5194.599999964237,,memorable_rating,197400,Solara Glen,,50,,,2,,,,,,,,,,,,,,,
null,,confidence_buffer,197503,confidence_buffer,,null,,,,,,,,,,,,,,,,,,
null,,thebreak,198006,break,,null,,,,,,,,,,,,,,,,,,
7152.300000011921,,familiar_rating,205159,Summershade,,49,Summershade,Fictional,1,,,,,,,,,,,,,,,
null,,confidence_buffer,205261,confidence_buffer,,null,,,,,,,,,,,,,,,,,,
3369.900000035763,,unique_rating,208632,Summershade,,53,,,5,,,,,,,,,,,,,,,
null,,confidence_buffer,208734,confidence_buffer,,null,,,,,,,,,,,,,,,,,,
4096.800000011921,,memorable_rating,212831,Summershade,,52,,,4,,,,,,,,,,,,,,,
null,,confidence_buffer,212932,confidence_buffer,,null,,,,,,,,,,,,,,,,,,
6171.699999988079,,probe_rating,219104,probe_rating,,53,,,,5,1,,,,,,,,,,,,,
null,,confidence_buffer,219205,confidence_buffer,,null,,,,,,,,,,,,,,,,,,
null,,thebreak,219707,break,,null,,,,,,,,,,,,,,,,,,
6811.900000035763,,familiar_rating,226520,Sunmere,,49,Sunmere,Fictional,1,,,,,,,,,,,,,,,
null,,confidence_buffer,226622,confidence_buffer,,null,,,,,,,,,,,,,,,,,,
2417.399999976158,,unique_rating,229040,Sunmere,,51,,,3,,,,,,,,,,,,,,,
null,,confidence_buffer,229142,confidence_buffer,,null,,,,,,,,,,,,,,,,,,
3945.300000011921,,memorable_rating,233088,Sunmere,,50,,,2,,,,,,,,,,,,,,,
null,,confidence_buffer,233190,confidence_buffer,,null,,,,,,,,,,,,,,,,,,
null,,thebreak,233692,break,,null,,,,,,,,,,,,,,,,,,
4946.600000023842,,familiar_rating,238639,Cedarwyn,,49,Cedarwyn,Fictional,1,,,,,,,,,,,,,,,
null,,confidence_buffer,238740,confidence_buffer,,null,,,,,,,,,,,,,,,,,,
2602.5,,unique_rating,241344,Cedarwyn,,52,,,4,,,,,,,,,,,,,,,
null,,confidence_buffer,241444,confidence_buffer,,null,,,,,,,,,,,,,,,,,,
2723.2000000476837,,memorable_rating,244168,Cedarwyn,,51,,,3,,,,,,,,,,,,,,,
null,,confidence_buffer,244269,confidence_buffer,,null,,,,,,,,,,,,,,,,,,
null,,thebreak,244771,break,,null,,,,,,,,,,,,,,,,,,
5027.699999988079,,familiar_rating,249800,Shreveport,,52,Shreveport,US,4,,,,,,,,,,,,,,,
null,,confidence_buffer,249901,confidence_buffer,,null,,,,,,,,,,,,,,,,,,
3129.600000023842,,unique_rating,253031,Shreveport,,50,,,2,,,,,,,,,,,,,,,
null,,confidence_buffer,253135,confidence_buffer,,null,,,,,,,,,,,,,,,,,,
3040.400000035763,,memorable_rating,256176,Shreveport,,51,,,3,,,,,,,,,,,,,,,
null,,confidence_buffer,256277,confidence_buffer,,null,,,,,,,,,,,,,,,,,,
2602.199999988079,,probe_rating,258880,probe_rating,,52,,,,4,1,,,,,,,,,,,,,
null,,confidence_buffer,258981,confidence_buffer,,null,,,,,,,,,,,,,,,,,,
null,,thebreak,259482,break,,null,,,,,,,,,,,,,,,,,,
4676.5,,familiar_rating,264160,Lakehaven,,50,Lakehaven,Fictional,2,,,,,,,,,,,,,,,
null,,confidence_buffer,264261,confidence_buffer,,null,,,,,,,,,,,,,,,,,,
4410.199999988079,,unique_rating,268672,Lakehaven,,52,,,4,,,,,,,,,,,,,,,
null,,confidence_buffer,268779,confidence_buffer,,null,,,,,,,,,,,,,,,,,,
5196.200000047684,,memorable_rating,273976,Lakehaven,,51,,,3,,,,,,,,,,,,,,,
null,,confidence_buffer,274077,confidence_buffer,,null,,,,,,,,,,,,,,,,,,
null,,thebreak,274579,break,,null,,,,,,,,,,,,,,,,,,
6156.600000023842,,familiar_rating,280736,Abilene,,52,Abilene,US,4,,,,,,,,,,,,,,,
null,,confidence_buffer,280837,confidence_buffer,,null,,,,,,,,,,,,,,,,,,
3409.7000000476837,,unique_rating,284248,Abilene,,50,,,2,,,,,,,,,,,,,,,
null,,confidence_buffer,284349,confidence_buffer,,null,,,,,,,,,,,,,,,,,,
3946.300000011921,,probe_rating,288296,probe_rating,,52,,,,4,1,,,,,,,,,,,,,
null,,confidence_buffer,288398,confidence_buffer,,null,,,,,,,,,,,,,,,,,,
5817.400000035763,,memorable_rating,294216,Abilene,,51,,,3,,,,,,,,,,,,,,,
null,,confidence_buffer,294318,confidence_buffer,,null,,,,,,,,,,,,,,,,,,
null,,thebreak,294821,break,,null,,,,,,,,,,,,,,,,,,
9579.099999964237,,familiar_rating,304400,Orr,,50,Orr,US,2,,,,,,,,,,,,,,,
null,,confidence_buffer,304502,confidence_buffer,,null,,,,,,,,,,,,,,,,,,
4081.5,,unique_rating,308584,Orr,,53,,,5,,,,,,,,,,,,,,,
null,,confidence_buffer,308685,confidence_buffer,,null,,,,,,,,,,,,,,,,,,
2465.800000011921,,memorable_rating,311151,Orr,,52,,,4,,,,,,,,,,,,,,,
null,,confidence_buffer,311259,confidence_buffer,,null,,,,,,,,,,,,,,,,,,
null,,thebreak,311760,break,,null,,,,,,,,,,,,,,,,,,
2975.300000011921,,familiar_rating,314736,Peoria,,52,Peoria,US,4,,,,,,,,,,,,,,,
null,,confidence_buffer,314838,confidence_buffer,,null,,,,,,,,,,,,,,,,,,
2201.300000011921,,unique_rating,317040,Peoria,,50,,,2,,,,,,,,,,,,,,,
null,,confidence_buffer,317140,confidence_buffer,,null,,,,,,,,,,,,,,,,,,
4754.5,,probe_rating,321896,probe_rating,,53,,,,5,1,,,,,,,,,,,,,
null,,confidence_buffer,321997,confidence_buffer,,null,,,,,,,,,,,,,,,,,,
3427,,memorable_rating,325425,Peoria,,51,,,3,,,,,,,,,,,,,,,
null,,confidence_buffer,325527,confidence_buffer,,null,,,,,,,,,,,,,,,,,,
null,,thebreak,326028,break,,null,,,,,,,,,,,,,,,,,,
3122.800000011921,,familiar_rating,329152,Hilo,,49,Hilo,US,1,,,,,,,,,,,,,,,
null,,confidence_buffer,329252,confidence_buffer,,null,,,,,,,,,,,,,,,,,,
1802.300000011921,,unique_rating,331055,Hilo,,53,,,5,,,,,,,,,,,,,,,
null,,confidence_buffer,331157,confidence_buffer,,null,,,,,,,,,,,,,,,,,,
2873.800000011921,,memorable_rating,334032,Hilo,,52,,,4,,,,,,,,,,,,,,,
null,,confidence_buffer,334133,confidence_buffer,,null,,,,,,,,,,,,,,,,,,
null,,thebreak,334635,break,,null,,,,,,,,,,,,,,,,,,
4900.600000023842,,familiar_rating,339536,Coeur d'Alene,,50,Coeur d'Alene,US,2,,,,,,,,,,,,,,,
null,,confidence_buffer,339638,confidence_buffer,,null,,,,,,,,,,,,,,,,,,
4008.599999964237,,unique_rating,343647,Coeur d'Alene,,51,,,3,,,,,,,,,,,,,,,
null,,confidence_buffer,343750,confidence_buffer,,null,,,,,,,,,,,,,,,,,,
2169.199999988079,,memorable_rating,345920,Coeur d'Alene,,50,,,2,,,,,,,,,,,,,,,
null,,confidence_buffer,346022,confidence_buffer,,null,,,,,,,,,,,,,,,,,,
null,,thebreak,346523,break,,null,,,,,,,,,,,,,,,,,,
3570.399999976158,,familiar_rating,350094,New Verdan,,49,New Verdan,Fictional,1,,,,,,,,,,,,,,,
null,,confidence_buffer,350197,confidence_buffer,,null,,,,,,,,,,,,,,,,,,
4306.399999976158,,unique_rating,354504,New Verdan,,52,,,4,,,,,,,,,,,,,,,
null,,confidence_buffer,354605,confidence_buffer,,null,,,,,,,,,,,,,,,,,,
1986.0999999642372,,memorable_rating,356592,New Verdan,,50,,,2,,,,,,,,,,,,,,,
null,,confidence_buffer,356707,confidence_buffer,,null,,,,,,,,,,,,,,,,,,
null,,thebreak,357209,break,,null,,,,,,,,,,,,,,,,,,
4614.5,,familiar_rating,361825,Livingston,,50,Livingston,US,2,,,,,,,,,,,,,,,
null,,confidence_buffer,361927,confidence_buffer,,null,,,,,,,,,,,,,,,,,,
3216.399999976158,,unique_rating,365144,Livingston,,49,,,1,,,,,,,,,,,,,,,
null,,confidence_buffer,365244,confidence_buffer,,null,,,,,,,,,,,,,,,,,,
2722.399999976158,,memorable_rating,367968,Livingston,,50,,,2,,,,,,,,,,,,,,,
null,,confidence_buffer,368070,confidence_buffer,,null,,,,,,,,,,,,,,,,,,
null,,thebreak,368572,break,,null,,,,,,,,,,,,,,,,,,
4323.899999976158,,familiar_rating,372896,Coralridge,,49,Coralridge,Fictional,1,,,,,,,,,,,,,,,
null,,confidence_buffer,372998,confidence_buffer,,null,,,,,,,,,,,,,,,,,,
1921.199999988079,,unique_rating,374920,Coralridge,,53,,,5,,,,,,,,,,,,,,,
null,,confidence_buffer,375021,confidence_buffer,,null,,,,,,,,,,,,,,,,,,
2674.100000023842,,memorable_rating,377696,Coralridge,,51,,,3,,,,,,,,,,,,,,,
null,,confidence_buffer,377796,confidence_buffer,,null,,,,,,,,,,,,,,,,,,
null,,thebreak,378297,break,,null,,,,,,,,,,,,,,,,,,
5078.599999964237,,familiar_rating,383376,Hawthorne Bluffs,,49,Hawthorne Bluffs,Fictional,1,,,,,,,,,,,,,,,
null,,confidence_buffer,383477,confidence_buffer,,null,,,,,,,,,,,,,,,,,,
2625.399999976158,,unique_rating,386104,Hawthorne Bluffs,,51,,,3,,,,,,,,,,,,,,,
null,,confidence_buffer,386205,confidence_buffer,,null,,,,,,,,,,,,,,,,,,
3089.600000023842,,memorable_rating,389296,Hawthorne Bluffs,,50,,,2,,,,,,,,,,,,,,,
null,,confidence_buffer,389397,confidence_buffer,,null,,,,,,,,,,,,,,,,,,
null,,thebreak,389899,break,,null,,,,,,,,,,,,,,,,,,
5556.400000035763,,familiar_rating,395456,San Antonio,,53,San Antonio,US,5,,,,,,,,,,,,,,,
null,,confidence_buffer,395558,confidence_buffer,,null,,,,,,,,,,,,,,,,,,
3008.900000035763,,unique_rating,398568,San Antonio,,50,,,2,,,,,,,,,,,,,,,
null,,confidence_buffer,398669,confidence_buffer,,null,,,,,,,,,,,,,,,,,,
4634,,memorable_rating,403304,San Antonio,,52,,,4,,,,,,,,,,,,,,,
null,,confidence_buffer,403406,confidence_buffer,,null,,,,,,,,,,,,,,,,,,
1760.5,,probe_rating,405168,probe_rating,,52,,,,4,1,,,,,,,,,,,,,
null,,confidence_buffer,405269,confidence_buffer,,null,,,,,,,,,,,,,,,,,,
null,,thebreak,405770,break,,null,,,,,,,,,,,,,,,,,,
4469.899999976158,,familiar_rating,410241,Gatlinburg,,50,Gatlinburg,US,2,,,,,,,,,,,,,,,
null,,confidence_buffer,410341,confidence_buffer,,null,,,,,,,,,,,,,,,,,,
2842,,unique_rating,413184,Gatlinburg,,51,,,3,,,,,,,,,,,,,,,
null,,confidence_buffer,413285,confidence_buffer,,null,,,,,,,,,,,,,,,,,,
6425.800000011921,,memorable_rating,419712,Gatlinburg,,51,,,3,,,,,,,,,,,,,,,
null,,confidence_buffer,419814,confidence_buffer,,null,,,,,,,,,,,,,,,,,,
null,,thebreak,420316,break,,null,,,,,,,,,,,,,,,,,,
2900.099999964237,,familiar_rating,423216,Stonebrook,,50,Stonebrook,Fictional,2,,,,,,,,,,,,,,,
null,,confidence_buffer,423318,confidence_buffer,,null,,,,,,,,,,,,,,,,,,
2616.7000000476837,,unique_rating,425936,Stonebrook,,50,,,2,,,,,,,,,,,,,,,
null,,confidence_buffer,426037,confidence_buffer,,null,,,,,,,,,,,,,,,,,,
2170.800000011921,,memorable_rating,428208,Stonebrook,,51,,,3,,,,,,,,,,,,,,,
null,,confidence_buffer,428309,confidence_buffer,,null,,,,,,,,,,,,,,,,,,
null,,thebreak,428811,break,,null,,,,,,,,,,,,,,,,,,
3492.599999964237,,familiar_rating,432304,West Talora,,49,West Talora,Fictional,1,,,,,,,,,,,,,,,
null,,confidence_buffer,432406,confidence_buffer,,null,,,,,,,,,,,,,,,,,,
2826.199999988079,,probe_rating,435233,probe_rating,,53,,,,5,1,,,,,,,,,,,,,
null,,confidence_buffer,435335,confidence_buffer,,null,,,,,,,,,,,,,,,,,,
6408.299999952316,,unique_rating,441744,West Talora,,53,,,5,,,,,,,,,,,,,,,
null,,confidence_buffer,441845,confidence_buffer,,null,,,,,,,,,,,,,,,,,,
2113.900000035763,,memorable_rating,443960,West Talora,,51,,,3,,,,,,,,,,,,,,,
null,,confidence_buffer,444061,confidence_buffer,,null,,,,,,,,,,,,,,,,,,
null,,thebreak,444563,break,,null,,,,,,,,,,,,,,,,,,
4477.300000011921,,familiar_rating,449040,Natchez,,49,Natchez,US,1,,,,,,,,,,,,,,,
null,,confidence_buffer,449141,confidence_buffer,,null,,,,,,,,,,,,,,,,,,
2369.800000011921,,unique_rating,451512,Natchez,,51,,,3,,,,,,,,,,,,,,,
null,,confidence_buffer,451613,confidence_buffer,,null,,,,,,,,,,,,,,,,,,
2618.199999988079,,memorable_rating,454232,Natchez,,51,,,3,,,,,,,,,,,,,,,
null,,confidence_buffer,454332,confidence_buffer,,null,,,,,,,,,,,,,,,,,,
null,,thebreak,454834,break,,null,,,,,,,,,,,,,,,,,,
5854.199999988079,,familiar_rating,460689,Alliance,,49,Alliance,US,1,,,,,,,,,,,,,,,
null,,confidence_buffer,460791,confidence_buffer,,null,,,,,,,,,,,,,,,,,,
1592.3999999761581,,unique_rating,462384,Alliance,,50,,,2,,,,,,,,,,,,,,,
null,,confidence_buffer,462485,confidence_buffer,,null,,,,,,,,,,,,,,,,,,
2273.800000011921,,memorable_rating,464760,Alliance,,50,,,2,,,,,,,,,,,,,,,
null,,confidence_buffer,464862,confidence_buffer,,null,,,,,,,,,,,,,,,,,,
null,,thebreak,465363,break,,null,,,,,,,,,,,,,,,,,,
2980.100000023842,,familiar_rating,468344,Brookmere,,49,Brookmere,Fictional,1,,,,,,,,,,,,,,,
null,,confidence_buffer,468445,confidence_buffer,,null,,,,,,,,,,,,,,,,,,
2017.800000011921,,unique_rating,470464,Brookmere,,51,,,3,,,,,,,,,,,,,,,
null,,confidence_buffer,470565,confidence_buffer,,null,,,,,,,,,,,,,,,,,,
2827,,memorable_rating,473393,Brookmere,,51,,,3,,,,,,,,,,,,,,,
null,,confidence_buffer,473494,confidence_buffer,,null,,,,,,,,,,,,,,,,,,
null,,thebreak,473996,break,,null,,,,,,,,,,,,,,,,,,
4835.399999976158,,familiar_rating,478832,Tamarisk Hills,,49,Tamarisk Hills,Fictional,1,,,,,,,,,,,,,,,
null,,confidence_buffer,478942,confidence_buffer,,null,,,,,,,,,,,,,,,,,,
2417.399999976158,,unique_rating,481360,Tamarisk Hills,,52,,,4,,,,,,,,,,,,,,,
null,,confidence_buffer,481462,confidence_buffer,,null,,,,,,,,,,,,,,,,,,
2641.800000011921,,probe_rating,484105,probe_rating,,51,,,,3,1,,,,,,,,,,,,,
null,,confidence_buffer,484206,confidence_buffer,,null,,,,,,,,,,,,,,,,,,
2808.5,,memorable_rating,487015,Tamarisk Hills,,51,,,3,,,,,,,,,,,,,,,
null,,confidence_buffer,487117,confidence_buffer,,null,,,,,,,,,,,,,,,,,,
null,,thebreak,487620,break,,null,,,,,,,,,,,,,,,,,,
6612.099999964237,,familiar_rating,494233,Crestwood,,49,Crestwood,Fictional,1,,,,,,,,,,,,,,,
null,,confidence_buffer,494334,confidence_buffer,,null,,,,,,,,,,,,,,,,,,
2832.899999976158,,unique_rating,497168,Crestwood,,52,,,4,,,,,,,,,,,,,,,
null,,confidence_buffer,497269,confidence_buffer,,null,,,,,,,,,,,,,,,,,,
1546.300000011921,,memorable_rating,498816,Crestwood,,49,,,1,,,,,,,,,,,,,,,
null,,confidence_buffer,498917,confidence_buffer,,null,,,,,,,,,,,,,,,,,,
null,,thebreak,499419,break,,null,,,,,,,,,,,,,,,,,,
3116.300000011921,,familiar_rating,502536,Sierra Hollow,,49,Sierra Hollow,Fictional,1,,,,,,,,,,,,,,,
null,,confidence_buffer,502637,confidence_buffer,,null,,,,,,,,,,,,,,,,,,
1970.4000000357628,,unique_rating,504608,Sierra Hollow,,52,,,4,,,,,,,,,,,,,,,
null,,confidence_buffer,504710,confidence_buffer,,null,,,,,,,,,,,,,,,,,,
2489.599999964237,,memorable_rating,507200,Sierra Hollow,,52,,,4,,,,,,,,,,,,,,,
null,,confidence_buffer,507301,confidence_buffer,,null,,,,,,,,,,,,,,,,,,
null,,thebreak,507803,break,,null,,,,,,,,,,,,,,,,,,
3548.100000023842,,familiar_rating,511352,Bisbee,,49,Bisbee,US,1,,,,,,,,,,,,,,,
null,,confidence_buffer,511453,confidence_buffer,,null,,,,,,,,,,,,,,,,,,
2242.699999988079,,unique_rating,513696,Bisbee,,52,,,4,,,,,,,,,,,,,,,
null,,confidence_buffer,513797,confidence_buffer,,null,,,,,,,,,,,,,,,,,,
1714.5,,memorable_rating,515513,Bisbee,,52,,,4,,,,,,,,,,,,,,,
null,,confidence_buffer,515629,confidence_buffer,,null,,,,,,,,,,,,,,,,,,
null,,thebreak,516130,break,,null,,,,,,,,,,,,,,,,,,
7756.800000011921,,intro_0,523887,instruct,,32,,,,,,,,,,,,,,,,,,
15288,,intro_1,539176,instruct,,32,,,,,,,,,,,,,,,,,,
33943.40000003576,,intro_2,573120,instruct,,32,,,,,,,,,,,,,,,,,,
null,,instruct_dir_4,574622,instruct,,null,,,,,,,,,,,,,,,,,,
10209.799999952316,,realistic_rating,584833,Northbridge,,51,Northbridge,Fictional,3,,,,,,,,,,,,,,,
null,,confidence_buffer,584934,confidence_buffer,,null,,,,,,,,,,,,,,,,,,
3761.199999988079,,pt2_unique_rating,588696,Northbridge,,50,,,2,,,,,,,,,,,,,,,
null,,confidence_buffer,588797,confidence_buffer,,null,,,,,,,,,,,,,,,,,,
4978.100000023842,,pt2_memorable_rating,593776,Northbridge,,50,,,2,,,,,,,,,,,,,,,
null,,confidence_buffer,593877,confidence_buffer,,null,,,,,,,,,,,,,,,,,,
4722.899999976158,,recognition_phase,598601,Northbridge,,52,,,,,,new,1,1,,,,,,,,,,
null,,confidence_buffer,598703,confidence_buffer,,null,,,,,,,,,,,,,,,,,,
null,,thebreak,599204,break,,null,,,,,,,,,,,,,,,,,,
6290.800000011921,,realistic_rating,605496,Lakehaven,,50,Lakehaven,Fictional,2,,,,,,,,,,,,,,,
null,,confidence_buffer,605598,confidence_buffer,,null,,,,,,,,,,,,,,,,,,
3217.900000035763,,pt2_unique_rating,608817,Lakehaven,,51,,,3,,,,,,,,,,,,,,,
null,,confidence_buffer,608918,confidence_buffer,,null,,,,,,,,,,,,,,,,,,
3449.300000011921,,pt2_memorable_rating,612368,Lakehaven,,52,,,4,,,,,,,,,,,,,,,
null,,confidence_buffer,612470,confidence_buffer,,null,,,,,,,,,,,,,,,,,,
6393.899999976158,,recognition_phase,618865,Lakehaven,,52,,,,,,new,0,0.5,,,,,,,,,,
null,,confidence_buffer,618967,confidence_buffer,,null,,,,,,,,,,,,,,,,,,
null,,thebreak,619469,break,,null,,,,,,,,,,,,,,,,,,
4714.200000047684,,realistic_rating,624184,Gatlinburg,,51,Gatlinburg,US,3,,,,,,,,,,,,,,,
null,,confidence_buffer,624286,confidence_buffer,,null,,,,,,,,,,,,,,,,,,
2393.199999988079,,pt2_unique_rating,626680,Gatlinburg,,50,,,2,,,,,,,,,,,,,,,
null,,confidence_buffer,626782,confidence_buffer,,null,,,,,,,,,,,,,,,,,,
2345.899999976158,,pt2_memorable_rating,629129,Gatlinburg,,50,,,2,,,,,,,,,,,,,,,
null,,confidence_buffer,629231,confidence_buffer,,null,,,,,,,,,,,,,,,,,,
5960,,recognition_phase,635192,Gatlinburg,,49,,,,,,old,1,0.6666666666666666,,,,,,,,,,
null,,confidence_buffer,635293,confidence_buffer,,null,,,,,,,,,,,,,,,,,,
null,,thebreak,635796,break,,null,,,,,,,,,,,,,,,,,,
4300.099999964237,,realistic_rating,640097,Duck,,51,Duck,US,3,,,,,,,,,,,,,,,
null,,confidence_buffer,640199,confidence_buffer,,null,,,,,,,,,,,,,,,,,,
2696.099999964237,,pt2_unique_rating,642896,Duck,,50,,,2,,,,,,,,,,,,,,,
null,,confidence_buffer,642997,confidence_buffer,,null,,,,,,,,,,,,,,,,,,
2114.5,,pt2_memorable_rating,645112,Duck,,51,,,3,,,,,,,,,,,,,,,
null,,confidence_buffer,645215,confidence_buffer,,null,,,,,,,,,,,,,,,,,,
3152.599999964237,,recognition_phase,648368,Duck,,52,,,,,,new,1,0.75,,,,,,,,,,
null,,confidence_buffer,648469,confidence_buffer,,null,,,,,,,,,,,,,,,,,,
null,,thebreak,648970,break,,null,,,,,,,,,,,,,,,,,,
5478.300000011921,,realistic_rating,654449,Orchard Bend,,51,Orchard Bend,Fictional,3,,,,,,,,,,,,,,,
null,,confidence_buffer,654550,confidence_buffer,,null,,,,,,,,,,,,,,,,,,
2376.600000023842,,pt2_unique_rating,656928,Orchard Bend,,50,,,2,,,,,,,,,,,,,,,
null,,confidence_buffer,657029,confidence_buffer,,null,,,,,,,,,,,,,,,,,,
2634.599999964237,,pt2_memorable_rating,659664,Orchard Bend,,50,,,2,,,,,,,,,,,,,,,
null,,confidence_buffer,659766,confidence_buffer,,null,,,,,,,,,,,,,,,,,,
2817.300000011921,,recognition_phase,662584,Orchard Bend,,52,,,,,,new,1,0.8,,,,,,,,,,
null,,confidence_buffer,662686,confidence_buffer,,null,,,,,,,,,,,,,,,,,,
null,,thebreak,663187,break,,null,,,,,,,,,,,,,,,,,,
4301.199999988079,,realistic_rating,667489,Orr,,49,Orr,US,1,,,,,,,,,,,,,,,
null,,confidence_buffer,667591,confidence_buffer,,null,,,,,,,,,,,,,,,,,,
6328.899999976158,,pt2_unique_rating,673920,Orr,,52,,,4,,,,,,,,,,,,,,,
null,,confidence_buffer,674022,confidence_buffer,,null,,,,,,,,,,,,,,,,,,
3049.599999964237,,pt2_memorable_rating,677072,Orr,,52,,,4,,,,,,,,,,,,,,,
null,,confidence_buffer,677173,confidence_buffer,,null,,,,,,,,,,,,,,,,,,
2498.600000023842,,probe_rating,679673,probe_rating,,51,,,,3,1,,,,,,,,,,,,,
null,,confidence_buffer,679776,confidence_buffer,,null,,,,,,,,,,,,,,,,,,
3680.099999964237,,recognition_phase,683456,Orr,,49,,,,,,old,1,0.8333333333333334,,,,,,,,,,
null,,confidence_buffer,683558,confidence_buffer,,null,,,,,,,,,,,,,,,,,,
null,,thebreak,684059,break,,null,,,,,,,,,,,,,,,,,,
4916.300000011921,,realistic_rating,688976,Cornwall,,50,Cornwall,US,2,,,,,,,,,,,,,,,
null,,confidence_buffer,689078,confidence_buffer,,null,,,,,,,,,,,,,,,,,,
3282.2999999523163,,pt2_unique_rating,692361,Cornwall,,51,,,3,,,,,,,,,,,,,,,
null,,confidence_buffer,692473,confidence_buffer,,null,,,,,,,,,,,,,,,,,,
2502.100000023842,,pt2_memorable_rating,694976,Cornwall,,50,,,2,,,,,,,,,,,,,,,
null,,confidence_buffer,695078,confidence_buffer,,null,,,,,,,,,,,,,,,,,,
2345.7000000476837,,recognition_phase,697424,Cornwall,,52,,,,,,new,1,0.8571428571428571,,,,,,,,,,
null,,confidence_buffer,697527,confidence_buffer,,null,,,,,,,,,,,,,,,,,,
null,,thebreak,698028,break,,null,,,,,,,,,,,,,,,,,,
4035.5,,realistic_rating,702065,Athens,,50,Athens,US,2,,,,,,,,,,,,,,,
null,,confidence_buffer,702167,confidence_buffer,,null,,,,,,,,,,,,,,,,,,
2769.399999976158,,pt2_unique_rating,704937,Athens,,51,,,3,,,,,,,,,,,,,,,
null,,confidence_buffer,705038,confidence_buffer,,null,,,,,,,,,,,,,,,,,,
1881.0999999642372,,pt2_memorable_rating,706920,Athens,,51,,,3,,,,,,,,,,,,,,,
null,,confidence_buffer,707022,confidence_buffer,,null,,,,,,,,,,,,,,,,,,
1729.6000000238419,,recognition_phase,708752,Athens,,49,,,,,,old,1,0.875,,,,,,,,,,
null,,confidence_buffer,708863,confidence_buffer,,null,,,,,,,,,,,,,,,,,,
null,,thebreak,709364,break,,null,,,,,,,,,,,,,,,,,,
5218.899999976158,,realistic_rating,714584,Bisbee,,49,Bisbee,US,1,,,,,,,,,,,,,,,
null,,confidence_buffer,714685,confidence_buffer,,null,,,,,,,,,,,,,,,,,,
2238.7000000476837,,pt2_unique_rating,716924,Bisbee,,53,,,5,,,,,,,,,,,,,,,
null,,confidence_buffer,717025,confidence_buffer,,null,,,,,,,,,,,,,,,,,,
1774.300000011921,,pt2_memorable_rating,718800,Bisbee,,53,,,5,,,,,,,,,,,,,,,
null,,confidence_buffer,718901,confidence_buffer,,null,,,,,,,,,,,,,,,,,,
2074.2999999523163,,recognition_phase,720976,Bisbee,,49,,,,,,old,1,0.8888888888888888,,,,,,,,,,
null,,confidence_buffer,721077,confidence_buffer,,null,,,,,,,,,,,,,,,,,,
null,,thebreak,721579,break,,null,,,,,,,,,,,,,,,,,,
5332.599999964237,,realistic_rating,726912,Brookmere,,50,Brookmere,Fictional,2,,,,,,,,,,,,,,,
null,,confidence_buffer,727013,confidence_buffer,,null,,,,,,,,,,,,,,,,,,
3011.5,,pt2_unique_rating,730025,Brookmere,,50,,,2,,,,,,,,,,,,,,,
null,,confidence_buffer,730128,confidence_buffer,,null,,,,,,,,,,,,,,,,,,
4760,,pt2_memorable_rating,734888,Brookmere,,51,,,3,,,,,,,,,,,,,,,
null,,confidence_buffer,734992,confidence_buffer,,null,,,,,,,,,,,,,,,,,,
2695.099999964237,,recognition_phase,737688,Brookmere,,49,,,,,,old,1,0.9,,,,,,,,,,
null,,confidence_buffer,737790,confidence_buffer,,null,,,,,,,,,,,,,,,,,,
null,,thebreak,738291,break,,null,,,,,,,,,,,,,,,,,,
5068.900000035763,,realistic_rating,743361,Oakridge,,51,Oakridge,Fictional,3,,,,,,,,,,,,,,,
null,,confidence_buffer,743462,confidence_buffer,,null,,,,,,,,,,,,,,,,,,
2497.2000000476837,,pt2_unique_rating,745960,Oakridge,,50,,,2,,,,,,,,,,,,,,,
null,,confidence_buffer,746061,confidence_buffer,,null,,,,,,,,,,,,,,,,,,
2642.600000023842,,pt2_memorable_rating,748704,Oakridge,,51,,,3,,,,,,,,,,,,,,,
null,,confidence_buffer,748807,confidence_buffer,,null,,,,,,,,,,,,,,,,,,
5041.800000011921,,recognition_phase,753849,Oakridge,,52,,,,,,new,1,0.9090909090909091,,,,,,,,,,
null,,confidence_buffer,753951,confidence_buffer,,null,,,,,,,,,,,,,,,,,,
null,,thebreak,754452,break,,null,,,,,,,,,,,,,,,,,,
6723.400000035763,,realistic_rating,761176,Silverpine,,49,Silverpine,Fictional,1,,,,,,,,,,,,,,,
null,,confidence_buffer,761277,confidence_buffer,,null,,,,,,,,,,,,,,,,,,
3218.900000035763,,pt2_unique_rating,764497,Silverpine,,51,,,3,,,,,,,,,,,,,,,
null,,confidence_buffer,764599,confidence_buffer,,null,,,,,,,,,,,,,,,,,,
2648.699999988079,,pt2_memorable_rating,767248,Silverpine,,51,,,3,,,,,,,,,,,,,,,
null,,confidence_buffer,767350,confidence_buffer,,null,,,,,,,,,,,,,,,,,,
2041.2000000476837,,recognition_phase,769392,Silverpine,,52,,,,,,new,1,0.9166666666666666,,,,,,,,,,
null,,confidence_buffer,769494,confidence_buffer,,null,,,,,,,,,,,,,,,,,,
null,,thebreak,769994,break,,null,,,,,,,,,,,,,,,,,,
4534,,realistic_rating,774529,West Talora,,49,West Talora,Fictional,1,,,,,,,,,,,,,,,
null,,confidence_buffer,774630,confidence_buffer,,null,,,,,,,,,,,,,,,,,,
2401.100000023842,,pt2_unique_rating,777032,West Talora,,53,,,5,,,,,,,,,,,,,,,
null,,confidence_buffer,777133,confidence_buffer,,null,,,,,,,,,,,,,,,,,,
4746.5,,pt2_memorable_rating,781880,West Talora,,51,,,3,,,,,,,,,,,,,,,
null,,confidence_buffer,781982,confidence_buffer,,null,,,,,,,,,,,,,,,,,,
2906.600000023842,,recognition_phase,784889,West Talora,,49,,,,,,old,1,0.9230769230769231,,,,,,,,,,
null,,confidence_buffer,784990,confidence_buffer,,null,,,,,,,,,,,,,,,,,,
null,,thebreak,785491,break,,null,,,,,,,,,,,,,,,,,,
4412.400000035763,,realistic_rating,789904,New Hope,,50,New Hope,US,2,,,,,,,,,,,,,,,
null,,confidence_buffer,790006,confidence_buffer,,null,,,,,,,,,,,,,,,,,,
3577.199999988079,,pt2_unique_rating,793584,New Hope,,50,,,2,,,,,,,,,,,,,,,
null,,confidence_buffer,793686,confidence_buffer,,null,,,,,,,,,,,,,,,,,,
2809.900000035763,,pt2_memorable_rating,796497,New Hope,,51,,,3,,,,,,,,,,,,,,,
null,,confidence_buffer,796599,confidence_buffer,,null,,,,,,,,,,,,,,,,,,
2312.699999988079,,recognition_phase,798912,New Hope,,52,,,,,,new,1,0.9285714285714286,,,,,,,,,,
null,,confidence_buffer,799026,confidence_buffer,,null,,,,,,,,,,,,,,,,,,
null,,thebreak,799528,break,,null,,,,,,,,,,,,,,,,,,
3615.2000000476837,,realistic_rating,803144,Hawthorne Bluffs,,49,Hawthorne Bluffs,Fictional,1,,,,,,,,,,,,,,,
null,,confidence_buffer,803245,confidence_buffer,,null,,,,,,,,,,,,,,,,,,
1986.5,,pt2_unique_rating,805232,Hawthorne Bluffs,,51,,,3,,,,,,,,,,,,,,,
null,,confidence_buffer,805334,confidence_buffer,,null,,,,,,,,,,,,,,,,,,
1802,,pt2_memorable_rating,807137,Hawthorne Bluffs,,51,,,3,,,,,,,,,,,,,,,
null,,confidence_buffer,807238,confidence_buffer,,null,,,,,,,,,,,,,,,,,,
2425.699999988079,,recognition_phase,809664,Hawthorne Bluffs,,49,,,,,,old,1,0.9333333333333333,,,,,,,,,,
null,,confidence_buffer,809765,confidence_buffer,,null,,,,,,,,,,,,,,,,,,
null,,thebreak,810268,break,,null,,,,,,,,,,,,,,,,,,
5595.699999988079,,realistic_rating,815864,Cedarwyn,,50,Cedarwyn,Fictional,2,,,,,,,,,,,,,,,
null,,confidence_buffer,815965,confidence_buffer,,null,,,,,,,,,,,,,,,,,,
3146.800000011921,,pt2_unique_rating,819113,Cedarwyn,,51,,,3,,,,,,,,,,,,,,,
null,,confidence_buffer,819214,confidence_buffer,,null,,,,,,,,,,,,,,,,,,
2601.699999988079,,pt2_memorable_rating,821816,Cedarwyn,,51,,,3,,,,,,,,,,,,,,,
null,,confidence_buffer,821918,confidence_buffer,,null,,,,,,,,,,,,,,,,,,
3065.5,,probe_rating,824984,probe_rating,,49,,,,1,0,,,,,,,,,,,,,
null,,confidence_buffer,825086,confidence_buffer,,null,,,,,,,,,,,,,,,,,,
3689.399999976158,,recognition_phase,828776,Cedarwyn,,49,,,,,,old,1,0.9375,,,,,,,,,,
null,,confidence_buffer,828878,confidence_buffer,,null,,,,,,,,,,,,,,,,,,
null,,thebreak,829380,break,,null,,,,,,,,,,,,,,,,,,
6157.100000023842,,realistic_rating,835537,Tamarisk Hills,,49,Tamarisk Hills,Fictional,1,,,,,,,,,,,,,,,
null,,confidence_buffer,835639,confidence_buffer,,null,,,,,,,,,,,,,,,,,,
2656.399999976158,,pt2_unique_rating,838296,Tamarisk Hills,,53,,,5,,,,,,,,,,,,,,,
null,,confidence_buffer,838398,confidence_buffer,,null,,,,,,,,,,,,,,,,,,
2681.5,,pt2_memorable_rating,841080,Tamarisk Hills,,50,,,2,,,,,,,,,,,,,,,
null,,confidence_buffer,841182,confidence_buffer,,null,,,,,,,,,,,,,,,,,,
1713.800000011921,,recognition_phase,842896,Tamarisk Hills,,49,,,,,,old,1,0.9411764705882353,,,,,,,,,,
null,,confidence_buffer,842998,confidence_buffer,,null,,,,,,,,,,,,,,,,,,
null,,thebreak,843499,break,,null,,,,,,,,,,,,,,,,,,
6205.700000047684,,realistic_rating,849705,San Antonio,,50,San Antonio,US,2,,,,,,,,,,,,,,,
null,,confidence_buffer,849806,confidence_buffer,,null,,,,,,,,,,,,,,,,,,
7228.800000011921,,pt2_unique_rating,857036,San Antonio,,51,,,3,,,,,,,,,,,,,,,
null,,confidence_buffer,857137,confidence_buffer,,null,,,,,,,,,,,,,,,,,,
2510.7000000476837,,pt2_memorable_rating,859648,San Antonio,,51,,,3,,,,,,,,,,,,,,,
null,,confidence_buffer,859749,confidence_buffer,,null,,,,,,,,,,,,,,,,,,
2171.699999988079,,recognition_phase,861921,San Antonio,,50,,,,,,old,1,0.9444444444444444,,,,,,,,,,
null,,confidence_buffer,862030,confidence_buffer,,null,,,,,,,,,,,,,,,,,,
null,,thebreak,862532,break,,null,,,,,,,,,,,,,,,,,,
4643.700000047684,,realistic_rating,867177,Boulder,,50,Boulder,US,2,,,,,,,,,,,,,,,
null,,confidence_buffer,867278,confidence_buffer,,null,,,,,,,,,,,,,,,,,,
2730,,probe_rating,870008,probe_rating,,49,,,,1,1,,,,,,,,,,,,,
null,,confidence_buffer,870109,confidence_buffer,,null,,,,,,,,,,,,,,,,,,
5042.899999976158,,pt2_unique_rating,875153,Boulder,,50,,,2,,,,,,,,,,,,,,,
null,,confidence_buffer,875255,confidence_buffer,,null,,,,,,,,,,,,,,,,,,
2184.5,,pt2_memorable_rating,877440,Boulder,,51,,,3,,,,,,,,,,,,,,,
null,,confidence_buffer,877542,confidence_buffer,,null,,,,,,,,,,,,,,,,,,
2369.300000011921,,recognition_phase,879912,Boulder,,52,,,,,,new,1,0.9473684210526315,,,,,,,,,,
null,,confidence_buffer,880015,confidence_buffer,,null,,,,,,,,,,,,,,,,,,
null,,thebreak,880526,break,,null,,,,,,,,,,,,,,,,,,
8569.899999976158,,realistic_rating,889097,Rosehollow,,49,Rosehollow,Fictional,1,,,,,,,,,,,,,,,
null,,confidence_buffer,889199,confidence_buffer,,null,,,,,,,,,,,,,,,,,,
6473,,pt2_unique_rating,895672,Rosehollow,,52,,,4,,,,,,,,,,,,,,,
null,,confidence_buffer,895774,confidence_buffer,,null,,,,,,,,,,,,,,,,,,
2705.7999999523163,,pt2_memorable_rating,898481,Rosehollow,,52,,,4,,,,,,,,,,,,,,,
null,,confidence_buffer,898582,confidence_buffer,,null,,,,,,,,,,,,,,,,,,
2714.2000000476837,,recognition_phase,901297,Rosehollow,,52,,,,,,new,1,0.95,,,,,,,,,,
null,,confidence_buffer,901399,confidence_buffer,,null,,,,,,,,,,,,,,,,,,
null,,thebreak,901901,break,,null,,,,,,,,,,,,,,,,,,
8715.100000023842,,realistic_rating,910616,Shreveport,,51,Shreveport,US,3,,,,,,,,,,,,,,,
null,,confidence_buffer,910718,confidence_buffer,,null,,,,,,,,,,,,,,,,,,
5330.600000023842,,pt2_unique_rating,916049,Shreveport,,50,,,2,,,,,,,,,,,,,,,
null,,confidence_buffer,916151,confidence_buffer,,null,,,,,,,,,,,,,,,,,,
3144.599999964237,,pt2_memorable_rating,919296,Shreveport,,51,,,3,,,,,,,,,,,,,,,
null,,confidence_buffer,919398,confidence_buffer,,null,,,,,,,,,,,,,,,,,,
3217.5,,recognition_phase,922616,Shreveport,,49,,,,,,old,1,0.9523809523809523,,,,,,,,,,
null,,confidence_buffer,922719,confidence_buffer,,null,,,,,,,,,,,,,,,,,,
null,,thebreak,923220,break,,null,,,,,,,,,,,,,,,,,,
9276.199999988079,,realistic_rating,932497,Carmel,,50,Carmel,US,2,,,,,,,,,,,,,,,
null,,confidence_buffer,932599,confidence_buffer,,null,,,,,,,,,,,,,,,,,,
4097,,pt2_unique_rating,936696,Carmel,,51,,,3,,,,,,,,,,,,,,,
null,,confidence_buffer,936797,confidence_buffer,,null,,,,,,,,,,,,,,,,,,
2530.400000035763,,pt2_memorable_rating,939329,Carmel,,51,,,3,,,,,,,,,,,,,,,
null,,confidence_buffer,939431,confidence_buffer,,null,,,,,,,,,,,,,,,,,,
1360.800000011921,,recognition_phase,940792,Carmel,,52,,,,,,new,1,0.9545454545454546,,,,,,,,,,
null,,confidence_buffer,940893,confidence_buffer,,null,,,,,,,,,,,,,,,,,,
null,,thebreak,941395,break,,null,,,,,,,,,,,,,,,,,,
6389.600000023842,,realistic_rating,947785,Stonebrook,,50,Stonebrook,Fictional,2,,,,,,,,,,,,,,,
null,,confidence_buffer,947887,confidence_buffer,,null,,,,,,,,,,,,,,,,,,
2321.300000011921,,pt2_unique_rating,950209,Stonebrook,,50,,,2,,,,,,,,,,,,,,,
null,,confidence_buffer,950311,confidence_buffer,,null,,,,,,,,,,,,,,,,,,
3561.199999988079,,pt2_memorable_rating,953872,Stonebrook,,50,,,2,,,,,,,,,,,,,,,
null,,confidence_buffer,953980,confidence_buffer,,null,,,,,,,,,,,,,,,,,,
3516,,recognition_phase,957496,Stonebrook,,50,,,,,,old,1,0.9565217391304348,,,,,,,,,,
null,,confidence_buffer,957598,confidence_buffer,,null,,,,,,,,,,,,,,,,,,
null,,thebreak,958099,break,,null,,,,,,,,,,,,,,,,,,
4389.799999952316,,realistic_rating,962490,Driftwood Bay,,49,Driftwood Bay,Fictional,1,,,,,,,,,,,,,,,
null,,confidence_buffer,962606,confidence_buffer,,null,,,,,,,,,,,,,,,,,,
4345.600000023842,,pt2_unique_rating,966952,Driftwood Bay,,52,,,4,,,,,,,,,,,,,,,
null,,confidence_buffer,967055,confidence_buffer,,null,,,,,,,,,,,,,,,,,,
3425.199999988079,,pt2_memorable_rating,970480,Driftwood Bay,,52,,,4,,,,,,,,,,,,,,,
null,,confidence_buffer,970582,confidence_buffer,,null,,,,,,,,,,,,,,,,,,
3330.5,,recognition_phase,973913,Driftwood Bay,,49,,,,,,old,1,0.9583333333333334,,,,,,,,,,
null,,confidence_buffer,974014,confidence_buffer,,null,,,,,,,,,,,,,,,,,,
null,,thebreak,974520,break,,null,,,,,,,,,,,,,,,,,,
3959.900000035763,,realistic_rating,978481,Cleveland,,50,Cleveland,US,2,,,,,,,,,,,,,,,
null,,confidence_buffer,978582,confidence_buffer,,null,,,,,,,,,,,,,,,,,,
4056.7999999523163,,probe_rating,982640,probe_rating,,53,,,,5,1,,,,,,,,,,,,,
null,,confidence_buffer,982742,confidence_buffer,,null,,,,,,,,,,,,,,,,,,
7075.100000023842,,pt2_unique_rating,989817,Cleveland,,51,,,3,,,,,,,,,,,,,,,
null,,confidence_buffer,989920,confidence_buffer,,null,,,,,,,,,,,,,,,,,,
4504.199999988079,,pt2_memorable_rating,994424,Cleveland,,51,,,3,,,,,,,,,,,,,,,
null,,confidence_buffer,994526,confidence_buffer,,null,,,,,,,,,,,,,,,,,,
2642,,recognition_phase,997168,Cleveland,,52,,,,,,new,1,0.96,,,,,,,,,,
null,,confidence_buffer,997270,confidence_buffer,,null,,,,,,,,,,,,,,,,,,
null,,thebreak,997771,break,,null,,,,,,,,,,,,,,,,,,
7645.399999976158,,realistic_rating,1005417,Coralridge,,51,Coralridge,Fictional,3,,,,,,,,,,,,,,,
null,,confidence_buffer,1005529,confidence_buffer,,null,,,,,,,,,,,,,,,,,,
3166.5,,pt2_unique_rating,1008697,Coralridge,,51,,,3,,,,,,,,,,,,,,,
null,,confidence_buffer,1008798,confidence_buffer,,null,,,,,,,,,,,,,,,,,,
1778,,pt2_memorable_rating,1010577,Coralridge,,52,,,4,,,,,,,,,,,,,,,
null,,confidence_buffer,1010678,confidence_buffer,,null,,,,,,,,,,,,,,,,,,
2250.199999988079,,recognition_phase,1012929,Coralridge,,49,,,,,,old,1,0.9615384615384616,,,,,,,,,,
null,,confidence_buffer,1013030,confidence_buffer,,null,,,,,,,,,,,,,,,,,,
null,,thebreak,1013532,break,,null,,,,,,,,,,,,,,,,,,
3621.099999964237,,realistic_rating,1017153,Coeur d'Alene,,50,Coeur d'Alene,US,2,,,,,,,,,,,,,,,
null,,confidence_buffer,1017255,confidence_buffer,,null,,,,,,,,,,,,,,,,,,
1976.5999999642372,,pt2_unique_rating,1019232,Coeur d'Alene,,51,,,3,,,,,,,,,,,,,,,
null,,confidence_buffer,1019333,confidence_buffer,,null,,,,,,,,,,,,,,,,,,
2090.699999988079,,pt2_memorable_rating,1021425,Coeur d'Alene,,50,,,2,,,,,,,,,,,,,,,
null,,confidence_buffer,1021526,confidence_buffer,,null,,,,,,,,,,,,,,,,,,
2122.100000023842,,recognition_phase,1023649,Coeur d'Alene,,49,,,,,,old,1,0.9629629629629629,,,,,,,,,,
null,,confidence_buffer,1023751,confidence_buffer,,null,,,,,,,,,,,,,,,,,,
null,,thebreak,1024254,break,,null,,,,,,,,,,,,,,,,,,
3290.800000011921,,realistic_rating,1027545,Sunmere,,51,Sunmere,Fictional,3,,,,,,,,,,,,,,,
null,,confidence_buffer,1027646,confidence_buffer,,null,,,,,,,,,,,,,,,,,,
1593.5,,pt2_unique_rating,1029241,Sunmere,,50,,,2,,,,,,,,,,,,,,,
null,,confidence_buffer,1029341,confidence_buffer,,null,,,,,,,,,,,,,,,,,,
2282.400000035763,,pt2_memorable_rating,1031624,Sunmere,,52,,,4,,,,,,,,,,,,,,,
null,,confidence_buffer,1031725,confidence_buffer,,null,,,,,,,,,,,,,,,,,,
1826.5999999642372,,recognition_phase,1033553,Sunmere,,49,,,,,,old,1,0.9642857142857143,,,,,,,,,,
null,,confidence_buffer,1033653,confidence_buffer,,null,,,,,,,,,,,,,,,,,,
null,,thebreak,1034155,break,,null,,,,,,,,,,,,,,,,,,
4581.900000035763,,realistic_rating,1038737,Sitka,,49,Sitka,US,1,,,,,,,,,,,,,,,
null,,confidence_buffer,1038840,confidence_buffer,,null,,,,,,,,,,,,,,,,,,
2791.399999976158,,pt2_unique_rating,1041632,Sitka,,53,,,5,,,,,,,,,,,,,,,
null,,confidence_buffer,1041753,confidence_buffer,,null,,,,,,,,,,,,,,,,,,
2798.5,,probe_rating,1044553,probe_rating,,53,,,,5,1,,,,,,,,,,,,,
null,,confidence_buffer,1044655,confidence_buffer,,null,,,,,,,,,,,,,,,,,,
2889,,pt2_memorable_rating,1047545,Sitka,,52,,,4,,,,,,,,,,,,,,,
null,,confidence_buffer,1047646,confidence_buffer,,null,,,,,,,,,,,,,,,,,,
2058.899999976158,,recognition_phase,1049706,Sitka,,52,,,,,,new,1,0.9655172413793104,,,,,,,,,,
null,,confidence_buffer,1049808,confidence_buffer,,null,,,,,,,,,,,,,,,,,,
null,,thebreak,1050319,break,,null,,,,,,,,,,,,,,,,,,
4601.099999964237,,realistic_rating,1054921,Leesburg,,51,Leesburg,US,3,,,,,,,,,,,,,,,
null,,confidence_buffer,1055023,confidence_buffer,,null,,,,,,,,,,,,,,,,,,
1840.800000011921,,pt2_unique_rating,1056865,Leesburg,,50,,,2,,,,,,,,,,,,,,,
null,,confidence_buffer,1056967,confidence_buffer,,null,,,,,,,,,,,,,,,,,,
2256.199999988079,,pt2_memorable_rating,1059224,Leesburg,,50,,,2,,,,,,,,,,,,,,,
null,,confidence_buffer,1059325,confidence_buffer,,null,,,,,,,,,,,,,,,,,,
2210.899999976158,,recognition_phase,1061537,Leesburg,,49,,,,,,old,1,0.9666666666666667,,,,,,,,,,
null,,confidence_buffer,1061639,confidence_buffer,,null,,,,,,,,,,,,,,,,,,
null,,thebreak,1062140,break,,null,,,,,,,,,,,,,,,,,,
8379.899999976158,,realistic_rating,1070521,Montelake,,50,Montelake,Fictional,2,,,,,,,,,,,,,,,
null,,confidence_buffer,1070623,confidence_buffer,,null,,,,,,,,,,,,,,,,,,
2793.699999988079,,pt2_unique_rating,1073417,Montelake,,52,,,4,,,,,,,,,,,,,,,
null,,confidence_buffer,1073518,confidence_buffer,,null,,,,,,,,,,,,,,,,,,
7217.800000011921,,pt2_memorable_rating,1080736,Montelake,,52,,,4,,,,,,,,,,,,,,,
null,,confidence_buffer,1080839,confidence_buffer,,null,,,,,,,,,,,,,,,,,,
2217.199999988079,,recognition_phase,1083057,Montelake,,52,,,,,,new,1,0.967741935483871,,,,,,,,,,
null,,confidence_buffer,1083158,confidence_buffer,,null,,,,,,,,,,,,,,,,,,
null,,thebreak,1083659,break,,null,,,,,,,,,,,,,,,,,,
10085.299999952316,,realistic_rating,1093746,New Verdan,,53,New Verdan,Fictional,5,,,,,,,,,,,,,,,
null,,confidence_buffer,1093847,confidence_buffer,,null,,,,,,,,,,,,,,,,,,
2464.900000035763,,pt2_unique_rating,1096312,New Verdan,,53,,,5,,,,,,,,,,,,,,,
null,,confidence_buffer,1096415,confidence_buffer,,null,,,,,,,,,,,,,,,,,,
1745.6000000238419,,pt2_memorable_rating,1098161,New Verdan,,53,,,5,,,,,,,,,,,,,,,
null,,confidence_buffer,1098264,confidence_buffer,,null,,,,,,,,,,,,,,,,,,
3056.399999976158,,recognition_phase,1101321,New Verdan,,50,,,,,,old,1,0.96875,,,,,,,,,,
null,,confidence_buffer,1101422,confidence_buffer,,null,,,,,,,,,,,,,,,,,,
null,,thebreak,1101924,break,,null,,,,,,,,,,,,,,,,,,
9276.599999964237,,realistic_rating,1111201,Livingston,,53,Livingston,US,5,,,,,,,,,,,,,,,
null,,confidence_buffer,1111304,confidence_buffer,,null,,,,,,,,,,,,,,,,,,
1640.300000011921,,pt2_unique_rating,1112945,Livingston,,53,,,5,,,,,,,,,,,,,,,
null,,confidence_buffer,1113046,confidence_buffer,,null,,,,,,,,,,,,,,,,,,
6018,,pt2_memorable_rating,1119065,Livingston,,52,,,4,,,,,,,,,,,,,,,
null,,confidence_buffer,1119166,confidence_buffer,,null,,,,,,,,,,,,,,,,,,
2698,,recognition_phase,1121865,Livingston,,49,,,,,,old,1,0.9696969696969697,,,,,,,,,,
null,,confidence_buffer,1121967,confidence_buffer,,null,,,,,,,,,,,,,,,,,,
null,,thebreak,1122467,break,,null,,,,,,,,,,,,,,,,,,
4684.600000023842,,realistic_rating,1127153,Clearbrook,,53,Clearbrook,Fictional,5,,,,,,,,,,,,,,,
null,,confidence_buffer,1127255,confidence_buffer,,null,,,,,,,,,,,,,,,,,,
2233.300000011921,,pt2_unique_rating,1129489,Clearbrook,,51,,,3,,,,,,,,,,,,,,,
null,,confidence_buffer,1129590,confidence_buffer,,null,,,,,,,,,,,,,,,,,,
2739.100000023842,,pt2_memorable_rating,1132329,Clearbrook,,51,,,3,,,,,,,,,,,,,,,
null,,confidence_buffer,1132430,confidence_buffer,,null,,,,,,,,,,,,,,,,,,
3585.099999964237,,recognition_phase,1136016,Clearbrook,,51,,,,,,new,1,0.9705882352941176,,,,,,,,,,
null,,confidence_buffer,1136118,confidence_buffer,,null,,,,,,,,,,,,,,,,,,
null,,thebreak,1136620,break,,null,,,,,,,,,,,,,,,,,,
7820.800000011921,,realistic_rating,1144441,Maravilla Springs,,50,Maravilla Springs,Fictional,2,,,,,,,,,,,,,,,
null,,confidence_buffer,1144543,confidence_buffer,,null,,,,,,,,,,,,,,,,,,
3336.899999976158,,pt2_unique_rating,1147881,Maravilla Springs,,53,,,5,,,,,,,,,,,,,,,
null,,confidence_buffer,1147982,confidence_buffer,,null,,,,,,,,,,,,,,,,,,
2801.800000011921,,probe_rating,1150785,probe_rating,,51,,,,3,1,,,,,,,,,,,,,
null,,confidence_buffer,1150888,confidence_buffer,,null,,,,,,,,,,,,,,,,,,
4912.600000023842,,pt2_memorable_rating,1155801,Maravilla Springs,,52,,,4,,,,,,,,,,,,,,,
null,,confidence_buffer,1155905,confidence_buffer,,null,,,,,,,,,,,,,,,,,,
2998.599999964237,,recognition_phase,1158905,Maravilla Springs,,52,,,,,,new,1,0.9714285714285714,,,,,,,,,,
null,,confidence_buffer,1159007,confidence_buffer,,null,,,,,,,,,,,,,,,,,,
null,,thebreak,1159509,break,,null,,,,,,,,,,,,,,,,,,
3027.300000011921,,realistic_rating,1162537,Alliance,,50,Alliance,US,2,,,,,,,,,,,,,,,
null,,confidence_buffer,1162639,confidence_buffer,,null,,,,,,,,,,,,,,,,,,
2969.5,,pt2_unique_rating,1165609,Alliance,,50,,,2,,,,,,,,,,,,,,,
null,,confidence_buffer,1165710,confidence_buffer,,null,,,,,,,,,,,,,,,,,,
1249.8999999761581,,pt2_memorable_rating,1166961,Alliance,,50,,,2,,,,,,,,,,,,,,,
null,,confidence_buffer,1167063,confidence_buffer,,null,,,,,,,,,,,,,,,,,,
2025.699999988079,,recognition_phase,1169089,Alliance,,49,,,,,,old,1,0.9722222222222222,,,,,,,,,,
null,,confidence_buffer,1169191,confidence_buffer,,null,,,,,,,,,,,,,,,,,,
null,,thebreak,1169693,break,,null,,,,,,,,,,,,,,,,,,
3451,,realistic_rating,1173145,Albuquerque,,51,Albuquerque,US,3,,,,,,,,,,,,,,,
null,,confidence_buffer,1173246,confidence_buffer,,null,,,,,,,,,,,,,,,,,,
1497.199999988079,,pt2_unique_rating,1174744,Albuquerque,,51,,,3,,,,,,,,,,,,,,,
null,,confidence_buffer,1174847,confidence_buffer,,null,,,,,,,,,,,,,,,,,,
1921.5999999642372,,pt2_memorable_rating,1176769,Albuquerque,,52,,,4,,,,,,,,,,,,,,,
null,,confidence_buffer,1176870,confidence_buffer,,null,,,,,,,,,,,,,,,,,,
2954.699999988079,,recognition_phase,1179825,Albuquerque,,52,,,,,,new,1,0.972972972972973,,,,,,,,,,
null,,confidence_buffer,1179927,confidence_buffer,,null,,,,,,,,,,,,,,,,,,
null,,thebreak,1180429,break,,null,,,,,,,,,,,,,,,,,,
5490.5,,realistic_rating,1185920,Hilo,,50,Hilo,US,2,,,,,,,,,,,,,,,
null,,confidence_buffer,1186022,confidence_buffer,,null,,,,,,,,,,,,,,,,,,
1937.7999999523163,,pt2_unique_rating,1187961,Hilo,,53,,,5,,,,,,,,,,,,,,,
null,,confidence_buffer,1188062,confidence_buffer,,null,,,,,,,,,,,,,,,,,,
1387.6000000238419,,pt2_memorable_rating,1189451,Hilo,,53,,,5,,,,,,,,,,,,,,,
null,,confidence_buffer,1189552,confidence_buffer,,null,,,,,,,,,,,,,,,,,,
1937.0999999642372,,recognition_phase,1191490,Hilo,,49,,,,,,old,1,0.9736842105263158,,,,,,,,,,
null,,confidence_buffer,1191591,confidence_buffer,,null,,,,,,,,,,,,,,,,,,
null,,thebreak,1192093,break,,null,,,,,,,,,,,,,,,,,,
7683.100000023842,,realistic_rating,1199777,Redgrove,,51,Redgrove,Fictional,3,,,,,,,,,,,,,,,
null,,confidence_buffer,1199879,confidence_buffer,,null,,,,,,,,,,,,,,,,,,
3193.699999988079,,pt2_unique_rating,1203073,Redgrove,,51,,,3,,,,,,,,,,,,,,,
null,,confidence_buffer,1203174,confidence_buffer,,null,,,,,,,,,,,,,,,,,,
3266.199999988079,,pt2_memorable_rating,1206441,Redgrove,,50,,,2,,,,,,,,,,,,,,,
null,,confidence_buffer,1206549,confidence_buffer,,null,,,,,,,,,,,,,,,,,,
2403,,recognition_phase,1208953,Redgrove,,52,,,,,,new,1,0.9743589743589743,,,,,,,,,,
null,,confidence_buffer,1209055,confidence_buffer,,null,,,,,,,,,,,,,,,,,,
null,,thebreak,1209556,break,,null,,,,,,,,,,,,,,,,,,
4829.199999988079,,realistic_rating,1214386,Yukon,,51,Yukon,US,3,,,,,,,,,,,,,,,
null,,confidence_buffer,1214488,confidence_buffer,,null,,,,,,,,,,,,,,,,,,
4391.899999976158,,pt2_unique_rating,1218881,Yukon,,50,,,2,,,,,,,,,,,,,,,
null,,confidence_buffer,1218982,confidence_buffer,,null,,,,,,,,,,,,,,,,,,
2210,,pt2_memorable_rating,1221193,Yukon,,51,,,3,,,,,,,,,,,,,,,
null,,confidence_buffer,1221295,confidence_buffer,,null,,,,,,,,,,,,,,,,,,
1793.7999999523163,,recognition_phase,1223089,Yukon,,52,,,,,,new,1,0.975,,,,,,,,,,
null,,confidence_buffer,1223191,confidence_buffer,,null,,,,,,,,,,,,,,,,,,
null,,thebreak,1223692,break,,null,,,,,,,,,,,,,,,,,,
5452.899999976158,,realistic_rating,1229146,Westridge,,52,Westridge,Fictional,4,,,,,,,,,,,,,,,
null,,confidence_buffer,1229247,confidence_buffer,,null,,,,,,,,,,,,,,,,,,
5433.300000011921,,pt2_unique_rating,1234681,Westridge,,50,,,2,,,,,,,,,,,,,,,
null,,confidence_buffer,1234782,confidence_buffer,,null,,,,,,,,,,,,,,,,,,
2242.099999964237,,probe_rating,1237025,probe_rating,,49,,,,1,1,,,,,,,,,,,,,
null,,confidence_buffer,1237126,confidence_buffer,,null,,,,,,,,,,,,,,,,,,
4931,,pt2_memorable_rating,1242058,Westridge,,51,,,3,,,,,,,,,,,,,,,
null,,confidence_buffer,1242160,confidence_buffer,,null,,,,,,,,,,,,,,,,,,
5095.699999988079,,recognition_phase,1247257,Westridge,,51,,,,,,new,1,0.975609756097561,,,,,,,,,,
null,,confidence_buffer,1247358,confidence_buffer,,null,,,,,,,,,,,,,,,,,,
null,,thebreak,1247861,break,,null,,,,,,,,,,,,,,,,,,
5700,,realistic_rating,1253562,Gardnerville,,50,Gardnerville,US,2,,,,,,,,,,,,,,,
null,,confidence_buffer,1253664,confidence_buffer,,null,,,,,,,,,,,,,,,,,,
2728.600000023842,,pt2_unique_rating,1256393,Gardnerville,,49,,,1,,,,,,,,,,,,,,,
null,,confidence_buffer,1256496,confidence_buffer,,null,,,,,,,,,,,,,,,,,,
1880.300000011921,,pt2_memorable_rating,1258377,Gardnerville,,50,,,2,,,,,,,,,,,,,,,
null,,confidence_buffer,1258478,confidence_buffer,,null,,,,,,,,,,,,,,,,,,
2649.7000000476837,,recognition_phase,1261129,Gardnerville,,52,,,,,,new,1,0.9761904761904762,,,,,,,,,,
null,,confidence_buffer,1261230,confidence_buffer,,null,,,,,,,,,,,,,,,,,,
null,,thebreak,1261731,break,,null,,,,,,,,,,,,,,,,,,
6165.600000023842,,realistic_rating,1267898,Medora,,50,Medora,US,2,,,,,,,,,,,,,,,
null,,confidence_buffer,1267999,confidence_buffer,,null,,,,,,,,,,,,,,,,,,
1864.5,,pt2_unique_rating,1269864,Medora,,52,,,4,,,,,,,,,,,,,,,
null,,confidence_buffer,1269965,confidence_buffer,,null,,,,,,,,,,,,,,,,,,
2546.900000035763,,pt2_memorable_rating,1272513,Medora,,51,,,3,,,,,,,,,,,,,,,
null,,confidence_buffer,1272620,confidence_buffer,,null,,,,,,,,,,,,,,,,,,
1451.8999999761581,,recognition_phase,1274073,Medora,,52,,,,,,new,1,0.9767441860465116,,,,,,,,,,
null,,confidence_buffer,1274174,confidence_buffer,,null,,,,,,,,,,,,,,,,,,
null,,thebreak,1274676,break,,null,,,,,,,,,,,,,,,,,,
5004.599999964237,,realistic_rating,1279682,North Arroya,,49,North Arroya,Fictional,1,,,,,,,,,,,,,,,
null,,confidence_buffer,1279784,confidence_buffer,,null,,,,,,,,,,,,,,,,,,
2455.699999988079,,pt2_unique_rating,1282241,North Arroya,,52,,,4,,,,,,,,,,,,,,,
null,,confidence_buffer,1282343,confidence_buffer,,null,,,,,,,,,,,,,,,,,,
1649.300000011921,,pt2_memorable_rating,1283993,North Arroya,,50,,,2,,,,,,,,,,,,,,,
null,,confidence_buffer,1284094,confidence_buffer,,null,,,,,,,,,,,,,,,,,,
5210.199999988079,,recognition_phase,1289305,North Arroya,,52,,,,,,new,1,0.9772727272727273,,,,,,,,,,
null,,confidence_buffer,1289406,confidence_buffer,,null,,,,,,,,,,,,,,,,,,
null,,thebreak,1289920,break,,null,,,,,,,,,,,,,,,,,,
3328.899999976158,,realistic_rating,1293250,Solara Glen,,50,Solara Glen,Fictional,2,,,,,,,,,,,,,,,
null,,confidence_buffer,1293351,confidence_buffer,,null,,,,,,,,,,,,,,,,,,
5849.600000023842,,pt2_unique_rating,1299201,Solara Glen,,53,,,5,,,,,,,,,,,,,,,
null,,confidence_buffer,1299302,confidence_buffer,,null,,,,,,,,,,,,,,,,,,
3474.2999999523163,,pt2_memorable_rating,1302777,Solara Glen,,51,,,3,,,,,,,,,,,,,,,
null,,confidence_buffer,1302880,confidence_buffer,,null,,,,,,,,,,,,,,,,,,
2057.599999964237,,recognition_phase,1304938,Solara Glen,,49,,,,,,old,1,0.9777777777777777,,,,,,,,,,
null,,confidence_buffer,1305040,confidence_buffer,,null,,,,,,,,,,,,,,,,,,
null,,thebreak,1305543,break,,null,,,,,,,,,,,,,,,,,,
11890.5,,realistic_rating,1317434,Hollendale,,50,Hollendale,Fictional,2,,,,,,,,,,,,,,,
null,,confidence_buffer,1317539,confidence_buffer,,null,,,,,,,,,,,,,,,,,,
2245,,pt2_unique_rating,1319785,Hollendale,,52,,,4,,,,,,,,,,,,,,,
null,,confidence_buffer,1319886,confidence_buffer,,null,,,,,,,,,,,,,,,,,,
2738.300000011921,,pt2_memorable_rating,1322625,Hollendale,,52,,,4,,,,,,,,,,,,,,,
null,,confidence_buffer,1322726,confidence_buffer,,null,,,,,,,,,,,,,,,,,,
2482,,probe_rating,1325209,probe_rating,,51,,,,3,1,,,,,,,,,,,,,
null,,confidence_buffer,1325310,confidence_buffer,,null,,,,,,,,,,,,,,,,,,
2379.099999964237,,recognition_phase,1327690,Hollendale,,52,,,,,,new,1,0.9782608695652174,,,,,,,,,,
null,,confidence_buffer,1327804,confidence_buffer,,null,,,,,,,,,,,,,,,,,,
null,,thebreak,1328318,break,,null,,,,,,,,,,,,,,,,,,
4850.100000023842,,realistic_rating,1333169,Briarfield,,50,Briarfield,Fictional,2,,,,,,,,,,,,,,,
null,,confidence_buffer,1333271,confidence_buffer,,null,,,,,,,,,,,,,,,,,,
1921.5,,pt2_unique_rating,1335193,Briarfield,,51,,,3,,,,,,,,,,,,,,,
null,,confidence_buffer,1335294,confidence_buffer,,null,,,,,,,,,,,,,,,,,,
1402.5,,pt2_memorable_rating,1336697,Briarfield,,51,,,3,,,,,,,,,,,,,,,
null,,confidence_buffer,1336798,confidence_buffer,,null,,,,,,,,,,,,,,,,,,
3403.699999988079,,recognition_phase,1340202,Briarfield,,52,,,,,,new,1,0.9787234042553191,,,,,,,,,,
null,,confidence_buffer,1340303,confidence_buffer,,null,,,,,,,,,,,,,,,,,,
null,,thebreak,1340806,break,,null,,,,,,,,,,,,,,,,,,
5650.5,,realistic_rating,1346457,Claywater,,49,Claywater,Fictional,1,,,,,,,,,,,,,,,
null,,confidence_buffer,1346559,confidence_buffer,,null,,,,,,,,,,,,,,,,,,
2425.400000035763,,pt2_unique_rating,1348985,Claywater,,52,,,4,,,,,,,,,,,,,,,
null,,confidence_buffer,1349086,confidence_buffer,,null,,,,,,,,,,,,,,,,,,
1210.699999988079,,pt2_memorable_rating,1350298,Claywater,,51,,,3,,,,,,,,,,,,,,,
null,,confidence_buffer,1350399,confidence_buffer,,null,,,,,,,,,,,,,,,,,,
2073.800000011921,,recognition_phase,1352473,Claywater,,52,,,,,,new,1,0.9791666666666666,,,,,,,,,,
null,,confidence_buffer,1352574,confidence_buffer,,null,,,,,,,,,,,,,,,,,,
null,,thebreak,1353075,break,,null,,,,,,,,,,,,,,,,,,
5749.699999988079,,realistic_rating,1358825,Manistee,,49,Manistee,US,1,,,,,,,,,,,,,,,
null,,confidence_buffer,1358928,confidence_buffer,,null,,,,,,,,,,,,,,,,,,
2553.100000023842,,pt2_unique_rating,1361482,Manistee,,52,,,4,,,,,,,,,,,,,,,
null,,confidence_buffer,1361584,confidence_buffer,,null,,,,,,,,,,,,,,,,,,
1752.800000011921,,pt2_memorable_rating,1363337,Manistee,,52,,,4,,,,,,,,,,,,,,,
null,,confidence_buffer,1363438,confidence_buffer,,null,,,,,,,,,,,,,,,,,,
3361.699999988079,,recognition_phase,1366801,Manistee,,52,,,,,,new,1,0.9795918367346939,,,,,,,,,,
null,,confidence_buffer,1366901,confidence_buffer,,null,,,,,,,,,,,,,,,,,,
null,,thebreak,1367403,break,,null,,,,,,,,,,,,,,,,,,
4574.400000035763,,realistic_rating,1371978,Barnard,,50,Barnard,US,2,,,,,,,,,,,,,,,
null,,confidence_buffer,1372080,confidence_buffer,,null,,,,,,,,,,,,,,,,,,
5904.800000011921,,pt2_unique_rating,1377985,Barnard,,51,,,3,,,,,,,,,,,,,,,
null,,confidence_buffer,1378086,confidence_buffer,,null,,,,,,,,,,,,,,,,,,
2058,,pt2_memorable_rating,1380145,Barnard,,50,,,2,,,,,,,,,,,,,,,
null,,confidence_buffer,1380247,confidence_buffer,,null,,,,,,,,,,,,,,,,,,
1609,,recognition_phase,1381857,Barnard,,52,,,,,,new,1,0.98,,,,,,,,,,
null,,confidence_buffer,1381958,confidence_buffer,,null,,,,,,,,,,,,,,,,,,
null,,thebreak,1382461,break,,null,,,,,,,,,,,,,,,,,,
3820.5,,realistic_rating,1386282,Racine,,50,Racine,US,2,,,,,,,,,,,,,,,
null,,confidence_buffer,1386384,confidence_buffer,,null,,,,,,,,,,,,,,,,,,
3360,,pt2_unique_rating,1389745,Racine,,51,,,3,,,,,,,,,,,,,,,
null,,confidence_buffer,1389846,confidence_buffer,,null,,,,,,,,,,,,,,,,,,
2114.399999976158,,pt2_memorable_rating,1391961,Racine,,51,,,3,,,,,,,,,,,,,,,
null,,confidence_buffer,1392062,confidence_buffer,,null,,,,,,,,,,,,,,,,,,
3081.899999976158,,recognition_phase,1395145,Racine,,52,,,,,,new,1,0.9803921568627451,,,,,,,,,,
null,,confidence_buffer,1395247,confidence_buffer,,null,,,,,,,,,,,,,,,,,,
null,,thebreak,1395755,break,,null,,,,,,,,,,,,,,,,,,
4374,,realistic_rating,1400130,Natchez,,51,Natchez,US,3,,,,,,,,,,,,,,,
null,,confidence_buffer,1400232,confidence_buffer,,null,,,,,,,,,,,,,,,,,,
1200.199999988079,,pt2_unique_rating,1401433,Natchez,,51,,,3,,,,,,,,,,,,,,,
null,,confidence_buffer,1401534,confidence_buffer,,null,,,,,,,,,,,,,,,,,,
2042.300000011921,,pt2_memorable_rating,1403577,Natchez,,52,,,4,,,,,,,,,,,,,,,
null,,confidence_buffer,1403679,confidence_buffer,,null,,,,,,,,,,,,,,,,,,
2145,,recognition_phase,1405825,Natchez,,49,,,,,,old,1,0.9807692307692307,,,,,,,,,,
null,,confidence_buffer,1405927,confidence_buffer,,null,,,,,,,,,,,,,,,,,,
null,,thebreak,1406429,break,,null,,,,,,,,,,,,,,,,,,
3772.100000023842,,realistic_rating,1410202,Summershade,,50,Summershade,Fictional,2,,,,,,,,,,,,,,,
null,,confidence_buffer,1410303,confidence_buffer,,null,,,,,,,,,,,,,,,,,,
2344.7999999523163,,pt2_unique_rating,1412649,Summershade,,53,,,5,,,,,,,,,,,,,,,
null,,confidence_buffer,1412751,confidence_buffer,,null,,,,,,,,,,,,,,,,,,
1265.4000000357628,,pt2_memorable_rating,1414017,Summershade,,53,,,5,,,,,,,,,,,,,,,
null,,confidence_buffer,1414119,confidence_buffer,,null,,,,,,,,,,,,,,,,,,
2305.199999988079,,recognition_phase,1416425,Summershade,,49,,,,,,old,1,0.9811320754716981,,,,,,,,,,
null,,confidence_buffer,1416527,confidence_buffer,,null,,,,,,,,,,,,,,,,,,
null,,thebreak,1417028,break,,null,,,,,,,,,,,,,,,,,,
4517.900000035763,,realistic_rating,1421546,Delaro Park,,49,Delaro Park,Fictional,1,,,,,,,,,,,,,,,
null,,confidence_buffer,1421648,confidence_buffer,,null,,,,,,,,,,,,,,,,,,
4848.100000023842,,pt2_unique_rating,1426497,Delaro Park,,51,,,3,,,,,,,,,,,,,,,
null,,confidence_buffer,1426599,confidence_buffer,,null,,,,,,,,,,,,,,,,,,
2945.800000011921,,pt2_memorable_rating,1429545,Delaro Park,,51,,,3,,,,,,,,,,,,,,,
null,,confidence_buffer,1429648,confidence_buffer,,null,,,,,,,,,,,,,,,,,,
1456.699999988079,,probe_rating,1431105,probe_rating,,52,,,,4,0,,,,,,,,,,,,,
null,,confidence_buffer,1431206,confidence_buffer,,null,,,,,,,,,,,,,,,,,,
3387,,recognition_phase,1434594,Delaro Park,,52,,,,,,new,1,0.9814814814814815,,,,,,,,,,
null,,confidence_buffer,1434695,confidence_buffer,,null,,,,,,,,,,,,,,,,,,
null,,thebreak,1435196,break,,null,,,,,,,,,,,,,,,,,,
3820.399999976158,,realistic_rating,1439017,Abilene,,50,Abilene,US,2,,,,,,,,,,,,,,,
null,,confidence_buffer,1439119,confidence_buffer,,null,,,,,,,,,,,,,,,,,,
1745.2999999523163,,pt2_unique_rating,1440865,Abilene,,51,,,3,,,,,,,,,,,,,,,
null,,confidence_buffer,1440968,confidence_buffer,,null,,,,,,,,,,,,,,,,,,
1545,,pt2_memorable_rating,1442513,Abilene,,51,,,3,,,,,,,,,,,,,,,
null,,confidence_buffer,1442615,confidence_buffer,,null,,,,,,,,,,,,,,,,,,
2001.699999988079,,recognition_phase,1444618,Abilene,,49,,,,,,old,1,0.9818181818181818,,,,,,,,,,
null,,confidence_buffer,1444719,confidence_buffer,,null,,,,,,,,,,,,,,,,,,
null,,thebreak,1445221,break,,null,,,,,,,,,,,,,,,,,,
4491,,realistic_rating,1449713,Sierra Hollow,,51,Sierra Hollow,Fictional,3,,,,,,,,,,,,,,,
null,,confidence_buffer,1449815,confidence_buffer,,null,,,,,,,,,,,,,,,,,,
8026.099999964237,,pt2_unique_rating,1457842,Sierra Hollow,,52,,,4,,,,,,,,,,,,,,,
null,,confidence_buffer,1457955,confidence_buffer,,null,,,,,,,,,,,,,,,,,,
1941.7000000476837,,pt2_memorable_rating,1459897,Sierra Hollow,,52,,,4,,,,,,,,,,,,,,,
null,,confidence_buffer,1459998,confidence_buffer,,null,,,,,,,,,,,,,,,,,,
1354.0999999642372,,recognition_phase,1461353,Sierra Hollow,,49,,,,,,old,1,0.9821428571428571,,,,,,,,,,
null,,confidence_buffer,1461455,confidence_buffer,,null,,,,,,,,,,,,,,,,,,
null,,thebreak,1461956,break,,null,,,,,,,,,,,,,,,,,,
8437.100000023842,,realistic_rating,1470394,West Palm Beach,,53,West Palm Beach,US,5,,,,,,,,,,,,,,,
null,,confidence_buffer,1470496,confidence_buffer,,null,,,,,,,,,,,,,,,,,,
2432.100000023842,,pt2_unique_rating,1472929,West Palm Beach,,51,,,3,,,,,,,,,,,,,,,
null,,confidence_buffer,1473031,confidence_buffer,,null,,,,,,,,,,,,,,,,,,
3210.100000023842,,pt2_memorable_rating,1476241,West Palm Beach,,52,,,4,,,,,,,,,,,,,,,
null,,confidence_buffer,1476344,confidence_buffer,,null,,,,,,,,,,,,,,,,,,
2984.199999988079,,recognition_phase,1479329,West Palm Beach,,52,,,,,,new,1,0.9824561403508771,,,,,,,,,,
null,,confidence_buffer,1479430,confidence_buffer,,null,,,,,,,,,,,,,,,,,,
null,,thebreak,1479932,break,,null,,,,,,,,,,,,,,,,,,
6852.799999952316,,realistic_rating,1486786,Peoria,,51,Peoria,US,3,,,,,,,,,,,,,,,
null,,confidence_buffer,1486887,confidence_buffer,,null,,,,,,,,,,,,,,,,,,
1745.5,,pt2_unique_rating,1488633,Peoria,,51,,,3,,,,,,,,,,,,,,,
null,,confidence_buffer,1488734,confidence_buffer,,null,,,,,,,,,,,,,,,,,,
1962.199999988079,,pt2_memorable_rating,1490697,Peoria,,51,,,3,,,,,,,,,,,,,,,
null,,confidence_buffer,1490799,confidence_buffer,,null,,,,,,,,,,,,,,,,,,
1593.5,,recognition_phase,1492393,Peoria,,49,,,,,,old,1,0.9827586206896551,,,,,,,,,,
null,,confidence_buffer,1492495,confidence_buffer,,null,,,,,,,,,,,,,,,,,,
null,,thebreak,1492997,break,,null,,,,,,,,,,,,,,,,,,
4028.5,,realistic_rating,1497026,Crestwood,,51,Crestwood,Fictional,3,,,,,,,,,,,,,,,
null,,confidence_buffer,1497128,confidence_buffer,,null,,,,,,,,,,,,,,,,,,
3288.399999976158,,pt2_unique_rating,1500417,Crestwood,,50,,,2,,,,,,,,,,,,,,,
null,,confidence_buffer,1500519,confidence_buffer,,null,,,,,,,,,,,,,,,,,,
3848.899999976158,,pt2_memorable_rating,1504369,Crestwood,,49,,,1,,,,,,,,,,,,,,,
null,,confidence_buffer,1504470,confidence_buffer,,null,,,,,,,,,,,,,,,,,,
3363.599999964237,,recognition_phase,1507834,Crestwood,,52,,,,,,new,0,0.9661016949152542,,,,,,,,,,
null,,confidence_buffer,1507936,confidence_buffer,,null,,,,,,,,,,,,,,,,,,
null,,thebreak,1508437,break,,null,,,,,,,,,,,,,,,,,,
5875.100000023842,,realistic_rating,1514313,Lake of the Ozarks,,51,Lake of the Ozarks,US,3,,,,,,,,,,,,,,,
null,,confidence_buffer,1514415,confidence_buffer,,null,,,,,,,,,,,,,,,,,,
2425.600000023842,,pt2_unique_rating,1516842,Lake of the Ozarks,,51,,,3,,,,,,,,,,,,,,,
null,,confidence_buffer,1516943,confidence_buffer,,null,,,,,,,,,,,,,,,,,,
2714.5,,probe_rating,1519658,probe_rating,,52,,,,4,1,,,,,,,,,,,,,
null,,confidence_buffer,1519759,confidence_buffer,,null,,,,,,,,,,,,,,,,,,
3969.399999976158,,pt2_memorable_rating,1523729,Lake of the Ozarks,,52,,,4,,,,,,,,,,,,,,,
null,,confidence_buffer,1523830,confidence_buffer,,null,,,,,,,,,,,,,,,,,,
1666.1000000238419,,recognition_phase,1525497,Lake of the Ozarks,,49,,,,,,old,1,0.9666666666666667,,,,,,,,,,
null,,confidence_buffer,1525599,confidence_buffer,,null,,,,,,,,,,,,,,,,,,
null,,thebreak,1526101,break,,null,,,,,,,,,,,,,,,,,,
,,survey,1861542,survey-questions,,,,,,,,,,,none,high,I was in silence paying total attention, and I thank you for the opportunity, much luck to you with y our study!,I didn't use any strategies, I read each question as if the options were changing and it was brand new ... actually I guess that was my strategy,heard of and or been there atleast once,new of more than one city same name,something I never heard of for a city and sounded like I may never,big cities, that have become realistic by name over time.,No, I have not.,I liked it, it kept my attention, didn't get to the point where I wondered how much time was left.. and thats a great thing and says a lot about the task/study.
