rt,responses,trial_type,time_elapsed,stimulus,button_pressed,key_press,name_trial,rating,probe,probe_accuracy,response,correct,accuracy,problems,smooth,distraction,strategies,familiar,memorable,unique,realistic,similar,comments
6208,{worker_id:66f8b447360d8c1892324f1b},id_enter,6210,,,,,,,,,,,,,,,,,,,,
9573.299999982119,,fullscreen,15787,fullscreen,0,,,,,,,,,,,,,,,,,,
5954,,intro_0,21744,instruct,,32,,,,,,,,,,,,,,,,,
20440.90000000596,,intro_1,42186,instruct,,32,,,,,,,,,,,,,,,,,
6149.799999982119,,intro_2,48337,instruct,,32,,,,,,,,,,,,,,,,,
null,,instruct_dir_4,49840,instruct,,null,,,,,,,,,,,,,,,,,
null,,thebreak,50343,break,,null,,,,,,,,,,,,,,,,,
7022.0999999940395,,familiar_rating,57367,Athens,,53,Athens,5,,,,,,,,,,,,,,,
null,,confidence_buffer,57471,confidence_buffer,,null,,,,,,,,,,,,,,,,,
3824,,unique_rating,61297,Athens,,53,,5,,,,,,,,,,,,,,,
null,,confidence_buffer,61400,confidence_buffer,,null,,,,,,,,,,,,,,,,,
2460.199999988079,,memorable_rating,63862,Athens,,53,,5,,,,,,,,,,,,,,,
null,,confidence_buffer,63965,confidence_buffer,,null,,,,,,,,,,,,,,,,,
null,,thebreak,64468,break,,null,,,,,,,,,,,,,,,,,
2677.0999999940395,,familiar_rating,67147,Santa Monica,,53,Santa Monica,5,,,,,,,,,,,,,,,
null,,confidence_buffer,67250,confidence_buffer,,null,,,,,,,,,,,,,,,,,
4423.5999999940395,,unique_rating,71675,Santa Monica,,52,,4,,,,,,,,,,,,,,,
null,,confidence_buffer,71778,confidence_buffer,,null,,,,,,,,,,,,,,,,,
3389.399999976158,,memorable_rating,75169,Santa Monica,,52,,4,,,,,,,,,,,,,,,
null,,confidence_buffer,75270,confidence_buffer,,null,,,,,,,,,,,,,,,,,
null,,thebreak,75772,break,,null,,,,,,,,,,,,,,,,,
11920.199999988079,,familiar_rating,87692,Concord,,53,Concord,5,,,,,,,,,,,,,,,
null,,confidence_buffer,87793,confidence_buffer,,null,,,,,,,,,,,,,,,,,
4204.0999999940395,,unique_rating,91997,Concord,,51,,3,,,,,,,,,,,,,,,
null,,confidence_buffer,92099,confidence_buffer,,null,,,,,,,,,,,,,,,,,
2733.300000011921,,memorable_rating,94833,Concord,,51,,3,,,,,,,,,,,,,,,
null,,confidence_buffer,94934,confidence_buffer,,null,,,,,,,,,,,,,,,,,
null,,thebreak,95436,break,,null,,,,,,,,,,,,,,,,,
3867.9000000059605,,familiar_rating,99306,Stamford,,53,Stamford,5,,,,,,,,,,,,,,,
null,,confidence_buffer,99409,confidence_buffer,,null,,,,,,,,,,,,,,,,,
2939.5,,unique_rating,102350,Stamford,,49,,1,,,,,,,,,,,,,,,
null,,confidence_buffer,102453,confidence_buffer,,null,,,,,,,,,,,,,,,,,
2714.7000000178814,,memorable_rating,105169,Stamford,,51,,3,,,,,,,,,,,,,,,
null,,confidence_buffer,105273,confidence_buffer,,null,,,,,,,,,,,,,,,,,
null,,thebreak,105776,break,,null,,,,,,,,,,,,,,,,,
4027.5999999940395,,familiar_rating,109806,Boulder,,53,Boulder,5,,,,,,,,,,,,,,,
null,,confidence_buffer,109909,confidence_buffer,,null,,,,,,,,,,,,,,,,,
1319.5,,unique_rating,111230,Boulder,,53,,5,,,,,,,,,,,,,,,
null,,confidence_buffer,111334,confidence_buffer,,null,,,,,,,,,,,,,,,,,
1080.4000000059605,,memorable_rating,112416,Boulder,,53,,5,,,,,,,,,,,,,,,
null,,confidence_buffer,112519,confidence_buffer,,null,,,,,,,,,,,,,,,,,
null,,thebreak,113021,break,,null,,,,,,,,,,,,,,,,,
2107.199999988079,,familiar_rating,115130,Frankfort,,53,Frankfort,5,,,,,,,,,,,,,,,
null,,confidence_buffer,115233,confidence_buffer,,null,,,,,,,,,,,,,,,,,
2714.5,,unique_rating,117949,Frankfort,,51,,3,,,,,,,,,,,,,,,
null,,confidence_buffer,118051,confidence_buffer,,null,,,,,,,,,,,,,,,,,
2821.5,,probe_rating,120874,probe_rating,,51,,,3,1,,,,,,,,,,,,,
null,,confidence_buffer,120978,confidence_buffer,,null,,,,,,,,,,,,,,,,,
3629.199999988079,,memorable_rating,124608,Frankfort,,50,,2,,,,,,,,,,,,,,,
null,,confidence_buffer,124710,confidence_buffer,,null,,,,,,,,,,,,,,,,,
null,,thebreak,125212,break,,null,,,,,,,,,,,,,,,,,
7120.9000000059605,,familiar_rating,132335,Helena,,51,Helena,3,,,,,,,,,,,,,,,
null,,confidence_buffer,132438,confidence_buffer,,null,,,,,,,,,,,,,,,,,
3150.300000011921,,unique_rating,135590,Helena,,50,,2,,,,,,,,,,,,,,,
null,,confidence_buffer,135693,confidence_buffer,,null,,,,,,,,,,,,,,,,,
2624.199999988079,,memorable_rating,138319,Helena,,50,,2,,,,,,,,,,,,,,,
null,,confidence_buffer,138422,confidence_buffer,,null,,,,,,,,,,,,,,,,,
null,,thebreak,138925,break,,null,,,,,,,,,,,,,,,,,
3291.7999999821186,,familiar_rating,142218,Rock Springs,,49,Rock Springs,1,,,,,,,,,,,,,,,
null,,confidence_buffer,142321,confidence_buffer,,null,,,,,,,,,,,,,,,,,
2311.300000011921,,unique_rating,144634,Rock Springs,,49,,1,,,,,,,,,,,,,,,
null,,confidence_buffer,144737,confidence_buffer,,null,,,,,,,,,,,,,,,,,
643.5,,memorable_rating,145383,Rock Springs,,49,,1,,,,,,,,,,,,,,,
null,,confidence_buffer,145485,confidence_buffer,,null,,,,,,,,,,,,,,,,,
null,,thebreak,145988,break,,null,,,,,,,,,,,,,,,,,
3517.2000000178814,,familiar_rating,149507,Fargo,,51,Fargo,3,,,,,,,,,,,,,,,
null,,confidence_buffer,149610,confidence_buffer,,null,,,,,,,,,,,,,,,,,
2223.7999999821186,,unique_rating,151836,Fargo,,51,,3,,,,,,,,,,,,,,,
null,,confidence_buffer,151939,confidence_buffer,,null,,,,,,,,,,,,,,,,,
2353.199999988079,,memorable_rating,154294,Fargo,,50,,2,,,,,,,,,,,,,,,
null,,confidence_buffer,154396,confidence_buffer,,null,,,,,,,,,,,,,,,,,
null,,thebreak,154899,break,,null,,,,,,,,,,,,,,,,,
2646.4000000059605,,familiar_rating,157547,Annapolis,,52,Annapolis,4,,,,,,,,,,,,,,,
null,,confidence_buffer,157650,confidence_buffer,,null,,,,,,,,,,,,,,,,,
3797.300000011921,,unique_rating,161449,Annapolis,,52,,4,,,,,,,,,,,,,,,
null,,confidence_buffer,161552,confidence_buffer,,null,,,,,,,,,,,,,,,,,
3599,,memorable_rating,165151,Annapolis,,52,,4,,,,,,,,,,,,,,,
null,,confidence_buffer,165253,confidence_buffer,,null,,,,,,,,,,,,,,,,,
2491.5,,probe_rating,167746,probe_rating,,52,,,4,0,,,,,,,,,,,,,
null,,confidence_buffer,167849,confidence_buffer,,null,,,,,,,,,,,,,,,,,
null,,thebreak,168351,break,,null,,,,,,,,,,,,,,,,,
4330.5,,familiar_rating,172683,Yakima,,50,Yakima,2,,,,,,,,,,,,,,,
null,,confidence_buffer,172787,confidence_buffer,,null,,,,,,,,,,,,,,,,,
4291.699999988079,,unique_rating,177080,Yakima,,50,,2,,,,,,,,,,,,,,,
null,,confidence_buffer,177183,confidence_buffer,,null,,,,,,,,,,,,,,,,,
1587.699999988079,,memorable_rating,178773,Yakima,,50,,2,,,,,,,,,,,,,,,
null,,confidence_buffer,178876,confidence_buffer,,null,,,,,,,,,,,,,,,,,
null,,thebreak,179379,break,,null,,,,,,,,,,,,,,,,,
3127.699999988079,,familiar_rating,182508,Reno,,53,Reno,5,,,,,,,,,,,,,,,
null,,confidence_buffer,182612,confidence_buffer,,null,,,,,,,,,,,,,,,,,
3252.9000000059605,,unique_rating,185866,Reno,,53,,5,,,,,,,,,,,,,,,
null,,confidence_buffer,185970,confidence_buffer,,null,,,,,,,,,,,,,,,,,
1591.300000011921,,memorable_rating,187562,Reno,,53,,5,,,,,,,,,,,,,,,
null,,confidence_buffer,187666,confidence_buffer,,null,,,,,,,,,,,,,,,,,
null,,thebreak,188168,break,,null,,,,,,,,,,,,,,,,,
1792.5,,familiar_rating,189962,Pasadena,,53,Pasadena,5,,,,,,,,,,,,,,,
null,,confidence_buffer,190065,confidence_buffer,,null,,,,,,,,,,,,,,,,,
3945.5,,unique_rating,194012,Pasadena,,52,,4,,,,,,,,,,,,,,,
null,,confidence_buffer,194116,confidence_buffer,,null,,,,,,,,,,,,,,,,,
1784.5999999940395,,memorable_rating,195902,Pasadena,,52,,4,,,,,,,,,,,,,,,
null,,confidence_buffer,196006,confidence_buffer,,null,,,,,,,,,,,,,,,,,
null,,thebreak,196509,break,,null,,,,,,,,,,,,,,,,,
4036.5,,familiar_rating,200547,Gainesville,,51,Gainesville,3,,,,,,,,,,,,,,,
null,,confidence_buffer,200649,confidence_buffer,,null,,,,,,,,,,,,,,,,,
3396,,unique_rating,204047,Gainesville,,49,,1,,,,,,,,,,,,,,,
null,,confidence_buffer,204150,confidence_buffer,,null,,,,,,,,,,,,,,,,,
1381.0999999940395,,memorable_rating,205532,Gainesville,,49,,1,,,,,,,,,,,,,,,
null,,confidence_buffer,205635,confidence_buffer,,null,,,,,,,,,,,,,,,,,
null,,thebreak,206138,break,,null,,,,,,,,,,,,,,,,,
3290.699999988079,,familiar_rating,209431,Carson City,,51,Carson City,3,,,,,,,,,,,,,,,
null,,confidence_buffer,209534,confidence_buffer,,null,,,,,,,,,,,,,,,,,
3226.600000023842,,unique_rating,212762,Carson City,,50,,2,,,,,,,,,,,,,,,
null,,confidence_buffer,212865,confidence_buffer,,null,,,,,,,,,,,,,,,,,
1215.199999988079,,memorable_rating,214082,Carson City,,50,,2,,,,,,,,,,,,,,,
null,,confidence_buffer,214186,confidence_buffer,,null,,,,,,,,,,,,,,,,,
null,,thebreak,214689,break,,null,,,,,,,,,,,,,,,,,
2796.300000011921,,familiar_rating,217487,Olympia,,53,Olympia,5,,,,,,,,,,,,,,,
null,,confidence_buffer,217589,confidence_buffer,,null,,,,,,,,,,,,,,,,,
2550.699999988079,,probe_rating,220142,probe_rating,,53,,,5,1,,,,,,,,,,,,,
null,,confidence_buffer,220245,confidence_buffer,,null,,,,,,,,,,,,,,,,,
3645.0999999940395,,unique_rating,223892,Olympia,,53,,5,,,,,,,,,,,,,,,
null,,confidence_buffer,223994,confidence_buffer,,null,,,,,,,,,,,,,,,,,
1862.4000000059605,,memorable_rating,225858,Olympia,,52,,4,,,,,,,,,,,,,,,
null,,confidence_buffer,225962,confidence_buffer,,null,,,,,,,,,,,,,,,,,
null,,thebreak,226465,break,,null,,,,,,,,,,,,,,,,,
2672.4000000059605,,familiar_rating,229139,Toledo,,53,Toledo,5,,,,,,,,,,,,,,,
null,,confidence_buffer,229242,confidence_buffer,,null,,,,,,,,,,,,,,,,,
2837.4000000059605,,unique_rating,232081,Toledo,,49,,1,,,,,,,,,,,,,,,
null,,confidence_buffer,232184,confidence_buffer,,null,,,,,,,,,,,,,,,,,
644.7000000178814,,memorable_rating,232830,Toledo,,49,,1,,,,,,,,,,,,,,,
null,,confidence_buffer,232934,confidence_buffer,,null,,,,,,,,,,,,,,,,,
null,,thebreak,233436,break,,null,,,,,,,,,,,,,,,,,
2002.699999988079,,familiar_rating,235440,Scottsdale,,53,Scottsdale,5,,,,,,,,,,,,,,,
null,,confidence_buffer,235543,confidence_buffer,,null,,,,,,,,,,,,,,,,,
3406.800000011921,,unique_rating,238951,Scottsdale,,53,,5,,,,,,,,,,,,,,,
null,,confidence_buffer,239054,confidence_buffer,,null,,,,,,,,,,,,,,,,,
974.3000000119209,,memorable_rating,240030,Scottsdale,,53,,5,,,,,,,,,,,,,,,
null,,confidence_buffer,240133,confidence_buffer,,null,,,,,,,,,,,,,,,,,
null,,thebreak,240635,break,,null,,,,,,,,,,,,,,,,,
2109.5999999940395,,familiar_rating,242746,Abilene,,53,Abilene,5,,,,,,,,,,,,,,,
null,,confidence_buffer,242849,confidence_buffer,,null,,,,,,,,,,,,,,,,,
2760.5,,unique_rating,245611,Abilene,,51,,3,,,,,,,,,,,,,,,
null,,confidence_buffer,245714,confidence_buffer,,null,,,,,,,,,,,,,,,,,
3375.800000011921,,memorable_rating,249090,Abilene,,50,,2,,,,,,,,,,,,,,,
null,,confidence_buffer,249194,confidence_buffer,,null,,,,,,,,,,,,,,,,,
null,,thebreak,249697,break,,null,,,,,,,,,,,,,,,,,
2541.5999999940395,,familiar_rating,252240,Syracuse,,53,Syracuse,5,,,,,,,,,,,,,,,
null,,confidence_buffer,252344,confidence_buffer,,null,,,,,,,,,,,,,,,,,
5085.4000000059605,,unique_rating,257431,Syracuse,,52,,4,,,,,,,,,,,,,,,
null,,confidence_buffer,257533,confidence_buffer,,null,,,,,,,,,,,,,,,,,
1140.5999999940395,,memorable_rating,258675,Syracuse,,52,,4,,,,,,,,,,,,,,,
null,,confidence_buffer,258779,confidence_buffer,,null,,,,,,,,,,,,,,,,,
1815.4000000059605,,probe_rating,260596,probe_rating,,50,,,2,1,,,,,,,,,,,,,
null,,confidence_buffer,260699,confidence_buffer,,null,,,,,,,,,,,,,,,,,
null,,thebreak,261202,break,,null,,,,,,,,,,,,,,,,,
2616.2000000178814,,familiar_rating,263820,Bozeman,,53,Bozeman,5,,,,,,,,,,,,,,,
null,,confidence_buffer,263924,confidence_buffer,,null,,,,,,,,,,,,,,,,,
2820.7000000178814,,unique_rating,266746,Bozeman,,53,,5,,,,,,,,,,,,,,,
null,,confidence_buffer,266849,confidence_buffer,,null,,,,,,,,,,,,,,,,,
1919.8999999761581,,memorable_rating,268771,Bozeman,,51,,3,,,,,,,,,,,,,,,
null,,confidence_buffer,268874,confidence_buffer,,null,,,,,,,,,,,,,,,,,
null,,thebreak,269376,break,,null,,,,,,,,,,,,,,,,,
4761.800000011921,,familiar_rating,274140,Champaign,,52,Champaign,4,,,,,,,,,,,,,,,
null,,confidence_buffer,274242,confidence_buffer,,null,,,,,,,,,,,,,,,,,
3105.9000000059605,,unique_rating,277350,Champaign,,52,,4,,,,,,,,,,,,,,,
null,,confidence_buffer,277453,confidence_buffer,,null,,,,,,,,,,,,,,,,,
2070.699999988079,,memorable_rating,279525,Champaign,,52,,4,,,,,,,,,,,,,,,
null,,confidence_buffer,279627,confidence_buffer,,null,,,,,,,,,,,,,,,,,
1966.300000011921,,probe_rating,281595,probe_rating,,52,,,4,1,,,,,,,,,,,,,
null,,confidence_buffer,281698,confidence_buffer,,null,,,,,,,,,,,,,,,,,
null,,thebreak,282201,break,,null,,,,,,,,,,,,,,,,,
2556.0999999940395,,familiar_rating,284758,Palo Alto,,53,Palo Alto,5,,,,,,,,,,,,,,,
null,,confidence_buffer,284861,confidence_buffer,,null,,,,,,,,,,,,,,,,,
5192.199999988079,,unique_rating,290054,Palo Alto,,53,,5,,,,,,,,,,,,,,,
null,,confidence_buffer,290157,confidence_buffer,,null,,,,,,,,,,,,,,,,,
1395.1000000238419,,memorable_rating,291554,Palo Alto,,53,,5,,,,,,,,,,,,,,,
null,,confidence_buffer,291658,confidence_buffer,,null,,,,,,,,,,,,,,,,,
null,,thebreak,292161,break,,null,,,,,,,,,,,,,,,,,
2001.9000000059605,,familiar_rating,294164,Las Cruces,,53,Las Cruces,5,,,,,,,,,,,,,,,
null,,confidence_buffer,294267,confidence_buffer,,null,,,,,,,,,,,,,,,,,
2383.699999988079,,unique_rating,296653,Las Cruces,,52,,4,,,,,,,,,,,,,,,
null,,confidence_buffer,296755,confidence_buffer,,null,,,,,,,,,,,,,,,,,
1772.1000000238419,,probe_rating,298529,probe_rating,,53,,,5,1,,,,,,,,,,,,,
null,,confidence_buffer,298632,confidence_buffer,,null,,,,,,,,,,,,,,,,,
2281.0999999940395,,memorable_rating,300914,Las Cruces,,52,,4,,,,,,,,,,,,,,,
null,,confidence_buffer,301017,confidence_buffer,,null,,,,,,,,,,,,,,,,,
null,,thebreak,301520,break,,null,,,,,,,,,,,,,,,,,
1761.5999999940395,,familiar_rating,303283,Marquette,,53,Marquette,5,,,,,,,,,,,,,,,
null,,confidence_buffer,303386,confidence_buffer,,null,,,,,,,,,,,,,,,,,
2490.5999999940395,,unique_rating,305879,Marquette,,53,,5,,,,,,,,,,,,,,,
null,,confidence_buffer,305981,confidence_buffer,,null,,,,,,,,,,,,,,,,,
2370.199999988079,,memorable_rating,308353,Marquette,,53,,5,,,,,,,,,,,,,,,
null,,confidence_buffer,308456,confidence_buffer,,null,,,,,,,,,,,,,,,,,
null,,thebreak,308959,break,,null,,,,,,,,,,,,,,,,,
5138,,intro_0,314099,instruct,,32,,,,,,,,,,,,,,,,,
5696.699999988079,,intro_1,319796,instruct,,32,,,,,,,,,,,,,,,,,
12719.59999999404,,intro_2,332517,instruct,,32,,,,,,,,,,,,,,,,,
null,,instruct_dir_4,334019,instruct,,null,,,,,,,,,,,,,,,,,
6132.0999999940395,,realistic_rating,340153,Marquette,,53,Marquette,5,,,,,,,,,,,,,,,
null,,confidence_buffer,340257,confidence_buffer,,null,,,,,,,,,,,,,,,,,
2834.5999999940395,,pt2_unique_rating,343093,Marquette,,53,,5,,,,,,,,,,,,,,,
null,,confidence_buffer,343196,confidence_buffer,,null,,,,,,,,,,,,,,,,,
3871.2999999821186,,pt2_memorable_rating,347069,Marquette,,53,,5,,,,,,,,,,,,,,,
null,,confidence_buffer,347172,confidence_buffer,,null,,,,,,,,,,,,,,,,,
3508.7000000178814,,recognition_phase,350682,Marquette,,49,,,,,old,1,1,,,,,,,,,,
null,,confidence_buffer,350786,confidence_buffer,,null,,,,,,,,,,,,,,,,,
null,,thebreak,351289,break,,null,,,,,,,,,,,,,,,,,
4233.200000017881,,realistic_rating,355524,Scottsdale,,53,Scottsdale,5,,,,,,,,,,,,,,,
null,,confidence_buffer,355626,confidence_buffer,,null,,,,,,,,,,,,,,,,,
1608.4000000059605,,pt2_unique_rating,357235,Scottsdale,,53,,5,,,,,,,,,,,,,,,
null,,confidence_buffer,357338,confidence_buffer,,null,,,,,,,,,,,,,,,,,
1443.300000011921,,pt2_memorable_rating,358783,Scottsdale,,53,,5,,,,,,,,,,,,,,,
null,,confidence_buffer,358886,confidence_buffer,,null,,,,,,,,,,,,,,,,,
2204,,recognition_phase,361091,Scottsdale,,49,,,,,old,1,1,,,,,,,,,,
null,,confidence_buffer,361195,confidence_buffer,,null,,,,,,,,,,,,,,,,,
null,,thebreak,361698,break,,null,,,,,,,,,,,,,,,,,
3232.300000011921,,realistic_rating,364932,Tallahassee,,53,Tallahassee,5,,,,,,,,,,,,,,,
null,,confidence_buffer,365035,confidence_buffer,,null,,,,,,,,,,,,,,,,,
1590.9000000059605,,pt2_unique_rating,366627,Tallahassee,,53,,5,,,,,,,,,,,,,,,
null,,confidence_buffer,366731,confidence_buffer,,null,,,,,,,,,,,,,,,,,
2339.5,,pt2_memorable_rating,369072,Tallahassee,,52,,4,,,,,,,,,,,,,,,
null,,confidence_buffer,369175,confidence_buffer,,null,,,,,,,,,,,,,,,,,
389,,recognition_phase,369566,Tallahassee,,52,,,,,new,1,1,,,,,,,,,,
null,,confidence_buffer,369669,confidence_buffer,,null,,,,,,,,,,,,,,,,,
null,,thebreak,370171,break,,null,,,,,,,,,,,,,,,,,
7854.5,,realistic_rating,378027,Cambridge,,52,Cambridge,4,,,,,,,,,,,,,,,
null,,confidence_buffer,378130,confidence_buffer,,null,,,,,,,,,,,,,,,,,
2263.199999988079,,pt2_unique_rating,380395,Cambridge,,52,,4,,,,,,,,,,,,,,,
null,,confidence_buffer,380498,confidence_buffer,,null,,,,,,,,,,,,,,,,,
2972.5,,pt2_memorable_rating,383472,Cambridge,,53,,5,,,,,,,,,,,,,,,
null,,confidence_buffer,383575,confidence_buffer,,null,,,,,,,,,,,,,,,,,
3658.2000000178814,,recognition_phase,387235,Cambridge,,52,,,,,new,1,1,,,,,,,,,,
null,,confidence_buffer,387338,confidence_buffer,,null,,,,,,,,,,,,,,,,,
null,,thebreak,387841,break,,null,,,,,,,,,,,,,,,,,
4178.9000000059605,,realistic_rating,392021,Concord,,53,Concord,5,,,,,,,,,,,,,,,
null,,confidence_buffer,392124,confidence_buffer,,null,,,,,,,,,,,,,,,,,
3150.2999999821186,,pt2_unique_rating,395276,Concord,,53,,5,,,,,,,,,,,,,,,
null,,confidence_buffer,395379,confidence_buffer,,null,,,,,,,,,,,,,,,,,
3570.0999999940395,,pt2_memorable_rating,398951,Concord,,52,,4,,,,,,,,,,,,,,,
null,,confidence_buffer,399054,confidence_buffer,,null,,,,,,,,,,,,,,,,,
2475.0999999940395,,recognition_phase,401531,Concord,,49,,,,,old,1,1,,,,,,,,,,
null,,confidence_buffer,401634,confidence_buffer,,null,,,,,,,,,,,,,,,,,
null,,thebreak,402137,break,,null,,,,,,,,,,,,,,,,,
4041.5,,realistic_rating,406180,Salem,,53,Salem,5,,,,,,,,,,,,,,,
null,,confidence_buffer,406283,confidence_buffer,,null,,,,,,,,,,,,,,,,,
2566.300000011921,,pt2_unique_rating,408851,Salem,,53,,5,,,,,,,,,,,,,,,
null,,confidence_buffer,408954,confidence_buffer,,null,,,,,,,,,,,,,,,,,
2488.9000000059605,,pt2_memorable_rating,411444,Salem,,53,,5,,,,,,,,,,,,,,,
null,,confidence_buffer,411548,confidence_buffer,,null,,,,,,,,,,,,,,,,,
3074.5,,recognition_phase,414624,Salem,,52,,,,,new,1,1,,,,,,,,,,
null,,confidence_buffer,414727,confidence_buffer,,null,,,,,,,,,,,,,,,,,
null,,thebreak,415230,break,,null,,,,,,,,,,,,,,,,,
3353.9000000059605,,realistic_rating,418585,Altoona,,53,Altoona,5,,,,,,,,,,,,,,,
null,,confidence_buffer,418688,confidence_buffer,,null,,,,,,,,,,,,,,,,,
1380.699999988079,,pt2_unique_rating,420070,Altoona,,53,,5,,,,,,,,,,,,,,,
null,,confidence_buffer,420173,confidence_buffer,,null,,,,,,,,,,,,,,,,,
1728.1000000238419,,probe_rating,421902,probe_rating,,50,,,2,1,,,,,,,,,,,,,
null,,confidence_buffer,422004,confidence_buffer,,null,,,,,,,,,,,,,,,,,
5217.4000000059605,,pt2_memorable_rating,427223,Altoona,,52,,4,,,,,,,,,,,,,,,
null,,confidence_buffer,427326,confidence_buffer,,null,,,,,,,,,,,,,,,,,
2972,,recognition_phase,430300,Altoona,,52,,,,,new,1,1,,,,,,,,,,
null,,confidence_buffer,430403,confidence_buffer,,null,,,,,,,,,,,,,,,,,
null,,thebreak,430906,break,,null,,,,,,,,,,,,,,,,,
8379,,realistic_rating,439286,Decatur,,53,Decatur,5,,,,,,,,,,,,,,,
null,,confidence_buffer,439388,confidence_buffer,,null,,,,,,,,,,,,,,,,,
2654.7999999821186,,pt2_unique_rating,442045,Decatur,,53,,5,,,,,,,,,,,,,,,
null,,confidence_buffer,442148,confidence_buffer,,null,,,,,,,,,,,,,,,,,
2128.5999999940395,,pt2_memorable_rating,444279,Decatur,,53,,5,,,,,,,,,,,,,,,
null,,confidence_buffer,444382,confidence_buffer,,null,,,,,,,,,,,,,,,,,
2580.399999976158,,recognition_phase,446964,Decatur,,52,,,,,new,1,1,,,,,,,,,,
null,,confidence_buffer,447068,confidence_buffer,,null,,,,,,,,,,,,,,,,,
null,,thebreak,447571,break,,null,,,,,,,,,,,,,,,,,
4356.799999982119,,realistic_rating,451929,Fort Wayne,,53,Fort Wayne,5,,,,,,,,,,,,,,,
null,,confidence_buffer,452032,confidence_buffer,,null,,,,,,,,,,,,,,,,,
1965.2999999821186,,pt2_unique_rating,453999,Fort Wayne,,53,,5,,,,,,,,,,,,,,,
null,,confidence_buffer,454102,confidence_buffer,,null,,,,,,,,,,,,,,,,,
1876,,pt2_memorable_rating,455980,Fort Wayne,,53,,5,,,,,,,,,,,,,,,
null,,confidence_buffer,456083,confidence_buffer,,null,,,,,,,,,,,,,,,,,
1993.699999988079,,probe_rating,458079,probe_rating,,50,,,2,1,,,,,,,,,,,,,
null,,confidence_buffer,458182,confidence_buffer,,null,,,,,,,,,,,,,,,,,
2967.5999999940395,,recognition_phase,461151,Fort Wayne,,52,,,,,new,1,1,,,,,,,,,,
null,,confidence_buffer,461254,confidence_buffer,,null,,,,,,,,,,,,,,,,,
null,,thebreak,461757,break,,null,,,,,,,,,,,,,,,,,
3985.5999999940395,,realistic_rating,465744,Norfolk,,53,Norfolk,5,,,,,,,,,,,,,,,
null,,confidence_buffer,465847,confidence_buffer,,null,,,,,,,,,,,,,,,,,
1889.0999999940395,,pt2_unique_rating,467738,Norfolk,,53,,5,,,,,,,,,,,,,,,
null,,confidence_buffer,467841,confidence_buffer,,null,,,,,,,,,,,,,,,,,
1501,,pt2_memorable_rating,469344,Norfolk,,53,,5,,,,,,,,,,,,,,,
null,,confidence_buffer,469447,confidence_buffer,,null,,,,,,,,,,,,,,,,,
2744,,recognition_phase,472192,Norfolk,,52,,,,,new,1,1,,,,,,,,,,
null,,confidence_buffer,472295,confidence_buffer,,null,,,,,,,,,,,,,,,,,
null,,thebreak,472798,break,,null,,,,,,,,,,,,,,,,,
3367.699999988079,,realistic_rating,476167,Topeka,,53,Topeka,5,,,,,,,,,,,,,,,
null,,confidence_buffer,476270,confidence_buffer,,null,,,,,,,,,,,,,,,,,
1697,,pt2_unique_rating,477968,Topeka,,53,,5,,,,,,,,,,,,,,,
null,,confidence_buffer,478072,confidence_buffer,,null,,,,,,,,,,,,,,,,,
1753.300000011921,,pt2_memorable_rating,479827,Topeka,,53,,5,,,,,,,,,,,,,,,
null,,confidence_buffer,479931,confidence_buffer,,null,,,,,,,,,,,,,,,,,
4305.5999999940395,,recognition_phase,484238,Topeka,,52,,,,,new,1,1,,,,,,,,,,
null,,confidence_buffer,484341,confidence_buffer,,null,,,,,,,,,,,,,,,,,
null,,thebreak,484844,break,,null,,,,,,,,,,,,,,,,,
3278,,realistic_rating,488123,Youngstown,,53,Youngstown,5,,,,,,,,,,,,,,,
null,,confidence_buffer,488226,confidence_buffer,,null,,,,,,,,,,,,,,,,,
1725.4000000059605,,pt2_unique_rating,489954,Youngstown,,53,,5,,,,,,,,,,,,,,,
null,,confidence_buffer,490056,confidence_buffer,,null,,,,,,,,,,,,,,,,,
2083.5,,pt2_memorable_rating,492142,Youngstown,,53,,5,,,,,,,,,,,,,,,
null,,confidence_buffer,492245,confidence_buffer,,null,,,,,,,,,,,,,,,,,
2625.7000000178814,,recognition_phase,494872,Youngstown,,52,,,,,new,1,1,,,,,,,,,,
null,,confidence_buffer,494975,confidence_buffer,,null,,,,,,,,,,,,,,,,,
null,,thebreak,495478,break,,null,,,,,,,,,,,,,,,,,
3713,,realistic_rating,499193,Berkeley,,53,Berkeley,5,,,,,,,,,,,,,,,
null,,confidence_buffer,499297,confidence_buffer,,null,,,,,,,,,,,,,,,,,
1724.5,,pt2_unique_rating,501023,Berkeley,,53,,5,,,,,,,,,,,,,,,
null,,confidence_buffer,501126,confidence_buffer,,null,,,,,,,,,,,,,,,,,
1452.5999999940395,,pt2_memorable_rating,502581,Berkeley,,53,,5,,,,,,,,,,,,,,,
null,,confidence_buffer,502684,confidence_buffer,,null,,,,,,,,,,,,,,,,,
2760.2000000178814,,recognition_phase,505447,Berkeley,,52,,,,,new,1,1,,,,,,,,,,
null,,confidence_buffer,505549,confidence_buffer,,null,,,,,,,,,,,,,,,,,
null,,thebreak,506052,break,,null,,,,,,,,,,,,,,,,,
3924.2999999821186,,realistic_rating,509978,Boise,,53,Boise,5,,,,,,,,,,,,,,,
null,,confidence_buffer,510081,confidence_buffer,,null,,,,,,,,,,,,,,,,,
2564.0999999940395,,probe_rating,512647,probe_rating,,50,,,2,1,,,,,,,,,,,,,
null,,confidence_buffer,512749,confidence_buffer,,null,,,,,,,,,,,,,,,,,
1906.199999988079,,pt2_unique_rating,514657,Boise,,53,,5,,,,,,,,,,,,,,,
null,,confidence_buffer,514760,confidence_buffer,,null,,,,,,,,,,,,,,,,,
1185.5,,pt2_memorable_rating,515947,Boise,,53,,5,,,,,,,,,,,,,,,
null,,confidence_buffer,516050,confidence_buffer,,null,,,,,,,,,,,,,,,,,
2385.4000000059605,,recognition_phase,518437,Boise,,52,,,,,new,1,1,,,,,,,,,,
null,,confidence_buffer,518540,confidence_buffer,,null,,,,,,,,,,,,,,,,,
null,,thebreak,519043,break,,null,,,,,,,,,,,,,,,,,
3096.5,,realistic_rating,522141,Olympia,,53,Olympia,5,,,,,,,,,,,,,,,
null,,confidence_buffer,522245,confidence_buffer,,null,,,,,,,,,,,,,,,,,
2205.0999999940395,,probe_rating,524452,probe_rating,,53,,,5,1,,,,,,,,,,,,,
null,,confidence_buffer,524555,confidence_buffer,,null,,,,,,,,,,,,,,,,,
1545.2999999821186,,pt2_unique_rating,526102,Olympia,,53,,5,,,,,,,,,,,,,,,
null,,confidence_buffer,526205,confidence_buffer,,null,,,,,,,,,,,,,,,,,
944.3000000119209,,pt2_memorable_rating,527151,Olympia,,53,,5,,,,,,,,,,,,,,,
null,,confidence_buffer,527253,confidence_buffer,,null,,,,,,,,,,,,,,,,,
1920.9000000059605,,recognition_phase,529176,Olympia,,49,,,,,old,1,1,,,,,,,,,,
null,,confidence_buffer,529279,confidence_buffer,,null,,,,,,,,,,,,,,,,,
null,,thebreak,529782,break,,null,,,,,,,,,,,,,,,,,
3023.199999988079,,realistic_rating,532807,Pasadena,,53,Pasadena,5,,,,,,,,,,,,,,,
null,,confidence_buffer,532910,confidence_buffer,,null,,,,,,,,,,,,,,,,,
1618.7000000178814,,pt2_unique_rating,534531,Pasadena,,53,,5,,,,,,,,,,,,,,,
null,,confidence_buffer,534634,confidence_buffer,,null,,,,,,,,,,,,,,,,,
1770.7999999821186,,probe_rating,536407,probe_rating,,53,,,5,1,,,,,,,,,,,,,
null,,confidence_buffer,536510,confidence_buffer,,null,,,,,,,,,,,,,,,,,
1559.9000000059605,,pt2_memorable_rating,538072,Pasadena,,53,,5,,,,,,,,,,,,,,,
null,,confidence_buffer,538175,confidence_buffer,,null,,,,,,,,,,,,,,,,,
2999.9000000059605,,recognition_phase,541177,Pasadena,,49,,,,,old,1,1,,,,,,,,,,
null,,confidence_buffer,541280,confidence_buffer,,null,,,,,,,,,,,,,,,,,
null,,thebreak,541783,break,,null,,,,,,,,,,,,,,,,,
5931.5,,realistic_rating,547716,Toledo,,53,Toledo,5,,,,,,,,,,,,,,,
null,,confidence_buffer,547819,confidence_buffer,,null,,,,,,,,,,,,,,,,,
1425.8999999761581,,pt2_unique_rating,549246,Toledo,,53,,5,,,,,,,,,,,,,,,
null,,confidence_buffer,549350,confidence_buffer,,null,,,,,,,,,,,,,,,,,
1347.7999999821186,,pt2_memorable_rating,550699,Toledo,,53,,5,,,,,,,,,,,,,,,
null,,confidence_buffer,550802,confidence_buffer,,null,,,,,,,,,,,,,,,,,
2581.899999976158,,recognition_phase,553386,Toledo,,49,,,,,old,1,1,,,,,,,,,,
null,,confidence_buffer,553489,confidence_buffer,,null,,,,,,,,,,,,,,,,,
null,,thebreak,553992,break,,null,,,,,,,,,,,,,,,,,
2780.300000011921,,realistic_rating,556774,Ithaca,,53,Ithaca,5,,,,,,,,,,,,,,,
null,,confidence_buffer,556877,confidence_buffer,,null,,,,,,,,,,,,,,,,,
1456.0999999940395,,pt2_unique_rating,558335,Ithaca,,53,,5,,,,,,,,,,,,,,,
null,,confidence_buffer,558438,confidence_buffer,,null,,,,,,,,,,,,,,,,,
1290.7999999821186,,pt2_memorable_rating,559730,Ithaca,,53,,5,,,,,,,,,,,,,,,
null,,confidence_buffer,559838,confidence_buffer,,null,,,,,,,,,,,,,,,,,
2293,,recognition_phase,562132,Ithaca,,52,,,,,new,1,1,,,,,,,,,,
null,,confidence_buffer,562236,confidence_buffer,,null,,,,,,,,,,,,,,,,,
null,,thebreak,562739,break,,null,,,,,,,,,,,,,,,,,
6575.600000023842,,realistic_rating,569316,Gainesville,,53,Gainesville,5,,,,,,,,,,,,,,,
null,,confidence_buffer,569419,confidence_buffer,,null,,,,,,,,,,,,,,,,,
1739.300000011921,,pt2_unique_rating,571160,Gainesville,,53,,5,,,,,,,,,,,,,,,
null,,confidence_buffer,571264,confidence_buffer,,null,,,,,,,,,,,,,,,,,
2054.300000011921,,pt2_memorable_rating,573320,Gainesville,,53,,5,,,,,,,,,,,,,,,
null,,confidence_buffer,573424,confidence_buffer,,null,,,,,,,,,,,,,,,,,
3510.0999999940395,,recognition_phase,576936,Gainesville,,49,,,,,old,1,1,,,,,,,,,,
null,,confidence_buffer,577039,confidence_buffer,,null,,,,,,,,,,,,,,,,,
null,,thebreak,577542,break,,null,,,,,,,,,,,,,,,,,
2887,,realistic_rating,580430,Boulder,,53,Boulder,5,,,,,,,,,,,,,,,
null,,confidence_buffer,580533,confidence_buffer,,null,,,,,,,,,,,,,,,,,
1395.0999999940395,,pt2_unique_rating,581930,Boulder,,53,,5,,,,,,,,,,,,,,,
null,,confidence_buffer,582033,confidence_buffer,,null,,,,,,,,,,,,,,,,,
1155.4000000059605,,pt2_memorable_rating,583190,Boulder,,53,,5,,,,,,,,,,,,,,,
null,,confidence_buffer,583293,confidence_buffer,,null,,,,,,,,,,,,,,,,,
2831.5999999940395,,recognition_phase,586127,Boulder,,49,,,,,old,1,1,,,,,,,,,,
null,,confidence_buffer,586230,confidence_buffer,,null,,,,,,,,,,,,,,,,,
null,,thebreak,586732,break,,null,,,,,,,,,,,,,,,,,
5606.5,,realistic_rating,592340,Fargo,,53,Fargo,5,,,,,,,,,,,,,,,
null,,confidence_buffer,592442,confidence_buffer,,null,,,,,,,,,,,,,,,,,
1755.699999988079,,pt2_unique_rating,594200,Fargo,,53,,5,,,,,,,,,,,,,,,
null,,confidence_buffer,594303,confidence_buffer,,null,,,,,,,,,,,,,,,,,
1153.1000000238419,,pt2_memorable_rating,595458,Fargo,,53,,5,,,,,,,,,,,,,,,
null,,confidence_buffer,595561,confidence_buffer,,null,,,,,,,,,,,,,,,,,
2536.5999999940395,,recognition_phase,598099,Fargo,,49,,,,,old,1,1,,,,,,,,,,
null,,confidence_buffer,598203,confidence_buffer,,null,,,,,,,,,,,,,,,,,
null,,thebreak,598706,break,,null,,,,,,,,,,,,,,,,,
2586.9000000059605,,realistic_rating,601295,Santa Monica,,53,Santa Monica,5,,,,,,,,,,,,,,,
null,,confidence_buffer,601398,confidence_buffer,,null,,,,,,,,,,,,,,,,,
1455.5,,pt2_unique_rating,602855,Santa Monica,,53,,5,,,,,,,,,,,,,,,
null,,confidence_buffer,602959,confidence_buffer,,null,,,,,,,,,,,,,,,,,
1138.199999988079,,pt2_memorable_rating,604098,Santa Monica,,53,,5,,,,,,,,,,,,,,,
null,,confidence_buffer,604201,confidence_buffer,,null,,,,,,,,,,,,,,,,,
1965.2000000178814,,recognition_phase,606168,Santa Monica,,49,,,,,old,1,1,,,,,,,,,,
null,,confidence_buffer,606271,confidence_buffer,,null,,,,,,,,,,,,,,,,,
null,,thebreak,606774,break,,null,,,,,,,,,,,,,,,,,
2602.699999988079,,realistic_rating,609378,Frankfort,,53,Frankfort,5,,,,,,,,,,,,,,,
null,,confidence_buffer,609481,confidence_buffer,,null,,,,,,,,,,,,,,,,,
1501,,pt2_unique_rating,610984,Frankfort,,53,,5,,,,,,,,,,,,,,,
null,,confidence_buffer,611088,confidence_buffer,,null,,,,,,,,,,,,,,,,,
1319.5,,pt2_memorable_rating,612409,Frankfort,,53,,5,,,,,,,,,,,,,,,
null,,confidence_buffer,612513,confidence_buffer,,null,,,,,,,,,,,,,,,,,
1632.8999999761581,,recognition_phase,614147,Frankfort,,49,,,,,old,1,1,,,,,,,,,,
null,,confidence_buffer,614250,confidence_buffer,,null,,,,,,,,,,,,,,,,,
null,,thebreak,614752,break,,null,,,,,,,,,,,,,,,,,
8094.800000011921,,realistic_rating,622849,Rock Springs,,51,Rock Springs,3,,,,,,,,,,,,,,,
null,,confidence_buffer,622952,confidence_buffer,,null,,,,,,,,,,,,,,,,,
5010.299999982119,,pt2_unique_rating,627964,Rock Springs,,51,,3,,,,,,,,,,,,,,,
null,,confidence_buffer,628066,confidence_buffer,,null,,,,,,,,,,,,,,,,,
2340.300000011921,,pt2_memorable_rating,630409,Rock Springs,,51,,3,,,,,,,,,,,,,,,
null,,confidence_buffer,630511,confidence_buffer,,null,,,,,,,,,,,,,,,,,
3334.199999988079,,recognition_phase,633846,Rock Springs,,49,,,,,old,1,1,,,,,,,,,,
null,,confidence_buffer,633950,confidence_buffer,,null,,,,,,,,,,,,,,,,,
null,,thebreak,634453,break,,null,,,,,,,,,,,,,,,,,
3123.5999999940395,,realistic_rating,637578,Annapolis,,53,Annapolis,5,,,,,,,,,,,,,,,
null,,confidence_buffer,637681,confidence_buffer,,null,,,,,,,,,,,,,,,,,
1650.300000011921,,pt2_unique_rating,639333,Annapolis,,53,,5,,,,,,,,,,,,,,,
null,,confidence_buffer,639436,confidence_buffer,,null,,,,,,,,,,,,,,,,,
1603.9000000059605,,pt2_memorable_rating,641041,Annapolis,,53,,5,,,,,,,,,,,,,,,
null,,confidence_buffer,641143,confidence_buffer,,null,,,,,,,,,,,,,,,,,
2026.300000011921,,probe_rating,643171,probe_rating,,49,,,1,1,,,,,,,,,,,,,
null,,confidence_buffer,643273,confidence_buffer,,null,,,,,,,,,,,,,,,,,
2671.399999976158,,recognition_phase,645946,Annapolis,,49,,,,,old,1,1,,,,,,,,,,
null,,confidence_buffer,646050,confidence_buffer,,null,,,,,,,,,,,,,,,,,
null,,thebreak,646553,break,,null,,,,,,,,,,,,,,,,,
4612.199999988079,,realistic_rating,651167,Dubuque,,53,Dubuque,5,,,,,,,,,,,,,,,
null,,confidence_buffer,651270,confidence_buffer,,null,,,,,,,,,,,,,,,,,
1680.8999999761581,,pt2_unique_rating,652953,Dubuque,,53,,5,,,,,,,,,,,,,,,
null,,confidence_buffer,653056,confidence_buffer,,null,,,,,,,,,,,,,,,,,
1515.199999988079,,pt2_memorable_rating,654573,Dubuque,,53,,5,,,,,,,,,,,,,,,
null,,confidence_buffer,654676,confidence_buffer,,null,,,,,,,,,,,,,,,,,
2415.0999999940395,,recognition_phase,657093,Dubuque,,52,,,,,new,1,1,,,,,,,,,,
null,,confidence_buffer,657195,confidence_buffer,,null,,,,,,,,,,,,,,,,,
null,,thebreak,657698,break,,null,,,,,,,,,,,,,,,,,
2902.2999999821186,,realistic_rating,660602,Athens,,53,Athens,5,,,,,,,,,,,,,,,
null,,confidence_buffer,660705,confidence_buffer,,null,,,,,,,,,,,,,,,,,
1666.699999988079,,pt2_unique_rating,662373,Athens,,53,,5,,,,,,,,,,,,,,,
null,,confidence_buffer,662476,confidence_buffer,,null,,,,,,,,,,,,,,,,,
1725,,pt2_memorable_rating,664203,Athens,,53,,5,,,,,,,,,,,,,,,
null,,confidence_buffer,664306,confidence_buffer,,null,,,,,,,,,,,,,,,,,
2428,,recognition_phase,666736,Athens,,49,,,,,old,1,1,,,,,,,,,,
null,,confidence_buffer,666839,confidence_buffer,,null,,,,,,,,,,,,,,,,,
null,,thebreak,667342,break,,null,,,,,,,,,,,,,,,,,
2933,,realistic_rating,670277,Palo Alto,,53,Palo Alto,5,,,,,,,,,,,,,,,
null,,confidence_buffer,670381,confidence_buffer,,null,,,,,,,,,,,,,,,,,
1874.8999999761581,,pt2_unique_rating,672257,Palo Alto,,53,,5,,,,,,,,,,,,,,,
null,,confidence_buffer,672360,confidence_buffer,,null,,,,,,,,,,,,,,,,,
1471.800000011921,,pt2_memorable_rating,673833,Palo Alto,,53,,5,,,,,,,,,,,,,,,
null,,confidence_buffer,673936,confidence_buffer,,null,,,,,,,,,,,,,,,,,
2488.100000023842,,recognition_phase,676426,Palo Alto,,49,,,,,old,1,1,,,,,,,,,,
null,,confidence_buffer,676529,confidence_buffer,,null,,,,,,,,,,,,,,,,,
null,,thebreak,677032,break,,null,,,,,,,,,,,,,,,,,
2617.7999999821186,,realistic_rating,679652,Las Cruces,,53,Las Cruces,5,,,,,,,,,,,,,,,
null,,confidence_buffer,679755,confidence_buffer,,null,,,,,,,,,,,,,,,,,
1410.5999999940395,,pt2_unique_rating,681167,Las Cruces,,53,,5,,,,,,,,,,,,,,,
null,,confidence_buffer,681271,confidence_buffer,,null,,,,,,,,,,,,,,,,,
1409.300000011921,,pt2_memorable_rating,682682,Las Cruces,,53,,5,,,,,,,,,,,,,,,
null,,confidence_buffer,682784,confidence_buffer,,null,,,,,,,,,,,,,,,,,
1652.5999999940395,,recognition_phase,684438,Las Cruces,,49,,,,,old,1,1,,,,,,,,,,
null,,confidence_buffer,684542,confidence_buffer,,null,,,,,,,,,,,,,,,,,
null,,thebreak,685044,break,,null,,,,,,,,,,,,,,,,,
2570.0999999940395,,realistic_rating,687617,Yakima,,53,Yakima,5,,,,,,,,,,,,,,,
null,,confidence_buffer,687720,confidence_buffer,,null,,,,,,,,,,,,,,,,,
1394.4000000059605,,pt2_unique_rating,689116,Yakima,,53,,5,,,,,,,,,,,,,,,
null,,confidence_buffer,689220,confidence_buffer,,null,,,,,,,,,,,,,,,,,
1155.2999999821186,,pt2_memorable_rating,690377,Yakima,,53,,5,,,,,,,,,,,,,,,
null,,confidence_buffer,690480,confidence_buffer,,null,,,,,,,,,,,,,,,,,
1349,,recognition_phase,691831,Yakima,,49,,,,,old,1,1,,,,,,,,,,
null,,confidence_buffer,691935,confidence_buffer,,null,,,,,,,,,,,,,,,,,
null,,thebreak,692437,break,,null,,,,,,,,,,,,,,,,,
5586.4000000059605,,realistic_rating,698025,Dover,,53,Dover,5,,,,,,,,,,,,,,,
null,,confidence_buffer,698128,confidence_buffer,,null,,,,,,,,,,,,,,,,,
1637.300000011921,,pt2_unique_rating,699767,Dover,,53,,5,,,,,,,,,,,,,,,
null,,confidence_buffer,699870,confidence_buffer,,null,,,,,,,,,,,,,,,,,
1439.800000011921,,pt2_memorable_rating,701311,Dover,,53,,5,,,,,,,,,,,,,,,
null,,confidence_buffer,701415,confidence_buffer,,null,,,,,,,,,,,,,,,,,
2309.399999976158,,recognition_phase,703726,Dover,,52,,,,,new,1,1,,,,,,,,,,
null,,confidence_buffer,703829,confidence_buffer,,null,,,,,,,,,,,,,,,,,
null,,thebreak,704332,break,,null,,,,,,,,,,,,,,,,,
4133.299999982119,,realistic_rating,708467,Bellingham,,53,Bellingham,5,,,,,,,,,,,,,,,
null,,confidence_buffer,708570,confidence_buffer,,null,,,,,,,,,,,,,,,,,
1229.300000011921,,pt2_unique_rating,709801,Bellingham,,53,,5,,,,,,,,,,,,,,,
null,,confidence_buffer,709904,confidence_buffer,,null,,,,,,,,,,,,,,,,,
1154.7000000178814,,pt2_memorable_rating,711061,Bellingham,,53,,5,,,,,,,,,,,,,,,
null,,confidence_buffer,711165,confidence_buffer,,null,,,,,,,,,,,,,,,,,
2536.5999999940395,,recognition_phase,713703,Bellingham,,52,,,,,new,1,1,,,,,,,,,,
null,,confidence_buffer,713806,confidence_buffer,,null,,,,,,,,,,,,,,,,,
null,,thebreak,714309,break,,null,,,,,,,,,,,,,,,,,
3949.4000000059605,,realistic_rating,718260,Ann Arbor,,53,Ann Arbor,5,,,,,,,,,,,,,,,
null,,confidence_buffer,718364,confidence_buffer,,null,,,,,,,,,,,,,,,,,
1290.800000011921,,pt2_unique_rating,719656,Ann Arbor,,53,,5,,,,,,,,,,,,,,,
null,,confidence_buffer,719759,confidence_buffer,,null,,,,,,,,,,,,,,,,,
1185.0999999940395,,pt2_memorable_rating,720946,Ann Arbor,,53,,5,,,,,,,,,,,,,,,
null,,confidence_buffer,721050,confidence_buffer,,null,,,,,,,,,,,,,,,,,
2907.699999988079,,recognition_phase,723959,Ann Arbor,,52,,,,,new,1,1,,,,,,,,,,
null,,confidence_buffer,724062,confidence_buffer,,null,,,,,,,,,,,,,,,,,
null,,thebreak,724566,break,,null,,,,,,,,,,,,,,,,,
4207.100000023842,,realistic_rating,728775,New Haven,,53,New Haven,5,,,,,,,,,,,,,,,
null,,confidence_buffer,728878,confidence_buffer,,null,,,,,,,,,,,,,,,,,
1559.8999999761581,,pt2_unique_rating,730440,New Haven,,53,,5,,,,,,,,,,,,,,,
null,,confidence_buffer,730543,confidence_buffer,,null,,,,,,,,,,,,,,,,,
1230,,pt2_memorable_rating,731775,New Haven,,53,,5,,,,,,,,,,,,,,,
null,,confidence_buffer,731878,confidence_buffer,,null,,,,,,,,,,,,,,,,,
2339.100000023842,,recognition_phase,734219,New Haven,,52,,,,,new,1,1,,,,,,,,,,
null,,confidence_buffer,734322,confidence_buffer,,null,,,,,,,,,,,,,,,,,
null,,thebreak,734825,break,,null,,,,,,,,,,,,,,,,,
2766.399999976158,,realistic_rating,737593,Montpelier,,53,Montpelier,5,,,,,,,,,,,,,,,
null,,confidence_buffer,737696,confidence_buffer,,null,,,,,,,,,,,,,,,,,
1156.9000000059605,,pt2_unique_rating,738855,Montpelier,,53,,5,,,,,,,,,,,,,,,
null,,confidence_buffer,738958,confidence_buffer,,null,,,,,,,,,,,,,,,,,
1067.5999999940395,,pt2_memorable_rating,740027,Montpelier,,53,,5,,,,,,,,,,,,,,,
null,,confidence_buffer,740130,confidence_buffer,,null,,,,,,,,,,,,,,,,,
1484.800000011921,,recognition_phase,741616,Montpelier,,52,,,,,new,1,1,,,,,,,,,,
null,,confidence_buffer,741719,confidence_buffer,,null,,,,,,,,,,,,,,,,,
null,,thebreak,742222,break,,null,,,,,,,,,,,,,,,,,
3769.800000011921,,realistic_rating,745994,Cheyenne,,53,Cheyenne,5,,,,,,,,,,,,,,,
null,,confidence_buffer,746096,confidence_buffer,,null,,,,,,,,,,,,,,,,,
1366.199999988079,,pt2_unique_rating,747464,Cheyenne,,53,,5,,,,,,,,,,,,,,,
null,,confidence_buffer,747567,confidence_buffer,,null,,,,,,,,,,,,,,,,,
1247,,pt2_memorable_rating,748816,Cheyenne,,53,,5,,,,,,,,,,,,,,,
null,,confidence_buffer,748920,confidence_buffer,,null,,,,,,,,,,,,,,,,,
1407.5999999940395,,recognition_phase,750330,Cheyenne,,52,,,,,new,1,1,,,,,,,,,,
null,,confidence_buffer,750433,confidence_buffer,,null,,,,,,,,,,,,,,,,,
null,,thebreak,750936,break,,null,,,,,,,,,,,,,,,,,
2932.0999999940395,,realistic_rating,753870,Bozeman,,53,Bozeman,5,,,,,,,,,,,,,,,
null,,confidence_buffer,753972,confidence_buffer,,null,,,,,,,,,,,,,,,,,
1727.0999999940395,,pt2_unique_rating,755700,Bozeman,,53,,5,,,,,,,,,,,,,,,
null,,confidence_buffer,755803,confidence_buffer,,null,,,,,,,,,,,,,,,,,
1379.9000000059605,,pt2_memorable_rating,757184,Bozeman,,53,,5,,,,,,,,,,,,,,,
null,,confidence_buffer,757288,confidence_buffer,,null,,,,,,,,,,,,,,,,,
1754.800000011921,,recognition_phase,759044,Bozeman,,49,,,,,old,1,1,,,,,,,,,,
null,,confidence_buffer,759148,confidence_buffer,,null,,,,,,,,,,,,,,,,,
null,,thebreak,759651,break,,null,,,,,,,,,,,,,,,,,
3171.800000011921,,realistic_rating,762824,Pueblo,,53,Pueblo,5,,,,,,,,,,,,,,,
null,,confidence_buffer,762927,confidence_buffer,,null,,,,,,,,,,,,,,,,,
1470.7999999821186,,pt2_unique_rating,764400,Pueblo,,53,,5,,,,,,,,,,,,,,,
null,,confidence_buffer,764503,confidence_buffer,,null,,,,,,,,,,,,,,,,,
1288.2000000178814,,pt2_memorable_rating,765792,Pueblo,,53,,5,,,,,,,,,,,,,,,
null,,confidence_buffer,765895,confidence_buffer,,null,,,,,,,,,,,,,,,,,
2372.199999988079,,recognition_phase,768269,Pueblo,,52,,,,,new,1,1,,,,,,,,,,
null,,confidence_buffer,768373,confidence_buffer,,null,,,,,,,,,,,,,,,,,
null,,thebreak,768876,break,,null,,,,,,,,,,,,,,,,,
4608.5999999940395,,realistic_rating,773485,Carson City,,53,Carson City,5,,,,,,,,,,,,,,,
null,,confidence_buffer,773588,confidence_buffer,,null,,,,,,,,,,,,,,,,,
1173.0999999940395,,pt2_unique_rating,774763,Carson City,,53,,5,,,,,,,,,,,,,,,
null,,confidence_buffer,774867,confidence_buffer,,null,,,,,,,,,,,,,,,,,
1214.2000000178814,,pt2_memorable_rating,776083,Carson City,,53,,5,,,,,,,,,,,,,,,
null,,confidence_buffer,776186,confidence_buffer,,null,,,,,,,,,,,,,,,,,
2010.9000000059605,,recognition_phase,778199,Carson City,,52,,,,,new,0,0.9743589743589743,,,,,,,,,,
null,,confidence_buffer,778302,confidence_buffer,,null,,,,,,,,,,,,,,,,,
null,,thebreak,778805,break,,null,,,,,,,,,,,,,,,,,
2885.2999999821186,,realistic_rating,781692,Muncie,,53,Muncie,5,,,,,,,,,,,,,,,
null,,confidence_buffer,781795,confidence_buffer,,null,,,,,,,,,,,,,,,,,
1486.199999988079,,pt2_unique_rating,783283,Muncie,,53,,5,,,,,,,,,,,,,,,
null,,confidence_buffer,783386,confidence_buffer,,null,,,,,,,,,,,,,,,,,
1486.5,,pt2_memorable_rating,784874,Muncie,,53,,5,,,,,,,,,,,,,,,
null,,confidence_buffer,784978,confidence_buffer,,null,,,,,,,,,,,,,,,,,
1903.800000011921,,recognition_phase,786883,Muncie,,52,,,,,new,1,0.975,,,,,,,,,,
null,,confidence_buffer,786987,confidence_buffer,,null,,,,,,,,,,,,,,,,,
null,,thebreak,787491,break,,null,,,,,,,,,,,,,,,,,
4940.5999999940395,,realistic_rating,792433,Abilene,,53,Abilene,5,,,,,,,,,,,,,,,
null,,confidence_buffer,792536,confidence_buffer,,null,,,,,,,,,,,,,,,,,
1500,,pt2_unique_rating,794037,Abilene,,53,,5,,,,,,,,,,,,,,,
null,,confidence_buffer,794140,confidence_buffer,,null,,,,,,,,,,,,,,,,,
2131.5,,pt2_memorable_rating,796273,Abilene,,53,,5,,,,,,,,,,,,,,,
null,,confidence_buffer,796376,confidence_buffer,,null,,,,,,,,,,,,,,,,,
1650.5,,recognition_phase,798028,Abilene,,49,,,,,old,1,0.975609756097561,,,,,,,,,,
null,,confidence_buffer,798131,confidence_buffer,,null,,,,,,,,,,,,,,,,,
null,,thebreak,798634,break,,null,,,,,,,,,,,,,,,,,
2768,,realistic_rating,801403,Burlington,,53,Burlington,5,,,,,,,,,,,,,,,
null,,confidence_buffer,801506,confidence_buffer,,null,,,,,,,,,,,,,,,,,
1980,,probe_rating,803488,probe_rating,,52,,,4,1,,,,,,,,,,,,,
null,,confidence_buffer,803592,confidence_buffer,,null,,,,,,,,,,,,,,,,,
1737.5,,pt2_unique_rating,805331,Burlington,,53,,5,,,,,,,,,,,,,,,
null,,confidence_buffer,805435,confidence_buffer,,null,,,,,,,,,,,,,,,,,
1726.9000000059605,,pt2_memorable_rating,807163,Burlington,,53,,5,,,,,,,,,,,,,,,
null,,confidence_buffer,807266,confidence_buffer,,null,,,,,,,,,,,,,,,,,
2129.4000000059605,,recognition_phase,809398,Burlington,,52,,,,,new,1,0.9761904761904762,,,,,,,,,,
null,,confidence_buffer,809501,confidence_buffer,,null,,,,,,,,,,,,,,,,,
null,,thebreak,810004,break,,null,,,,,,,,,,,,,,,,,
2404.9000000059605,,realistic_rating,812411,Stamford,,53,Stamford,5,,,,,,,,,,,,,,,
null,,confidence_buffer,812514,confidence_buffer,,null,,,,,,,,,,,,,,,,,
1472.300000011921,,pt2_unique_rating,813987,Stamford,,53,,5,,,,,,,,,,,,,,,
null,,confidence_buffer,814090,confidence_buffer,,null,,,,,,,,,,,,,,,,,
1320.199999988079,,pt2_memorable_rating,815412,Stamford,,53,,5,,,,,,,,,,,,,,,
null,,confidence_buffer,815514,confidence_buffer,,null,,,,,,,,,,,,,,,,,
1560,,recognition_phase,817076,Stamford,,49,,,,,old,1,0.9767441860465116,,,,,,,,,,
null,,confidence_buffer,817180,confidence_buffer,,null,,,,,,,,,,,,,,,,,
null,,thebreak,817682,break,,null,,,,,,,,,,,,,,,,,
2348.800000011921,,realistic_rating,820033,Terre Haute,,53,Terre Haute,5,,,,,,,,,,,,,,,
null,,confidence_buffer,820136,confidence_buffer,,null,,,,,,,,,,,,,,,,,
2534.699999988079,,pt2_unique_rating,822672,Terre Haute,,53,,5,,,,,,,,,,,,,,,
null,,confidence_buffer,822775,confidence_buffer,,null,,,,,,,,,,,,,,,,,
1367,,pt2_memorable_rating,824143,Terre Haute,,53,,5,,,,,,,,,,,,,,,
null,,confidence_buffer,824246,confidence_buffer,,null,,,,,,,,,,,,,,,,,
1633.2000000178814,,recognition_phase,825881,Terre Haute,,52,,,,,new,1,0.9772727272727273,,,,,,,,,,
null,,confidence_buffer,825984,confidence_buffer,,null,,,,,,,,,,,,,,,,,
null,,thebreak,826487,break,,null,,,,,,,,,,,,,,,,,
2751.0999999940395,,realistic_rating,829240,Syracuse,,53,Syracuse,5,,,,,,,,,,,,,,,
null,,confidence_buffer,829343,confidence_buffer,,null,,,,,,,,,,,,,,,,,
1652.2999999821186,,pt2_unique_rating,830997,Syracuse,,53,,5,,,,,,,,,,,,,,,
null,,confidence_buffer,831100,confidence_buffer,,null,,,,,,,,,,,,,,,,,
1381.699999988079,,pt2_memorable_rating,832484,Syracuse,,53,,5,,,,,,,,,,,,,,,
null,,confidence_buffer,832587,confidence_buffer,,null,,,,,,,,,,,,,,,,,
1497.9000000059605,,recognition_phase,834086,Syracuse,,49,,,,,old,1,0.9777777777777777,,,,,,,,,,
null,,confidence_buffer,834189,confidence_buffer,,null,,,,,,,,,,,,,,,,,
null,,thebreak,834692,break,,null,,,,,,,,,,,,,,,,,
2092.7000000178814,,realistic_rating,836787,Peoria,,53,Peoria,5,,,,,,,,,,,,,,,
null,,confidence_buffer,836890,confidence_buffer,,null,,,,,,,,,,,,,,,,,
1438.5999999940395,,pt2_unique_rating,838331,Peoria,,53,,5,,,,,,,,,,,,,,,
null,,confidence_buffer,838433,confidence_buffer,,null,,,,,,,,,,,,,,,,,
1201.6000000238419,,pt2_memorable_rating,839637,Peoria,,53,,5,,,,,,,,,,,,,,,
null,,confidence_buffer,839740,confidence_buffer,,null,,,,,,,,,,,,,,,,,
2998.7000000178814,,recognition_phase,842741,Peoria,,52,,,,,new,1,0.9782608695652174,,,,,,,,,,
null,,confidence_buffer,842844,confidence_buffer,,null,,,,,,,,,,,,,,,,,
null,,thebreak,843347,break,,null,,,,,,,,,,,,,,,,,
2977.5,,realistic_rating,846326,Champaign,,53,Champaign,5,,,,,,,,,,,,,,,
null,,confidence_buffer,846430,confidence_buffer,,null,,,,,,,,,,,,,,,,,
1410.2000000178814,,pt2_unique_rating,847842,Champaign,,53,,5,,,,,,,,,,,,,,,
null,,confidence_buffer,847945,confidence_buffer,,null,,,,,,,,,,,,,,,,,
1424.800000011921,,pt2_memorable_rating,849372,Champaign,,53,,5,,,,,,,,,,,,,,,
null,,confidence_buffer,849475,confidence_buffer,,null,,,,,,,,,,,,,,,,,
1980.1000000238419,,probe_rating,851457,probe_rating,,53,,,5,1,,,,,,,,,,,,,
null,,confidence_buffer,851560,confidence_buffer,,null,,,,,,,,,,,,,,,,,
1590.0999999940395,,recognition_phase,853152,Champaign,,49,,,,,old,1,0.9787234042553191,,,,,,,,,,
null,,confidence_buffer,853255,confidence_buffer,,null,,,,,,,,,,,,,,,,,
null,,thebreak,853758,break,,null,,,,,,,,,,,,,,,,,
3575.9000000059605,,realistic_rating,857336,Helena,,53,Helena,5,,,,,,,,,,,,,,,
null,,confidence_buffer,857439,confidence_buffer,,null,,,,,,,,,,,,,,,,,
2688.4000000059605,,probe_rating,860129,probe_rating,,53,,,5,1,,,,,,,,,,,,,
null,,confidence_buffer,860230,confidence_buffer,,null,,,,,,,,,,,,,,,,,
1874.5,,pt2_unique_rating,862106,Helena,,53,,5,,,,,,,,,,,,,,,
null,,confidence_buffer,862209,confidence_buffer,,null,,,,,,,,,,,,,,,,,
1425,,pt2_memorable_rating,863636,Helena,,53,,5,,,,,,,,,,,,,,,
null,,confidence_buffer,863739,confidence_buffer,,null,,,,,,,,,,,,,,,,,
2055,,recognition_phase,865796,Helena,,49,,,,,old,1,0.9791666666666666,,,,,,,,,,
null,,confidence_buffer,865900,confidence_buffer,,null,,,,,,,,,,,,,,,,,
null,,thebreak,866403,break,,null,,,,,,,,,,,,,,,,,
7341.5999999940395,,realistic_rating,873746,McKinney,,52,McKinney,4,,,,,,,,,,,,,,,
null,,confidence_buffer,873850,confidence_buffer,,null,,,,,,,,,,,,,,,,,
3117.9000000059605,,pt2_unique_rating,876970,McKinney,,53,,5,,,,,,,,,,,,,,,
null,,confidence_buffer,877072,confidence_buffer,,null,,,,,,,,,,,,,,,,,
1666.300000011921,,pt2_memorable_rating,878740,McKinney,,53,,5,,,,,,,,,,,,,,,
null,,confidence_buffer,878843,confidence_buffer,,null,,,,,,,,,,,,,,,,,
2040.5,,recognition_phase,880886,McKinney,,52,,,,,new,1,0.9795918367346939,,,,,,,,,,
null,,confidence_buffer,880989,confidence_buffer,,null,,,,,,,,,,,,,,,,,
null,,thebreak,881491,break,,null,,,,,,,,,,,,,,,,,
2647.5999999940395,,realistic_rating,884141,Reno,,53,Reno,5,,,,,,,,,,,,,,,
null,,confidence_buffer,884244,confidence_buffer,,null,,,,,,,,,,,,,,,,,
1827.2999999821186,,pt2_unique_rating,886074,Reno,,53,,5,,,,,,,,,,,,,,,
null,,confidence_buffer,886177,confidence_buffer,,null,,,,,,,,,,,,,,,,,
1426.199999988079,,pt2_memorable_rating,887605,Reno,,53,,5,,,,,,,,,,,,,,,
null,,confidence_buffer,887708,confidence_buffer,,null,,,,,,,,,,,,,,,,,
1439,,recognition_phase,889149,Reno,,49,,,,,old,1,0.98,,,,,,,,,,
null,,confidence_buffer,889252,confidence_buffer,,null,,,,,,,,,,,,,,,,,
null,,thebreak,889755,break,,null,,,,,,,,,,,,,,,,,
,,survey,1143421,survey-questions,,,,,,,,,,none,high,nope. just doing the survey,I didn't use any strategies at all. I just concentrated on the names and I thought about when I was in the city last or not at all.,I thought about if I were there,how strange the name was,What state it was in,real city names. not made up. I was only unfamiliar with 1,nope. no other,it was super easy
