rt,responses,trial_type,time_elapsed,stimulus,button_pressed,key_press,name_trial,rating,probe,probe_accuracy,response,correct,accuracy,problems,smooth,distraction,strategies,familiar,memorable,unique,realistic,similar,comments
5222.299999952316,{worker_id:66ec7a70f8d1f4d108a4ec65},id_enter,5226,,,,,,,,,,,,,,,,,,,,
22085.699999928474,,fullscreen,27317,fullscreen,0,,,,,,,,,,,,,,,,,,
9968.800000071526,,intro_0,37289,instruct,,32,,,,,,,,,,,,,,,,,
17341.699999928474,,intro_1,54632,instruct,,32,,,,,,,,,,,,,,,,,
10374.600000023842,,intro_2,65008,instruct,,32,,,,,,,,,,,,,,,,,
null,,instruct_dir_4,66510,instruct,,null,,,,,,,,,,,,,,,,,
null,,thebreak,67012,break,,null,,,,,,,,,,,,,,,,,
20993.600000023842,,familiar_rating,88008,Fort Collins,,53,Fort Collins,5,,,,,,,,,,,,,,,
null,,confidence_buffer,88110,confidence_buffer,,null,,,,,,,,,,,,,,,,,
8168.600000023842,,unique_rating,96280,Fort Collins,,52,,4,,,,,,,,,,,,,,,
null,,confidence_buffer,96387,confidence_buffer,,null,,,,,,,,,,,,,,,,,
4259,,memorable_rating,100648,Fort Collins,,53,,5,,,,,,,,,,,,,,,
null,,confidence_buffer,100750,confidence_buffer,,null,,,,,,,,,,,,,,,,,
null,,thebreak,101252,break,,null,,,,,,,,,,,,,,,,,
5146.699999928474,,familiar_rating,106400,Abilene,,52,Abilene,4,,,,,,,,,,,,,,,
null,,confidence_buffer,106501,confidence_buffer,,null,,,,,,,,,,,,,,,,,
1944.3000000715256,,unique_rating,108447,Abilene,,52,,4,,,,,,,,,,,,,,,
null,,confidence_buffer,108549,confidence_buffer,,null,,,,,,,,,,,,,,,,,
3160.8000000715256,,memorable_rating,111711,Abilene,,52,,4,,,,,,,,,,,,,,,
null,,confidence_buffer,111814,confidence_buffer,,null,,,,,,,,,,,,,,,,,
null,,thebreak,112315,break,,null,,,,,,,,,,,,,,,,,
3067.3000000715256,,familiar_rating,115383,Las Cruces,,52,Las Cruces,4,,,,,,,,,,,,,,,
null,,confidence_buffer,115485,confidence_buffer,,null,,,,,,,,,,,,,,,,,
5233.400000095367,,unique_rating,120719,Las Cruces,,53,,5,,,,,,,,,,,,,,,
null,,confidence_buffer,120821,confidence_buffer,,null,,,,,,,,,,,,,,,,,
5256.599999904633,,memorable_rating,126079,Las Cruces,,51,,3,,,,,,,,,,,,,,,
null,,confidence_buffer,126191,confidence_buffer,,null,,,,,,,,,,,,,,,,,
null,,thebreak,126692,break,,null,,,,,,,,,,,,,,,,,
3449.4000000953674,,familiar_rating,130143,Decatur,,53,Decatur,5,,,,,,,,,,,,,,,
null,,confidence_buffer,130245,confidence_buffer,,null,,,,,,,,,,,,,,,,,
4352.800000071526,,unique_rating,134599,Decatur,,51,,3,,,,,,,,,,,,,,,
null,,confidence_buffer,134701,confidence_buffer,,null,,,,,,,,,,,,,,,,,
888.6000000238419,,memorable_rating,135591,Decatur,,53,,5,,,,,,,,,,,,,,,
null,,confidence_buffer,135694,confidence_buffer,,null,,,,,,,,,,,,,,,,,
null,,thebreak,136196,break,,null,,,,,,,,,,,,,,,,,
4226,,familiar_rating,140423,Olympia,,53,Olympia,5,,,,,,,,,,,,,,,
null,,confidence_buffer,140525,confidence_buffer,,null,,,,,,,,,,,,,,,,,
3744.3000000715256,,unique_rating,144271,Olympia,,51,,3,,,,,,,,,,,,,,,
null,,confidence_buffer,144374,confidence_buffer,,null,,,,,,,,,,,,,,,,,
1016.2999999523163,,memorable_rating,145391,Olympia,,52,,4,,,,,,,,,,,,,,,
null,,confidence_buffer,145493,confidence_buffer,,null,,,,,,,,,,,,,,,,,
null,,thebreak,145994,break,,null,,,,,,,,,,,,,,,,,
2803.3000000715256,,familiar_rating,148799,Muncie,,53,Muncie,5,,,,,,,,,,,,,,,
null,,confidence_buffer,148902,confidence_buffer,,null,,,,,,,,,,,,,,,,,
575.8999999761581,,unique_rating,149479,Muncie,,53,,5,,,,,,,,,,,,,,,
null,,confidence_buffer,149580,confidence_buffer,,null,,,,,,,,,,,,,,,,,
481.2999999523163,,memorable_rating,150063,Muncie,,53,,5,,,,,,,,,,,,,,,
null,,confidence_buffer,150164,confidence_buffer,,null,,,,,,,,,,,,,,,,,
null,,thebreak,150667,break,,null,,,,,,,,,,,,,,,,,
3146.899999976158,,familiar_rating,153815,Champaign,,53,Champaign,5,,,,,,,,,,,,,,,
null,,confidence_buffer,153917,confidence_buffer,,null,,,,,,,,,,,,,,,,,
624.6999999284744,,probe_rating,154542,probe_rating,,53,,,5,0,,,,,,,,,,,,,
null,,confidence_buffer,154645,confidence_buffer,,null,,,,,,,,,,,,,,,,,
7432.700000047684,,unique_rating,162079,Champaign,,53,,5,,,,,,,,,,,,,,,
null,,confidence_buffer,162180,confidence_buffer,,null,,,,,,,,,,,,,,,,,
6056.799999952316,,memorable_rating,168238,Champaign,,53,,5,,,,,,,,,,,,,,,
null,,confidence_buffer,168340,confidence_buffer,,null,,,,,,,,,,,,,,,,,
null,,thebreak,168842,break,,null,,,,,,,,,,,,,,,,,
6307.5,,familiar_rating,175151,McKinney,,52,McKinney,4,,,,,,,,,,,,,,,
null,,confidence_buffer,175252,confidence_buffer,,null,,,,,,,,,,,,,,,,,
3209.3000000715256,,unique_rating,178462,McKinney,,52,,4,,,,,,,,,,,,,,,
null,,confidence_buffer,178564,confidence_buffer,,null,,,,,,,,,,,,,,,,,
1736.9000000953674,,memorable_rating,180302,McKinney,,52,,4,,,,,,,,,,,,,,,
null,,confidence_buffer,180404,confidence_buffer,,null,,,,,,,,,,,,,,,,,
null,,thebreak,180906,break,,null,,,,,,,,,,,,,,,,,
7363.600000023842,,familiar_rating,188270,Salem,,52,Salem,4,,,,,,,,,,,,,,,
null,,confidence_buffer,188372,confidence_buffer,,null,,,,,,,,,,,,,,,,,
1503.7999999523163,,unique_rating,189878,Salem,,51,,3,,,,,,,,,,,,,,,
null,,confidence_buffer,189979,confidence_buffer,,null,,,,,,,,,,,,,,,,,
1793.5,,memorable_rating,191774,Salem,,51,,3,,,,,,,,,,,,,,,
null,,confidence_buffer,191875,confidence_buffer,,null,,,,,,,,,,,,,,,,,
null,,thebreak,192377,break,,null,,,,,,,,,,,,,,,,,
3155.6999999284744,,familiar_rating,195534,Frankfort,,51,Frankfort,3,,,,,,,,,,,,,,,
null,,confidence_buffer,195635,confidence_buffer,,null,,,,,,,,,,,,,,,,,
1185.8000000715256,,unique_rating,196822,Frankfort,,51,,3,,,,,,,,,,,,,,,
null,,confidence_buffer,196925,confidence_buffer,,null,,,,,,,,,,,,,,,,,
960.1000000238419,,memorable_rating,197886,Frankfort,,51,,3,,,,,,,,,,,,,,,
null,,confidence_buffer,197987,confidence_buffer,,null,,,,,,,,,,,,,,,,,
null,,thebreak,198489,break,,null,,,,,,,,,,,,,,,,,
2875.899999976158,,familiar_rating,201366,Carson City,,52,Carson City,4,,,,,,,,,,,,,,,
null,,confidence_buffer,201468,confidence_buffer,,null,,,,,,,,,,,,,,,,,
2520.6999999284744,,probe_rating,203990,probe_rating,,52,,,4,1,,,,,,,,,,,,,
null,,confidence_buffer,204095,confidence_buffer,,null,,,,,,,,,,,,,,,,,
4021.7999999523163,,unique_rating,208118,Carson City,,51,,3,,,,,,,,,,,,,,,
null,,confidence_buffer,208220,confidence_buffer,,null,,,,,,,,,,,,,,,,,
11705,,memorable_rating,219926,Carson City,,53,,5,,,,,,,,,,,,,,,
null,,confidence_buffer,220028,confidence_buffer,,null,,,,,,,,,,,,,,,,,
null,,thebreak,220530,break,,null,,,,,,,,,,,,,,,,,
5482.600000023842,,familiar_rating,226014,Bellingham,,50,Bellingham,2,,,,,,,,,,,,,,,
null,,confidence_buffer,226116,confidence_buffer,,null,,,,,,,,,,,,,,,,,
4704.700000047684,,unique_rating,230822,Bellingham,,52,,4,,,,,,,,,,,,,,,
null,,confidence_buffer,230924,confidence_buffer,,null,,,,,,,,,,,,,,,,,
3512.899999976158,,memorable_rating,234438,Bellingham,,49,,1,,,,,,,,,,,,,,,
null,,confidence_buffer,234539,confidence_buffer,,null,,,,,,,,,,,,,,,,,
null,,thebreak,235041,break,,null,,,,,,,,,,,,,,,,,
4747.299999952316,,familiar_rating,239790,Ithaca,,51,Ithaca,3,,,,,,,,,,,,,,,
null,,confidence_buffer,239895,confidence_buffer,,null,,,,,,,,,,,,,,,,,
1277.6999999284744,,unique_rating,241174,Ithaca,,51,,3,,,,,,,,,,,,,,,
null,,confidence_buffer,241277,confidence_buffer,,null,,,,,,,,,,,,,,,,,
2967.600000023842,,probe_rating,244246,probe_rating,,53,,,5,1,,,,,,,,,,,,,
null,,confidence_buffer,244348,confidence_buffer,,null,,,,,,,,,,,,,,,,,
10680.199999928474,,memorable_rating,255030,Ithaca,,51,,3,,,,,,,,,,,,,,,
null,,confidence_buffer,255131,confidence_buffer,,null,,,,,,,,,,,,,,,,,
null,,thebreak,255634,break,,null,,,,,,,,,,,,,,,,,
5762.299999952316,,familiar_rating,261397,Peoria,,53,Peoria,5,,,,,,,,,,,,,,,
null,,confidence_buffer,261500,confidence_buffer,,null,,,,,,,,,,,,,,,,,
2647.899999976158,,unique_rating,264149,Peoria,,51,,3,,,,,,,,,,,,,,,
null,,confidence_buffer,264251,confidence_buffer,,null,,,,,,,,,,,,,,,,,
2832.5,,memorable_rating,267085,Peoria,,53,,5,,,,,,,,,,,,,,,
null,,confidence_buffer,267186,confidence_buffer,,null,,,,,,,,,,,,,,,,,
null,,thebreak,267688,break,,null,,,,,,,,,,,,,,,,,
5596,,familiar_rating,273285,Concord,,53,Concord,5,,,,,,,,,,,,,,,
null,,confidence_buffer,273387,confidence_buffer,,null,,,,,,,,,,,,,,,,,
2672.100000023842,,unique_rating,276061,Concord,,50,,2,,,,,,,,,,,,,,,
null,,confidence_buffer,276164,confidence_buffer,,null,,,,,,,,,,,,,,,,,
3103.8000000715256,,memorable_rating,279269,Concord,,52,,4,,,,,,,,,,,,,,,
null,,confidence_buffer,279372,confidence_buffer,,null,,,,,,,,,,,,,,,,,
null,,thebreak,279874,break,,null,,,,,,,,,,,,,,,,,
3386.1999999284744,,familiar_rating,283261,Fort Wayne,,53,Fort Wayne,5,,,,,,,,,,,,,,,
null,,confidence_buffer,283364,confidence_buffer,,null,,,,,,,,,,,,,,,,,
2576,,unique_rating,285941,Fort Wayne,,51,,3,,,,,,,,,,,,,,,
null,,confidence_buffer,286043,confidence_buffer,,null,,,,,,,,,,,,,,,,,
1681.2999999523163,,memorable_rating,287725,Fort Wayne,,53,,5,,,,,,,,,,,,,,,
null,,confidence_buffer,287827,confidence_buffer,,null,,,,,,,,,,,,,,,,,
2705.399999976158,,probe_rating,290533,probe_rating,,50,,,2,1,,,,,,,,,,,,,
null,,confidence_buffer,290634,confidence_buffer,,null,,,,,,,,,,,,,,,,,
null,,thebreak,291136,break,,null,,,,,,,,,,,,,,,,,
3531.5,,familiar_rating,294669,Syracuse,,53,Syracuse,5,,,,,,,,,,,,,,,
null,,confidence_buffer,294770,confidence_buffer,,null,,,,,,,,,,,,,,,,,
3521.4000000953674,,unique_rating,298293,Syracuse,,52,,4,,,,,,,,,,,,,,,
null,,confidence_buffer,298395,confidence_buffer,,null,,,,,,,,,,,,,,,,,
2209,,memorable_rating,300605,Syracuse,,53,,5,,,,,,,,,,,,,,,
null,,confidence_buffer,300706,confidence_buffer,,null,,,,,,,,,,,,,,,,,
null,,thebreak,301208,break,,null,,,,,,,,,,,,,,,,,
5907.200000047684,,familiar_rating,307117,Youngstown,,53,Youngstown,5,,,,,,,,,,,,,,,
null,,confidence_buffer,307218,confidence_buffer,,null,,,,,,,,,,,,,,,,,
1233,,unique_rating,308452,Youngstown,,52,,4,,,,,,,,,,,,,,,
null,,confidence_buffer,308554,confidence_buffer,,null,,,,,,,,,,,,,,,,,
1065.1000000238419,,memorable_rating,309621,Youngstown,,53,,5,,,,,,,,,,,,,,,
null,,confidence_buffer,309722,confidence_buffer,,null,,,,,,,,,,,,,,,,,
null,,thebreak,310224,break,,null,,,,,,,,,,,,,,,,,
3100,,familiar_rating,313325,New Haven,,53,New Haven,5,,,,,,,,,,,,,,,
null,,confidence_buffer,313427,confidence_buffer,,null,,,,,,,,,,,,,,,,,
1696.5999999046326,,unique_rating,315124,New Haven,,51,,3,,,,,,,,,,,,,,,
null,,confidence_buffer,315226,confidence_buffer,,null,,,,,,,,,,,,,,,,,
1529,,memorable_rating,316756,New Haven,,53,,5,,,,,,,,,,,,,,,
null,,confidence_buffer,316858,confidence_buffer,,null,,,,,,,,,,,,,,,,,
null,,thebreak,317360,break,,null,,,,,,,,,,,,,,,,,
5251.099999904633,,familiar_rating,322612,Berkeley,,52,Berkeley,4,,,,,,,,,,,,,,,
null,,confidence_buffer,322714,confidence_buffer,,null,,,,,,,,,,,,,,,,,
4505.300000071526,,unique_rating,327221,Berkeley,,51,,3,,,,,,,,,,,,,,,
null,,confidence_buffer,327322,confidence_buffer,,null,,,,,,,,,,,,,,,,,
2008.7000000476837,,memorable_rating,329332,Berkeley,,50,,2,,,,,,,,,,,,,,,
null,,confidence_buffer,329434,confidence_buffer,,null,,,,,,,,,,,,,,,,,
2025.0999999046326,,probe_rating,331460,probe_rating,,50,,,2,1,,,,,,,,,,,,,
null,,confidence_buffer,331563,confidence_buffer,,null,,,,,,,,,,,,,,,,,
null,,thebreak,332064,break,,null,,,,,,,,,,,,,,,,,
9019.399999976158,,familiar_rating,341084,Stamford,,50,Stamford,2,,,,,,,,,,,,,,,
null,,confidence_buffer,341186,confidence_buffer,,null,,,,,,,,,,,,,,,,,
3065.4000000953674,,unique_rating,344252,Stamford,,51,,3,,,,,,,,,,,,,,,
null,,confidence_buffer,344354,confidence_buffer,,null,,,,,,,,,,,,,,,,,
2841.2000000476837,,memorable_rating,347196,Stamford,,49,,1,,,,,,,,,,,,,,,
null,,confidence_buffer,347298,confidence_buffer,,null,,,,,,,,,,,,,,,,,
null,,thebreak,347800,break,,null,,,,,,,,,,,,,,,,,
2659.100000023842,,familiar_rating,350460,Ann Arbor,,53,Ann Arbor,5,,,,,,,,,,,,,,,
null,,confidence_buffer,350562,confidence_buffer,,null,,,,,,,,,,,,,,,,,
1289.5,,unique_rating,351852,Ann Arbor,,52,,4,,,,,,,,,,,,,,,
null,,confidence_buffer,351954,confidence_buffer,,null,,,,,,,,,,,,,,,,,
1288.7999999523163,,memorable_rating,353244,Ann Arbor,,51,,3,,,,,,,,,,,,,,,
null,,confidence_buffer,353346,confidence_buffer,,null,,,,,,,,,,,,,,,,,
1961.2000000476837,,probe_rating,355308,probe_rating,,52,,,4,1,,,,,,,,,,,,,
null,,confidence_buffer,355416,confidence_buffer,,null,,,,,,,,,,,,,,,,,
null,,thebreak,355917,break,,null,,,,,,,,,,,,,,,,,
5157.600000023842,,familiar_rating,361076,Pueblo,,50,Pueblo,2,,,,,,,,,,,,,,,
null,,confidence_buffer,361177,confidence_buffer,,null,,,,,,,,,,,,,,,,,
3249.899999976158,,unique_rating,364428,Pueblo,,52,,4,,,,,,,,,,,,,,,
null,,confidence_buffer,364530,confidence_buffer,,null,,,,,,,,,,,,,,,,,
1912.5,,memorable_rating,366444,Pueblo,,50,,2,,,,,,,,,,,,,,,
null,,confidence_buffer,366546,confidence_buffer,,null,,,,,,,,,,,,,,,,,
null,,thebreak,367047,break,,null,,,,,,,,,,,,,,,,,
2011.8999999761581,,familiar_rating,369060,Norfolk,,52,Norfolk,4,,,,,,,,,,,,,,,
null,,confidence_buffer,369161,confidence_buffer,,null,,,,,,,,,,,,,,,,,
2505.3000000715256,,unique_rating,371668,Norfolk,,51,,3,,,,,,,,,,,,,,,
null,,confidence_buffer,371769,confidence_buffer,,null,,,,,,,,,,,,,,,,,
2617.4000000953674,,memorable_rating,374388,Norfolk,,51,,3,,,,,,,,,,,,,,,
null,,confidence_buffer,374490,confidence_buffer,,null,,,,,,,,,,,,,,,,,
null,,thebreak,374991,break,,null,,,,,,,,,,,,,,,,,
2955.899999976158,,familiar_rating,377948,Terre Haute,,53,Terre Haute,5,,,,,,,,,,,,,,,
null,,confidence_buffer,378050,confidence_buffer,,null,,,,,,,,,,,,,,,,,
3232.3000000715256,,unique_rating,381284,Terre Haute,,52,,4,,,,,,,,,,,,,,,
null,,confidence_buffer,381385,confidence_buffer,,null,,,,,,,,,,,,,,,,,
1633.5,,memorable_rating,383020,Terre Haute,,53,,5,,,,,,,,,,,,,,,
null,,confidence_buffer,383121,confidence_buffer,,null,,,,,,,,,,,,,,,,,
null,,thebreak,383623,break,,null,,,,,,,,,,,,,,,,,
9004.100000023842,,intro_0,392628,instruct,,32,,,,,,,,,,,,,,,,,
19070.799999952316,,intro_1,411700,instruct,,32,,,,,,,,,,,,,,,,,
36125.89999997616,,intro_2,447826,instruct,,32,,,,,,,,,,,,,,,,,
null,,instruct_dir_4,449328,instruct,,null,,,,,,,,,,,,,,,,,
15121.600000023842,,realistic_rating,464451,Carson City,,53,Carson City,5,,,,,,,,,,,,,,,
null,,confidence_buffer,464553,confidence_buffer,,null,,,,,,,,,,,,,,,,,
6528,,pt2_unique_rating,471083,Carson City,,51,,3,,,,,,,,,,,,,,,
null,,confidence_buffer,471184,confidence_buffer,,null,,,,,,,,,,,,,,,,,
6465.200000047684,,pt2_memorable_rating,477651,Carson City,,53,,5,,,,,,,,,,,,,,,
null,,confidence_buffer,477754,confidence_buffer,,null,,,,,,,,,,,,,,,,,
15415.5,,recognition_phase,493171,Carson City,,50,,,,,old,1,1,,,,,,,,,,
null,,confidence_buffer,493274,confidence_buffer,,null,,,,,,,,,,,,,,,,,
null,,thebreak,493776,break,,null,,,,,,,,,,,,,,,,,
9025,,realistic_rating,502802,Muncie,,53,Muncie,5,,,,,,,,,,,,,,,
null,,confidence_buffer,502904,confidence_buffer,,null,,,,,,,,,,,,,,,,,
5889.400000095367,,pt2_unique_rating,508794,Muncie,,52,,4,,,,,,,,,,,,,,,
null,,confidence_buffer,508896,confidence_buffer,,null,,,,,,,,,,,,,,,,,
3920.600000023842,,pt2_memorable_rating,512818,Muncie,,53,,5,,,,,,,,,,,,,,,
null,,confidence_buffer,512920,confidence_buffer,,null,,,,,,,,,,,,,,,,,
4344.700000047684,,recognition_phase,517266,Muncie,,49,,,,,old,1,1,,,,,,,,,,
null,,confidence_buffer,517369,confidence_buffer,,null,,,,,,,,,,,,,,,,,
null,,thebreak,517870,break,,null,,,,,,,,,,,,,,,,,
5347.5,,realistic_rating,523218,Peoria,,53,Peoria,5,,,,,,,,,,,,,,,
null,,confidence_buffer,523321,confidence_buffer,,null,,,,,,,,,,,,,,,,,
3232.2000000476837,,pt2_unique_rating,526554,Peoria,,51,,3,,,,,,,,,,,,,,,
null,,confidence_buffer,526657,confidence_buffer,,null,,,,,,,,,,,,,,,,,
2624.1999999284744,,probe_rating,529282,probe_rating,,50,,,2,1,,,,,,,,,,,,,
null,,confidence_buffer,529384,confidence_buffer,,null,,,,,,,,,,,,,,,,,
6049.199999928474,,pt2_memorable_rating,535434,Peoria,,53,,5,,,,,,,,,,,,,,,
null,,confidence_buffer,535536,confidence_buffer,,null,,,,,,,,,,,,,,,,,
5856.5,,recognition_phase,541394,Peoria,,49,,,,,old,1,1,,,,,,,,,,
null,,confidence_buffer,541496,confidence_buffer,,null,,,,,,,,,,,,,,,,,
null,,thebreak,541998,break,,null,,,,,,,,,,,,,,,,,
7963,,realistic_rating,549962,Berkeley,,53,Berkeley,5,,,,,,,,,,,,,,,
null,,confidence_buffer,550065,confidence_buffer,,null,,,,,,,,,,,,,,,,,
4007.7000000476837,,pt2_unique_rating,554074,Berkeley,,52,,4,,,,,,,,,,,,,,,
null,,confidence_buffer,554175,confidence_buffer,,null,,,,,,,,,,,,,,,,,
5409,,pt2_memorable_rating,559585,Berkeley,,53,,5,,,,,,,,,,,,,,,
null,,confidence_buffer,559687,confidence_buffer,,null,,,,,,,,,,,,,,,,,
2881.3000000715256,,recognition_phase,562570,Berkeley,,49,,,,,old,1,1,,,,,,,,,,
null,,confidence_buffer,562671,confidence_buffer,,null,,,,,,,,,,,,,,,,,
null,,thebreak,563173,break,,null,,,,,,,,,,,,,,,,,
5603.599999904633,,realistic_rating,568777,Boise,,53,Boise,5,,,,,,,,,,,,,,,
null,,confidence_buffer,568879,confidence_buffer,,null,,,,,,,,,,,,,,,,,
4497.799999952316,,pt2_unique_rating,573378,Boise,,52,,4,,,,,,,,,,,,,,,
null,,confidence_buffer,573479,confidence_buffer,,null,,,,,,,,,,,,,,,,,
5025.100000023842,,pt2_memorable_rating,578505,Boise,,53,,5,,,,,,,,,,,,,,,
null,,confidence_buffer,578607,confidence_buffer,,null,,,,,,,,,,,,,,,,,
5865.199999928474,,probe_rating,584473,probe_rating,,49,,,1,1,,,,,,,,,,,,,
null,,confidence_buffer,584575,confidence_buffer,,null,,,,,,,,,,,,,,,,,
3336.7000000476837,,recognition_phase,587913,Boise,,52,,,,,new,1,1,,,,,,,,,,
null,,confidence_buffer,588015,confidence_buffer,,null,,,,,,,,,,,,,,,,,
null,,thebreak,588516,break,,null,,,,,,,,,,,,,,,,,
4596.299999952316,,realistic_rating,593113,Tallahassee,,53,Tallahassee,5,,,,,,,,,,,,,,,
null,,confidence_buffer,593214,confidence_buffer,,null,,,,,,,,,,,,,,,,,
3209.899999976158,,pt2_unique_rating,596425,Tallahassee,,53,,5,,,,,,,,,,,,,,,
null,,confidence_buffer,596527,confidence_buffer,,null,,,,,,,,,,,,,,,,,
2040.6999999284744,,probe_rating,598569,probe_rating,,50,,,2,1,,,,,,,,,,,,,
null,,confidence_buffer,598670,confidence_buffer,,null,,,,,,,,,,,,,,,,,
5873.399999976158,,pt2_memorable_rating,604545,Tallahassee,,53,,5,,,,,,,,,,,,,,,
null,,confidence_buffer,604647,confidence_buffer,,null,,,,,,,,,,,,,,,,,
4193,,recognition_phase,608841,Tallahassee,,52,,,,,new,1,1,,,,,,,,,,
null,,confidence_buffer,608942,confidence_buffer,,null,,,,,,,,,,,,,,,,,
null,,thebreak,609444,break,,null,,,,,,,,,,,,,,,,,
8131.300000071526,,realistic_rating,617577,Olympia,,53,Olympia,5,,,,,,,,,,,,,,,
null,,confidence_buffer,617679,confidence_buffer,,null,,,,,,,,,,,,,,,,,
2761.100000023842,,pt2_unique_rating,620441,Olympia,,52,,4,,,,,,,,,,,,,,,
null,,confidence_buffer,620544,confidence_buffer,,null,,,,,,,,,,,,,,,,,
4175.899999976158,,pt2_memorable_rating,624721,Olympia,,53,,5,,,,,,,,,,,,,,,
null,,confidence_buffer,624822,confidence_buffer,,null,,,,,,,,,,,,,,,,,
3705.7000000476837,,recognition_phase,628529,Olympia,,49,,,,,old,1,1,,,,,,,,,,
null,,confidence_buffer,628630,confidence_buffer,,null,,,,,,,,,,,,,,,,,
null,,thebreak,629132,break,,null,,,,,,,,,,,,,,,,,
9420,,realistic_rating,638553,Montpelier,,53,Montpelier,5,,,,,,,,,,,,,,,
null,,confidence_buffer,638655,confidence_buffer,,null,,,,,,,,,,,,,,,,,
2295.8000000715256,,pt2_unique_rating,640952,Montpelier,,53,,5,,,,,,,,,,,,,,,
null,,confidence_buffer,641054,confidence_buffer,,null,,,,,,,,,,,,,,,,,
3001.100000023842,,pt2_memorable_rating,644056,Montpelier,,53,,5,,,,,,,,,,,,,,,
null,,confidence_buffer,644158,confidence_buffer,,null,,,,,,,,,,,,,,,,,
3072.1999999284744,,recognition_phase,647232,Montpelier,,52,,,,,new,1,1,,,,,,,,,,
null,,confidence_buffer,647334,confidence_buffer,,null,,,,,,,,,,,,,,,,,
null,,thebreak,647836,break,,null,,,,,,,,,,,,,,,,,
8395.799999952316,,realistic_rating,656233,Bellingham,,53,Bellingham,5,,,,,,,,,,,,,,,
null,,confidence_buffer,656335,confidence_buffer,,null,,,,,,,,,,,,,,,,,
1904.3000000715256,,pt2_unique_rating,658240,Bellingham,,53,,5,,,,,,,,,,,,,,,
null,,confidence_buffer,658342,confidence_buffer,,null,,,,,,,,,,,,,,,,,
1976.6000000238419,,probe_rating,660320,probe_rating,,53,,,5,1,,,,,,,,,,,,,
null,,confidence_buffer,660423,confidence_buffer,,null,,,,,,,,,,,,,,,,,
4631.899999976158,,pt2_memorable_rating,665056,Bellingham,,52,,4,,,,,,,,,,,,,,,
null,,confidence_buffer,665158,confidence_buffer,,null,,,,,,,,,,,,,,,,,
3201.0999999046326,,recognition_phase,668360,Bellingham,,49,,,,,old,1,1,,,,,,,,,,
null,,confidence_buffer,668462,confidence_buffer,,null,,,,,,,,,,,,,,,,,
null,,thebreak,668964,break,,null,,,,,,,,,,,,,,,,,
6722.399999976158,,realistic_rating,675688,Palo Alto,,53,Palo Alto,5,,,,,,,,,,,,,,,
null,,confidence_buffer,675790,confidence_buffer,,null,,,,,,,,,,,,,,,,,
2128.6999999284744,,pt2_unique_rating,677920,Palo Alto,,53,,5,,,,,,,,,,,,,,,
null,,confidence_buffer,678022,confidence_buffer,,null,,,,,,,,,,,,,,,,,
2353.100000023842,,pt2_memorable_rating,680376,Palo Alto,,53,,5,,,,,,,,,,,,,,,
null,,confidence_buffer,680478,confidence_buffer,,null,,,,,,,,,,,,,,,,,
3361.1999999284744,,recognition_phase,683840,Palo Alto,,52,,,,,new,1,1,,,,,,,,,,
null,,confidence_buffer,683942,confidence_buffer,,null,,,,,,,,,,,,,,,,,
null,,thebreak,684443,break,,null,,,,,,,,,,,,,,,,,
4011.9000000953674,,realistic_rating,688456,Frankfort,,53,Frankfort,5,,,,,,,,,,,,,,,
null,,confidence_buffer,688558,confidence_buffer,,null,,,,,,,,,,,,,,,,,
2521.5999999046326,,pt2_unique_rating,691080,Frankfort,,51,,3,,,,,,,,,,,,,,,
null,,confidence_buffer,691182,confidence_buffer,,null,,,,,,,,,,,,,,,,,
2217,,pt2_memorable_rating,693400,Frankfort,,53,,5,,,,,,,,,,,,,,,
null,,confidence_buffer,693501,confidence_buffer,,null,,,,,,,,,,,,,,,,,
3241.4000000953674,,recognition_phase,696744,Frankfort,,49,,,,,old,1,1,,,,,,,,,,
null,,confidence_buffer,696846,confidence_buffer,,null,,,,,,,,,,,,,,,,,
null,,thebreak,697348,break,,null,,,,,,,,,,,,,,,,,
4642.899999976158,,realistic_rating,701992,Cheyenne,,53,Cheyenne,5,,,,,,,,,,,,,,,
null,,confidence_buffer,702094,confidence_buffer,,null,,,,,,,,,,,,,,,,,
3648.899999976158,,pt2_unique_rating,705743,Cheyenne,,51,,3,,,,,,,,,,,,,,,
null,,confidence_buffer,705845,confidence_buffer,,null,,,,,,,,,,,,,,,,,
2475.2000000476837,,pt2_memorable_rating,708321,Cheyenne,,53,,5,,,,,,,,,,,,,,,
null,,confidence_buffer,708424,confidence_buffer,,null,,,,,,,,,,,,,,,,,
3518.2000000476837,,recognition_phase,711944,Cheyenne,,52,,,,,new,1,1,,,,,,,,,,
null,,confidence_buffer,712046,confidence_buffer,,null,,,,,,,,,,,,,,,,,
null,,thebreak,712547,break,,null,,,,,,,,,,,,,,,,,
2836.2000000476837,,realistic_rating,715384,Santa Monica,,53,Santa Monica,5,,,,,,,,,,,,,,,
null,,confidence_buffer,715486,confidence_buffer,,null,,,,,,,,,,,,,,,,,
2376.899999976158,,pt2_unique_rating,717863,Santa Monica,,52,,4,,,,,,,,,,,,,,,
null,,confidence_buffer,717966,confidence_buffer,,null,,,,,,,,,,,,,,,,,
2288.7999999523163,,pt2_memorable_rating,720255,Santa Monica,,53,,5,,,,,,,,,,,,,,,
null,,confidence_buffer,720357,confidence_buffer,,null,,,,,,,,,,,,,,,,,
2816.7000000476837,,recognition_phase,723175,Santa Monica,,52,,,,,new,1,1,,,,,,,,,,
null,,confidence_buffer,723277,confidence_buffer,,null,,,,,,,,,,,,,,,,,
null,,thebreak,723778,break,,null,,,,,,,,,,,,,,,,,
3732.399999976158,,realistic_rating,727511,Scottsdale,,53,Scottsdale,5,,,,,,,,,,,,,,,
null,,confidence_buffer,727613,confidence_buffer,,null,,,,,,,,,,,,,,,,,
2745.3000000715256,,pt2_unique_rating,730359,Scottsdale,,51,,3,,,,,,,,,,,,,,,
null,,confidence_buffer,730461,confidence_buffer,,null,,,,,,,,,,,,,,,,,
2337.3000000715256,,pt2_memorable_rating,732799,Scottsdale,,53,,5,,,,,,,,,,,,,,,
null,,confidence_buffer,732901,confidence_buffer,,null,,,,,,,,,,,,,,,,,
4329,,recognition_phase,737231,Scottsdale,,52,,,,,new,1,1,,,,,,,,,,
null,,confidence_buffer,737333,confidence_buffer,,null,,,,,,,,,,,,,,,,,
null,,thebreak,737834,break,,null,,,,,,,,,,,,,,,,,
5404.299999952316,,realistic_rating,743239,Dothan,,51,Dothan,3,,,,,,,,,,,,,,,
null,,confidence_buffer,743341,confidence_buffer,,null,,,,,,,,,,,,,,,,,
3553,,pt2_unique_rating,746895,Dothan,,51,,3,,,,,,,,,,,,,,,
null,,confidence_buffer,746997,confidence_buffer,,null,,,,,,,,,,,,,,,,,
5969.299999952316,,pt2_memorable_rating,752967,Dothan,,52,,4,,,,,,,,,,,,,,,
null,,confidence_buffer,753069,confidence_buffer,,null,,,,,,,,,,,,,,,,,
3209.2000000476837,,recognition_phase,756279,Dothan,,52,,,,,new,1,1,,,,,,,,,,
null,,confidence_buffer,756382,confidence_buffer,,null,,,,,,,,,,,,,,,,,
null,,thebreak,756884,break,,null,,,,,,,,,,,,,,,,,
2473.399999976158,,realistic_rating,759359,Pasadena,,53,Pasadena,5,,,,,,,,,,,,,,,
null,,confidence_buffer,759460,confidence_buffer,,null,,,,,,,,,,,,,,,,,
1817.5,,probe_rating,761279,probe_rating,,49,,,1,1,,,,,,,,,,,,,
null,,confidence_buffer,761381,confidence_buffer,,null,,,,,,,,,,,,,,,,,
6697.300000071526,,pt2_unique_rating,768079,Pasadena,,53,,5,,,,,,,,,,,,,,,
null,,confidence_buffer,768181,confidence_buffer,,null,,,,,,,,,,,,,,,,,
1897,,pt2_memorable_rating,770079,Pasadena,,53,,5,,,,,,,,,,,,,,,
null,,confidence_buffer,770181,confidence_buffer,,null,,,,,,,,,,,,,,,,,
4192.700000047684,,recognition_phase,774375,Pasadena,,52,,,,,new,1,1,,,,,,,,,,
null,,confidence_buffer,774477,confidence_buffer,,null,,,,,,,,,,,,,,,,,
null,,thebreak,774979,break,,null,,,,,,,,,,,,,,,,,
2194.7000000476837,,realistic_rating,777175,Toledo,,53,Toledo,5,,,,,,,,,,,,,,,
null,,confidence_buffer,777277,confidence_buffer,,null,,,,,,,,,,,,,,,,,
2217.1999999284744,,pt2_unique_rating,779495,Toledo,,51,,3,,,,,,,,,,,,,,,
null,,confidence_buffer,779597,confidence_buffer,,null,,,,,,,,,,,,,,,,,
1448.8000000715256,,pt2_memorable_rating,781047,Toledo,,53,,5,,,,,,,,,,,,,,,
null,,confidence_buffer,781148,confidence_buffer,,null,,,,,,,,,,,,,,,,,
3553.5,,recognition_phase,784703,Toledo,,52,,,,,new,1,1,,,,,,,,,,
null,,confidence_buffer,784805,confidence_buffer,,null,,,,,,,,,,,,,,,,,
null,,thebreak,785306,break,,null,,,,,,,,,,,,,,,,,
5211.5,,realistic_rating,790519,Fargo,,53,Fargo,5,,,,,,,,,,,,,,,
null,,confidence_buffer,790621,confidence_buffer,,null,,,,,,,,,,,,,,,,,
2496,,pt2_unique_rating,793118,Fargo,,50,,2,,,,,,,,,,,,,,,
null,,confidence_buffer,793220,confidence_buffer,,null,,,,,,,,,,,,,,,,,
1745.2999999523163,,pt2_memorable_rating,794966,Fargo,,53,,5,,,,,,,,,,,,,,,
null,,confidence_buffer,795068,confidence_buffer,,null,,,,,,,,,,,,,,,,,
3761.5,,recognition_phase,798830,Fargo,,52,,,,,new,1,1,,,,,,,,,,
null,,confidence_buffer,798936,confidence_buffer,,null,,,,,,,,,,,,,,,,,
null,,thebreak,799442,break,,null,,,,,,,,,,,,,,,,,
5251.700000047684,,realistic_rating,804695,Fort Wayne,,53,Fort Wayne,5,,,,,,,,,,,,,,,
null,,confidence_buffer,804797,confidence_buffer,,null,,,,,,,,,,,,,,,,,
1544.5,,pt2_unique_rating,806342,Fort Wayne,,51,,3,,,,,,,,,,,,,,,
null,,confidence_buffer,806444,confidence_buffer,,null,,,,,,,,,,,,,,,,,
1417.2000000476837,,pt2_memorable_rating,807863,Fort Wayne,,53,,5,,,,,,,,,,,,,,,
null,,confidence_buffer,807965,confidence_buffer,,null,,,,,,,,,,,,,,,,,
2448.2000000476837,,recognition_phase,810414,Fort Wayne,,49,,,,,old,1,1,,,,,,,,,,
null,,confidence_buffer,810516,confidence_buffer,,null,,,,,,,,,,,,,,,,,
null,,thebreak,811017,break,,null,,,,,,,,,,,,,,,,,
5484.299999952316,,realistic_rating,816503,Hagerstown,,53,Hagerstown,5,,,,,,,,,,,,,,,
null,,confidence_buffer,816604,confidence_buffer,,null,,,,,,,,,,,,,,,,,
3624.3000000715256,,pt2_unique_rating,820230,Hagerstown,,51,,3,,,,,,,,,,,,,,,
null,,confidence_buffer,820331,confidence_buffer,,null,,,,,,,,,,,,,,,,,
2090,,pt2_memorable_rating,822422,Hagerstown,,53,,5,,,,,,,,,,,,,,,
null,,confidence_buffer,822524,confidence_buffer,,null,,,,,,,,,,,,,,,,,
3008.899999976158,,recognition_phase,825534,Hagerstown,,52,,,,,new,1,1,,,,,,,,,,
null,,confidence_buffer,825636,confidence_buffer,,null,,,,,,,,,,,,,,,,,
null,,thebreak,826137,break,,null,,,,,,,,,,,,,,,,,
5156.099999904633,,realistic_rating,831294,Ithaca,,53,Ithaca,5,,,,,,,,,,,,,,,
null,,confidence_buffer,831396,confidence_buffer,,null,,,,,,,,,,,,,,,,,
2328.600000023842,,pt2_unique_rating,833726,Ithaca,,53,,5,,,,,,,,,,,,,,,
null,,confidence_buffer,833828,confidence_buffer,,null,,,,,,,,,,,,,,,,,
2136.7999999523163,,pt2_memorable_rating,835966,Ithaca,,53,,5,,,,,,,,,,,,,,,
null,,confidence_buffer,836068,confidence_buffer,,null,,,,,,,,,,,,,,,,,
3312.5,,recognition_phase,839382,Ithaca,,49,,,,,old,1,1,,,,,,,,,,
null,,confidence_buffer,839484,confidence_buffer,,null,,,,,,,,,,,,,,,,,
null,,thebreak,839986,break,,null,,,,,,,,,,,,,,,,,
6594.600000023842,,realistic_rating,846582,Syracuse,,53,Syracuse,5,,,,,,,,,,,,,,,
null,,confidence_buffer,846684,confidence_buffer,,null,,,,,,,,,,,,,,,,,
2408.2999999523163,,pt2_unique_rating,849094,Syracuse,,51,,3,,,,,,,,,,,,,,,
null,,confidence_buffer,849195,confidence_buffer,,null,,,,,,,,,,,,,,,,,
1641.8000000715256,,pt2_memorable_rating,850838,Syracuse,,53,,5,,,,,,,,,,,,,,,
null,,confidence_buffer,850940,confidence_buffer,,null,,,,,,,,,,,,,,,,,
2256.3000000715256,,recognition_phase,853198,Syracuse,,49,,,,,old,1,1,,,,,,,,,,
null,,confidence_buffer,853299,confidence_buffer,,null,,,,,,,,,,,,,,,,,
null,,thebreak,853801,break,,null,,,,,,,,,,,,,,,,,
2548,,realistic_rating,856350,Helena,,53,Helena,5,,,,,,,,,,,,,,,
null,,confidence_buffer,856452,confidence_buffer,,null,,,,,,,,,,,,,,,,,
2417.1999999284744,,pt2_unique_rating,858870,Helena,,51,,3,,,,,,,,,,,,,,,
null,,confidence_buffer,858971,confidence_buffer,,null,,,,,,,,,,,,,,,,,
1489,,pt2_memorable_rating,860462,Helena,,53,,5,,,,,,,,,,,,,,,
null,,confidence_buffer,860564,confidence_buffer,,null,,,,,,,,,,,,,,,,,
2384.8000000715256,,recognition_phase,862950,Helena,,52,,,,,new,1,1,,,,,,,,,,
null,,confidence_buffer,863052,confidence_buffer,,null,,,,,,,,,,,,,,,,,
null,,thebreak,863554,break,,null,,,,,,,,,,,,,,,,,
2282,,realistic_rating,865838,Marquette,,53,Marquette,5,,,,,,,,,,,,,,,
null,,confidence_buffer,865939,confidence_buffer,,null,,,,,,,,,,,,,,,,,
2384.7999999523163,,pt2_unique_rating,868325,Marquette,,52,,4,,,,,,,,,,,,,,,
null,,confidence_buffer,868427,confidence_buffer,,null,,,,,,,,,,,,,,,,,
1473.8000000715256,,pt2_memorable_rating,869902,Marquette,,53,,5,,,,,,,,,,,,,,,
null,,confidence_buffer,870004,confidence_buffer,,null,,,,,,,,,,,,,,,,,
2504,,recognition_phase,872509,Marquette,,52,,,,,new,1,1,,,,,,,,,,
null,,confidence_buffer,872611,confidence_buffer,,null,,,,,,,,,,,,,,,,,
null,,thebreak,873112,break,,null,,,,,,,,,,,,,,,,,
2604.100000023842,,realistic_rating,875717,McKinney,,53,McKinney,5,,,,,,,,,,,,,,,
null,,confidence_buffer,875822,confidence_buffer,,null,,,,,,,,,,,,,,,,,
1957.7999999523163,,probe_rating,877781,probe_rating,,51,,,3,1,,,,,,,,,,,,,
null,,confidence_buffer,877883,confidence_buffer,,null,,,,,,,,,,,,,,,,,
4497.200000047684,,pt2_unique_rating,882382,McKinney,,50,,2,,,,,,,,,,,,,,,
null,,confidence_buffer,882484,confidence_buffer,,null,,,,,,,,,,,,,,,,,
4968,,pt2_memorable_rating,887453,McKinney,,53,,5,,,,,,,,,,,,,,,
null,,confidence_buffer,887555,confidence_buffer,,null,,,,,,,,,,,,,,,,,
11496.899999976158,,recognition_phase,899054,McKinney,,51,,,,,new,0,0.96,,,,,,,,,,
null,,confidence_buffer,899155,confidence_buffer,,null,,,,,,,,,,,,,,,,,
null,,thebreak,899656,break,,null,,,,,,,,,,,,,,,,,
2715.5999999046326,,realistic_rating,902373,Terre Haute,,53,Terre Haute,5,,,,,,,,,,,,,,,
null,,confidence_buffer,902475,confidence_buffer,,null,,,,,,,,,,,,,,,,,
2104.399999976158,,pt2_unique_rating,904581,Terre Haute,,53,,5,,,,,,,,,,,,,,,
null,,confidence_buffer,904683,confidence_buffer,,null,,,,,,,,,,,,,,,,,
1538.1000000238419,,pt2_memorable_rating,906228,Terre Haute,,53,,5,,,,,,,,,,,,,,,
null,,confidence_buffer,906343,confidence_buffer,,null,,,,,,,,,,,,,,,,,
2701.5,,recognition_phase,909045,Terre Haute,,49,,,,,old,1,0.9615384615384616,,,,,,,,,,
null,,confidence_buffer,909147,confidence_buffer,,null,,,,,,,,,,,,,,,,,
null,,thebreak,909648,break,,null,,,,,,,,,,,,,,,,,
7964.200000047684,,realistic_rating,917613,Fort Collins,,53,Fort Collins,5,,,,,,,,,,,,,,,
null,,confidence_buffer,917716,confidence_buffer,,null,,,,,,,,,,,,,,,,,
8192.5,,pt2_unique_rating,925909,Fort Collins,,51,,3,,,,,,,,,,,,,,,
null,,confidence_buffer,926011,confidence_buffer,,null,,,,,,,,,,,,,,,,,
3888.7999999523163,,pt2_memorable_rating,929901,Fort Collins,,53,,5,,,,,,,,,,,,,,,
null,,confidence_buffer,930004,confidence_buffer,,null,,,,,,,,,,,,,,,,,
11607.400000095367,,recognition_phase,941613,Fort Collins,,51,,,,,new,0,0.9259259259259259,,,,,,,,,,
null,,confidence_buffer,941715,confidence_buffer,,null,,,,,,,,,,,,,,,,,
null,,thebreak,942216,break,,null,,,,,,,,,,,,,,,,,
5299.099999904633,,realistic_rating,947516,Salem,,53,Salem,5,,,,,,,,,,,,,,,
null,,confidence_buffer,947618,confidence_buffer,,null,,,,,,,,,,,,,,,,,
1713.2000000476837,,probe_rating,949332,probe_rating,,50,,,2,1,,,,,,,,,,,,,
null,,confidence_buffer,949434,confidence_buffer,,null,,,,,,,,,,,,,,,,,
217.39999997615814,,pt2_unique_rating,949653,Salem,,50,,2,,,,,,,,,,,,,,,
null,,confidence_buffer,949754,confidence_buffer,,null,,,,,,,,,,,,,,,,,
6209.600000023842,,pt2_memorable_rating,955965,Salem,,53,,5,,,,,,,,,,,,,,,
null,,confidence_buffer,956067,confidence_buffer,,null,,,,,,,,,,,,,,,,,
3121,,recognition_phase,959189,Salem,,49,,,,,old,1,0.9285714285714286,,,,,,,,,,
null,,confidence_buffer,959291,confidence_buffer,,null,,,,,,,,,,,,,,,,,
null,,thebreak,959792,break,,null,,,,,,,,,,,,,,,,,
2827.5,,realistic_rating,962620,Youngstown,,53,Youngstown,5,,,,,,,,,,,,,,,
null,,confidence_buffer,962722,confidence_buffer,,null,,,,,,,,,,,,,,,,,
2209.1999999284744,,pt2_unique_rating,964932,Youngstown,,51,,3,,,,,,,,,,,,,,,
null,,confidence_buffer,965035,confidence_buffer,,null,,,,,,,,,,,,,,,,,
1496.4000000953674,,pt2_memorable_rating,966533,Youngstown,,53,,5,,,,,,,,,,,,,,,
null,,confidence_buffer,966635,confidence_buffer,,null,,,,,,,,,,,,,,,,,
1824.6000000238419,,recognition_phase,968460,Youngstown,,49,,,,,old,1,0.9310344827586207,,,,,,,,,,
null,,confidence_buffer,968562,confidence_buffer,,null,,,,,,,,,,,,,,,,,
null,,thebreak,969065,break,,null,,,,,,,,,,,,,,,,,
2924.600000023842,,realistic_rating,971990,Bozeman,,53,Bozeman,5,,,,,,,,,,,,,,,
null,,confidence_buffer,972092,confidence_buffer,,null,,,,,,,,,,,,,,,,,
2903.3000000715256,,pt2_unique_rating,974996,Bozeman,,51,,3,,,,,,,,,,,,,,,
null,,confidence_buffer,975098,confidence_buffer,,null,,,,,,,,,,,,,,,,,
2921.5,,pt2_memorable_rating,978021,Bozeman,,53,,5,,,,,,,,,,,,,,,
null,,confidence_buffer,978123,confidence_buffer,,null,,,,,,,,,,,,,,,,,
3183.600000023842,,recognition_phase,981308,Bozeman,,52,,,,,new,1,0.9333333333333333,,,,,,,,,,
null,,confidence_buffer,981410,confidence_buffer,,null,,,,,,,,,,,,,,,,,
null,,thebreak,981912,break,,null,,,,,,,,,,,,,,,,,
2563.2000000476837,,realistic_rating,984476,Abilene,,53,Abilene,5,,,,,,,,,,,,,,,
null,,confidence_buffer,984577,confidence_buffer,,null,,,,,,,,,,,,,,,,,
2737.7000000476837,,pt2_unique_rating,987316,Abilene,,51,,3,,,,,,,,,,,,,,,
null,,confidence_buffer,987418,confidence_buffer,,null,,,,,,,,,,,,,,,,,
1744.8999999761581,,pt2_memorable_rating,989164,Abilene,,53,,5,,,,,,,,,,,,,,,
null,,confidence_buffer,989266,confidence_buffer,,null,,,,,,,,,,,,,,,,,
5857.199999928474,,recognition_phase,995124,Abilene,,52,,,,,new,0,0.9032258064516129,,,,,,,,,,
null,,confidence_buffer,995226,confidence_buffer,,null,,,,,,,,,,,,,,,,,
null,,thebreak,995727,break,,null,,,,,,,,,,,,,,,,,
2075.899999976158,,realistic_rating,997804,Boulder,,53,Boulder,5,,,,,,,,,,,,,,,
null,,confidence_buffer,997906,confidence_buffer,,null,,,,,,,,,,,,,,,,,
2913.3000000715256,,pt2_unique_rating,1000820,Boulder,,50,,2,,,,,,,,,,,,,,,
null,,confidence_buffer,1000922,confidence_buffer,,null,,,,,,,,,,,,,,,,,
1776.7000000476837,,pt2_memorable_rating,1002700,Boulder,,53,,5,,,,,,,,,,,,,,,
null,,confidence_buffer,1002801,confidence_buffer,,null,,,,,,,,,,,,,,,,,
1817.2000000476837,,probe_rating,1004620,probe_rating,,52,,,4,1,,,,,,,,,,,,,
null,,confidence_buffer,1004721,confidence_buffer,,null,,,,,,,,,,,,,,,,,
3433.5,,recognition_phase,1008156,Boulder,,52,,,,,new,1,0.90625,,,,,,,,,,
null,,confidence_buffer,1008257,confidence_buffer,,null,,,,,,,,,,,,,,,,,
null,,thebreak,1008758,break,,null,,,,,,,,,,,,,,,,,
8036.299999952316,,realistic_rating,1016796,Altoona,,53,Altoona,5,,,,,,,,,,,,,,,
null,,confidence_buffer,1016897,confidence_buffer,,null,,,,,,,,,,,,,,,,,
3505.2000000476837,,pt2_unique_rating,1020404,Altoona,,53,,5,,,,,,,,,,,,,,,
null,,confidence_buffer,1020506,confidence_buffer,,null,,,,,,,,,,,,,,,,,
1697.1999999284744,,pt2_memorable_rating,1022204,Altoona,,53,,5,,,,,,,,,,,,,,,
null,,confidence_buffer,1022306,confidence_buffer,,null,,,,,,,,,,,,,,,,,
2560.600000023842,,recognition_phase,1024868,Altoona,,52,,,,,new,1,0.9090909090909091,,,,,,,,,,
null,,confidence_buffer,1024969,confidence_buffer,,null,,,,,,,,,,,,,,,,,
null,,thebreak,1025471,break,,null,,,,,,,,,,,,,,,,,
4043.8000000715256,,realistic_rating,1029516,New Haven,,53,New Haven,5,,,,,,,,,,,,,,,
null,,confidence_buffer,1029618,confidence_buffer,,null,,,,,,,,,,,,,,,,,
2040.1999999284744,,pt2_unique_rating,1031659,New Haven,,51,,3,,,,,,,,,,,,,,,
null,,confidence_buffer,1031761,confidence_buffer,,null,,,,,,,,,,,,,,,,,
2552.7999999523163,,pt2_memorable_rating,1034315,New Haven,,53,,5,,,,,,,,,,,,,,,
null,,confidence_buffer,1034416,confidence_buffer,,null,,,,,,,,,,,,,,,,,
2425.899999976158,,recognition_phase,1036843,New Haven,,49,,,,,old,1,0.9117647058823529,,,,,,,,,,
null,,confidence_buffer,1036945,confidence_buffer,,null,,,,,,,,,,,,,,,,,
null,,thebreak,1037446,break,,null,,,,,,,,,,,,,,,,,
1955.7999999523163,,realistic_rating,1039403,Ann Arbor,,53,Ann Arbor,5,,,,,,,,,,,,,,,
null,,confidence_buffer,1039505,confidence_buffer,,null,,,,,,,,,,,,,,,,,
2153.600000023842,,pt2_unique_rating,1041660,Ann Arbor,,51,,3,,,,,,,,,,,,,,,
null,,confidence_buffer,1041761,confidence_buffer,,null,,,,,,,,,,,,,,,,,
1536.7000000476837,,pt2_memorable_rating,1043299,Ann Arbor,,53,,5,,,,,,,,,,,,,,,
null,,confidence_buffer,1043400,confidence_buffer,,null,,,,,,,,,,,,,,,,,
1897.8999999761581,,recognition_phase,1045299,Ann Arbor,,49,,,,,old,1,0.9142857142857143,,,,,,,,,,
null,,confidence_buffer,1045405,confidence_buffer,,null,,,,,,,,,,,,,,,,,
null,,thebreak,1045910,break,,null,,,,,,,,,,,,,,,,,
2484.0999999046326,,realistic_rating,1048395,Annapolis,,53,Annapolis,5,,,,,,,,,,,,,,,
null,,confidence_buffer,1048497,confidence_buffer,,null,,,,,,,,,,,,,,,,,
3985.399999976158,,pt2_unique_rating,1052484,Annapolis,,51,,3,,,,,,,,,,,,,,,
null,,confidence_buffer,1052585,confidence_buffer,,null,,,,,,,,,,,,,,,,,
1665.2000000476837,,pt2_memorable_rating,1054251,Annapolis,,53,,5,,,,,,,,,,,,,,,
null,,confidence_buffer,1054354,confidence_buffer,,null,,,,,,,,,,,,,,,,,
1919.9000000953674,,recognition_phase,1056275,Annapolis,,52,,,,,new,1,0.9166666666666666,,,,,,,,,,
null,,confidence_buffer,1056377,confidence_buffer,,null,,,,,,,,,,,,,,,,,
null,,thebreak,1056879,break,,null,,,,,,,,,,,,,,,,,
4291.100000023842,,realistic_rating,1061171,Athens,,53,Athens,5,,,,,,,,,,,,,,,
null,,confidence_buffer,1061273,confidence_buffer,,null,,,,,,,,,,,,,,,,,
4385.199999928474,,pt2_unique_rating,1065659,Athens,,51,,3,,,,,,,,,,,,,,,
null,,confidence_buffer,1065761,confidence_buffer,,null,,,,,,,,,,,,,,,,,
2057,,probe_rating,1067819,probe_rating,,49,,,1,1,,,,,,,,,,,,,
null,,confidence_buffer,1067921,confidence_buffer,,null,,,,,,,,,,,,,,,,,
2377.100000023842,,pt2_memorable_rating,1070299,Athens,,53,,5,,,,,,,,,,,,,,,
null,,confidence_buffer,1070401,confidence_buffer,,null,,,,,,,,,,,,,,,,,
2520.600000023842,,recognition_phase,1072923,Athens,,52,,,,,new,1,0.918918918918919,,,,,,,,,,
null,,confidence_buffer,1073024,confidence_buffer,,null,,,,,,,,,,,,,,,,,
null,,thebreak,1073526,break,,null,,,,,,,,,,,,,,,,,
9555.600000023842,,realistic_rating,1083083,Stamford,,52,Stamford,4,,,,,,,,,,,,,,,
null,,confidence_buffer,1083185,confidence_buffer,,null,,,,,,,,,,,,,,,,,
5088.300000071526,,pt2_unique_rating,1088275,Stamford,,51,,3,,,,,,,,,,,,,,,
null,,confidence_buffer,1088378,confidence_buffer,,null,,,,,,,,,,,,,,,,,
2391.6999999284744,,pt2_memorable_rating,1090771,Stamford,,52,,4,,,,,,,,,,,,,,,
null,,confidence_buffer,1090872,confidence_buffer,,null,,,,,,,,,,,,,,,,,
4002.399999976158,,recognition_phase,1094876,Stamford,,49,,,,,old,1,0.9210526315789473,,,,,,,,,,
null,,confidence_buffer,1094977,confidence_buffer,,null,,,,,,,,,,,,,,,,,
null,,thebreak,1095481,break,,null,,,,,,,,,,,,,,,,,
3312.5,,realistic_rating,1098795,Pueblo,,53,Pueblo,5,,,,,,,,,,,,,,,
null,,confidence_buffer,1098897,confidence_buffer,,null,,,,,,,,,,,,,,,,,
2984.2000000476837,,pt2_unique_rating,1101883,Pueblo,,52,,4,,,,,,,,,,,,,,,
null,,confidence_buffer,1101985,confidence_buffer,,null,,,,,,,,,,,,,,,,,
2832.600000023842,,pt2_memorable_rating,1104819,Pueblo,,53,,5,,,,,,,,,,,,,,,
null,,confidence_buffer,1104925,confidence_buffer,,null,,,,,,,,,,,,,,,,,
2572.100000023842,,recognition_phase,1107499,Pueblo,,49,,,,,old,1,0.9230769230769231,,,,,,,,,,
null,,confidence_buffer,1107600,confidence_buffer,,null,,,,,,,,,,,,,,,,,
null,,thebreak,1108102,break,,null,,,,,,,,,,,,,,,,,
2387.100000023842,,realistic_rating,1110490,Las Cruces,,53,Las Cruces,5,,,,,,,,,,,,,,,
null,,confidence_buffer,1110592,confidence_buffer,,null,,,,,,,,,,,,,,,,,
2089.100000023842,,pt2_unique_rating,1112682,Las Cruces,,53,,5,,,,,,,,,,,,,,,
null,,confidence_buffer,1112784,confidence_buffer,,null,,,,,,,,,,,,,,,,,
1721.5,,pt2_memorable_rating,1114506,Las Cruces,,53,,5,,,,,,,,,,,,,,,
null,,confidence_buffer,1114608,confidence_buffer,,null,,,,,,,,,,,,,,,,,
2449,,recognition_phase,1117058,Las Cruces,,49,,,,,old,1,0.925,,,,,,,,,,
null,,confidence_buffer,1117160,confidence_buffer,,null,,,,,,,,,,,,,,,,,
null,,thebreak,1117661,break,,null,,,,,,,,,,,,,,,,,
1940.4000000953674,,realistic_rating,1119603,Decatur,,53,Decatur,5,,,,,,,,,,,,,,,
null,,confidence_buffer,1119704,confidence_buffer,,null,,,,,,,,,,,,,,,,,
2576.7000000476837,,pt2_unique_rating,1122282,Decatur,,51,,3,,,,,,,,,,,,,,,
null,,confidence_buffer,1122384,confidence_buffer,,null,,,,,,,,,,,,,,,,,
2304.899999976158,,pt2_memorable_rating,1124690,Decatur,,53,,5,,,,,,,,,,,,,,,
null,,confidence_buffer,1124792,confidence_buffer,,null,,,,,,,,,,,,,,,,,
1785.1999999284744,,recognition_phase,1126578,Decatur,,49,,,,,old,1,0.926829268292683,,,,,,,,,,
null,,confidence_buffer,1126688,confidence_buffer,,null,,,,,,,,,,,,,,,,,
null,,thebreak,1127190,break,,null,,,,,,,,,,,,,,,,,
2347.1999999284744,,realistic_rating,1129538,Norfolk,,53,Norfolk,5,,,,,,,,,,,,,,,
null,,confidence_buffer,1129640,confidence_buffer,,null,,,,,,,,,,,,,,,,,
1841.2999999523163,,pt2_unique_rating,1131483,Norfolk,,50,,2,,,,,,,,,,,,,,,
null,,confidence_buffer,1131585,confidence_buffer,,null,,,,,,,,,,,,,,,,,
1496,,pt2_memorable_rating,1133082,Norfolk,,53,,5,,,,,,,,,,,,,,,
null,,confidence_buffer,1133184,confidence_buffer,,null,,,,,,,,,,,,,,,,,
1496.5,,recognition_phase,1134682,Norfolk,,49,,,,,old,1,0.9285714285714286,,,,,,,,,,
null,,confidence_buffer,1134785,confidence_buffer,,null,,,,,,,,,,,,,,,,,
null,,thebreak,1135286,break,,null,,,,,,,,,,,,,,,,,
2282.7000000476837,,realistic_rating,1137570,Burlington,,53,Burlington,5,,,,,,,,,,,,,,,
null,,confidence_buffer,1137672,confidence_buffer,,null,,,,,,,,,,,,,,,,,
2433.100000023842,,pt2_unique_rating,1140106,Burlington,,50,,2,,,,,,,,,,,,,,,
null,,confidence_buffer,1140208,confidence_buffer,,null,,,,,,,,,,,,,,,,,
1625.2999999523163,,pt2_memorable_rating,1141834,Burlington,,53,,5,,,,,,,,,,,,,,,
null,,confidence_buffer,1141936,confidence_buffer,,null,,,,,,,,,,,,,,,,,
1881.2000000476837,,recognition_phase,1143818,Burlington,,52,,,,,new,1,0.9302325581395349,,,,,,,,,,
null,,confidence_buffer,1143920,confidence_buffer,,null,,,,,,,,,,,,,,,,,
null,,thebreak,1144422,break,,null,,,,,,,,,,,,,,,,,
2075.100000023842,,realistic_rating,1146498,Gainesville,,53,Gainesville,5,,,,,,,,,,,,,,,
null,,confidence_buffer,1146600,confidence_buffer,,null,,,,,,,,,,,,,,,,,
2136.7999999523163,,pt2_unique_rating,1148738,Gainesville,,51,,3,,,,,,,,,,,,,,,
null,,confidence_buffer,1148839,confidence_buffer,,null,,,,,,,,,,,,,,,,,
1593.6999999284744,,pt2_memorable_rating,1150434,Gainesville,,53,,5,,,,,,,,,,,,,,,
null,,confidence_buffer,1150535,confidence_buffer,,null,,,,,,,,,,,,,,,,,
2641.7000000476837,,recognition_phase,1153178,Gainesville,,52,,,,,new,1,0.9318181818181818,,,,,,,,,,
null,,confidence_buffer,1153279,confidence_buffer,,null,,,,,,,,,,,,,,,,,
null,,thebreak,1153782,break,,null,,,,,,,,,,,,,,,,,
2027.0999999046326,,realistic_rating,1155810,Champaign,,53,Champaign,5,,,,,,,,,,,,,,,
null,,confidence_buffer,1155912,confidence_buffer,,null,,,,,,,,,,,,,,,,,
3968.399999976158,,pt2_unique_rating,1159882,Champaign,,52,,4,,,,,,,,,,,,,,,
null,,confidence_buffer,1159984,confidence_buffer,,null,,,,,,,,,,,,,,,,,
1296.3999999761581,,pt2_memorable_rating,1161282,Champaign,,53,,5,,,,,,,,,,,,,,,
null,,confidence_buffer,1161384,confidence_buffer,,null,,,,,,,,,,,,,,,,,
2144.8000000715256,,recognition_phase,1163530,Champaign,,49,,,,,old,1,0.9333333333333333,,,,,,,,,,
null,,confidence_buffer,1163631,confidence_buffer,,null,,,,,,,,,,,,,,,,,
null,,thebreak,1164134,break,,null,,,,,,,,,,,,,,,,,
3362.7000000476837,,realistic_rating,1167498,Rock Springs,,53,Rock Springs,5,,,,,,,,,,,,,,,
null,,confidence_buffer,1167600,confidence_buffer,,null,,,,,,,,,,,,,,,,,
2617,,pt2_unique_rating,1170218,Rock Springs,,51,,3,,,,,,,,,,,,,,,
null,,confidence_buffer,1170319,confidence_buffer,,null,,,,,,,,,,,,,,,,,
1969,,pt2_memorable_rating,1172290,Rock Springs,,53,,5,,,,,,,,,,,,,,,
null,,confidence_buffer,1172391,confidence_buffer,,null,,,,,,,,,,,,,,,,,
2169.6999999284744,,recognition_phase,1174562,Rock Springs,,52,,,,,new,1,0.9347826086956522,,,,,,,,,,
null,,confidence_buffer,1174665,confidence_buffer,,null,,,,,,,,,,,,,,,,,
null,,thebreak,1175175,break,,null,,,,,,,,,,,,,,,,,
2177.100000023842,,realistic_rating,1177354,Reno,,53,Reno,5,,,,,,,,,,,,,,,
null,,confidence_buffer,1177455,confidence_buffer,,null,,,,,,,,,,,,,,,,,
3305.2000000476837,,pt2_unique_rating,1180762,Reno,,51,,3,,,,,,,,,,,,,,,
null,,confidence_buffer,1180864,confidence_buffer,,null,,,,,,,,,,,,,,,,,
2496.7000000476837,,pt2_memorable_rating,1183362,Reno,,53,,5,,,,,,,,,,,,,,,
null,,confidence_buffer,1183464,confidence_buffer,,null,,,,,,,,,,,,,,,,,
2008.3000000715256,,recognition_phase,1185474,Reno,,52,,,,,new,1,0.9361702127659575,,,,,,,,,,
null,,confidence_buffer,1185576,confidence_buffer,,null,,,,,,,,,,,,,,,,,
null,,thebreak,1186077,break,,null,,,,,,,,,,,,,,,,,
4891,,realistic_rating,1190970,Yakima,,53,Yakima,5,,,,,,,,,,,,,,,
null,,confidence_buffer,1191071,confidence_buffer,,null,,,,,,,,,,,,,,,,,
5161.600000023842,,pt2_unique_rating,1196234,Yakima,,53,,5,,,,,,,,,,,,,,,
null,,confidence_buffer,1196335,confidence_buffer,,null,,,,,,,,,,,,,,,,,
3217.0999999046326,,pt2_memorable_rating,1199553,Yakima,,53,,5,,,,,,,,,,,,,,,
null,,confidence_buffer,1199655,confidence_buffer,,null,,,,,,,,,,,,,,,,,
2769.5,,recognition_phase,1202425,Yakima,,52,,,,,new,1,0.9375,,,,,,,,,,
null,,confidence_buffer,1202527,confidence_buffer,,null,,,,,,,,,,,,,,,,,
null,,thebreak,1203028,break,,null,,,,,,,,,,,,,,,,,
3171.7999999523163,,realistic_rating,1206201,Dover,,53,Dover,5,,,,,,,,,,,,,,,
null,,confidence_buffer,1206304,confidence_buffer,,null,,,,,,,,,,,,,,,,,
1936.3999999761581,,pt2_unique_rating,1208241,Dover,,50,,2,,,,,,,,,,,,,,,
null,,confidence_buffer,1208344,confidence_buffer,,null,,,,,,,,,,,,,,,,,
1816.1000000238419,,pt2_memorable_rating,1210161,Dover,,53,,5,,,,,,,,,,,,,,,
null,,confidence_buffer,1210264,confidence_buffer,,null,,,,,,,,,,,,,,,,,
2696.399999976158,,recognition_phase,1212961,Dover,,52,,,,,new,1,0.9387755102040817,,,,,,,,,,
null,,confidence_buffer,1213064,confidence_buffer,,null,,,,,,,,,,,,,,,,,
null,,thebreak,1213565,break,,null,,,,,,,,,,,,,,,,,
3483,,realistic_rating,1217049,Concord,,53,Concord,5,,,,,,,,,,,,,,,
null,,confidence_buffer,1217151,confidence_buffer,,null,,,,,,,,,,,,,,,,,
2401.5,,pt2_unique_rating,1219553,Concord,,50,,2,,,,,,,,,,,,,,,
null,,confidence_buffer,1219655,confidence_buffer,,null,,,,,,,,,,,,,,,,,
1912,,pt2_memorable_rating,1221569,Concord,,53,,5,,,,,,,,,,,,,,,
null,,confidence_buffer,1221671,confidence_buffer,,null,,,,,,,,,,,,,,,,,
3169.100000023842,,recognition_phase,1224841,Concord,,50,,,,,old,1,0.94,,,,,,,,,,
null,,confidence_buffer,1224944,confidence_buffer,,null,,,,,,,,,,,,,,,,,
null,,thebreak,1225445,break,,null,,,,,,,,,,,,,,,,,
,,survey,1517424,survey-questions,,,,,,,,,,none,high,no,no stratagies just memory,If I remembered the name,If I remembered the name,If the name was not a ordinary name,If I ever heard the name before,no,I accidently went to fast on one of the earlier clicks and did not answer it correctly but that was thew only one.
