rt,responses,trial_type,time_elapsed,stimulus,button_pressed,key_press,name_trial,city_type,rating,probe,probe_accuracy,response,correct,accuracy,problems,smooth,distraction,strategies,familiar,memorable,unique,realistic,similar,comments
3344.699999988079,{worker_id:6673c06ef972fa4885e8ec49},id_enter,3346,,,,,,,,,,,,,,,,,,,,,
8017.299999952316,,fullscreen,11366,fullscreen,0,,,,,,,,,,,,,,,,,,,
3658.800000011921,,intro_0,15025,instruct,,32,,,,,,,,,,,,,,,,,,
5663.899999976158,,intro_1,20690,instruct,,32,,,,,,,,,,,,,,,,,,
3220.600000023842,,intro_2,23911,instruct,,32,,,,,,,,,,,,,,,,,,
null,,instruct_dir_4,25413,instruct,,null,,,,,,,,,,,,,,,,,,
null,,thebreak,25914,break,,null,,,,,,,,,,,,,,,,,,
6908.900000035763,,familiar_rating,32823,Fairhaven,,51,Fairhaven,Fictional,3,,,,,,,,,,,,,,,
null,,confidence_buffer,32926,confidence_buffer,,null,,,,,,,,,,,,,,,,,,
2436.7000000476837,,unique_rating,35363,Fairhaven,,52,,,4,,,,,,,,,,,,,,,
null,,confidence_buffer,35465,confidence_buffer,,null,,,,,,,,,,,,,,,,,,
3230.100000023842,,memorable_rating,38696,Fairhaven,,52,,,4,,,,,,,,,,,,,,,
null,,confidence_buffer,38797,confidence_buffer,,null,,,,,,,,,,,,,,,,,,
null,,thebreak,39299,break,,null,,,,,,,,,,,,,,,,,,
3546.199999988079,,familiar_rating,42845,Custer,,49,Custer,US,1,,,,,,,,,,,,,,,
null,,confidence_buffer,42947,confidence_buffer,,null,,,,,,,,,,,,,,,,,,
2158.600000023842,,unique_rating,45106,Custer,,53,,,5,,,,,,,,,,,,,,,
null,,confidence_buffer,45208,confidence_buffer,,null,,,,,,,,,,,,,,,,,,
1222.6000000238419,,memorable_rating,46431,Custer,,53,,,5,,,,,,,,,,,,,,,
null,,confidence_buffer,46532,confidence_buffer,,null,,,,,,,,,,,,,,,,,,
null,,thebreak,47034,break,,null,,,,,,,,,,,,,,,,,,
2805.600000023842,,familiar_rating,49840,Yukon,,51,Yukon,US,3,,,,,,,,,,,,,,,
null,,confidence_buffer,49942,confidence_buffer,,null,,,,,,,,,,,,,,,,,,
1950.9000000357628,,unique_rating,51894,Yukon,,50,,,2,,,,,,,,,,,,,,,
null,,confidence_buffer,51996,confidence_buffer,,null,,,,,,,,,,,,,,,,,,
1526.5,,memorable_rating,53523,Yukon,,50,,,2,,,,,,,,,,,,,,,
null,,confidence_buffer,53624,confidence_buffer,,null,,,,,,,,,,,,,,,,,,
null,,thebreak,54126,break,,null,,,,,,,,,,,,,,,,,,
4635.600000023842,,familiar_rating,58762,Pine Hollow,,49,Pine Hollow,Fictional,1,,,,,,,,,,,,,,,
null,,confidence_buffer,58864,confidence_buffer,,null,,,,,,,,,,,,,,,,,,
2656.7000000476837,,unique_rating,61522,Pine Hollow,,49,,,1,,,,,,,,,,,,,,,
null,,confidence_buffer,61624,confidence_buffer,,null,,,,,,,,,,,,,,,,,,
2254.600000023842,,memorable_rating,63879,Pine Hollow,,50,,,2,,,,,,,,,,,,,,,
null,,confidence_buffer,63981,confidence_buffer,,null,,,,,,,,,,,,,,,,,,
null,,thebreak,64482,break,,null,,,,,,,,,,,,,,,,,,
3049.699999988079,,familiar_rating,67533,Lake of the Ozarks,,49,Lake of the Ozarks,US,1,,,,,,,,,,,,,,,
null,,confidence_buffer,67634,confidence_buffer,,null,,,,,,,,,,,,,,,,,,
1620.3999999761581,,unique_rating,69255,Lake of the Ozarks,,53,,,5,,,,,,,,,,,,,,,
null,,confidence_buffer,69356,confidence_buffer,,null,,,,,,,,,,,,,,,,,,
1337.2000000476837,,memorable_rating,70694,Lake of the Ozarks,,52,,,4,,,,,,,,,,,,,,,
null,,confidence_buffer,70796,confidence_buffer,,null,,,,,,,,,,,,,,,,,,
null,,thebreak,71297,break,,null,,,,,,,,,,,,,,,,,,
4695.800000011921,,familiar_rating,75993,Lakehaven,,51,Lakehaven,Fictional,3,,,,,,,,,,,,,,,
null,,confidence_buffer,76095,confidence_buffer,,null,,,,,,,,,,,,,,,,,,
809.6999999880791,,unique_rating,76905,Lakehaven,,50,,,2,,,,,,,,,,,,,,,
null,,confidence_buffer,77007,confidence_buffer,,null,,,,,,,,,,,,,,,,,,
1060.300000011921,,memorable_rating,78068,Lakehaven,,49,,,1,,,,,,,,,,,,,,,
null,,confidence_buffer,78170,confidence_buffer,,null,,,,,,,,,,,,,,,,,,
null,,thebreak,78671,break,,null,,,,,,,,,,,,,,,,,,
3078.699999988079,,familiar_rating,81751,Cleveland,,52,Cleveland,US,4,,,,,,,,,,,,,,,
null,,confidence_buffer,81853,confidence_buffer,,null,,,,,,,,,,,,,,,,,,
2351.600000023842,,unique_rating,84205,Cleveland,,49,,,1,,,,,,,,,,,,,,,
null,,confidence_buffer,84306,confidence_buffer,,null,,,,,,,,,,,,,,,,,,
989.3000000119209,,memorable_rating,85296,Cleveland,,49,,,1,,,,,,,,,,,,,,,
null,,confidence_buffer,85398,confidence_buffer,,null,,,,,,,,,,,,,,,,,,
null,,thebreak,85900,break,,null,,,,,,,,,,,,,,,,,,
5583.300000011921,,familiar_rating,91484,Shreveport,,50,Shreveport,US,2,,,,,,,,,,,,,,,
null,,confidence_buffer,91586,confidence_buffer,,null,,,,,,,,,,,,,,,,,,
1179.800000011921,,unique_rating,92766,Shreveport,,52,,,4,,,,,,,,,,,,,,,
null,,confidence_buffer,92867,confidence_buffer,,null,,,,,,,,,,,,,,,,,,
848.1999999880791,,memorable_rating,93716,Shreveport,,50,,,2,,,,,,,,,,,,,,,
null,,confidence_buffer,93818,confidence_buffer,,null,,,,,,,,,,,,,,,,,,
null,,thebreak,94320,break,,null,,,,,,,,,,,,,,,,,,
4051,,familiar_rating,98371,Ravenport,,51,Ravenport,Fictional,3,,,,,,,,,,,,,,,
null,,confidence_buffer,98472,confidence_buffer,,null,,,,,,,,,,,,,,,,,,
1361.1000000238419,,unique_rating,99834,Ravenport,,50,,,2,,,,,,,,,,,,,,,
null,,confidence_buffer,99936,confidence_buffer,,null,,,,,,,,,,,,,,,,,,
616.1999999880791,,memorable_rating,100552,Ravenport,,50,,,2,,,,,,,,,,,,,,,
null,,confidence_buffer,100654,confidence_buffer,,null,,,,,,,,,,,,,,,,,,
null,,thebreak,101155,break,,null,,,,,,,,,,,,,,,,,,
3216,,familiar_rating,104372,Albuquerque,,53,Albuquerque,US,5,,,,,,,,,,,,,,,
null,,confidence_buffer,104473,confidence_buffer,,null,,,,,,,,,,,,,,,,,,
1196.5,,unique_rating,105670,Albuquerque,,52,,,4,,,,,,,,,,,,,,,
null,,confidence_buffer,105772,confidence_buffer,,null,,,,,,,,,,,,,,,,,,
2220.699999988079,,memorable_rating,107993,Albuquerque,,53,,,5,,,,,,,,,,,,,,,
null,,confidence_buffer,108095,confidence_buffer,,null,,,,,,,,,,,,,,,,,,
null,,thebreak,108596,break,,null,,,,,,,,,,,,,,,,,,
2527.100000023842,,familiar_rating,111124,Bar Harbor,,50,Bar Harbor,US,2,,,,,,,,,,,,,,,
null,,confidence_buffer,111226,confidence_buffer,,null,,,,,,,,,,,,,,,,,,
1943.5,,unique_rating,113170,Bar Harbor,,50,,,2,,,,,,,,,,,,,,,
null,,confidence_buffer,113272,confidence_buffer,,null,,,,,,,,,,,,,,,,,,
1641.1000000238419,,memorable_rating,114913,Bar Harbor,,50,,,2,,,,,,,,,,,,,,,
null,,confidence_buffer,115015,confidence_buffer,,null,,,,,,,,,,,,,,,,,,
null,,thebreak,115517,break,,null,,,,,,,,,,,,,,,,,,
2017.4000000357628,,familiar_rating,117535,Alliance,,49,Alliance,US,1,,,,,,,,,,,,,,,
null,,confidence_buffer,117637,confidence_buffer,,null,,,,,,,,,,,,,,,,,,
1700.199999988079,,unique_rating,119338,Alliance,,49,,,1,,,,,,,,,,,,,,,
null,,confidence_buffer,119439,confidence_buffer,,null,,,,,,,,,,,,,,,,,,
1522.1000000238419,,memorable_rating,120962,Alliance,,49,,,1,,,,,,,,,,,,,,,
null,,confidence_buffer,121064,confidence_buffer,,null,,,,,,,,,,,,,,,,,,
null,,thebreak,121566,break,,null,,,,,,,,,,,,,,,,,,
2747.399999976158,,familiar_rating,124314,Golden Trace,,49,Golden Trace,Fictional,1,,,,,,,,,,,,,,,
null,,confidence_buffer,124416,confidence_buffer,,null,,,,,,,,,,,,,,,,,,
565.2999999523163,,unique_rating,124982,Golden Trace,,52,,,4,,,,,,,,,,,,,,,
null,,confidence_buffer,125083,confidence_buffer,,null,,,,,,,,,,,,,,,,,,
1492.5999999642372,,memorable_rating,126576,Golden Trace,,52,,,4,,,,,,,,,,,,,,,
null,,confidence_buffer,126678,confidence_buffer,,null,,,,,,,,,,,,,,,,,,
null,,thebreak,127180,break,,null,,,,,,,,,,,,,,,,,,
2152.900000035763,,familiar_rating,129333,Falconridge,,50,Falconridge,Fictional,2,,,,,,,,,,,,,,,
null,,confidence_buffer,129435,confidence_buffer,,null,,,,,,,,,,,,,,,,,,
1287.3999999761581,,unique_rating,130723,Falconridge,,52,,,4,,,,,,,,,,,,,,,
null,,confidence_buffer,130825,confidence_buffer,,null,,,,,,,,,,,,,,,,,,
1070.7000000476837,,memorable_rating,131896,Falconridge,,50,,,2,,,,,,,,,,,,,,,
null,,confidence_buffer,131998,confidence_buffer,,null,,,,,,,,,,,,,,,,,,
null,,thebreak,132499,break,,null,,,,,,,,,,,,,,,,,,
3228.100000023842,,familiar_rating,135728,Hawthorne Bluffs,,50,Hawthorne Bluffs,Fictional,2,,,,,,,,,,,,,,,
null,,confidence_buffer,135830,confidence_buffer,,null,,,,,,,,,,,,,,,,,,
2927.899999976158,,unique_rating,138758,Hawthorne Bluffs,,53,,,5,,,,,,,,,,,,,,,
null,,confidence_buffer,138859,confidence_buffer,,null,,,,,,,,,,,,,,,,,,
928.3000000119209,,memorable_rating,139788,Hawthorne Bluffs,,50,,,2,,,,,,,,,,,,,,,
null,,confidence_buffer,139890,confidence_buffer,,null,,,,,,,,,,,,,,,,,,
2396.300000011921,,probe_rating,142286,probe_rating,,52,,,,4,1,,,,,,,,,,,,,
null,,confidence_buffer,142388,confidence_buffer,,null,,,,,,,,,,,,,,,,,,
null,,thebreak,142890,break,,null,,,,,,,,,,,,,,,,,,
3171.800000011921,,familiar_rating,146062,Hollendale,,51,Hollendale,Fictional,3,,,,,,,,,,,,,,,
null,,confidence_buffer,146164,confidence_buffer,,null,,,,,,,,,,,,,,,,,,
1026.2000000476837,,unique_rating,147191,Hollendale,,50,,,2,,,,,,,,,,,,,,,
null,,confidence_buffer,147293,confidence_buffer,,null,,,,,,,,,,,,,,,,,,
867.3000000119209,,memorable_rating,148161,Hollendale,,50,,,2,,,,,,,,,,,,,,,
null,,confidence_buffer,148262,confidence_buffer,,null,,,,,,,,,,,,,,,,,,
1346.3999999761581,,probe_rating,149609,probe_rating,,49,,,,1,1,,,,,,,,,,,,,
null,,confidence_buffer,149711,confidence_buffer,,null,,,,,,,,,,,,,,,,,,
null,,thebreak,150213,break,,null,,,,,,,,,,,,,,,,,,
9976.199999988079,,familiar_rating,160190,Sitka,,49,Sitka,US,1,,,,,,,,,,,,,,,
null,,confidence_buffer,160292,confidence_buffer,,null,,,,,,,,,,,,,,,,,,
1442.800000011921,,unique_rating,161735,Sitka,,52,,,4,,,,,,,,,,,,,,,
null,,confidence_buffer,161837,confidence_buffer,,null,,,,,,,,,,,,,,,,,,
759.8999999761581,,memorable_rating,162597,Sitka,,53,,,5,,,,,,,,,,,,,,,
null,,confidence_buffer,162700,confidence_buffer,,null,,,,,,,,,,,,,,,,,,
null,,thebreak,163201,break,,null,,,,,,,,,,,,,,,,,,
2692.699999988079,,familiar_rating,165894,Hot Springs,,51,Hot Springs,US,3,,,,,,,,,,,,,,,
null,,confidence_buffer,165996,confidence_buffer,,null,,,,,,,,,,,,,,,,,,
644.2000000476837,,unique_rating,166641,Hot Springs,,49,,,1,,,,,,,,,,,,,,,
null,,confidence_buffer,166743,confidence_buffer,,null,,,,,,,,,,,,,,,,,,
538.4000000357628,,memorable_rating,167282,Hot Springs,,49,,,1,,,,,,,,,,,,,,,
null,,confidence_buffer,167383,confidence_buffer,,null,,,,,,,,,,,,,,,,,,
null,,thebreak,167885,break,,null,,,,,,,,,,,,,,,,,,
1773.0999999642372,,familiar_rating,169658,Oakridge,,52,Oakridge,Fictional,4,,,,,,,,,,,,,,,
null,,confidence_buffer,169761,confidence_buffer,,null,,,,,,,,,,,,,,,,,,
1258.5999999642372,,unique_rating,171020,Oakridge,,49,,,1,,,,,,,,,,,,,,,
null,,confidence_buffer,171122,confidence_buffer,,null,,,,,,,,,,,,,,,,,,
593.5,,memorable_rating,171716,Oakridge,,49,,,1,,,,,,,,,,,,,,,
null,,confidence_buffer,171818,confidence_buffer,,null,,,,,,,,,,,,,,,,,,
null,,thebreak,172320,break,,null,,,,,,,,,,,,,,,,,,
2055.300000011921,,familiar_rating,174376,Cody,,49,Cody,US,1,,,,,,,,,,,,,,,
null,,confidence_buffer,174477,confidence_buffer,,null,,,,,,,,,,,,,,,,,,
1234.300000011921,,unique_rating,175712,Cody,,50,,,2,,,,,,,,,,,,,,,
null,,confidence_buffer,175814,confidence_buffer,,null,,,,,,,,,,,,,,,,,,
1005.1000000238419,,memorable_rating,176819,Cody,,49,,,1,,,,,,,,,,,,,,,
null,,confidence_buffer,176921,confidence_buffer,,null,,,,,,,,,,,,,,,,,,
null,,thebreak,177422,break,,null,,,,,,,,,,,,,,,,,,
2624.899999976158,,familiar_rating,180048,Juniper Creek,,49,Juniper Creek,Fictional,1,,,,,,,,,,,,,,,
null,,confidence_buffer,180150,confidence_buffer,,null,,,,,,,,,,,,,,,,,,
2522.899999976158,,unique_rating,182673,Juniper Creek,,50,,,2,,,,,,,,,,,,,,,
null,,confidence_buffer,182775,confidence_buffer,,null,,,,,,,,,,,,,,,,,,
2470.199999988079,,memorable_rating,185246,Juniper Creek,,51,,,3,,,,,,,,,,,,,,,
null,,confidence_buffer,185347,confidence_buffer,,null,,,,,,,,,,,,,,,,,,
null,,thebreak,185849,break,,null,,,,,,,,,,,,,,,,,,
1916.699999988079,,familiar_rating,187766,San Antonio,,53,San Antonio,US,5,,,,,,,,,,,,,,,
null,,confidence_buffer,187867,confidence_buffer,,null,,,,,,,,,,,,,,,,,,
2260.7000000476837,,unique_rating,190129,San Antonio,,50,,,2,,,,,,,,,,,,,,,
null,,confidence_buffer,190230,confidence_buffer,,null,,,,,,,,,,,,,,,,,,
1281.3999999761581,,memorable_rating,191512,San Antonio,,52,,,4,,,,,,,,,,,,,,,
null,,confidence_buffer,191613,confidence_buffer,,null,,,,,,,,,,,,,,,,,,
1257,,probe_rating,192871,probe_rating,,49,,,,1,1,,,,,,,,,,,,,
null,,confidence_buffer,192973,confidence_buffer,,null,,,,,,,,,,,,,,,,,,
null,,thebreak,193474,break,,null,,,,,,,,,,,,,,,,,,
2411.400000035763,,familiar_rating,195886,Rosehollow,,49,Rosehollow,Fictional,1,,,,,,,,,,,,,,,
null,,confidence_buffer,195988,confidence_buffer,,null,,,,,,,,,,,,,,,,,,
1734.8999999761581,,unique_rating,197723,Rosehollow,,51,,,3,,,,,,,,,,,,,,,
null,,confidence_buffer,197825,confidence_buffer,,null,,,,,,,,,,,,,,,,,,
1048.8999999761581,,memorable_rating,198874,Rosehollow,,50,,,2,,,,,,,,,,,,,,,
null,,confidence_buffer,198976,confidence_buffer,,null,,,,,,,,,,,,,,,,,,
null,,thebreak,199477,break,,null,,,,,,,,,,,,,,,,,,
3149.300000011921,,familiar_rating,202627,Bowling Green,,49,Bowling Green,US,1,,,,,,,,,,,,,,,
null,,confidence_buffer,202729,confidence_buffer,,null,,,,,,,,,,,,,,,,,,
1496.8999999761581,,unique_rating,204226,Bowling Green,,52,,,4,,,,,,,,,,,,,,,
null,,confidence_buffer,204327,confidence_buffer,,null,,,,,,,,,,,,,,,,,,
1615.1000000238419,,memorable_rating,205943,Bowling Green,,53,,,5,,,,,,,,,,,,,,,
null,,confidence_buffer,206045,confidence_buffer,,null,,,,,,,,,,,,,,,,,,
null,,thebreak,206546,break,,null,,,,,,,,,,,,,,,,,,
1987.3999999761581,,familiar_rating,208534,Boulder,,49,Boulder,US,1,,,,,,,,,,,,,,,
null,,confidence_buffer,208636,confidence_buffer,,null,,,,,,,,,,,,,,,,,,
1616.5,,unique_rating,210253,Boulder,,51,,,3,,,,,,,,,,,,,,,
null,,confidence_buffer,210354,confidence_buffer,,null,,,,,,,,,,,,,,,,,,
1451.9000000357628,,memorable_rating,211807,Boulder,,50,,,2,,,,,,,,,,,,,,,
null,,confidence_buffer,211908,confidence_buffer,,null,,,,,,,,,,,,,,,,,,
null,,thebreak,212410,break,,null,,,,,,,,,,,,,,,,,,
3342,,familiar_rating,215752,Gloucester,,50,Gloucester,US,2,,,,,,,,,,,,,,,
null,,confidence_buffer,215855,confidence_buffer,,null,,,,,,,,,,,,,,,,,,
1174.5999999642372,,unique_rating,217030,Gloucester,,53,,,5,,,,,,,,,,,,,,,
null,,confidence_buffer,217131,confidence_buffer,,null,,,,,,,,,,,,,,,,,,
951.7999999523163,,memorable_rating,218083,Gloucester,,52,,,4,,,,,,,,,,,,,,,
null,,confidence_buffer,218185,confidence_buffer,,null,,,,,,,,,,,,,,,,,,
null,,thebreak,218687,break,,null,,,,,,,,,,,,,,,,,,
2555,,familiar_rating,221242,Ironwood Heights,,51,Ironwood Heights,Fictional,3,,,,,,,,,,,,,,,
null,,confidence_buffer,221344,confidence_buffer,,null,,,,,,,,,,,,,,,,,,
769.7000000476837,,unique_rating,222114,Ironwood Heights,,50,,,2,,,,,,,,,,,,,,,
null,,confidence_buffer,222216,confidence_buffer,,null,,,,,,,,,,,,,,,,,,
1841.8999999761581,,memorable_rating,224058,Ironwood Heights,,50,,,2,,,,,,,,,,,,,,,
null,,confidence_buffer,224159,confidence_buffer,,null,,,,,,,,,,,,,,,,,,
null,,thebreak,224661,break,,null,,,,,,,,,,,,,,,,,,
1968.199999988079,,familiar_rating,226630,Stonebrook,,53,Stonebrook,Fictional,5,,,,,,,,,,,,,,,
null,,confidence_buffer,226731,confidence_buffer,,null,,,,,,,,,,,,,,,,,,
2658.600000023842,,unique_rating,229391,Stonebrook,,50,,,2,,,,,,,,,,,,,,,
null,,confidence_buffer,229492,confidence_buffer,,null,,,,,,,,,,,,,,,,,,
965.8999999761581,,memorable_rating,230459,Stonebrook,,50,,,2,,,,,,,,,,,,,,,
null,,confidence_buffer,230560,confidence_buffer,,null,,,,,,,,,,,,,,,,,,
null,,thebreak,231062,break,,null,,,,,,,,,,,,,,,,,,
1668.5,,familiar_rating,232731,Elmsbury,,52,Elmsbury,Fictional,4,,,,,,,,,,,,,,,
null,,confidence_buffer,232833,confidence_buffer,,null,,,,,,,,,,,,,,,,,,
1966.4000000357628,,unique_rating,234800,Elmsbury,,50,,,2,,,,,,,,,,,,,,,
null,,confidence_buffer,234902,confidence_buffer,,null,,,,,,,,,,,,,,,,,,
1780,,memorable_rating,236682,Elmsbury,,49,,,1,,,,,,,,,,,,,,,
null,,confidence_buffer,236784,confidence_buffer,,null,,,,,,,,,,,,,,,,,,
null,,thebreak,237285,break,,null,,,,,,,,,,,,,,,,,,
2119,,familiar_rating,239405,Millstone,,53,Millstone,Fictional,5,,,,,,,,,,,,,,,
null,,confidence_buffer,239506,confidence_buffer,,null,,,,,,,,,,,,,,,,,,
2198,,unique_rating,241705,Millstone,,50,,,2,,,,,,,,,,,,,,,
null,,confidence_buffer,241806,confidence_buffer,,null,,,,,,,,,,,,,,,,,,
951.3000000119209,,memorable_rating,242758,Millstone,,50,,,2,,,,,,,,,,,,,,,
null,,confidence_buffer,242860,confidence_buffer,,null,,,,,,,,,,,,,,,,,,
null,,thebreak,243362,break,,null,,,,,,,,,,,,,,,,,,
3604.300000011921,,intro_0,246967,instruct,,32,,,,,,,,,,,,,,,,,,
7006,,intro_1,253973,instruct,,32,,,,,,,,,,,,,,,,,,
7904,,intro_2,261878,instruct,,32,,,,,,,,,,,,,,,,,,
null,,instruct_dir_4,263379,instruct,,null,,,,,,,,,,,,,,,,,,
10158.699999988079,,realistic_rating,273539,Hot Springs,,52,Hot Springs,US,4,,,,,,,,,,,,,,,
null,,confidence_buffer,273641,confidence_buffer,,null,,,,,,,,,,,,,,,,,,
4122.599999964237,,pt2_unique_rating,277764,Hot Springs,,49,,,1,,,,,,,,,,,,,,,
null,,confidence_buffer,277866,confidence_buffer,,null,,,,,,,,,,,,,,,,,,
2222.199999988079,,pt2_memorable_rating,280088,Hot Springs,,49,,,1,,,,,,,,,,,,,,,
null,,confidence_buffer,280191,confidence_buffer,,null,,,,,,,,,,,,,,,,,,
1472,,probe_rating,281663,probe_rating,,49,,,,1,1,,,,,,,,,,,,,
null,,confidence_buffer,281765,confidence_buffer,,null,,,,,,,,,,,,,,,,,,
6436.800000011921,,recognition_phase,288203,Hot Springs,,52,,,,,,new,0,0,,,,,,,,,,
null,,confidence_buffer,288305,confidence_buffer,,null,,,,,,,,,,,,,,,,,,
null,,thebreak,288806,break,,null,,,,,,,,,,,,,,,,,,
5670.600000023842,,realistic_rating,294478,Oakridge,,52,Oakridge,Fictional,4,,,,,,,,,,,,,,,
null,,confidence_buffer,294579,confidence_buffer,,null,,,,,,,,,,,,,,,,,,
1693.199999988079,,pt2_unique_rating,296273,Oakridge,,50,,,2,,,,,,,,,,,,,,,
null,,confidence_buffer,296374,confidence_buffer,,null,,,,,,,,,,,,,,,,,,
1334,,pt2_memorable_rating,297709,Oakridge,,50,,,2,,,,,,,,,,,,,,,
null,,confidence_buffer,297810,confidence_buffer,,null,,,,,,,,,,,,,,,,,,
2333.5,,recognition_phase,300144,Oakridge,,49,,,,,,old,1,0.5,,,,,,,,,,
null,,confidence_buffer,300246,confidence_buffer,,null,,,,,,,,,,,,,,,,,,
null,,thebreak,300748,break,,null,,,,,,,,,,,,,,,,,,
4883.799999952316,,realistic_rating,305632,Golden Trace,,50,Golden Trace,Fictional,2,,,,,,,,,,,,,,,
null,,confidence_buffer,305734,confidence_buffer,,null,,,,,,,,,,,,,,,,,,
1698.300000011921,,pt2_unique_rating,307433,Golden Trace,,52,,,4,,,,,,,,,,,,,,,
null,,confidence_buffer,307534,confidence_buffer,,null,,,,,,,,,,,,,,,,,,
1493.300000011921,,pt2_memorable_rating,309028,Golden Trace,,51,,,3,,,,,,,,,,,,,,,
null,,confidence_buffer,309130,confidence_buffer,,null,,,,,,,,,,,,,,,,,,
3501.400000035763,,recognition_phase,312632,Golden Trace,,52,,,,,,new,0,0.3333333333333333,,,,,,,,,,
null,,confidence_buffer,312733,confidence_buffer,,null,,,,,,,,,,,,,,,,,,
null,,thebreak,313235,break,,null,,,,,,,,,,,,,,,,,,
4891.599999964237,,realistic_rating,318127,Park City,,53,Park City,US,5,,,,,,,,,,,,,,,
null,,confidence_buffer,318229,confidence_buffer,,null,,,,,,,,,,,,,,,,,,
1757.8999999761581,,pt2_unique_rating,319987,Park City,,49,,,1,,,,,,,,,,,,,,,
null,,confidence_buffer,320089,confidence_buffer,,null,,,,,,,,,,,,,,,,,,
1412.5,,pt2_memorable_rating,321502,Park City,,49,,,1,,,,,,,,,,,,,,,
null,,confidence_buffer,321604,confidence_buffer,,null,,,,,,,,,,,,,,,,,,
3786,,recognition_phase,325390,Park City,,52,,,,,,new,1,0.5,,,,,,,,,,
null,,confidence_buffer,325492,confidence_buffer,,null,,,,,,,,,,,,,,,,,,
null,,thebreak,325994,break,,null,,,,,,,,,,,,,,,,,,
4428.300000011921,,realistic_rating,330423,Delaware City,,52,Delaware City,US,4,,,,,,,,,,,,,,,
null,,confidence_buffer,330525,confidence_buffer,,null,,,,,,,,,,,,,,,,,,
1613.3999999761581,,pt2_unique_rating,332139,Delaware City,,49,,,1,,,,,,,,,,,,,,,
null,,confidence_buffer,332240,confidence_buffer,,null,,,,,,,,,,,,,,,,,,
1495.800000011921,,probe_rating,333736,probe_rating,,53,,,,5,1,,,,,,,,,,,,,
null,,confidence_buffer,333838,confidence_buffer,,null,,,,,,,,,,,,,,,,,,
1711.3999999761581,,pt2_memorable_rating,335550,Delaware City,,49,,,1,,,,,,,,,,,,,,,
null,,confidence_buffer,335652,confidence_buffer,,null,,,,,,,,,,,,,,,,,,
4048,,recognition_phase,339701,Delaware City,,52,,,,,,new,1,0.6,,,,,,,,,,
null,,confidence_buffer,339802,confidence_buffer,,null,,,,,,,,,,,,,,,,,,
null,,thebreak,340304,break,,null,,,,,,,,,,,,,,,,,,
4236.400000035763,,realistic_rating,344541,Solara Glen,,51,Solara Glen,Fictional,3,,,,,,,,,,,,,,,
null,,confidence_buffer,344642,confidence_buffer,,null,,,,,,,,,,,,,,,,,,
1573.7999999523163,,probe_rating,346216,probe_rating,,51,,,,3,1,,,,,,,,,,,,,
null,,confidence_buffer,346318,confidence_buffer,,null,,,,,,,,,,,,,,,,,,
1883.5,,pt2_unique_rating,348202,Solara Glen,,52,,,4,,,,,,,,,,,,,,,
null,,confidence_buffer,348303,confidence_buffer,,null,,,,,,,,,,,,,,,,,,
1685.3999999761581,,pt2_memorable_rating,349989,Solara Glen,,52,,,4,,,,,,,,,,,,,,,
null,,confidence_buffer,350091,confidence_buffer,,null,,,,,,,,,,,,,,,,,,
2410.399999976158,,recognition_phase,352501,Solara Glen,,52,,,,,,new,1,0.6666666666666666,,,,,,,,,,
null,,confidence_buffer,352603,confidence_buffer,,null,,,,,,,,,,,,,,,,,,
null,,thebreak,353104,break,,null,,,,,,,,,,,,,,,,,,
5607.699999988079,,realistic_rating,358713,Cody,,49,Cody,US,1,,,,,,,,,,,,,,,
null,,confidence_buffer,358814,confidence_buffer,,null,,,,,,,,,,,,,,,,,,
1719.699999988079,,pt2_unique_rating,360534,Cody,,49,,,1,,,,,,,,,,,,,,,
null,,confidence_buffer,360636,confidence_buffer,,null,,,,,,,,,,,,,,,,,,
1445.8999999761581,,pt2_memorable_rating,362083,Cody,,49,,,1,,,,,,,,,,,,,,,
null,,confidence_buffer,362184,confidence_buffer,,null,,,,,,,,,,,,,,,,,,
3203.100000023842,,recognition_phase,365388,Cody,,50,,,,,,old,1,0.7142857142857143,,,,,,,,,,
null,,confidence_buffer,365489,confidence_buffer,,null,,,,,,,,,,,,,,,,,,
null,,thebreak,365991,break,,null,,,,,,,,,,,,,,,,,,
5775.699999988079,,realistic_rating,371767,Gatlinburg,,53,Gatlinburg,US,5,,,,,,,,,,,,,,,
null,,confidence_buffer,371869,confidence_buffer,,null,,,,,,,,,,,,,,,,,,
2041.199999988079,,pt2_unique_rating,373911,Gatlinburg,,52,,,4,,,,,,,,,,,,,,,
null,,confidence_buffer,374013,confidence_buffer,,null,,,,,,,,,,,,,,,,,,
4640.399999976158,,pt2_memorable_rating,378653,Gatlinburg,,52,,,4,,,,,,,,,,,,,,,
null,,confidence_buffer,378755,confidence_buffer,,null,,,,,,,,,,,,,,,,,,
10118.699999988079,,recognition_phase,388874,Gatlinburg,,52,,,,,,new,1,0.75,,,,,,,,,,
null,,confidence_buffer,388976,confidence_buffer,,null,,,,,,,,,,,,,,,,,,
null,,thebreak,389477,break,,null,,,,,,,,,,,,,,,,,,
4246.300000011921,,realistic_rating,393724,Willowford,,53,Willowford,Fictional,5,,,,,,,,,,,,,,,
null,,confidence_buffer,393826,confidence_buffer,,null,,,,,,,,,,,,,,,,,,
1577.2999999523163,,pt2_unique_rating,395403,Willowford,,51,,,3,,,,,,,,,,,,,,,
null,,confidence_buffer,395505,confidence_buffer,,null,,,,,,,,,,,,,,,,,,
1953.5,,probe_rating,397459,probe_rating,,53,,,,5,1,,,,,,,,,,,,,
null,,confidence_buffer,397561,confidence_buffer,,null,,,,,,,,,,,,,,,,,,
7087.199999988079,,pt2_memorable_rating,404648,Willowford,,50,,,2,,,,,,,,,,,,,,,
null,,confidence_buffer,404750,confidence_buffer,,null,,,,,,,,,,,,,,,,,,
1662.1000000238419,,recognition_phase,406413,Willowford,,52,,,,,,new,1,0.7777777777777778,,,,,,,,,,
null,,confidence_buffer,406515,confidence_buffer,,null,,,,,,,,,,,,,,,,,,
null,,thebreak,407016,break,,null,,,,,,,,,,,,,,,,,,
3844.399999976158,,realistic_rating,410861,Bowling Green,,50,Bowling Green,US,2,,,,,,,,,,,,,,,
null,,confidence_buffer,410963,confidence_buffer,,null,,,,,,,,,,,,,,,,,,
2266.599999964237,,pt2_unique_rating,413230,Bowling Green,,52,,,4,,,,,,,,,,,,,,,
null,,confidence_buffer,413331,confidence_buffer,,null,,,,,,,,,,,,,,,,,,
2506.100000023842,,pt2_memorable_rating,415838,Bowling Green,,53,,,5,,,,,,,,,,,,,,,
null,,confidence_buffer,415940,confidence_buffer,,null,,,,,,,,,,,,,,,,,,
2102.100000023842,,recognition_phase,418042,Bowling Green,,49,,,,,,old,1,0.8,,,,,,,,,,
null,,confidence_buffer,418144,confidence_buffer,,null,,,,,,,,,,,,,,,,,,
null,,thebreak,418645,break,,null,,,,,,,,,,,,,,,,,,
2616.900000035763,,realistic_rating,421263,Ravenport,,52,Ravenport,Fictional,4,,,,,,,,,,,,,,,
null,,confidence_buffer,421365,confidence_buffer,,null,,,,,,,,,,,,,,,,,,
1680.300000011921,,pt2_unique_rating,423046,Ravenport,,51,,,3,,,,,,,,,,,,,,,
null,,confidence_buffer,423147,confidence_buffer,,null,,,,,,,,,,,,,,,,,,
1816.800000011921,,pt2_memorable_rating,424965,Ravenport,,51,,,3,,,,,,,,,,,,,,,
null,,confidence_buffer,425066,confidence_buffer,,null,,,,,,,,,,,,,,,,,,
1927.300000011921,,recognition_phase,426994,Ravenport,,49,,,,,,old,1,0.8181818181818182,,,,,,,,,,
null,,confidence_buffer,427096,confidence_buffer,,null,,,,,,,,,,,,,,,,,,
null,,thebreak,427597,break,,null,,,,,,,,,,,,,,,,,,
2237.7000000476837,,realistic_rating,429836,Briarfield,,53,Briarfield,Fictional,5,,,,,,,,,,,,,,,
null,,confidence_buffer,429937,confidence_buffer,,null,,,,,,,,,,,,,,,,,,
1647.2999999523163,,probe_rating,431585,probe_rating,,51,,,,3,1,,,,,,,,,,,,,
null,,confidence_buffer,431686,confidence_buffer,,null,,,,,,,,,,,,,,,,,,
4186.800000011921,,pt2_unique_rating,435874,Briarfield,,50,,,2,,,,,,,,,,,,,,,
null,,confidence_buffer,435976,confidence_buffer,,null,,,,,,,,,,,,,,,,,,
1264.5,,pt2_memorable_rating,437241,Briarfield,,49,,,1,,,,,,,,,,,,,,,
null,,confidence_buffer,437343,confidence_buffer,,null,,,,,,,,,,,,,,,,,,
2161.100000023842,,recognition_phase,439505,Briarfield,,52,,,,,,new,1,0.8333333333333334,,,,,,,,,,
null,,confidence_buffer,439606,confidence_buffer,,null,,,,,,,,,,,,,,,,,,
null,,thebreak,440108,break,,null,,,,,,,,,,,,,,,,,,
3409.399999976158,,realistic_rating,443518,Custer,,51,Custer,US,3,,,,,,,,,,,,,,,
null,,confidence_buffer,443619,confidence_buffer,,null,,,,,,,,,,,,,,,,,,
1238.4000000357628,,pt2_unique_rating,444858,Custer,,50,,,2,,,,,,,,,,,,,,,
null,,confidence_buffer,444960,confidence_buffer,,null,,,,,,,,,,,,,,,,,,
1495,,pt2_memorable_rating,446455,Custer,,50,,,2,,,,,,,,,,,,,,,
null,,confidence_buffer,446557,confidence_buffer,,null,,,,,,,,,,,,,,,,,,
5633.599999964237,,recognition_phase,452191,Custer,,50,,,,,,old,1,0.8461538461538461,,,,,,,,,,
null,,confidence_buffer,452292,confidence_buffer,,null,,,,,,,,,,,,,,,,,,
null,,thebreak,452794,break,,null,,,,,,,,,,,,,,,,,,
3158.300000011921,,realistic_rating,455953,Tamarisk Hills,,51,Tamarisk Hills,Fictional,3,,,,,,,,,,,,,,,
null,,confidence_buffer,456054,confidence_buffer,,null,,,,,,,,,,,,,,,,,,
1663.300000011921,,pt2_unique_rating,457718,Tamarisk Hills,,52,,,4,,,,,,,,,,,,,,,
null,,confidence_buffer,457819,confidence_buffer,,null,,,,,,,,,,,,,,,,,,
1303,,pt2_memorable_rating,459123,Tamarisk Hills,,52,,,4,,,,,,,,,,,,,,,
null,,confidence_buffer,459225,confidence_buffer,,null,,,,,,,,,,,,,,,,,,
1544.5,,recognition_phase,460770,Tamarisk Hills,,52,,,,,,new,1,0.8571428571428571,,,,,,,,,,
null,,confidence_buffer,460871,confidence_buffer,,null,,,,,,,,,,,,,,,,,,
null,,thebreak,461373,break,,null,,,,,,,,,,,,,,,,,,
4799.800000011921,,realistic_rating,466173,Leesburg,,51,Leesburg,US,3,,,,,,,,,,,,,,,
null,,confidence_buffer,466275,confidence_buffer,,null,,,,,,,,,,,,,,,,,,
1288.800000011921,,pt2_unique_rating,467564,Leesburg,,50,,,2,,,,,,,,,,,,,,,
null,,confidence_buffer,467666,confidence_buffer,,null,,,,,,,,,,,,,,,,,,
1804.6000000238419,,probe_rating,469471,probe_rating,,49,,,,1,1,,,,,,,,,,,,,
null,,confidence_buffer,469573,confidence_buffer,,null,,,,,,,,,,,,,,,,,,
1027,,pt2_memorable_rating,470600,Leesburg,,49,,,1,,,,,,,,,,,,,,,
null,,confidence_buffer,470702,confidence_buffer,,null,,,,,,,,,,,,,,,,,,
5060.300000011921,,recognition_phase,475763,Leesburg,,52,,,,,,new,1,0.8666666666666667,,,,,,,,,,
null,,confidence_buffer,475864,confidence_buffer,,null,,,,,,,,,,,,,,,,,,
null,,thebreak,476366,break,,null,,,,,,,,,,,,,,,,,,
2248,,realistic_rating,478614,Yukon,,53,Yukon,US,5,,,,,,,,,,,,,,,
null,,confidence_buffer,478717,confidence_buffer,,null,,,,,,,,,,,,,,,,,,
3175.199999988079,,pt2_unique_rating,481892,Yukon,,51,,,3,,,,,,,,,,,,,,,
null,,confidence_buffer,481994,confidence_buffer,,null,,,,,,,,,,,,,,,,,,
1462.9000000357628,,pt2_memorable_rating,483457,Yukon,,50,,,2,,,,,,,,,,,,,,,
null,,confidence_buffer,483560,confidence_buffer,,null,,,,,,,,,,,,,,,,,,
1708.1000000238419,,recognition_phase,485268,Yukon,,49,,,,,,old,1,0.875,,,,,,,,,,
null,,confidence_buffer,485370,confidence_buffer,,null,,,,,,,,,,,,,,,,,,
null,,thebreak,485871,break,,null,,,,,,,,,,,,,,,,,,
2542.900000035763,,realistic_rating,488415,Livingston,,52,Livingston,US,4,,,,,,,,,,,,,,,
null,,confidence_buffer,488516,confidence_buffer,,null,,,,,,,,,,,,,,,,,,
1640.699999988079,,pt2_unique_rating,490158,Livingston,,49,,,1,,,,,,,,,,,,,,,
null,,confidence_buffer,490260,confidence_buffer,,null,,,,,,,,,,,,,,,,,,
1005.1999999880791,,pt2_memorable_rating,491265,Livingston,,49,,,1,,,,,,,,,,,,,,,
null,,confidence_buffer,491368,confidence_buffer,,null,,,,,,,,,,,,,,,,,,
2649.399999976158,,recognition_phase,494018,Livingston,,51,,,,,,new,1,0.8823529411764706,,,,,,,,,,
null,,confidence_buffer,494119,confidence_buffer,,null,,,,,,,,,,,,,,,,,,
null,,thebreak,494621,break,,null,,,,,,,,,,,,,,,,,,
1976.5,,realistic_rating,496598,Granton Ridge,,52,Granton Ridge,Fictional,4,,,,,,,,,,,,,,,
null,,confidence_buffer,496699,confidence_buffer,,null,,,,,,,,,,,,,,,,,,
2135.100000023842,,pt2_unique_rating,498835,Granton Ridge,,49,,,1,,,,,,,,,,,,,,,
null,,confidence_buffer,498937,confidence_buffer,,null,,,,,,,,,,,,,,,,,,
778.8000000119209,,pt2_memorable_rating,499716,Granton Ridge,,49,,,1,,,,,,,,,,,,,,,
null,,confidence_buffer,499817,confidence_buffer,,null,,,,,,,,,,,,,,,,,,
1608.6000000238419,,recognition_phase,501426,Granton Ridge,,52,,,,,,new,1,0.8888888888888888,,,,,,,,,,
null,,confidence_buffer,501529,confidence_buffer,,null,,,,,,,,,,,,,,,,,,
null,,thebreak,502030,break,,null,,,,,,,,,,,,,,,,,,
1896.300000011921,,realistic_rating,503927,Delaro Park,,52,Delaro Park,Fictional,4,,,,,,,,,,,,,,,
null,,confidence_buffer,504029,confidence_buffer,,null,,,,,,,,,,,,,,,,,,
1495.9000000357628,,pt2_unique_rating,505525,Delaro Park,,51,,,3,,,,,,,,,,,,,,,
null,,confidence_buffer,505627,confidence_buffer,,null,,,,,,,,,,,,,,,,,,
3343.699999988079,,pt2_memorable_rating,508971,Delaro Park,,50,,,2,,,,,,,,,,,,,,,
null,,confidence_buffer,509072,confidence_buffer,,null,,,,,,,,,,,,,,,,,,
2190.900000035763,,recognition_phase,511264,Delaro Park,,52,,,,,,new,1,0.8947368421052632,,,,,,,,,,
null,,confidence_buffer,511365,confidence_buffer,,null,,,,,,,,,,,,,,,,,,
null,,thebreak,511867,break,,null,,,,,,,,,,,,,,,,,,
1186.3999999761581,,realistic_rating,513054,Stonebrook,,53,Stonebrook,Fictional,5,,,,,,,,,,,,,,,
null,,confidence_buffer,513157,confidence_buffer,,null,,,,,,,,,,,,,,,,,,
2140.899999976158,,pt2_unique_rating,515298,Stonebrook,,49,,,1,,,,,,,,,,,,,,,
null,,confidence_buffer,515399,confidence_buffer,,null,,,,,,,,,,,,,,,,,,
1304.199999988079,,pt2_memorable_rating,516704,Stonebrook,,49,,,1,,,,,,,,,,,,,,,
null,,confidence_buffer,516806,confidence_buffer,,null,,,,,,,,,,,,,,,,,,
2997.599999964237,,recognition_phase,519804,Stonebrook,,49,,,,,,old,1,0.9,,,,,,,,,,
null,,confidence_buffer,519905,confidence_buffer,,null,,,,,,,,,,,,,,,,,,
null,,thebreak,520407,break,,null,,,,,,,,,,,,,,,,,,
3130.900000035763,,realistic_rating,523539,Rosehollow,,50,Rosehollow,Fictional,2,,,,,,,,,,,,,,,
null,,confidence_buffer,523640,confidence_buffer,,null,,,,,,,,,,,,,,,,,,
1463.5,,pt2_unique_rating,525105,Rosehollow,,51,,,3,,,,,,,,,,,,,,,
null,,confidence_buffer,525206,confidence_buffer,,null,,,,,,,,,,,,,,,,,,
2398.199999988079,,pt2_memorable_rating,527605,Rosehollow,,51,,,3,,,,,,,,,,,,,,,
null,,confidence_buffer,527706,confidence_buffer,,null,,,,,,,,,,,,,,,,,,
3642.100000023842,,recognition_phase,531349,Rosehollow,,49,,,,,,old,1,0.9047619047619048,,,,,,,,,,
null,,confidence_buffer,531451,confidence_buffer,,null,,,,,,,,,,,,,,,,,,
null,,thebreak,531952,break,,null,,,,,,,,,,,,,,,,,,
4523.899999976158,,realistic_rating,536476,Elmsbury,,53,Elmsbury,Fictional,5,,,,,,,,,,,,,,,
null,,confidence_buffer,536578,confidence_buffer,,null,,,,,,,,,,,,,,,,,,
2835.5,,pt2_unique_rating,539414,Elmsbury,,49,,,1,,,,,,,,,,,,,,,
null,,confidence_buffer,539516,confidence_buffer,,null,,,,,,,,,,,,,,,,,,
1786,,pt2_memorable_rating,541303,Elmsbury,,49,,,1,,,,,,,,,,,,,,,
null,,confidence_buffer,541404,confidence_buffer,,null,,,,,,,,,,,,,,,,,,
2741.600000023842,,recognition_phase,544146,Elmsbury,,50,,,,,,old,1,0.9090909090909091,,,,,,,,,,
null,,confidence_buffer,544248,confidence_buffer,,null,,,,,,,,,,,,,,,,,,
null,,thebreak,544750,break,,null,,,,,,,,,,,,,,,,,,
2971.399999976158,,realistic_rating,547722,Hawthorne Bluffs,,51,Hawthorne Bluffs,Fictional,3,,,,,,,,,,,,,,,
null,,confidence_buffer,547824,confidence_buffer,,null,,,,,,,,,,,,,,,,,,
1580.5999999642372,,pt2_unique_rating,549405,Hawthorne Bluffs,,50,,,2,,,,,,,,,,,,,,,
null,,confidence_buffer,549506,confidence_buffer,,null,,,,,,,,,,,,,,,,,,
1188.4000000357628,,pt2_memorable_rating,550695,Hawthorne Bluffs,,51,,,3,,,,,,,,,,,,,,,
null,,confidence_buffer,550797,confidence_buffer,,null,,,,,,,,,,,,,,,,,,
1554,,recognition_phase,552351,Hawthorne Bluffs,,50,,,,,,old,1,0.9130434782608695,,,,,,,,,,
null,,confidence_buffer,552453,confidence_buffer,,null,,,,,,,,,,,,,,,,,,
null,,thebreak,552955,break,,null,,,,,,,,,,,,,,,,,,
2783.600000023842,,realistic_rating,555739,Hanover,,50,Hanover,US,2,,,,,,,,,,,,,,,
null,,confidence_buffer,555841,confidence_buffer,,null,,,,,,,,,,,,,,,,,,
1563.3999999761581,,pt2_unique_rating,557405,Hanover,,52,,,4,,,,,,,,,,,,,,,
null,,confidence_buffer,557507,confidence_buffer,,null,,,,,,,,,,,,,,,,,,
1531.300000011921,,pt2_memorable_rating,559039,Hanover,,51,,,3,,,,,,,,,,,,,,,
null,,confidence_buffer,559140,confidence_buffer,,null,,,,,,,,,,,,,,,,,,
4380.699999988079,,recognition_phase,563522,Hanover,,50,,,,,,old,0,0.875,,,,,,,,,,
null,,confidence_buffer,563623,confidence_buffer,,null,,,,,,,,,,,,,,,,,,
null,,thebreak,564125,break,,null,,,,,,,,,,,,,,,,,,
2883,,realistic_rating,567009,Bisbee,,50,Bisbee,US,2,,,,,,,,,,,,,,,
null,,confidence_buffer,567110,confidence_buffer,,null,,,,,,,,,,,,,,,,,,
1656.5,,pt2_unique_rating,568767,Bisbee,,52,,,4,,,,,,,,,,,,,,,
null,,confidence_buffer,568868,confidence_buffer,,null,,,,,,,,,,,,,,,,,,
1403.4000000357628,,pt2_memorable_rating,570272,Bisbee,,53,,,5,,,,,,,,,,,,,,,
null,,confidence_buffer,570374,confidence_buffer,,null,,,,,,,,,,,,,,,,,,
1963.5,,recognition_phase,572338,Bisbee,,52,,,,,,new,1,0.88,,,,,,,,,,
null,,confidence_buffer,572440,confidence_buffer,,null,,,,,,,,,,,,,,,,,,
null,,thebreak,572942,break,,null,,,,,,,,,,,,,,,,,,
2113.5,,realistic_rating,575056,San Antonio,,53,San Antonio,US,5,,,,,,,,,,,,,,,
null,,confidence_buffer,575158,confidence_buffer,,null,,,,,,,,,,,,,,,,,,
1805.1000000238419,,probe_rating,576963,probe_rating,,50,,,,2,1,,,,,,,,,,,,,
null,,confidence_buffer,577066,confidence_buffer,,null,,,,,,,,,,,,,,,,,,
2517.199999988079,,pt2_unique_rating,579583,San Antonio,,50,,,2,,,,,,,,,,,,,,,
null,,confidence_buffer,579685,confidence_buffer,,null,,,,,,,,,,,,,,,,,,
1380.5999999642372,,pt2_memorable_rating,581066,San Antonio,,51,,,3,,,,,,,,,,,,,,,
null,,confidence_buffer,581168,confidence_buffer,,null,,,,,,,,,,,,,,,,,,
1640.5,,recognition_phase,582809,San Antonio,,49,,,,,,old,1,0.8846153846153846,,,,,,,,,,
null,,confidence_buffer,582910,confidence_buffer,,null,,,,,,,,,,,,,,,,,,
null,,thebreak,583412,break,,null,,,,,,,,,,,,,,,,,,
2189.7999999523163,,realistic_rating,585602,Assateague Island,,50,Assateague Island,US,2,,,,,,,,,,,,,,,
null,,confidence_buffer,585703,confidence_buffer,,null,,,,,,,,,,,,,,,,,,
2189,,pt2_unique_rating,587893,Assateague Island,,53,,,5,,,,,,,,,,,,,,,
null,,confidence_buffer,587994,confidence_buffer,,null,,,,,,,,,,,,,,,,,,
1434.9000000357628,,pt2_memorable_rating,589430,Assateague Island,,51,,,3,,,,,,,,,,,,,,,
null,,confidence_buffer,589531,confidence_buffer,,null,,,,,,,,,,,,,,,,,,
1591.800000011921,,recognition_phase,591124,Assateague Island,,52,,,,,,new,1,0.8888888888888888,,,,,,,,,,
null,,confidence_buffer,591226,confidence_buffer,,null,,,,,,,,,,,,,,,,,,
null,,thebreak,591727,break,,null,,,,,,,,,,,,,,,,,,
3211.100000023842,,realistic_rating,594939,Lakehaven,,53,Lakehaven,Fictional,5,,,,,,,,,,,,,,,
null,,confidence_buffer,595040,confidence_buffer,,null,,,,,,,,,,,,,,,,,,
1212.800000011921,,pt2_unique_rating,596254,Lakehaven,,49,,,1,,,,,,,,,,,,,,,
null,,confidence_buffer,596356,confidence_buffer,,null,,,,,,,,,,,,,,,,,,
615.5,,pt2_memorable_rating,596972,Lakehaven,,49,,,1,,,,,,,,,,,,,,,
null,,confidence_buffer,597073,confidence_buffer,,null,,,,,,,,,,,,,,,,,,
1452.699999988079,,probe_rating,598526,probe_rating,,52,,,,4,1,,,,,,,,,,,,,
null,,confidence_buffer,598628,confidence_buffer,,null,,,,,,,,,,,,,,,,,,
1964.5,,recognition_phase,600593,Lakehaven,,49,,,,,,old,1,0.8928571428571429,,,,,,,,,,
null,,confidence_buffer,600694,confidence_buffer,,null,,,,,,,,,,,,,,,,,,
null,,thebreak,601196,break,,null,,,,,,,,,,,,,,,,,,
2846.399999976158,,realistic_rating,604043,Shreveport,,50,Shreveport,US,2,,,,,,,,,,,,,,,
null,,confidence_buffer,604145,confidence_buffer,,null,,,,,,,,,,,,,,,,,,
915.2999999523163,,pt2_unique_rating,605061,Shreveport,,52,,,4,,,,,,,,,,,,,,,
null,,confidence_buffer,605162,confidence_buffer,,null,,,,,,,,,,,,,,,,,,
1078.7000000476837,,pt2_memorable_rating,606242,Shreveport,,51,,,3,,,,,,,,,,,,,,,
null,,confidence_buffer,606343,confidence_buffer,,null,,,,,,,,,,,,,,,,,,
2643.900000035763,,recognition_phase,608988,Shreveport,,51,,,,,,new,0,0.8620689655172413,,,,,,,,,,
null,,confidence_buffer,609090,confidence_buffer,,null,,,,,,,,,,,,,,,,,,
null,,thebreak,609592,break,,null,,,,,,,,,,,,,,,,,,
2925.899999976158,,realistic_rating,612518,Gardnerville,,53,Gardnerville,US,5,,,,,,,,,,,,,,,
null,,confidence_buffer,612619,confidence_buffer,,null,,,,,,,,,,,,,,,,,,
1586.5,,pt2_unique_rating,614206,Gardnerville,,50,,,2,,,,,,,,,,,,,,,
null,,confidence_buffer,614308,confidence_buffer,,null,,,,,,,,,,,,,,,,,,
1353,,pt2_memorable_rating,615662,Gardnerville,,49,,,1,,,,,,,,,,,,,,,
null,,confidence_buffer,615763,confidence_buffer,,null,,,,,,,,,,,,,,,,,,
2795.199999988079,,recognition_phase,618559,Gardnerville,,52,,,,,,new,1,0.8666666666666667,,,,,,,,,,
null,,confidence_buffer,618661,confidence_buffer,,null,,,,,,,,,,,,,,,,,,
null,,thebreak,619163,break,,null,,,,,,,,,,,,,,,,,,
1684.300000011921,,realistic_rating,620848,Pine Hollow,,51,Pine Hollow,Fictional,3,,,,,,,,,,,,,,,
null,,confidence_buffer,620949,confidence_buffer,,null,,,,,,,,,,,,,,,,,,
1657.300000011921,,pt2_unique_rating,622607,Pine Hollow,,49,,,1,,,,,,,,,,,,,,,
null,,confidence_buffer,622708,confidence_buffer,,null,,,,,,,,,,,,,,,,,,
970.1999999880791,,pt2_memorable_rating,623679,Pine Hollow,,49,,,1,,,,,,,,,,,,,,,
null,,confidence_buffer,623781,confidence_buffer,,null,,,,,,,,,,,,,,,,,,
3100.5,,recognition_phase,626881,Pine Hollow,,49,,,,,,old,1,0.8709677419354839,,,,,,,,,,
null,,confidence_buffer,626983,confidence_buffer,,null,,,,,,,,,,,,,,,,,,
null,,thebreak,627485,break,,null,,,,,,,,,,,,,,,,,,
2791.300000011921,,realistic_rating,630276,Gloucester,,51,Gloucester,US,3,,,,,,,,,,,,,,,
null,,confidence_buffer,630378,confidence_buffer,,null,,,,,,,,,,,,,,,,,,
1385.8999999761581,,pt2_unique_rating,631765,Gloucester,,52,,,4,,,,,,,,,,,,,,,
null,,confidence_buffer,631866,confidence_buffer,,null,,,,,,,,,,,,,,,,,,
795.3000000119209,,pt2_memorable_rating,632662,Gloucester,,50,,,2,,,,,,,,,,,,,,,
null,,confidence_buffer,632764,confidence_buffer,,null,,,,,,,,,,,,,,,,,,
2139,,recognition_phase,634903,Gloucester,,52,,,,,,new,0,0.84375,,,,,,,,,,
null,,confidence_buffer,635005,confidence_buffer,,null,,,,,,,,,,,,,,,,,,
null,,thebreak,635506,break,,null,,,,,,,,,,,,,,,,,,
2409.100000023842,,realistic_rating,637916,Falconridge,,52,Falconridge,Fictional,4,,,,,,,,,,,,,,,
null,,confidence_buffer,638018,confidence_buffer,,null,,,,,,,,,,,,,,,,,,
1546.199999988079,,pt2_unique_rating,639564,Falconridge,,50,,,2,,,,,,,,,,,,,,,
null,,confidence_buffer,639666,confidence_buffer,,null,,,,,,,,,,,,,,,,,,
1362.0999999642372,,pt2_memorable_rating,641029,Falconridge,,51,,,3,,,,,,,,,,,,,,,
null,,confidence_buffer,641130,confidence_buffer,,null,,,,,,,,,,,,,,,,,,
2524.699999988079,,recognition_phase,643655,Falconridge,,49,,,,,,old,1,0.8484848484848485,,,,,,,,,,
null,,confidence_buffer,643757,confidence_buffer,,null,,,,,,,,,,,,,,,,,,
null,,thebreak,644259,break,,null,,,,,,,,,,,,,,,,,,
3480.2000000476837,,realistic_rating,647740,Maplehurst,,50,Maplehurst,Fictional,2,,,,,,,,,,,,,,,
null,,confidence_buffer,647841,confidence_buffer,,null,,,,,,,,,,,,,,,,,,
2799.5,,pt2_unique_rating,650641,Maplehurst,,52,,,4,,,,,,,,,,,,,,,
null,,confidence_buffer,650743,confidence_buffer,,null,,,,,,,,,,,,,,,,,,
1001.6999999880791,,pt2_memorable_rating,651746,Maplehurst,,51,,,3,,,,,,,,,,,,,,,
null,,confidence_buffer,651848,confidence_buffer,,null,,,,,,,,,,,,,,,,,,
1732.5,,recognition_phase,653580,Maplehurst,,52,,,,,,new,1,0.8529411764705882,,,,,,,,,,
null,,confidence_buffer,653683,confidence_buffer,,null,,,,,,,,,,,,,,,,,,
null,,thebreak,654184,break,,null,,,,,,,,,,,,,,,,,,
2995.399999976158,,realistic_rating,657180,Lake of the Ozarks,,49,Lake of the Ozarks,US,1,,,,,,,,,,,,,,,
null,,confidence_buffer,657282,confidence_buffer,,null,,,,,,,,,,,,,,,,,,
1699.800000011921,,pt2_unique_rating,658982,Lake of the Ozarks,,53,,,5,,,,,,,,,,,,,,,
null,,confidence_buffer,659084,confidence_buffer,,null,,,,,,,,,,,,,,,,,,
1488,,pt2_memorable_rating,660573,Lake of the Ozarks,,52,,,4,,,,,,,,,,,,,,,
null,,confidence_buffer,660675,confidence_buffer,,null,,,,,,,,,,,,,,,,,,
1570.1000000238419,,recognition_phase,662246,Lake of the Ozarks,,49,,,,,,old,1,0.8571428571428571,,,,,,,,,,
null,,confidence_buffer,662348,confidence_buffer,,null,,,,,,,,,,,,,,,,,,
null,,thebreak,662849,break,,null,,,,,,,,,,,,,,,,,,
2347.599999964237,,realistic_rating,665197,Medora,,50,Medora,US,2,,,,,,,,,,,,,,,
null,,confidence_buffer,665300,confidence_buffer,,null,,,,,,,,,,,,,,,,,,
2041.3999999761581,,pt2_unique_rating,667341,Medora,,53,,,5,,,,,,,,,,,,,,,
null,,confidence_buffer,667443,confidence_buffer,,null,,,,,,,,,,,,,,,,,,
936.5,,pt2_memorable_rating,668380,Medora,,52,,,4,,,,,,,,,,,,,,,
null,,confidence_buffer,668482,confidence_buffer,,null,,,,,,,,,,,,,,,,,,
1928.5,,recognition_phase,670411,Medora,,52,,,,,,new,1,0.8611111111111112,,,,,,,,,,
null,,confidence_buffer,670513,confidence_buffer,,null,,,,,,,,,,,,,,,,,,
null,,thebreak,671014,break,,null,,,,,,,,,,,,,,,,,,
2575.5,,realistic_rating,673590,Alliance,,49,Alliance,US,1,,,,,,,,,,,,,,,
null,,confidence_buffer,673692,confidence_buffer,,null,,,,,,,,,,,,,,,,,,
1449.699999988079,,pt2_unique_rating,675142,Alliance,,51,,,3,,,,,,,,,,,,,,,
null,,confidence_buffer,675244,confidence_buffer,,null,,,,,,,,,,,,,,,,,,
1096.699999988079,,pt2_memorable_rating,676341,Alliance,,50,,,2,,,,,,,,,,,,,,,
null,,confidence_buffer,676443,confidence_buffer,,null,,,,,,,,,,,,,,,,,,
4083.399999976158,,recognition_phase,680527,Alliance,,50,,,,,,old,1,0.8648648648648649,,,,,,,,,,
null,,confidence_buffer,680629,confidence_buffer,,null,,,,,,,,,,,,,,,,,,
null,,thebreak,681130,break,,null,,,,,,,,,,,,,,,,,,
2678.699999988079,,realistic_rating,683809,Claywater,,49,Claywater,Fictional,1,,,,,,,,,,,,,,,
null,,confidence_buffer,683912,confidence_buffer,,null,,,,,,,,,,,,,,,,,,
1574.800000011921,,pt2_unique_rating,685487,Claywater,,51,,,3,,,,,,,,,,,,,,,
null,,confidence_buffer,685589,confidence_buffer,,null,,,,,,,,,,,,,,,,,,
1385.4000000357628,,pt2_memorable_rating,686975,Claywater,,50,,,2,,,,,,,,,,,,,,,
null,,confidence_buffer,687077,confidence_buffer,,null,,,,,,,,,,,,,,,,,,
1574.3999999761581,,recognition_phase,688652,Claywater,,52,,,,,,new,1,0.868421052631579,,,,,,,,,,
null,,confidence_buffer,688754,confidence_buffer,,null,,,,,,,,,,,,,,,,,,
null,,thebreak,689255,break,,null,,,,,,,,,,,,,,,,,,
2334.600000023842,,realistic_rating,691591,Boulder,,50,Boulder,US,2,,,,,,,,,,,,,,,
null,,confidence_buffer,691692,confidence_buffer,,null,,,,,,,,,,,,,,,,,,
1326.0999999642372,,pt2_unique_rating,693019,Boulder,,50,,,2,,,,,,,,,,,,,,,
null,,confidence_buffer,693120,confidence_buffer,,null,,,,,,,,,,,,,,,,,,
885.4000000357628,,pt2_memorable_rating,694006,Boulder,,49,,,1,,,,,,,,,,,,,,,
null,,confidence_buffer,694108,confidence_buffer,,null,,,,,,,,,,,,,,,,,,
1597.5999999642372,,recognition_phase,695706,Boulder,,49,,,,,,old,1,0.8717948717948718,,,,,,,,,,
null,,confidence_buffer,695809,confidence_buffer,,null,,,,,,,,,,,,,,,,,,
null,,thebreak,696311,break,,null,,,,,,,,,,,,,,,,,,
1440.699999988079,,realistic_rating,697752,Newport,,53,Newport,US,5,,,,,,,,,,,,,,,
null,,confidence_buffer,697854,confidence_buffer,,null,,,,,,,,,,,,,,,,,,
1298.0999999642372,,pt2_unique_rating,699152,Newport,,49,,,1,,,,,,,,,,,,,,,
null,,confidence_buffer,699254,confidence_buffer,,null,,,,,,,,,,,,,,,,,,
1263.300000011921,,pt2_memorable_rating,700518,Newport,,50,,,2,,,,,,,,,,,,,,,
null,,confidence_buffer,700619,confidence_buffer,,null,,,,,,,,,,,,,,,,,,
1508.699999988079,,probe_rating,702128,probe_rating,,53,,,,5,1,,,,,,,,,,,,,
null,,confidence_buffer,702230,confidence_buffer,,null,,,,,,,,,,,,,,,,,,
1520.6000000238419,,recognition_phase,703751,Newport,,49,,,,,,old,0,0.85,,,,,,,,,,
null,,confidence_buffer,703853,confidence_buffer,,null,,,,,,,,,,,,,,,,,,
null,,thebreak,704354,break,,null,,,,,,,,,,,,,,,,,,
2748.599999964237,,realistic_rating,707103,Sunmere,,52,Sunmere,Fictional,4,,,,,,,,,,,,,,,
null,,confidence_buffer,707206,confidence_buffer,,null,,,,,,,,,,,,,,,,,,
1126.5999999642372,,pt2_unique_rating,708333,Sunmere,,52,,,4,,,,,,,,,,,,,,,
null,,confidence_buffer,708434,confidence_buffer,,null,,,,,,,,,,,,,,,,,,
1129.699999988079,,pt2_memorable_rating,709564,Sunmere,,51,,,3,,,,,,,,,,,,,,,
null,,confidence_buffer,709666,confidence_buffer,,null,,,,,,,,,,,,,,,,,,
1958.3999999761581,,recognition_phase,711625,Sunmere,,52,,,,,,new,1,0.8536585365853658,,,,,,,,,,
null,,confidence_buffer,711727,confidence_buffer,,null,,,,,,,,,,,,,,,,,,
null,,thebreak,712228,break,,null,,,,,,,,,,,,,,,,,,
1761.199999988079,,realistic_rating,713990,Sitka,,50,Sitka,US,2,,,,,,,,,,,,,,,
null,,confidence_buffer,714091,confidence_buffer,,null,,,,,,,,,,,,,,,,,,
1025.699999988079,,pt2_unique_rating,715117,Sitka,,52,,,4,,,,,,,,,,,,,,,
null,,confidence_buffer,715219,confidence_buffer,,null,,,,,,,,,,,,,,,,,,
1492.4000000357628,,pt2_memorable_rating,716712,Sitka,,50,,,2,,,,,,,,,,,,,,,
null,,confidence_buffer,716814,confidence_buffer,,null,,,,,,,,,,,,,,,,,,
1331.300000011921,,recognition_phase,718146,Sitka,,52,,,,,,new,0,0.8333333333333334,,,,,,,,,,
null,,confidence_buffer,718247,confidence_buffer,,null,,,,,,,,,,,,,,,,,,
null,,thebreak,718749,break,,null,,,,,,,,,,,,,,,,,,
1504.6000000238419,,realistic_rating,720254,Baymarsh,,53,Baymarsh,Fictional,5,,,,,,,,,,,,,,,
null,,confidence_buffer,720355,confidence_buffer,,null,,,,,,,,,,,,,,,,,,
1741.1000000238419,,pt2_unique_rating,722097,Baymarsh,,50,,,2,,,,,,,,,,,,,,,
null,,confidence_buffer,722198,confidence_buffer,,null,,,,,,,,,,,,,,,,,,
1229.4000000357628,,pt2_memorable_rating,723428,Baymarsh,,50,,,2,,,,,,,,,,,,,,,
null,,confidence_buffer,723530,confidence_buffer,,null,,,,,,,,,,,,,,,,,,
1065.800000011921,,probe_rating,724596,probe_rating,,51,,,,3,1,,,,,,,,,,,,,
null,,confidence_buffer,724698,confidence_buffer,,null,,,,,,,,,,,,,,,,,,
2064.699999988079,,recognition_phase,726763,Baymarsh,,52,,,,,,new,1,0.8372093023255814,,,,,,,,,,
null,,confidence_buffer,726865,confidence_buffer,,null,,,,,,,,,,,,,,,,,,
null,,thebreak,727367,break,,null,,,,,,,,,,,,,,,,,,
1936,,realistic_rating,729303,Ashford Hills,,53,Ashford Hills,Fictional,5,,,,,,,,,,,,,,,
null,,confidence_buffer,729405,confidence_buffer,,null,,,,,,,,,,,,,,,,,,
1483.699999988079,,pt2_unique_rating,730889,Ashford Hills,,49,,,1,,,,,,,,,,,,,,,
null,,confidence_buffer,730991,confidence_buffer,,null,,,,,,,,,,,,,,,,,,
1522.300000011921,,pt2_memorable_rating,732514,Ashford Hills,,50,,,2,,,,,,,,,,,,,,,
null,,confidence_buffer,732616,confidence_buffer,,null,,,,,,,,,,,,,,,,,,
2007.2999999523163,,recognition_phase,734623,Ashford Hills,,52,,,,,,new,1,0.8409090909090909,,,,,,,,,,
null,,confidence_buffer,734725,confidence_buffer,,null,,,,,,,,,,,,,,,,,,
null,,thebreak,735227,break,,null,,,,,,,,,,,,,,,,,,
1881.300000011921,,realistic_rating,737108,Hollendale,,53,Hollendale,Fictional,5,,,,,,,,,,,,,,,
null,,confidence_buffer,737210,confidence_buffer,,null,,,,,,,,,,,,,,,,,,
1485.5,,pt2_unique_rating,738696,Hollendale,,49,,,1,,,,,,,,,,,,,,,
null,,confidence_buffer,738798,confidence_buffer,,null,,,,,,,,,,,,,,,,,,
1337.199999988079,,pt2_memorable_rating,740136,Hollendale,,49,,,1,,,,,,,,,,,,,,,
null,,confidence_buffer,740238,confidence_buffer,,null,,,,,,,,,,,,,,,,,,
2043.6000000238419,,recognition_phase,742282,Hollendale,,50,,,,,,old,1,0.8444444444444444,,,,,,,,,,
null,,confidence_buffer,742383,confidence_buffer,,null,,,,,,,,,,,,,,,,,,
null,,thebreak,742885,break,,null,,,,,,,,,,,,,,,,,,
5776.599999964237,,realistic_rating,748662,New Verdan,,50,New Verdan,Fictional,2,,,,,,,,,,,,,,,
null,,confidence_buffer,748764,confidence_buffer,,null,,,,,,,,,,,,,,,,,,
1209.5,,pt2_unique_rating,749974,New Verdan,,51,,,3,,,,,,,,,,,,,,,
null,,confidence_buffer,750076,confidence_buffer,,null,,,,,,,,,,,,,,,,,,
15469.600000023842,,pt2_memorable_rating,765546,New Verdan,,50,,,2,,,,,,,,,,,,,,,
null,,confidence_buffer,765647,confidence_buffer,,null,,,,,,,,,,,,,,,,,,
1782.8999999761581,,recognition_phase,767431,New Verdan,,52,,,,,,new,1,0.8478260869565217,,,,,,,,,,
null,,confidence_buffer,767532,confidence_buffer,,null,,,,,,,,,,,,,,,,,,
null,,thebreak,768034,break,,null,,,,,,,,,,,,,,,,,,
1706.1000000238419,,realistic_rating,769741,West Palm Beach,,53,West Palm Beach,US,5,,,,,,,,,,,,,,,
null,,confidence_buffer,769842,confidence_buffer,,null,,,,,,,,,,,,,,,,,,
3001.5,,pt2_unique_rating,772844,West Palm Beach,,49,,,1,,,,,,,,,,,,,,,
null,,confidence_buffer,772946,confidence_buffer,,null,,,,,,,,,,,,,,,,,,
1694.8999999761581,,pt2_memorable_rating,774641,West Palm Beach,,52,,,4,,,,,,,,,,,,,,,
null,,confidence_buffer,774743,confidence_buffer,,null,,,,,,,,,,,,,,,,,,
1248.5,,probe_rating,775992,probe_rating,,52,,,,4,1,,,,,,,,,,,,,
null,,confidence_buffer,776094,confidence_buffer,,null,,,,,,,,,,,,,,,,,,
1712.800000011921,,recognition_phase,777808,West Palm Beach,,52,,,,,,new,1,0.851063829787234,,,,,,,,,,
null,,confidence_buffer,777909,confidence_buffer,,null,,,,,,,,,,,,,,,,,,
null,,thebreak,778411,break,,null,,,,,,,,,,,,,,,,,,
2584.5,,realistic_rating,780996,Bar Harbor,,51,Bar Harbor,US,3,,,,,,,,,,,,,,,
null,,confidence_buffer,781098,confidence_buffer,,null,,,,,,,,,,,,,,,,,,
1588.6000000238419,,pt2_unique_rating,782687,Bar Harbor,,50,,,2,,,,,,,,,,,,,,,
null,,confidence_buffer,782788,confidence_buffer,,null,,,,,,,,,,,,,,,,,,
2079.100000023842,,pt2_memorable_rating,784868,Bar Harbor,,51,,,3,,,,,,,,,,,,,,,
null,,confidence_buffer,784970,confidence_buffer,,null,,,,,,,,,,,,,,,,,,
1145.2999999523163,,recognition_phase,786115,Bar Harbor,,49,,,,,,old,1,0.8541666666666666,,,,,,,,,,
null,,confidence_buffer,786217,confidence_buffer,,null,,,,,,,,,,,,,,,,,,
null,,thebreak,786719,break,,null,,,,,,,,,,,,,,,,,,
1547.800000011921,,realistic_rating,788267,Clearbrook,,53,Clearbrook,Fictional,5,,,,,,,,,,,,,,,
null,,confidence_buffer,788370,confidence_buffer,,null,,,,,,,,,,,,,,,,,,
1347,,pt2_unique_rating,789717,Clearbrook,,50,,,2,,,,,,,,,,,,,,,
null,,confidence_buffer,789819,confidence_buffer,,null,,,,,,,,,,,,,,,,,,
1128.699999988079,,pt2_memorable_rating,790948,Clearbrook,,50,,,2,,,,,,,,,,,,,,,
null,,confidence_buffer,791049,confidence_buffer,,null,,,,,,,,,,,,,,,,,,
1804,,recognition_phase,792854,Clearbrook,,51,,,,,,new,1,0.8571428571428571,,,,,,,,,,
null,,confidence_buffer,792955,confidence_buffer,,null,,,,,,,,,,,,,,,,,,
null,,thebreak,793457,break,,null,,,,,,,,,,,,,,,,,,
2839.400000035763,,realistic_rating,796297,Orchard Bend,,53,Orchard Bend,Fictional,5,,,,,,,,,,,,,,,
null,,confidence_buffer,796399,confidence_buffer,,null,,,,,,,,,,,,,,,,,,
1676,,pt2_unique_rating,798075,Orchard Bend,,49,,,1,,,,,,,,,,,,,,,
null,,confidence_buffer,798177,confidence_buffer,,null,,,,,,,,,,,,,,,,,,
1745,,pt2_memorable_rating,799923,Orchard Bend,,50,,,2,,,,,,,,,,,,,,,
null,,confidence_buffer,800024,confidence_buffer,,null,,,,,,,,,,,,,,,,,,
2609.600000023842,,recognition_phase,802635,Orchard Bend,,52,,,,,,new,1,0.86,,,,,,,,,,
null,,confidence_buffer,802736,confidence_buffer,,null,,,,,,,,,,,,,,,,,,
null,,thebreak,803238,break,,null,,,,,,,,,,,,,,,,,,
2139,,realistic_rating,805377,Duck,,49,Duck,US,1,,,,,,,,,,,,,,,
null,,confidence_buffer,805480,confidence_buffer,,null,,,,,,,,,,,,,,,,,,
1443.699999988079,,pt2_unique_rating,806924,Duck,,49,,,1,,,,,,,,,,,,,,,
null,,confidence_buffer,807026,confidence_buffer,,null,,,,,,,,,,,,,,,,,,
1612.3999999761581,,pt2_memorable_rating,808639,Duck,,52,,,4,,,,,,,,,,,,,,,
null,,confidence_buffer,808740,confidence_buffer,,null,,,,,,,,,,,,,,,,,,
1470.7999999523163,,recognition_phase,810211,Duck,,52,,,,,,new,1,0.8627450980392157,,,,,,,,,,
null,,confidence_buffer,810314,confidence_buffer,,null,,,,,,,,,,,,,,,,,,
null,,thebreak,810815,break,,null,,,,,,,,,,,,,,,,,,
1617.2000000476837,,realistic_rating,812433,Albuquerque,,53,Albuquerque,US,5,,,,,,,,,,,,,,,
null,,confidence_buffer,812535,confidence_buffer,,null,,,,,,,,,,,,,,,,,,
1410.800000011921,,pt2_unique_rating,813946,Albuquerque,,53,,,5,,,,,,,,,,,,,,,
null,,confidence_buffer,814048,confidence_buffer,,null,,,,,,,,,,,,,,,,,,
905.3999999761581,,pt2_memorable_rating,814954,Albuquerque,,53,,,5,,,,,,,,,,,,,,,
null,,confidence_buffer,815056,confidence_buffer,,null,,,,,,,,,,,,,,,,,,
1208.5999999642372,,probe_rating,816265,probe_rating,,49,,,,1,1,,,,,,,,,,,,,
null,,confidence_buffer,816368,confidence_buffer,,null,,,,,,,,,,,,,,,,,,
2181.099999964237,,recognition_phase,818549,Albuquerque,,49,,,,,,old,1,0.8653846153846154,,,,,,,,,,
null,,confidence_buffer,818651,confidence_buffer,,null,,,,,,,,,,,,,,,,,,
null,,thebreak,819152,break,,null,,,,,,,,,,,,,,,,,,
1637.5,,realistic_rating,820790,Millstone,,52,Millstone,Fictional,4,,,,,,,,,,,,,,,
null,,confidence_buffer,820893,confidence_buffer,,null,,,,,,,,,,,,,,,,,,
1666.199999988079,,pt2_unique_rating,822559,Millstone,,50,,,2,,,,,,,,,,,,,,,
null,,confidence_buffer,822661,confidence_buffer,,null,,,,,,,,,,,,,,,,,,
1692.3999999761581,,pt2_memorable_rating,824354,Millstone,,49,,,1,,,,,,,,,,,,,,,
null,,confidence_buffer,824455,confidence_buffer,,null,,,,,,,,,,,,,,,,,,
1441.6000000238419,,probe_rating,825897,probe_rating,,53,,,,5,1,,,,,,,,,,,,,
null,,confidence_buffer,825999,confidence_buffer,,null,,,,,,,,,,,,,,,,,,
1704.1000000238419,,recognition_phase,827704,Millstone,,52,,,,,,new,0,0.8490566037735849,,,,,,,,,,
null,,confidence_buffer,827805,confidence_buffer,,null,,,,,,,,,,,,,,,,,,
null,,thebreak,828307,break,,null,,,,,,,,,,,,,,,,,,
2241.699999988079,,realistic_rating,830549,Fairhaven,,53,Fairhaven,Fictional,5,,,,,,,,,,,,,,,
null,,confidence_buffer,830650,confidence_buffer,,null,,,,,,,,,,,,,,,,,,
1193.2000000476837,,probe_rating,831844,probe_rating,,53,,,,5,1,,,,,,,,,,,,,
null,,confidence_buffer,831946,confidence_buffer,,null,,,,,,,,,,,,,,,,,,
1237.800000011921,,pt2_unique_rating,833184,Fairhaven,,50,,,2,,,,,,,,,,,,,,,
null,,confidence_buffer,833286,confidence_buffer,,null,,,,,,,,,,,,,,,,,,
554.4000000357628,,pt2_memorable_rating,833841,Fairhaven,,51,,,3,,,,,,,,,,,,,,,
null,,confidence_buffer,833944,confidence_buffer,,null,,,,,,,,,,,,,,,,,,
1782,,recognition_phase,835726,Fairhaven,,49,,,,,,old,1,0.8518518518518519,,,,,,,,,,
null,,confidence_buffer,835828,confidence_buffer,,null,,,,,,,,,,,,,,,,,,
null,,thebreak,836329,break,,null,,,,,,,,,,,,,,,,,,
1526.6000000238419,,realistic_rating,837856,Cleveland,,53,Cleveland,US,5,,,,,,,,,,,,,,,
null,,confidence_buffer,837958,confidence_buffer,,null,,,,,,,,,,,,,,,,,,
2090,,pt2_unique_rating,840048,Cleveland,,49,,,1,,,,,,,,,,,,,,,
null,,confidence_buffer,840150,confidence_buffer,,null,,,,,,,,,,,,,,,,,,
1161.5,,pt2_memorable_rating,841312,Cleveland,,50,,,2,,,,,,,,,,,,,,,
null,,confidence_buffer,841414,confidence_buffer,,null,,,,,,,,,,,,,,,,,,
2484.199999988079,,recognition_phase,843898,Cleveland,,50,,,,,,old,1,0.8545454545454545,,,,,,,,,,
null,,confidence_buffer,844001,confidence_buffer,,null,,,,,,,,,,,,,,,,,,
null,,thebreak,844502,break,,null,,,,,,,,,,,,,,,,,,
2156.599999964237,,realistic_rating,846659,Juniper Creek,,52,Juniper Creek,Fictional,4,,,,,,,,,,,,,,,
null,,confidence_buffer,846761,confidence_buffer,,null,,,,,,,,,,,,,,,,,,
987,,pt2_unique_rating,847749,Juniper Creek,,53,,,5,,,,,,,,,,,,,,,
null,,confidence_buffer,847850,confidence_buffer,,null,,,,,,,,,,,,,,,,,,
1038.800000011921,,pt2_memorable_rating,848890,Juniper Creek,,51,,,3,,,,,,,,,,,,,,,
null,,confidence_buffer,848991,confidence_buffer,,null,,,,,,,,,,,,,,,,,,
1738.300000011921,,recognition_phase,850730,Juniper Creek,,50,,,,,,old,1,0.8571428571428571,,,,,,,,,,
null,,confidence_buffer,850832,confidence_buffer,,null,,,,,,,,,,,,,,,,,,
null,,thebreak,851334,break,,null,,,,,,,,,,,,,,,,,,
2044.7999999523163,,realistic_rating,853379,West Talora,,51,West Talora,Fictional,3,,,,,,,,,,,,,,,
null,,confidence_buffer,853481,confidence_buffer,,null,,,,,,,,,,,,,,,,,,
1618.2000000476837,,pt2_unique_rating,855100,West Talora,,52,,,4,,,,,,,,,,,,,,,
null,,confidence_buffer,855202,confidence_buffer,,null,,,,,,,,,,,,,,,,,,
1095.300000011921,,pt2_memorable_rating,856298,West Talora,,52,,,4,,,,,,,,,,,,,,,
null,,confidence_buffer,856400,confidence_buffer,,null,,,,,,,,,,,,,,,,,,
1493.199999988079,,recognition_phase,857893,West Talora,,52,,,,,,new,1,0.8596491228070176,,,,,,,,,,
null,,confidence_buffer,857995,confidence_buffer,,null,,,,,,,,,,,,,,,,,,
null,,thebreak,858497,break,,null,,,,,,,,,,,,,,,,,,
2457.900000035763,,realistic_rating,860955,Barnard,,53,Barnard,US,5,,,,,,,,,,,,,,,
null,,confidence_buffer,861057,confidence_buffer,,null,,,,,,,,,,,,,,,,,,
1202.5,,pt2_unique_rating,862260,Barnard,,50,,,2,,,,,,,,,,,,,,,
null,,confidence_buffer,862362,confidence_buffer,,null,,,,,,,,,,,,,,,,,,
809.6000000238419,,pt2_memorable_rating,863172,Barnard,,50,,,2,,,,,,,,,,,,,,,
null,,confidence_buffer,863273,confidence_buffer,,null,,,,,,,,,,,,,,,,,,
1343.800000011921,,recognition_phase,864618,Barnard,,52,,,,,,new,1,0.8620689655172413,,,,,,,,,,
null,,confidence_buffer,864719,confidence_buffer,,null,,,,,,,,,,,,,,,,,,
null,,thebreak,865221,break,,null,,,,,,,,,,,,,,,,,,
1770.8999999761581,,realistic_rating,866992,Hilo,,50,Hilo,US,2,,,,,,,,,,,,,,,
null,,confidence_buffer,867094,confidence_buffer,,null,,,,,,,,,,,,,,,,,,
1261.6000000238419,,probe_rating,868356,probe_rating,,51,,,,3,1,,,,,,,,,,,,,
null,,confidence_buffer,868458,confidence_buffer,,null,,,,,,,,,,,,,,,,,,
1359,,pt2_unique_rating,869818,Hilo,,50,,,2,,,,,,,,,,,,,,,
null,,confidence_buffer,869919,confidence_buffer,,null,,,,,,,,,,,,,,,,,,
1152.3999999761581,,pt2_memorable_rating,871072,Hilo,,50,,,2,,,,,,,,,,,,,,,
null,,confidence_buffer,871174,confidence_buffer,,null,,,,,,,,,,,,,,,,,,
1363.5999999642372,,recognition_phase,872538,Hilo,,52,,,,,,new,1,0.864406779661017,,,,,,,,,,
null,,confidence_buffer,872640,confidence_buffer,,null,,,,,,,,,,,,,,,,,,
null,,thebreak,873142,break,,null,,,,,,,,,,,,,,,,,,
2211.099999964237,,realistic_rating,875353,Ironwood Heights,,53,Ironwood Heights,Fictional,5,,,,,,,,,,,,,,,
null,,confidence_buffer,875456,confidence_buffer,,null,,,,,,,,,,,,,,,,,,
1431.699999988079,,pt2_unique_rating,876888,Ironwood Heights,,50,,,2,,,,,,,,,,,,,,,
null,,confidence_buffer,876989,confidence_buffer,,null,,,,,,,,,,,,,,,,,,
1276.199999988079,,pt2_memorable_rating,878266,Ironwood Heights,,49,,,1,,,,,,,,,,,,,,,
null,,confidence_buffer,878368,confidence_buffer,,null,,,,,,,,,,,,,,,,,,
1397.5999999642372,,recognition_phase,879766,Ironwood Heights,,52,,,,,,new,0,0.85,,,,,,,,,,
null,,confidence_buffer,879868,confidence_buffer,,null,,,,,,,,,,,,,,,,,,
null,,thebreak,880369,break,,null,,,,,,,,,,,,,,,,,,
,,survey,1033212,survey-questions,,,,,,,,,,,none,high,No, it had my full attention,I tried to remember words that stood out to me in the first part.,Whether I've heard it or a part of it before.,Whether I'd remember it after this task or not.,Whether I've heard a name similar or not.,Whether that place probably exists or not.,No.,It wasn't boring.
