rt,responses,trial_type,time_elapsed,stimulus,button_pressed,key_press,name_trial,city_type,rating,probe,probe_accuracy,response,correct,accuracy,problems,smooth,distraction,strategies,familiar,memorable,unique,realistic,similar,comments
40439,{worker_id:66ecbaf732d7637a943c139f},id_enter,40445,,,,,,,,,,,,,,,,,,,,,
13591,,fullscreen,54043,fullscreen,0,,,,,,,,,,,,,,,,,,,
12188,,intro_0,66236,instruct,,32,,,,,,,,,,,,,,,,,,
5923,,intro_1,72163,instruct,,32,,,,,,,,,,,,,,,,,,
6749,,intro_2,78918,instruct,,32,,,,,,,,,,,,,,,,,,
null,,instruct_dir_4,80424,instruct,,null,,,,,,,,,,,,,,,,,,
null,,thebreak,80927,break,,null,,,,,,,,,,,,,,,,,,
8576,,familiar_rating,89506,Gatlinburg,,49,Gatlinburg,US,1,,,,,,,,,,,,,,,
null,,confidence_buffer,89611,confidence_buffer,,null,,,,,,,,,,,,,,,,,,
7264,,probe_rating,96877,probe_rating,,52,,,,4,1,,,,,,,,,,,,,
null,,confidence_buffer,96985,confidence_buffer,,null,,,,,,,,,,,,,,,,,,
3924,,unique_rating,100909,Gatlinburg,,49,,,1,,,,,,,,,,,,,,,
null,,confidence_buffer,101024,confidence_buffer,,null,,,,,,,,,,,,,,,,,,
2079,,memorable_rating,103105,Gatlinburg,,49,,,1,,,,,,,,,,,,,,,
null,,confidence_buffer,103212,confidence_buffer,,null,,,,,,,,,,,,,,,,,,
null,,thebreak,103715,break,,null,,,,,,,,,,,,,,,,,,
2885,,familiar_rating,106603,Hawthorne Bluffs,,50,Hawthorne Bluffs,Fictional,2,,,,,,,,,,,,,,,
null,,confidence_buffer,106732,confidence_buffer,,null,,,,,,,,,,,,,,,,,,
4798,,unique_rating,111532,Hawthorne Bluffs,,52,,,4,,,,,,,,,,,,,,,
null,,confidence_buffer,111635,confidence_buffer,,null,,,,,,,,,,,,,,,,,,
1792,,memorable_rating,113429,Hawthorne Bluffs,,50,,,2,,,,,,,,,,,,,,,
null,,confidence_buffer,113544,confidence_buffer,,null,,,,,,,,,,,,,,,,,,
null,,thebreak,114046,break,,null,,,,,,,,,,,,,,,,,,
3062,,familiar_rating,117108,Sierra Hollow,,49,Sierra Hollow,Fictional,1,,,,,,,,,,,,,,,
null,,confidence_buffer,117214,confidence_buffer,,null,,,,,,,,,,,,,,,,,,
2936,,unique_rating,120150,Sierra Hollow,,51,,,3,,,,,,,,,,,,,,,
null,,confidence_buffer,120262,confidence_buffer,,null,,,,,,,,,,,,,,,,,,
2282,,memorable_rating,122546,Sierra Hollow,,50,,,2,,,,,,,,,,,,,,,
null,,confidence_buffer,122660,confidence_buffer,,null,,,,,,,,,,,,,,,,,,
null,,thebreak,123170,break,,null,,,,,,,,,,,,,,,,,,
2533,,familiar_rating,125705,Albuquerque,,50,Albuquerque,US,2,,,,,,,,,,,,,,,
null,,confidence_buffer,125814,confidence_buffer,,null,,,,,,,,,,,,,,,,,,
3462,,unique_rating,129278,Albuquerque,,52,,,4,,,,,,,,,,,,,,,
null,,confidence_buffer,129384,confidence_buffer,,null,,,,,,,,,,,,,,,,,,
1637,,memorable_rating,131022,Albuquerque,,50,,,2,,,,,,,,,,,,,,,
null,,confidence_buffer,131143,confidence_buffer,,null,,,,,,,,,,,,,,,,,,
null,,thebreak,131658,break,,null,,,,,,,,,,,,,,,,,,
1898,,familiar_rating,133558,Sammamish,,52,Sammamish,US,4,,,,,,,,,,,,,,,
null,,confidence_buffer,133670,confidence_buffer,,null,,,,,,,,,,,,,,,,,,
1808,,unique_rating,135480,Sammamish,,49,,,1,,,,,,,,,,,,,,,
null,,confidence_buffer,135596,confidence_buffer,,null,,,,,,,,,,,,,,,,,,
2149,,memorable_rating,137746,Sammamish,,50,,,2,,,,,,,,,,,,,,,
null,,confidence_buffer,137856,confidence_buffer,,null,,,,,,,,,,,,,,,,,,
null,,thebreak,138358,break,,null,,,,,,,,,,,,,,,,,,
2252,,familiar_rating,140611,Bowling Green,,52,Bowling Green,US,4,,,,,,,,,,,,,,,
null,,confidence_buffer,140724,confidence_buffer,,null,,,,,,,,,,,,,,,,,,
2759,,unique_rating,143484,Bowling Green,,51,,,3,,,,,,,,,,,,,,,
null,,confidence_buffer,143607,confidence_buffer,,null,,,,,,,,,,,,,,,,,,
1930,,memorable_rating,145541,Bowling Green,,50,,,2,,,,,,,,,,,,,,,
null,,confidence_buffer,145649,confidence_buffer,,null,,,,,,,,,,,,,,,,,,
null,,thebreak,146151,break,,null,,,,,,,,,,,,,,,,,,
3284,,familiar_rating,149437,Golden Trace,,51,Golden Trace,Fictional,3,,,,,,,,,,,,,,,
null,,confidence_buffer,149549,confidence_buffer,,null,,,,,,,,,,,,,,,,,,
2105,,unique_rating,151656,Golden Trace,,50,,,2,,,,,,,,,,,,,,,
null,,confidence_buffer,151758,confidence_buffer,,null,,,,,,,,,,,,,,,,,,
1848,,memorable_rating,153606,Golden Trace,,53,,,5,,,,,,,,,,,,,,,
null,,confidence_buffer,153712,confidence_buffer,,null,,,,,,,,,,,,,,,,,,
null,,thebreak,154219,break,,null,,,,,,,,,,,,,,,,,,
4030,,familiar_rating,158252,Carmel,,51,Carmel,US,3,,,,,,,,,,,,,,,
null,,confidence_buffer,158368,confidence_buffer,,null,,,,,,,,,,,,,,,,,,
1774,,unique_rating,160144,Carmel,,52,,,4,,,,,,,,,,,,,,,
null,,confidence_buffer,160274,confidence_buffer,,null,,,,,,,,,,,,,,,,,,
2041,,memorable_rating,162316,Carmel,,50,,,2,,,,,,,,,,,,,,,
null,,confidence_buffer,162430,confidence_buffer,,null,,,,,,,,,,,,,,,,,,
null,,thebreak,162932,break,,null,,,,,,,,,,,,,,,,,,
5200,,familiar_rating,168135,Bisbee,,51,Bisbee,US,3,,,,,,,,,,,,,,,
null,,confidence_buffer,168240,confidence_buffer,,null,,,,,,,,,,,,,,,,,,
4144,,unique_rating,172385,Bisbee,,50,,,2,,,,,,,,,,,,,,,
null,,confidence_buffer,172495,confidence_buffer,,null,,,,,,,,,,,,,,,,,,
1611,,memorable_rating,174107,Bisbee,,51,,,3,,,,,,,,,,,,,,,
null,,confidence_buffer,174219,confidence_buffer,,null,,,,,,,,,,,,,,,,,,
null,,thebreak,174722,break,,null,,,,,,,,,,,,,,,,,,
4064,,familiar_rating,178787,Crestwood,,52,Crestwood,Fictional,4,,,,,,,,,,,,,,,
null,,confidence_buffer,178897,confidence_buffer,,null,,,,,,,,,,,,,,,,,,
2020,,unique_rating,180918,Crestwood,,50,,,2,,,,,,,,,,,,,,,
null,,confidence_buffer,181029,confidence_buffer,,null,,,,,,,,,,,,,,,,,,
2288,,memorable_rating,183319,Crestwood,,51,,,3,,,,,,,,,,,,,,,
null,,confidence_buffer,183442,confidence_buffer,,null,,,,,,,,,,,,,,,,,,
null,,thebreak,183943,break,,null,,,,,,,,,,,,,,,,,,
3153,,familiar_rating,187098,Orchard Bend,,50,Orchard Bend,Fictional,2,,,,,,,,,,,,,,,
null,,confidence_buffer,187206,confidence_buffer,,null,,,,,,,,,,,,,,,,,,
3430,,unique_rating,190637,Orchard Bend,,52,,,4,,,,,,,,,,,,,,,
null,,confidence_buffer,190741,confidence_buffer,,null,,,,,,,,,,,,,,,,,,
4124,,probe_rating,194867,probe_rating,,52,,,,4,1,,,,,,,,,,,,,
null,,confidence_buffer,194977,confidence_buffer,,null,,,,,,,,,,,,,,,,,,
1788,,memorable_rating,196766,Orchard Bend,,51,,,3,,,,,,,,,,,,,,,
null,,confidence_buffer,196871,confidence_buffer,,null,,,,,,,,,,,,,,,,,,
null,,thebreak,197378,break,,null,,,,,,,,,,,,,,,,,,
1276,,familiar_rating,198656,Hot Springs,,52,Hot Springs,US,4,,,,,,,,,,,,,,,
null,,confidence_buffer,198764,confidence_buffer,,null,,,,,,,,,,,,,,,,,,
1476,,unique_rating,200241,Hot Springs,,53,,,5,,,,,,,,,,,,,,,
null,,confidence_buffer,200357,confidence_buffer,,null,,,,,,,,,,,,,,,,,,
1691,,memorable_rating,202049,Hot Springs,,50,,,2,,,,,,,,,,,,,,,
null,,confidence_buffer,202165,confidence_buffer,,null,,,,,,,,,,,,,,,,,,
null,,thebreak,202667,break,,null,,,,,,,,,,,,,,,,,,
1878,,familiar_rating,204547,Racine,,52,Racine,US,4,,,,,,,,,,,,,,,
null,,confidence_buffer,204662,confidence_buffer,,null,,,,,,,,,,,,,,,,,,
1316,,unique_rating,205980,Racine,,53,,,5,,,,,,,,,,,,,,,
null,,confidence_buffer,206086,confidence_buffer,,null,,,,,,,,,,,,,,,,,,
1789,,memorable_rating,207877,Racine,,50,,,2,,,,,,,,,,,,,,,
null,,confidence_buffer,207981,confidence_buffer,,null,,,,,,,,,,,,,,,,,,
null,,thebreak,208483,break,,null,,,,,,,,,,,,,,,,,,
1218,,familiar_rating,209702,Sunmere,,52,Sunmere,Fictional,4,,,,,,,,,,,,,,,
null,,confidence_buffer,209807,confidence_buffer,,null,,,,,,,,,,,,,,,,,,
1894,,unique_rating,211702,Sunmere,,51,,,3,,,,,,,,,,,,,,,
null,,confidence_buffer,211830,confidence_buffer,,null,,,,,,,,,,,,,,,,,,
2093,,memorable_rating,213925,Sunmere,,50,,,2,,,,,,,,,,,,,,,
null,,confidence_buffer,214026,confidence_buffer,,null,,,,,,,,,,,,,,,,,,
null,,thebreak,214528,break,,null,,,,,,,,,,,,,,,,,,
1958,,familiar_rating,216486,Maravilla Springs,,51,Maravilla Springs,Fictional,3,,,,,,,,,,,,,,,
null,,confidence_buffer,216609,confidence_buffer,,null,,,,,,,,,,,,,,,,,,
2829,,unique_rating,219441,Maravilla Springs,,53,,,5,,,,,,,,,,,,,,,
null,,confidence_buffer,219552,confidence_buffer,,null,,,,,,,,,,,,,,,,,,
2601,,memorable_rating,222156,Maravilla Springs,,52,,,4,,,,,,,,,,,,,,,
null,,confidence_buffer,222265,confidence_buffer,,null,,,,,,,,,,,,,,,,,,
null,,thebreak,222769,break,,null,,,,,,,,,,,,,,,,,,
3275,,familiar_rating,226046,Willowford,,51,Willowford,Fictional,3,,,,,,,,,,,,,,,
null,,confidence_buffer,226154,confidence_buffer,,null,,,,,,,,,,,,,,,,,,
1602,,unique_rating,227758,Willowford,,50,,,2,,,,,,,,,,,,,,,
null,,confidence_buffer,227863,confidence_buffer,,null,,,,,,,,,,,,,,,,,,
1832,,memorable_rating,229695,Willowford,,53,,,5,,,,,,,,,,,,,,,
null,,confidence_buffer,229807,confidence_buffer,,null,,,,,,,,,,,,,,,,,,
3555,,probe_rating,233363,probe_rating,,52,,,,4,1,,,,,,,,,,,,,
null,,confidence_buffer,233468,confidence_buffer,,null,,,,,,,,,,,,,,,,,,
null,,thebreak,233972,break,,null,,,,,,,,,,,,,,,,,,
2204,,familiar_rating,236178,Berkeley Springs,,51,Berkeley Springs,US,3,,,,,,,,,,,,,,,
null,,confidence_buffer,236282,confidence_buffer,,null,,,,,,,,,,,,,,,,,,
1849,,unique_rating,238133,Berkeley Springs,,52,,,4,,,,,,,,,,,,,,,
null,,confidence_buffer,238246,confidence_buffer,,null,,,,,,,,,,,,,,,,,,
1989,,memorable_rating,240236,Berkeley Springs,,50,,,2,,,,,,,,,,,,,,,
null,,confidence_buffer,240341,confidence_buffer,,null,,,,,,,,,,,,,,,,,,
null,,thebreak,240845,break,,null,,,,,,,,,,,,,,,,,,
1256,,familiar_rating,242102,Barnard,,51,Barnard,US,3,,,,,,,,,,,,,,,
null,,confidence_buffer,242213,confidence_buffer,,null,,,,,,,,,,,,,,,,,,
1512,,unique_rating,243727,Barnard,,49,,,1,,,,,,,,,,,,,,,
null,,confidence_buffer,243845,confidence_buffer,,null,,,,,,,,,,,,,,,,,,
1874,,memorable_rating,245720,Barnard,,50,,,2,,,,,,,,,,,,,,,
null,,confidence_buffer,245831,confidence_buffer,,null,,,,,,,,,,,,,,,,,,
null,,thebreak,246337,break,,null,,,,,,,,,,,,,,,,,,
1989,,familiar_rating,248325,Bayshore Haven,,52,Bayshore Haven,Fictional,4,,,,,,,,,,,,,,,
null,,confidence_buffer,248437,confidence_buffer,,null,,,,,,,,,,,,,,,,,,
1953,,unique_rating,250392,Bayshore Haven,,49,,,1,,,,,,,,,,,,,,,
null,,confidence_buffer,250499,confidence_buffer,,null,,,,,,,,,,,,,,,,,,
2102,,memorable_rating,252602,Bayshore Haven,,50,,,2,,,,,,,,,,,,,,,
null,,confidence_buffer,252708,confidence_buffer,,null,,,,,,,,,,,,,,,,,,
null,,thebreak,253211,break,,null,,,,,,,,,,,,,,,,,,
2048,,familiar_rating,255260,Fairhaven,,51,Fairhaven,Fictional,3,,,,,,,,,,,,,,,
null,,confidence_buffer,255369,confidence_buffer,,null,,,,,,,,,,,,,,,,,,
2098,,unique_rating,257468,Fairhaven,,52,,,4,,,,,,,,,,,,,,,
null,,confidence_buffer,257571,confidence_buffer,,null,,,,,,,,,,,,,,,,,,
2083,,memorable_rating,259654,Fairhaven,,50,,,2,,,,,,,,,,,,,,,
null,,confidence_buffer,259762,confidence_buffer,,null,,,,,,,,,,,,,,,,,,
null,,thebreak,260265,break,,null,,,,,,,,,,,,,,,,,,
978,,familiar_rating,261245,Millstone,,49,Millstone,Fictional,1,,,,,,,,,,,,,,,
null,,confidence_buffer,261356,confidence_buffer,,null,,,,,,,,,,,,,,,,,,
1161,,unique_rating,262520,Millstone,,50,,,2,,,,,,,,,,,,,,,
null,,confidence_buffer,262636,confidence_buffer,,null,,,,,,,,,,,,,,,,,,
2187,,memorable_rating,264825,Millstone,,52,,,4,,,,,,,,,,,,,,,
null,,confidence_buffer,264947,confidence_buffer,,null,,,,,,,,,,,,,,,,,,
null,,thebreak,265450,break,,null,,,,,,,,,,,,,,,,,,
3223,,familiar_rating,268675,Ironwood Heights,,51,Ironwood Heights,Fictional,3,,,,,,,,,,,,,,,
null,,confidence_buffer,268783,confidence_buffer,,null,,,,,,,,,,,,,,,,,,
3172,,probe_rating,271957,probe_rating,,51,,,,3,1,,,,,,,,,,,,,
null,,confidence_buffer,272066,confidence_buffer,,null,,,,,,,,,,,,,,,,,,
1750,,unique_rating,273818,Ironwood Heights,,52,,,4,,,,,,,,,,,,,,,
null,,confidence_buffer,273931,confidence_buffer,,null,,,,,,,,,,,,,,,,,,
2250,,memorable_rating,276182,Ironwood Heights,,53,,,5,,,,,,,,,,,,,,,
null,,confidence_buffer,276290,confidence_buffer,,null,,,,,,,,,,,,,,,,,,
null,,thebreak,276793,break,,null,,,,,,,,,,,,,,,,,,
1030,,familiar_rating,277824,Coralridge,,50,Coralridge,Fictional,2,,,,,,,,,,,,,,,
null,,confidence_buffer,277936,confidence_buffer,,null,,,,,,,,,,,,,,,,,,
2973,,unique_rating,280910,Coralridge,,49,,,1,,,,,,,,,,,,,,,
null,,confidence_buffer,281015,confidence_buffer,,null,,,,,,,,,,,,,,,,,,
1818,,memorable_rating,282834,Coralridge,,50,,,2,,,,,,,,,,,,,,,
null,,confidence_buffer,282948,confidence_buffer,,null,,,,,,,,,,,,,,,,,,
null,,thebreak,283449,break,,null,,,,,,,,,,,,,,,,,,
2574,,familiar_rating,286024,Delaware City,,51,Delaware City,US,3,,,,,,,,,,,,,,,
null,,confidence_buffer,286137,confidence_buffer,,null,,,,,,,,,,,,,,,,,,
4050,,unique_rating,290190,Delaware City,,52,,,4,,,,,,,,,,,,,,,
null,,confidence_buffer,290295,confidence_buffer,,null,,,,,,,,,,,,,,,,,,
2020,,memorable_rating,292317,Delaware City,,53,,,5,,,,,,,,,,,,,,,
null,,confidence_buffer,292421,confidence_buffer,,null,,,,,,,,,,,,,,,,,,
null,,thebreak,292940,break,,null,,,,,,,,,,,,,,,,,,
1593,,familiar_rating,294534,Livingston,,51,Livingston,US,3,,,,,,,,,,,,,,,
null,,confidence_buffer,294647,confidence_buffer,,null,,,,,,,,,,,,,,,,,,
1425,,unique_rating,296073,Livingston,,50,,,2,,,,,,,,,,,,,,,
null,,confidence_buffer,296185,confidence_buffer,,null,,,,,,,,,,,,,,,,,,
2255,,memorable_rating,298442,Livingston,,52,,,4,,,,,,,,,,,,,,,
null,,confidence_buffer,298552,confidence_buffer,,null,,,,,,,,,,,,,,,,,,
null,,thebreak,299054,break,,null,,,,,,,,,,,,,,,,,,
3748,,familiar_rating,302804,Pine Hollow,,53,Pine Hollow,Fictional,5,,,,,,,,,,,,,,,
null,,confidence_buffer,302905,confidence_buffer,,null,,,,,,,,,,,,,,,,,,
2194,,unique_rating,305101,Pine Hollow,,50,,,2,,,,,,,,,,,,,,,
null,,confidence_buffer,305216,confidence_buffer,,null,,,,,,,,,,,,,,,,,,
3534,,memorable_rating,308751,Pine Hollow,,51,,,3,,,,,,,,,,,,,,,
null,,confidence_buffer,308852,confidence_buffer,,null,,,,,,,,,,,,,,,,,,
2539,,probe_rating,311392,probe_rating,,50,,,,2,1,,,,,,,,,,,,,
null,,confidence_buffer,311504,confidence_buffer,,null,,,,,,,,,,,,,,,,,,
null,,thebreak,312007,break,,null,,,,,,,,,,,,,,,,,,
3284,,familiar_rating,315292,Park City,,52,Park City,US,4,,,,,,,,,,,,,,,
null,,confidence_buffer,315408,confidence_buffer,,null,,,,,,,,,,,,,,,,,,
2073,,unique_rating,317482,Park City,,53,,,5,,,,,,,,,,,,,,,
null,,confidence_buffer,317595,confidence_buffer,,null,,,,,,,,,,,,,,,,,,
1679,,memorable_rating,319275,Park City,,51,,,3,,,,,,,,,,,,,,,
null,,confidence_buffer,319391,confidence_buffer,,null,,,,,,,,,,,,,,,,,,
null,,thebreak,319893,break,,null,,,,,,,,,,,,,,,,,,
1350,,familiar_rating,321245,Newport,,50,Newport,US,2,,,,,,,,,,,,,,,
null,,confidence_buffer,321355,confidence_buffer,,null,,,,,,,,,,,,,,,,,,
2249,,unique_rating,323606,Newport,,49,,,1,,,,,,,,,,,,,,,
null,,confidence_buffer,323713,confidence_buffer,,null,,,,,,,,,,,,,,,,,,
2092,,memorable_rating,325808,Newport,,52,,,4,,,,,,,,,,,,,,,
null,,confidence_buffer,325908,confidence_buffer,,null,,,,,,,,,,,,,,,,,,
null,,thebreak,326412,break,,null,,,,,,,,,,,,,,,,,,
1251,,familiar_rating,327664,West Palm Beach,,53,West Palm Beach,US,5,,,,,,,,,,,,,,,
null,,confidence_buffer,327773,confidence_buffer,,null,,,,,,,,,,,,,,,,,,
1417,,unique_rating,329189,West Palm Beach,,51,,,3,,,,,,,,,,,,,,,
null,,confidence_buffer,329294,confidence_buffer,,null,,,,,,,,,,,,,,,,,,
1618,,memorable_rating,330913,West Palm Beach,,52,,,4,,,,,,,,,,,,,,,
null,,confidence_buffer,331018,confidence_buffer,,null,,,,,,,,,,,,,,,,,,
null,,thebreak,331522,break,,null,,,,,,,,,,,,,,,,,,
2241,,familiar_rating,333765,Meadowspire,,50,Meadowspire,Fictional,2,,,,,,,,,,,,,,,
null,,confidence_buffer,333869,confidence_buffer,,null,,,,,,,,,,,,,,,,,,
1927,,unique_rating,335796,Meadowspire,,51,,,3,,,,,,,,,,,,,,,
null,,confidence_buffer,335911,confidence_buffer,,null,,,,,,,,,,,,,,,,,,
3195,,memorable_rating,339107,Meadowspire,,52,,,4,,,,,,,,,,,,,,,
null,,confidence_buffer,339225,confidence_buffer,,null,,,,,,,,,,,,,,,,,,
null,,thebreak,339727,break,,null,,,,,,,,,,,,,,,,,,
4839,,intro_0,344568,instruct,,32,,,,,,,,,,,,,,,,,,
5376,,intro_1,349945,instruct,,32,,,,,,,,,,,,,,,,,,
8435,,intro_2,358380,instruct,,32,,,,,,,,,,,,,,,,,,
null,,instruct_dir_4,359888,instruct,,null,,,,,,,,,,,,,,,,,,
2718,,realistic_rating,362606,Custer,,50,Custer,US,2,,,,,,,,,,,,,,,
null,,confidence_buffer,362715,confidence_buffer,,null,,,,,,,,,,,,,,,,,,
2067,,pt2_unique_rating,364783,Custer,,51,,,3,,,,,,,,,,,,,,,
null,,confidence_buffer,364891,confidence_buffer,,null,,,,,,,,,,,,,,,,,,
1557,,pt2_memorable_rating,366449,Custer,,49,,,1,,,,,,,,,,,,,,,
null,,confidence_buffer,366558,confidence_buffer,,null,,,,,,,,,,,,,,,,,,
1742,,recognition_phase,368300,Custer,,51,,,,,,new,1,1,,,,,,,,,,
null,,confidence_buffer,368403,confidence_buffer,,null,,,,,,,,,,,,,,,,,,
null,,thebreak,368919,break,,null,,,,,,,,,,,,,,,,,,
1766,,realistic_rating,370686,Park City,,52,Park City,US,4,,,,,,,,,,,,,,,
null,,confidence_buffer,370801,confidence_buffer,,null,,,,,,,,,,,,,,,,,,
1435,,pt2_unique_rating,372238,Park City,,50,,,2,,,,,,,,,,,,,,,
null,,confidence_buffer,372356,confidence_buffer,,null,,,,,,,,,,,,,,,,,,
2091,,pt2_memorable_rating,374448,Park City,,51,,,3,,,,,,,,,,,,,,,
null,,confidence_buffer,374569,confidence_buffer,,null,,,,,,,,,,,,,,,,,,
1284,,recognition_phase,375854,Park City,,50,,,,,,old,1,1,,,,,,,,,,
null,,confidence_buffer,375974,confidence_buffer,,null,,,,,,,,,,,,,,,,,,
null,,thebreak,376478,break,,null,,,,,,,,,,,,,,,,,,
1338,,realistic_rating,377818,Ravenport,,49,Ravenport,Fictional,1,,,,,,,,,,,,,,,
null,,confidence_buffer,377933,confidence_buffer,,null,,,,,,,,,,,,,,,,,,
2789,,pt2_unique_rating,380723,Ravenport,,52,,,4,,,,,,,,,,,,,,,
null,,confidence_buffer,380833,confidence_buffer,,null,,,,,,,,,,,,,,,,,,
2218,,pt2_memorable_rating,383052,Ravenport,,51,,,3,,,,,,,,,,,,,,,
null,,confidence_buffer,383158,confidence_buffer,,null,,,,,,,,,,,,,,,,,,
3453,,probe_rating,386613,probe_rating,,51,,,,3,1,,,,,,,,,,,,,
null,,confidence_buffer,386727,confidence_buffer,,null,,,,,,,,,,,,,,,,,,
2132,,recognition_phase,388862,Ravenport,,52,,,,,,new,1,1,,,,,,,,,,
null,,confidence_buffer,388970,confidence_buffer,,null,,,,,,,,,,,,,,,,,,
null,,thebreak,389472,break,,null,,,,,,,,,,,,,,,,,,
1664,,realistic_rating,391136,Falconridge,,53,Falconridge,Fictional,5,,,,,,,,,,,,,,,
null,,confidence_buffer,391250,confidence_buffer,,null,,,,,,,,,,,,,,,,,,
1660,,pt2_unique_rating,392913,Falconridge,,50,,,2,,,,,,,,,,,,,,,
null,,confidence_buffer,393019,confidence_buffer,,null,,,,,,,,,,,,,,,,,,
2246,,pt2_memorable_rating,395266,Falconridge,,51,,,3,,,,,,,,,,,,,,,
null,,confidence_buffer,395371,confidence_buffer,,null,,,,,,,,,,,,,,,,,,
2520,,recognition_phase,397891,Falconridge,,52,,,,,,new,1,1,,,,,,,,,,
null,,confidence_buffer,397998,confidence_buffer,,null,,,,,,,,,,,,,,,,,,
null,,thebreak,398501,break,,null,,,,,,,,,,,,,,,,,,
1303,,realistic_rating,399805,New Verdan,,51,New Verdan,Fictional,3,,,,,,,,,,,,,,,
null,,confidence_buffer,399922,confidence_buffer,,null,,,,,,,,,,,,,,,,,,
1650,,pt2_unique_rating,401573,New Verdan,,50,,,2,,,,,,,,,,,,,,,
null,,confidence_buffer,401677,confidence_buffer,,null,,,,,,,,,,,,,,,,,,
1560,,pt2_memorable_rating,403238,New Verdan,,51,,,3,,,,,,,,,,,,,,,
null,,confidence_buffer,403340,confidence_buffer,,null,,,,,,,,,,,,,,,,,,
1625,,recognition_phase,404966,New Verdan,,52,,,,,,new,1,1,,,,,,,,,,
null,,confidence_buffer,405075,confidence_buffer,,null,,,,,,,,,,,,,,,,,,
null,,thebreak,405576,break,,null,,,,,,,,,,,,,,,,,,
975,,realistic_rating,406552,Sunmere,,51,Sunmere,Fictional,3,,,,,,,,,,,,,,,
null,,confidence_buffer,406666,confidence_buffer,,null,,,,,,,,,,,,,,,,,,
2139,,pt2_unique_rating,408806,Sunmere,,50,,,2,,,,,,,,,,,,,,,
null,,confidence_buffer,408905,confidence_buffer,,null,,,,,,,,,,,,,,,,,,
1630,,pt2_memorable_rating,410536,Sunmere,,52,,,4,,,,,,,,,,,,,,,
null,,confidence_buffer,410651,confidence_buffer,,null,,,,,,,,,,,,,,,,,,
1772,,recognition_phase,412423,Sunmere,,51,,,,,,new,0,0.8333333333333334,,,,,,,,,,
null,,confidence_buffer,412546,confidence_buffer,,null,,,,,,,,,,,,,,,,,,
null,,thebreak,413049,break,,null,,,,,,,,,,,,,,,,,,
2578,,realistic_rating,415628,Albuquerque,,51,Albuquerque,US,3,,,,,,,,,,,,,,,
null,,confidence_buffer,415735,confidence_buffer,,null,,,,,,,,,,,,,,,,,,
2166,,probe_rating,417904,probe_rating,,52,,,,4,1,,,,,,,,,,,,,
null,,confidence_buffer,418014,confidence_buffer,,null,,,,,,,,,,,,,,,,,,
1967,,pt2_unique_rating,419982,Albuquerque,,50,,,2,,,,,,,,,,,,,,,
null,,confidence_buffer,420093,confidence_buffer,,null,,,,,,,,,,,,,,,,,,
2000,,pt2_memorable_rating,422095,Albuquerque,,51,,,3,,,,,,,,,,,,,,,
null,,confidence_buffer,422203,confidence_buffer,,null,,,,,,,,,,,,,,,,,,
6516,,recognition_phase,428720,Albuquerque,,52,,,,,,new,0,0.7142857142857143,,,,,,,,,,
null,,confidence_buffer,428832,confidence_buffer,,null,,,,,,,,,,,,,,,,,,
null,,thebreak,429333,break,,null,,,,,,,,,,,,,,,,,,
2830,,realistic_rating,432165,Hawthorne Bluffs,,51,Hawthorne Bluffs,Fictional,3,,,,,,,,,,,,,,,
null,,confidence_buffer,432281,confidence_buffer,,null,,,,,,,,,,,,,,,,,,
1338,,pt2_unique_rating,433621,Hawthorne Bluffs,,52,,,4,,,,,,,,,,,,,,,
null,,confidence_buffer,433741,confidence_buffer,,null,,,,,,,,,,,,,,,,,,
1110,,pt2_memorable_rating,434853,Hawthorne Bluffs,,52,,,4,,,,,,,,,,,,,,,
null,,confidence_buffer,434962,confidence_buffer,,null,,,,,,,,,,,,,,,,,,
1379,,recognition_phase,436342,Hawthorne Bluffs,,51,,,,,,new,0,0.625,,,,,,,,,,
null,,confidence_buffer,436453,confidence_buffer,,null,,,,,,,,,,,,,,,,,,
null,,thebreak,436955,break,,null,,,,,,,,,,,,,,,,,,
3100,,realistic_rating,440056,Coeur d'Alene,,50,Coeur d'Alene,US,2,,,,,,,,,,,,,,,
null,,confidence_buffer,440170,confidence_buffer,,null,,,,,,,,,,,,,,,,,,
3687,,pt2_unique_rating,443859,Coeur d'Alene,,51,,,3,,,,,,,,,,,,,,,
null,,confidence_buffer,443970,confidence_buffer,,null,,,,,,,,,,,,,,,,,,
3544,,pt2_memorable_rating,447517,Coeur d'Alene,,50,,,2,,,,,,,,,,,,,,,
null,,confidence_buffer,447627,confidence_buffer,,null,,,,,,,,,,,,,,,,,,
1559,,recognition_phase,449186,Coeur d'Alene,,49,,,,,,old,0,0.5555555555555556,,,,,,,,,,
null,,confidence_buffer,449294,confidence_buffer,,null,,,,,,,,,,,,,,,,,,
null,,thebreak,449796,break,,null,,,,,,,,,,,,,,,,,,
1209,,realistic_rating,451007,Millstone,,51,Millstone,Fictional,3,,,,,,,,,,,,,,,
null,,confidence_buffer,451124,confidence_buffer,,null,,,,,,,,,,,,,,,,,,
1592,,pt2_unique_rating,452717,Millstone,,50,,,2,,,,,,,,,,,,,,,
null,,confidence_buffer,452833,confidence_buffer,,null,,,,,,,,,,,,,,,,,,
1523,,pt2_memorable_rating,454357,Millstone,,52,,,4,,,,,,,,,,,,,,,
null,,confidence_buffer,454468,confidence_buffer,,null,,,,,,,,,,,,,,,,,,
2578,,probe_rating,457047,probe_rating,,50,,,,2,1,,,,,,,,,,,,,
null,,confidence_buffer,457165,confidence_buffer,,null,,,,,,,,,,,,,,,,,,
1588,,recognition_phase,458754,Millstone,,52,,,,,,new,0,0.5,,,,,,,,,,
null,,confidence_buffer,458856,confidence_buffer,,null,,,,,,,,,,,,,,,,,,
null,,thebreak,459358,break,,null,,,,,,,,,,,,,,,,,,
91842,,realistic_rating,551202,Lake of the Ozarks,,51,Lake of the Ozarks,US,3,,,,,,,,,,,,,,,
null,,confidence_buffer,551313,confidence_buffer,,null,,,,,,,,,,,,,,,,,,
1631,,pt2_unique_rating,552945,Lake of the Ozarks,,52,,,4,,,,,,,,,,,,,,,
null,,confidence_buffer,553054,confidence_buffer,,null,,,,,,,,,,,,,,,,,,
2179,,pt2_memorable_rating,555235,Lake of the Ozarks,,51,,,3,,,,,,,,,,,,,,,
null,,confidence_buffer,555350,confidence_buffer,,null,,,,,,,,,,,,,,,,,,
1434,,recognition_phase,556787,Lake of the Ozarks,,50,,,,,,old,0,0.45454545454545453,,,,,,,,,,
null,,confidence_buffer,556897,confidence_buffer,,null,,,,,,,,,,,,,,,,,,
null,,thebreak,557414,break,,null,,,,,,,,,,,,,,,,,,
3405,,realistic_rating,560820,Crestwood,,51,Crestwood,Fictional,3,,,,,,,,,,,,,,,
null,,confidence_buffer,560930,confidence_buffer,,null,,,,,,,,,,,,,,,,,,
1602,,pt2_unique_rating,562533,Crestwood,,52,,,4,,,,,,,,,,,,,,,
null,,confidence_buffer,562637,confidence_buffer,,null,,,,,,,,,,,,,,,,,,
2008,,pt2_memorable_rating,564647,Crestwood,,50,,,2,,,,,,,,,,,,,,,
null,,confidence_buffer,564764,confidence_buffer,,null,,,,,,,,,,,,,,,,,,
2138,,probe_rating,566904,probe_rating,,51,,,,3,1,,,,,,,,,,,,,
null,,confidence_buffer,567008,confidence_buffer,,null,,,,,,,,,,,,,,,,,,
2056,,recognition_phase,569064,Crestwood,,52,,,,,,new,0,0.4166666666666667,,,,,,,,,,
null,,confidence_buffer,569172,confidence_buffer,,null,,,,,,,,,,,,,,,,,,
null,,thebreak,569673,break,,null,,,,,,,,,,,,,,,,,,
3888,,realistic_rating,573564,Coralridge,,50,Coralridge,Fictional,2,,,,,,,,,,,,,,,
null,,confidence_buffer,573676,confidence_buffer,,null,,,,,,,,,,,,,,,,,,
3201,,pt2_unique_rating,576878,Coralridge,,52,,,4,,,,,,,,,,,,,,,
null,,confidence_buffer,576993,confidence_buffer,,null,,,,,,,,,,,,,,,,,,
1944,,pt2_memorable_rating,578939,Coralridge,,51,,,3,,,,,,,,,,,,,,,
null,,confidence_buffer,579061,confidence_buffer,,null,,,,,,,,,,,,,,,,,,
1385,,recognition_phase,580446,Coralridge,,50,,,,,,old,1,0.46153846153846156,,,,,,,,,,
null,,confidence_buffer,580566,confidence_buffer,,null,,,,,,,,,,,,,,,,,,
null,,thebreak,581070,break,,null,,,,,,,,,,,,,,,,,,
5394,,realistic_rating,586464,West Palm Beach,,52,West Palm Beach,US,4,,,,,,,,,,,,,,,
null,,confidence_buffer,586572,confidence_buffer,,null,,,,,,,,,,,,,,,,,,
1140,,pt2_unique_rating,587713,West Palm Beach,,51,,,3,,,,,,,,,,,,,,,
null,,confidence_buffer,587817,confidence_buffer,,null,,,,,,,,,,,,,,,,,,
856,,pt2_memorable_rating,588675,West Palm Beach,,50,,,2,,,,,,,,,,,,,,,
null,,confidence_buffer,588785,confidence_buffer,,null,,,,,,,,,,,,,,,,,,
1537,,recognition_phase,590323,West Palm Beach,,51,,,,,,new,0,0.42857142857142855,,,,,,,,,,
null,,confidence_buffer,590431,confidence_buffer,,null,,,,,,,,,,,,,,,,,,
null,,thebreak,590934,break,,null,,,,,,,,,,,,,,,,,,
1927,,realistic_rating,592861,Bowling Green,,52,Bowling Green,US,4,,,,,,,,,,,,,,,
null,,confidence_buffer,592975,confidence_buffer,,null,,,,,,,,,,,,,,,,,,
1677,,pt2_unique_rating,594652,Bowling Green,,51,,,3,,,,,,,,,,,,,,,
null,,confidence_buffer,594755,confidence_buffer,,null,,,,,,,,,,,,,,,,,,
2010,,pt2_memorable_rating,596767,Bowling Green,,50,,,2,,,,,,,,,,,,,,,
null,,confidence_buffer,596879,confidence_buffer,,null,,,,,,,,,,,,,,,,,,
1463,,recognition_phase,598343,Bowling Green,,51,,,,,,new,0,0.4,,,,,,,,,,
null,,confidence_buffer,598456,confidence_buffer,,null,,,,,,,,,,,,,,,,,,
null,,thebreak,598960,break,,null,,,,,,,,,,,,,,,,,,
1214,,realistic_rating,600176,Tamarisk Hills,,52,Tamarisk Hills,Fictional,4,,,,,,,,,,,,,,,
null,,confidence_buffer,600295,confidence_buffer,,null,,,,,,,,,,,,,,,,,,
1847,,pt2_unique_rating,602143,Tamarisk Hills,,50,,,2,,,,,,,,,,,,,,,
null,,confidence_buffer,602250,confidence_buffer,,null,,,,,,,,,,,,,,,,,,
1472,,pt2_memorable_rating,603723,Tamarisk Hills,,51,,,3,,,,,,,,,,,,,,,
null,,confidence_buffer,603826,confidence_buffer,,null,,,,,,,,,,,,,,,,,,
1341,,recognition_phase,605168,Tamarisk Hills,,50,,,,,,old,0,0.375,,,,,,,,,,
null,,confidence_buffer,605283,confidence_buffer,,null,,,,,,,,,,,,,,,,,,
null,,thebreak,605786,break,,null,,,,,,,,,,,,,,,,,,
1968,,realistic_rating,607756,Golden Trace,,51,Golden Trace,Fictional,3,,,,,,,,,,,,,,,
null,,confidence_buffer,607872,confidence_buffer,,null,,,,,,,,,,,,,,,,,,
2152,,probe_rating,610026,probe_rating,,51,,,,3,1,,,,,,,,,,,,,
null,,confidence_buffer,610134,confidence_buffer,,null,,,,,,,,,,,,,,,,,,
2985,,pt2_unique_rating,613119,Golden Trace,,52,,,4,,,,,,,,,,,,,,,
null,,confidence_buffer,613235,confidence_buffer,,null,,,,,,,,,,,,,,,,,,
1370,,pt2_memorable_rating,614607,Golden Trace,,50,,,2,,,,,,,,,,,,,,,
null,,confidence_buffer,614726,confidence_buffer,,null,,,,,,,,,,,,,,,,,,
1929,,recognition_phase,616656,Golden Trace,,51,,,,,,new,0,0.35294117647058826,,,,,,,,,,
null,,confidence_buffer,616768,confidence_buffer,,null,,,,,,,,,,,,,,,,,,
null,,thebreak,617272,break,,null,,,,,,,,,,,,,,,,,,
3737,,realistic_rating,621012,Racine,,52,Racine,US,4,,,,,,,,,,,,,,,
null,,confidence_buffer,621120,confidence_buffer,,null,,,,,,,,,,,,,,,,,,
1490,,pt2_unique_rating,622612,Racine,,51,,,3,,,,,,,,,,,,,,,
null,,confidence_buffer,622724,confidence_buffer,,null,,,,,,,,,,,,,,,,,,
1702,,pt2_memorable_rating,624428,Racine,,50,,,2,,,,,,,,,,,,,,,
null,,confidence_buffer,624533,confidence_buffer,,null,,,,,,,,,,,,,,,,,,
1558,,recognition_phase,626093,Racine,,51,,,,,,new,0,0.3333333333333333,,,,,,,,,,
null,,confidence_buffer,626209,confidence_buffer,,null,,,,,,,,,,,,,,,,,,
null,,thebreak,626712,break,,null,,,,,,,,,,,,,,,,,,
1773,,realistic_rating,628486,Bar Harbor,,50,Bar Harbor,US,2,,,,,,,,,,,,,,,
null,,confidence_buffer,628590,confidence_buffer,,null,,,,,,,,,,,,,,,,,,
1896,,pt2_unique_rating,630488,Bar Harbor,,52,,,4,,,,,,,,,,,,,,,
null,,confidence_buffer,630599,confidence_buffer,,null,,,,,,,,,,,,,,,,,,
1896,,pt2_memorable_rating,632497,Bar Harbor,,51,,,3,,,,,,,,,,,,,,,
null,,confidence_buffer,632609,confidence_buffer,,null,,,,,,,,,,,,,,,,,,
2295,,recognition_phase,634905,Bar Harbor,,51,,,,,,new,1,0.3684210526315789,,,,,,,,,,
null,,confidence_buffer,635022,confidence_buffer,,null,,,,,,,,,,,,,,,,,,
null,,thebreak,635535,break,,null,,,,,,,,,,,,,,,,,,
2660,,realistic_rating,638197,Willowford,,52,Willowford,Fictional,4,,,,,,,,,,,,,,,
null,,confidence_buffer,638299,confidence_buffer,,null,,,,,,,,,,,,,,,,,,
2646,,pt2_unique_rating,640949,Willowford,,51,,,3,,,,,,,,,,,,,,,
null,,confidence_buffer,641052,confidence_buffer,,null,,,,,,,,,,,,,,,,,,
3007,,pt2_memorable_rating,644060,Willowford,,50,,,2,,,,,,,,,,,,,,,
null,,confidence_buffer,644168,confidence_buffer,,null,,,,,,,,,,,,,,,,,,
2452,,recognition_phase,646623,Willowford,,51,,,,,,new,0,0.35,,,,,,,,,,
null,,confidence_buffer,646727,confidence_buffer,,null,,,,,,,,,,,,,,,,,,
null,,thebreak,647231,break,,null,,,,,,,,,,,,,,,,,,
2513,,realistic_rating,649746,Healdsburg,,52,Healdsburg,US,4,,,,,,,,,,,,,,,
null,,confidence_buffer,649864,confidence_buffer,,null,,,,,,,,,,,,,,,,,,
5393,,pt2_unique_rating,655258,Healdsburg,,50,,,2,,,,,,,,,,,,,,,
null,,confidence_buffer,655372,confidence_buffer,,null,,,,,,,,,,,,,,,,,,
1840,,pt2_memorable_rating,657213,Healdsburg,,52,,,4,,,,,,,,,,,,,,,
null,,confidence_buffer,657336,confidence_buffer,,null,,,,,,,,,,,,,,,,,,
1539,,recognition_phase,658876,Healdsburg,,51,,,,,,new,1,0.38095238095238093,,,,,,,,,,
null,,confidence_buffer,658989,confidence_buffer,,null,,,,,,,,,,,,,,,,,,
null,,thebreak,659491,break,,null,,,,,,,,,,,,,,,,,,
4259,,realistic_rating,663753,Hot Springs,,51,Hot Springs,US,3,,,,,,,,,,,,,,,
null,,confidence_buffer,663869,confidence_buffer,,null,,,,,,,,,,,,,,,,,,
1707,,pt2_unique_rating,665578,Hot Springs,,50,,,2,,,,,,,,,,,,,,,
null,,confidence_buffer,665691,confidence_buffer,,null,,,,,,,,,,,,,,,,,,
2020,,pt2_memorable_rating,667714,Hot Springs,,51,,,3,,,,,,,,,,,,,,,
null,,confidence_buffer,667832,confidence_buffer,,null,,,,,,,,,,,,,,,,,,
1673,,recognition_phase,669508,Hot Springs,,52,,,,,,new,0,0.36363636363636365,,,,,,,,,,
null,,confidence_buffer,669624,confidence_buffer,,null,,,,,,,,,,,,,,,,,,
null,,thebreak,670127,break,,null,,,,,,,,,,,,,,,,,,
3035,,realistic_rating,673164,Okoboji,,52,Okoboji,US,4,,,,,,,,,,,,,,,
null,,confidence_buffer,673274,confidence_buffer,,null,,,,,,,,,,,,,,,,,,
2355,,pt2_unique_rating,675630,Okoboji,,51,,,3,,,,,,,,,,,,,,,
null,,confidence_buffer,675739,confidence_buffer,,null,,,,,,,,,,,,,,,,,,
1940,,pt2_memorable_rating,677681,Okoboji,,50,,,2,,,,,,,,,,,,,,,
null,,confidence_buffer,677796,confidence_buffer,,null,,,,,,,,,,,,,,,,,,
1659,,recognition_phase,679457,Okoboji,,50,,,,,,old,0,0.34782608695652173,,,,,,,,,,
null,,confidence_buffer,679572,confidence_buffer,,null,,,,,,,,,,,,,,,,,,
null,,thebreak,680074,break,,null,,,,,,,,,,,,,,,,,,
3046,,realistic_rating,683123,Barnard,,51,Barnard,US,3,,,,,,,,,,,,,,,
null,,confidence_buffer,683233,confidence_buffer,,null,,,,,,,,,,,,,,,,,,
1151,,pt2_unique_rating,684387,Barnard,,52,,,4,,,,,,,,,,,,,,,
null,,confidence_buffer,684493,confidence_buffer,,null,,,,,,,,,,,,,,,,,,
2469,,pt2_memorable_rating,686964,Barnard,,53,,,5,,,,,,,,,,,,,,,
null,,confidence_buffer,687073,confidence_buffer,,null,,,,,,,,,,,,,,,,,,
1329,,recognition_phase,688404,Barnard,,52,,,,,,new,0,0.3333333333333333,,,,,,,,,,
null,,confidence_buffer,688510,confidence_buffer,,null,,,,,,,,,,,,,,,,,,
null,,thebreak,689013,break,,null,,,,,,,,,,,,,,,,,,
3248,,realistic_rating,692263,Maravilla Springs,,51,Maravilla Springs,Fictional,3,,,,,,,,,,,,,,,
null,,confidence_buffer,692372,confidence_buffer,,null,,,,,,,,,,,,,,,,,,
3877,,pt2_unique_rating,696251,Maravilla Springs,,50,,,2,,,,,,,,,,,,,,,
null,,confidence_buffer,696360,confidence_buffer,,null,,,,,,,,,,,,,,,,,,
1840,,pt2_memorable_rating,698202,Maravilla Springs,,52,,,4,,,,,,,,,,,,,,,
null,,confidence_buffer,698322,confidence_buffer,,null,,,,,,,,,,,,,,,,,,
1300,,recognition_phase,699626,Maravilla Springs,,51,,,,,,new,0,0.32,,,,,,,,,,
null,,confidence_buffer,699729,confidence_buffer,,null,,,,,,,,,,,,,,,,,,
null,,thebreak,700230,break,,null,,,,,,,,,,,,,,,,,,
1250,,realistic_rating,701481,Athens,,50,Athens,US,2,,,,,,,,,,,,,,,
null,,confidence_buffer,701599,confidence_buffer,,null,,,,,,,,,,,,,,,,,,
1212,,pt2_unique_rating,702812,Athens,,51,,,3,,,,,,,,,,,,,,,
null,,confidence_buffer,702922,confidence_buffer,,null,,,,,,,,,,,,,,,,,,
1331,,pt2_memorable_rating,704253,Athens,,52,,,4,,,,,,,,,,,,,,,
null,,confidence_buffer,704366,confidence_buffer,,null,,,,,,,,,,,,,,,,,,
1386,,recognition_phase,705754,Athens,,51,,,,,,new,1,0.34615384615384615,,,,,,,,,,
null,,confidence_buffer,705855,confidence_buffer,,null,,,,,,,,,,,,,,,,,,
null,,thebreak,706358,break,,null,,,,,,,,,,,,,,,,,,
1759,,realistic_rating,708118,Delaro Park,,52,Delaro Park,Fictional,4,,,,,,,,,,,,,,,
null,,confidence_buffer,708229,confidence_buffer,,null,,,,,,,,,,,,,,,,,,
1232,,pt2_unique_rating,709464,Delaro Park,,50,,,2,,,,,,,,,,,,,,,
null,,confidence_buffer,709574,confidence_buffer,,null,,,,,,,,,,,,,,,,,,
1753,,pt2_memorable_rating,711330,Delaro Park,,50,,,2,,,,,,,,,,,,,,,
null,,confidence_buffer,711443,confidence_buffer,,null,,,,,,,,,,,,,,,,,,
1300,,recognition_phase,712745,Delaro Park,,51,,,,,,new,1,0.37037037037037035,,,,,,,,,,
null,,confidence_buffer,712850,confidence_buffer,,null,,,,,,,,,,,,,,,,,,
null,,thebreak,713353,break,,null,,,,,,,,,,,,,,,,,,
1511,,realistic_rating,714866,Claywater,,52,Claywater,Fictional,4,,,,,,,,,,,,,,,
null,,confidence_buffer,714973,confidence_buffer,,null,,,,,,,,,,,,,,,,,,
1643,,pt2_unique_rating,716619,Claywater,,50,,,2,,,,,,,,,,,,,,,
null,,confidence_buffer,716736,confidence_buffer,,null,,,,,,,,,,,,,,,,,,
1861,,pt2_memorable_rating,718599,Claywater,,51,,,3,,,,,,,,,,,,,,,
null,,confidence_buffer,718715,confidence_buffer,,null,,,,,,,,,,,,,,,,,,
1147,,recognition_phase,719864,Claywater,,52,,,,,,new,1,0.39285714285714285,,,,,,,,,,
null,,confidence_buffer,719967,confidence_buffer,,null,,,,,,,,,,,,,,,,,,
null,,thebreak,720469,break,,null,,,,,,,,,,,,,,,,,,
1246,,realistic_rating,721717,Meadowspire,,50,Meadowspire,Fictional,2,,,,,,,,,,,,,,,
null,,confidence_buffer,721828,confidence_buffer,,null,,,,,,,,,,,,,,,,,,
1278,,pt2_unique_rating,723107,Meadowspire,,52,,,4,,,,,,,,,,,,,,,
null,,confidence_buffer,723212,confidence_buffer,,null,,,,,,,,,,,,,,,,,,
2105,,pt2_memorable_rating,725319,Meadowspire,,51,,,3,,,,,,,,,,,,,,,
null,,confidence_buffer,725423,confidence_buffer,,null,,,,,,,,,,,,,,,,,,
31294,,recognition_phase,756719,Meadowspire,,50,,,,,,old,1,0.41379310344827586,,,,,,,,,,
null,,confidence_buffer,756834,confidence_buffer,,null,,,,,,,,,,,,,,,,,,
null,,thebreak,757336,break,,null,,,,,,,,,,,,,,,,,,
2494,,realistic_rating,759831,Bayshore Haven,,52,Bayshore Haven,Fictional,4,,,,,,,,,,,,,,,
null,,confidence_buffer,759946,confidence_buffer,,null,,,,,,,,,,,,,,,,,,
1275,,pt2_unique_rating,761222,Bayshore Haven,,51,,,3,,,,,,,,,,,,,,,
null,,confidence_buffer,761338,confidence_buffer,,null,,,,,,,,,,,,,,,,,,
2375,,pt2_memorable_rating,763715,Bayshore Haven,,50,,,2,,,,,,,,,,,,,,,
null,,confidence_buffer,763820,confidence_buffer,,null,,,,,,,,,,,,,,,,,,
1836,,recognition_phase,765659,Bayshore Haven,,51,,,,,,new,0,0.4,,,,,,,,,,
null,,confidence_buffer,765771,confidence_buffer,,null,,,,,,,,,,,,,,,,,,
null,,thebreak,766297,break,,null,,,,,,,,,,,,,,,,,,
4034,,realistic_rating,770333,Bisbee,,52,Bisbee,US,4,,,,,,,,,,,,,,,
null,,confidence_buffer,770447,confidence_buffer,,null,,,,,,,,,,,,,,,,,,
998,,pt2_unique_rating,771445,Bisbee,,51,,,3,,,,,,,,,,,,,,,
null,,confidence_buffer,771551,confidence_buffer,,null,,,,,,,,,,,,,,,,,,
1237,,pt2_memorable_rating,772791,Bisbee,,50,,,2,,,,,,,,,,,,,,,
null,,confidence_buffer,772904,confidence_buffer,,null,,,,,,,,,,,,,,,,,,
1814,,recognition_phase,774720,Bisbee,,51,,,,,,new,0,0.3870967741935484,,,,,,,,,,
null,,confidence_buffer,774832,confidence_buffer,,null,,,,,,,,,,,,,,,,,,
null,,thebreak,775346,break,,null,,,,,,,,,,,,,,,,,,
1325,,realistic_rating,776671,Manistee,,52,Manistee,US,4,,,,,,,,,,,,,,,
null,,confidence_buffer,776774,confidence_buffer,,null,,,,,,,,,,,,,,,,,,
1337,,pt2_unique_rating,778114,Manistee,,51,,,3,,,,,,,,,,,,,,,
null,,confidence_buffer,778230,confidence_buffer,,null,,,,,,,,,,,,,,,,,,
1088,,pt2_memorable_rating,779319,Manistee,,50,,,2,,,,,,,,,,,,,,,
null,,confidence_buffer,779434,confidence_buffer,,null,,,,,,,,,,,,,,,,,,
3129,,probe_rating,782565,probe_rating,,52,,,,4,1,,,,,,,,,,,,,
null,,confidence_buffer,782681,confidence_buffer,,null,,,,,,,,,,,,,,,,,,
3234,,recognition_phase,785915,Manistee,,52,,,,,,new,1,0.40625,,,,,,,,,,
null,,confidence_buffer,786019,confidence_buffer,,null,,,,,,,,,,,,,,,,,,
null,,thebreak,786535,break,,null,,,,,,,,,,,,,,,,,,
2580,,realistic_rating,789115,Assateague Island,,51,Assateague Island,US,3,,,,,,,,,,,,,,,
null,,confidence_buffer,789230,confidence_buffer,,null,,,,,,,,,,,,,,,,,,
2492,,probe_rating,791722,probe_rating,,51,,,,3,1,,,,,,,,,,,,,
null,,confidence_buffer,791843,confidence_buffer,,null,,,,,,,,,,,,,,,,,,
2486,,pt2_unique_rating,794330,Assateague Island,,50,,,2,,,,,,,,,,,,,,,
null,,confidence_buffer,794432,confidence_buffer,,null,,,,,,,,,,,,,,,,,,
2456,,pt2_memorable_rating,796890,Assateague Island,,52,,,4,,,,,,,,,,,,,,,
null,,confidence_buffer,796998,confidence_buffer,,null,,,,,,,,,,,,,,,,,,
2155,,recognition_phase,799153,Assateague Island,,51,,,,,,new,1,0.42424242424242425,,,,,,,,,,
null,,confidence_buffer,799259,confidence_buffer,,null,,,,,,,,,,,,,,,,,,
null,,thebreak,799763,break,,null,,,,,,,,,,,,,,,,,,
1337,,realistic_rating,801101,Northbridge,,50,Northbridge,Fictional,2,,,,,,,,,,,,,,,
null,,confidence_buffer,801215,confidence_buffer,,null,,,,,,,,,,,,,,,,,,
1043,,pt2_unique_rating,802260,Northbridge,,49,,,1,,,,,,,,,,,,,,,
null,,confidence_buffer,802367,confidence_buffer,,null,,,,,,,,,,,,,,,,,,
1199,,pt2_memorable_rating,803568,Northbridge,,50,,,2,,,,,,,,,,,,,,,
null,,confidence_buffer,803675,confidence_buffer,,null,,,,,,,,,,,,,,,,,,
1833,,recognition_phase,805510,Northbridge,,51,,,,,,new,1,0.4411764705882353,,,,,,,,,,
null,,confidence_buffer,805624,confidence_buffer,,null,,,,,,,,,,,,,,,,,,
null,,thebreak,806138,break,,null,,,,,,,,,,,,,,,,,,
980,,realistic_rating,807120,Orchard Bend,,50,Orchard Bend,Fictional,2,,,,,,,,,,,,,,,
null,,confidence_buffer,807230,confidence_buffer,,null,,,,,,,,,,,,,,,,,,
967,,pt2_unique_rating,808199,Orchard Bend,,51,,,3,,,,,,,,,,,,,,,
null,,confidence_buffer,808302,confidence_buffer,,null,,,,,,,,,,,,,,,,,,
1176,,pt2_memorable_rating,809478,Orchard Bend,,49,,,1,,,,,,,,,,,,,,,
null,,confidence_buffer,809584,confidence_buffer,,null,,,,,,,,,,,,,,,,,,
32511,,recognition_phase,842097,Orchard Bend,,51,,,,,,new,0,0.42857142857142855,,,,,,,,,,
null,,confidence_buffer,842202,confidence_buffer,,null,,,,,,,,,,,,,,,,,,
null,,thebreak,842706,break,,null,,,,,,,,,,,,,,,,,,
1904,,realistic_rating,844611,Folly Beach,,50,Folly Beach,US,2,,,,,,,,,,,,,,,
null,,confidence_buffer,844713,confidence_buffer,,null,,,,,,,,,,,,,,,,,,
2351,,pt2_unique_rating,847067,Folly Beach,,52,,,4,,,,,,,,,,,,,,,
null,,confidence_buffer,847172,confidence_buffer,,null,,,,,,,,,,,,,,,,,,
1775,,pt2_memorable_rating,848949,Folly Beach,,51,,,3,,,,,,,,,,,,,,,
null,,confidence_buffer,849065,confidence_buffer,,null,,,,,,,,,,,,,,,,,,
1818,,recognition_phase,850886,Folly Beach,,50,,,,,,old,0,0.4166666666666667,,,,,,,,,,
null,,confidence_buffer,850989,confidence_buffer,,null,,,,,,,,,,,,,,,,,,
null,,thebreak,851513,break,,null,,,,,,,,,,,,,,,,,,
2533,,realistic_rating,854048,Delaware City,,52,Delaware City,US,4,,,,,,,,,,,,,,,
null,,confidence_buffer,854162,confidence_buffer,,null,,,,,,,,,,,,,,,,,,
1588,,pt2_unique_rating,855753,Delaware City,,51,,,3,,,,,,,,,,,,,,,
null,,confidence_buffer,855865,confidence_buffer,,null,,,,,,,,,,,,,,,,,,
2302,,pt2_memorable_rating,858167,Delaware City,,50,,,2,,,,,,,,,,,,,,,
null,,confidence_buffer,858279,confidence_buffer,,null,,,,,,,,,,,,,,,,,,
2530,,recognition_phase,860811,Delaware City,,52,,,,,,new,0,0.40540540540540543,,,,,,,,,,
null,,confidence_buffer,860919,confidence_buffer,,null,,,,,,,,,,,,,,,,,,
null,,thebreak,861422,break,,null,,,,,,,,,,,,,,,,,,
2309,,realistic_rating,863733,Newport,,52,Newport,US,4,,,,,,,,,,,,,,,
null,,confidence_buffer,863846,confidence_buffer,,null,,,,,,,,,,,,,,,,,,
1668,,pt2_unique_rating,865515,Newport,,51,,,3,,,,,,,,,,,,,,,
null,,confidence_buffer,865624,confidence_buffer,,null,,,,,,,,,,,,,,,,,,
2637,,pt2_memorable_rating,868262,Newport,,51,,,3,,,,,,,,,,,,,,,
null,,confidence_buffer,868366,confidence_buffer,,null,,,,,,,,,,,,,,,,,,
1968,,recognition_phase,870335,Newport,,50,,,,,,old,1,0.42105263157894735,,,,,,,,,,
null,,confidence_buffer,870445,confidence_buffer,,null,,,,,,,,,,,,,,,,,,
null,,thebreak,870948,break,,null,,,,,,,,,,,,,,,,,,
4290,,realistic_rating,875240,Leesburg,,51,Leesburg,US,3,,,,,,,,,,,,,,,
null,,confidence_buffer,875354,confidence_buffer,,null,,,,,,,,,,,,,,,,,,
1240,,pt2_unique_rating,876595,Leesburg,,50,,,2,,,,,,,,,,,,,,,
null,,confidence_buffer,876711,confidence_buffer,,null,,,,,,,,,,,,,,,,,,
1932,,pt2_memorable_rating,878644,Leesburg,,52,,,4,,,,,,,,,,,,,,,
null,,confidence_buffer,878753,confidence_buffer,,null,,,,,,,,,,,,,,,,,,
1458,,recognition_phase,880213,Leesburg,,51,,,,,,new,1,0.4358974358974359,,,,,,,,,,
null,,confidence_buffer,880320,confidence_buffer,,null,,,,,,,,,,,,,,,,,,
null,,thebreak,880824,break,,null,,,,,,,,,,,,,,,,,,
1354,,realistic_rating,882179,Sierra Hollow,,50,Sierra Hollow,Fictional,2,,,,,,,,,,,,,,,
null,,confidence_buffer,882285,confidence_buffer,,null,,,,,,,,,,,,,,,,,,
1767,,pt2_unique_rating,884054,Sierra Hollow,,51,,,3,,,,,,,,,,,,,,,
null,,confidence_buffer,884161,confidence_buffer,,null,,,,,,,,,,,,,,,,,,
2284,,pt2_memorable_rating,886448,Sierra Hollow,,52,,,4,,,,,,,,,,,,,,,
null,,confidence_buffer,886551,confidence_buffer,,null,,,,,,,,,,,,,,,,,,
1918,,probe_rating,888471,probe_rating,,51,,,,3,1,,,,,,,,,,,,,
null,,confidence_buffer,888581,confidence_buffer,,null,,,,,,,,,,,,,,,,,,
1783,,recognition_phase,890368,Sierra Hollow,,52,,,,,,new,0,0.425,,,,,,,,,,
null,,confidence_buffer,890489,confidence_buffer,,null,,,,,,,,,,,,,,,,,,
null,,thebreak,891005,break,,null,,,,,,,,,,,,,,,,,,
906,,realistic_rating,891912,Juniper Creek,,50,Juniper Creek,Fictional,2,,,,,,,,,,,,,,,
null,,confidence_buffer,892024,confidence_buffer,,null,,,,,,,,,,,,,,,,,,
1490,,pt2_unique_rating,893515,Juniper Creek,,51,,,3,,,,,,,,,,,,,,,
null,,confidence_buffer,893632,confidence_buffer,,null,,,,,,,,,,,,,,,,,,
1913,,pt2_memorable_rating,895547,Juniper Creek,,52,,,4,,,,,,,,,,,,,,,
null,,confidence_buffer,895655,confidence_buffer,,null,,,,,,,,,,,,,,,,,,
1652,,recognition_phase,897309,Juniper Creek,,51,,,,,,new,1,0.43902439024390244,,,,,,,,,,
null,,confidence_buffer,897419,confidence_buffer,,null,,,,,,,,,,,,,,,,,,
null,,thebreak,897921,break,,null,,,,,,,,,,,,,,,,,,
1205,,realistic_rating,899128,Sammamish,,50,Sammamish,US,2,,,,,,,,,,,,,,,
null,,confidence_buffer,899242,confidence_buffer,,null,,,,,,,,,,,,,,,,,,
1442,,pt2_unique_rating,900687,Sammamish,,51,,,3,,,,,,,,,,,,,,,
null,,confidence_buffer,900799,confidence_buffer,,null,,,,,,,,,,,,,,,,,,
2181,,pt2_memorable_rating,902981,Sammamish,,52,,,4,,,,,,,,,,,,,,,
null,,confidence_buffer,903093,confidence_buffer,,null,,,,,,,,,,,,,,,,,,
1863,,recognition_phase,904958,Sammamish,,51,,,,,,new,0,0.42857142857142855,,,,,,,,,,
null,,confidence_buffer,905070,confidence_buffer,,null,,,,,,,,,,,,,,,,,,
null,,thebreak,905587,break,,null,,,,,,,,,,,,,,,,,,
2783,,realistic_rating,908372,Carmel,,51,Carmel,US,3,,,,,,,,,,,,,,,
null,,confidence_buffer,908486,confidence_buffer,,null,,,,,,,,,,,,,,,,,,
1268,,pt2_unique_rating,909754,Carmel,,50,,,2,,,,,,,,,,,,,,,
null,,confidence_buffer,909874,confidence_buffer,,null,,,,,,,,,,,,,,,,,,
1705,,pt2_memorable_rating,911580,Carmel,,51,,,3,,,,,,,,,,,,,,,
null,,confidence_buffer,911685,confidence_buffer,,null,,,,,,,,,,,,,,,,,,
1726,,recognition_phase,913414,Carmel,,52,,,,,,new,0,0.4186046511627907,,,,,,,,,,
null,,confidence_buffer,913525,confidence_buffer,,null,,,,,,,,,,,,,,,,,,
null,,thebreak,914027,break,,null,,,,,,,,,,,,,,,,,,
1195,,realistic_rating,915224,Fairhaven,,51,Fairhaven,Fictional,3,,,,,,,,,,,,,,,
null,,confidence_buffer,915334,confidence_buffer,,null,,,,,,,,,,,,,,,,,,
1278,,pt2_unique_rating,916614,Fairhaven,,50,,,2,,,,,,,,,,,,,,,
null,,confidence_buffer,916722,confidence_buffer,,null,,,,,,,,,,,,,,,,,,
1564,,pt2_memorable_rating,918288,Fairhaven,,52,,,4,,,,,,,,,,,,,,,
null,,confidence_buffer,918393,confidence_buffer,,null,,,,,,,,,,,,,,,,,,
1429,,recognition_phase,919824,Fairhaven,,51,,,,,,new,0,0.4090909090909091,,,,,,,,,,
null,,confidence_buffer,919936,confidence_buffer,,null,,,,,,,,,,,,,,,,,,
null,,thebreak,920438,break,,null,,,,,,,,,,,,,,,,,,
1426,,realistic_rating,921865,Maplehurst,,50,Maplehurst,Fictional,2,,,,,,,,,,,,,,,
null,,confidence_buffer,921979,confidence_buffer,,null,,,,,,,,,,,,,,,,,,
4129,,pt2_unique_rating,926110,Maplehurst,,52,,,4,,,,,,,,,,,,,,,
null,,confidence_buffer,926213,confidence_buffer,,null,,,,,,,,,,,,,,,,,,
1341,,pt2_memorable_rating,927557,Maplehurst,,50,,,2,,,,,,,,,,,,,,,
null,,confidence_buffer,927672,confidence_buffer,,null,,,,,,,,,,,,,,,,,,
1362,,recognition_phase,929037,Maplehurst,,52,,,,,,new,1,0.4222222222222222,,,,,,,,,,
null,,confidence_buffer,929142,confidence_buffer,,null,,,,,,,,,,,,,,,,,,
null,,thebreak,929644,break,,null,,,,,,,,,,,,,,,,,,
1857,,realistic_rating,931501,Ironwood Heights,,51,Ironwood Heights,Fictional,3,,,,,,,,,,,,,,,
null,,confidence_buffer,931605,confidence_buffer,,null,,,,,,,,,,,,,,,,,,
1079,,pt2_unique_rating,932687,Ironwood Heights,,49,,,1,,,,,,,,,,,,,,,
null,,confidence_buffer,932797,confidence_buffer,,null,,,,,,,,,,,,,,,,,,
2232,,pt2_memorable_rating,935030,Ironwood Heights,,50,,,2,,,,,,,,,,,,,,,
null,,confidence_buffer,935138,confidence_buffer,,null,,,,,,,,,,,,,,,,,,
2511,,probe_rating,937650,probe_rating,,52,,,,4,1,,,,,,,,,,,,,
null,,confidence_buffer,937766,confidence_buffer,,null,,,,,,,,,,,,,,,,,,
4025,,recognition_phase,941793,Ironwood Heights,,52,,,,,,new,0,0.41304347826086957,,,,,,,,,,
null,,confidence_buffer,941899,confidence_buffer,,null,,,,,,,,,,,,,,,,,,
null,,thebreak,942400,break,,null,,,,,,,,,,,,,,,,,,
1032,,realistic_rating,943433,Gloucester,,51,Gloucester,US,3,,,,,,,,,,,,,,,
null,,confidence_buffer,943543,confidence_buffer,,null,,,,,,,,,,,,,,,,,,
1172,,pt2_unique_rating,944717,Gloucester,,49,,,1,,,,,,,,,,,,,,,
null,,confidence_buffer,944832,confidence_buffer,,null,,,,,,,,,,,,,,,,,,
1618,,pt2_memorable_rating,946451,Gloucester,,50,,,2,,,,,,,,,,,,,,,
null,,confidence_buffer,946554,confidence_buffer,,null,,,,,,,,,,,,,,,,,,
3884,,recognition_phase,950440,Gloucester,,51,,,,,,new,1,0.425531914893617,,,,,,,,,,
null,,confidence_buffer,950556,confidence_buffer,,null,,,,,,,,,,,,,,,,,,
null,,thebreak,951058,break,,null,,,,,,,,,,,,,,,,,,
1984,,realistic_rating,953044,Yukon,,52,Yukon,US,4,,,,,,,,,,,,,,,
null,,confidence_buffer,953165,confidence_buffer,,null,,,,,,,,,,,,,,,,,,
1499,,pt2_unique_rating,954666,Yukon,,50,,,2,,,,,,,,,,,,,,,
null,,confidence_buffer,954791,confidence_buffer,,null,,,,,,,,,,,,,,,,,,
2387,,pt2_memorable_rating,957180,Yukon,,49,,,1,,,,,,,,,,,,,,,
null,,confidence_buffer,957287,confidence_buffer,,null,,,,,,,,,,,,,,,,,,
3029,,recognition_phase,960318,Yukon,,51,,,,,,new,1,0.4375,,,,,,,,,,
null,,confidence_buffer,960432,confidence_buffer,,null,,,,,,,,,,,,,,,,,,
null,,thebreak,960949,break,,null,,,,,,,,,,,,,,,,,,
1823,,realistic_rating,962774,East Ladera,,50,East Ladera,Fictional,2,,,,,,,,,,,,,,,
null,,confidence_buffer,962892,confidence_buffer,,null,,,,,,,,,,,,,,,,,,
3977,,pt2_unique_rating,966870,East Ladera,,52,,,4,,,,,,,,,,,,,,,
null,,confidence_buffer,966976,confidence_buffer,,null,,,,,,,,,,,,,,,,,,
2687,,pt2_memorable_rating,969665,East Ladera,,51,,,3,,,,,,,,,,,,,,,
null,,confidence_buffer,969772,confidence_buffer,,null,,,,,,,,,,,,,,,,,,
1109,,recognition_phase,970881,East Ladera,,50,,,,,,old,0,0.42857142857142855,,,,,,,,,,
null,,confidence_buffer,970993,confidence_buffer,,null,,,,,,,,,,,,,,,,,,
null,,thebreak,971501,break,,null,,,,,,,,,,,,,,,,,,
884,,realistic_rating,972387,Highvale,,49,Highvale,Fictional,1,,,,,,,,,,,,,,,
null,,confidence_buffer,972500,confidence_buffer,,null,,,,,,,,,,,,,,,,,,
2149,,pt2_unique_rating,974652,Highvale,,52,,,4,,,,,,,,,,,,,,,
null,,confidence_buffer,974763,confidence_buffer,,null,,,,,,,,,,,,,,,,,,
6265,,pt2_memorable_rating,981031,Highvale,,51,,,3,,,,,,,,,,,,,,,
null,,confidence_buffer,981141,confidence_buffer,,null,,,,,,,,,,,,,,,,,,
1096,,recognition_phase,982239,Highvale,,50,,,,,,old,0,0.42,,,,,,,,,,
null,,confidence_buffer,982346,confidence_buffer,,null,,,,,,,,,,,,,,,,,,
null,,thebreak,982917,break,,null,,,,,,,,,,,,,,,,,,
2656,,realistic_rating,985575,Pine Hollow,,52,Pine Hollow,Fictional,4,,,,,,,,,,,,,,,
null,,confidence_buffer,985693,confidence_buffer,,null,,,,,,,,,,,,,,,,,,
2433,,pt2_unique_rating,988128,Pine Hollow,,50,,,2,,,,,,,,,,,,,,,
null,,confidence_buffer,988237,confidence_buffer,,null,,,,,,,,,,,,,,,,,,
1299,,pt2_memorable_rating,989540,Pine Hollow,,52,,,4,,,,,,,,,,,,,,,
null,,confidence_buffer,989646,confidence_buffer,,null,,,,,,,,,,,,,,,,,,
1407,,recognition_phase,991053,Pine Hollow,,50,,,,,,old,1,0.43137254901960786,,,,,,,,,,
null,,confidence_buffer,991170,confidence_buffer,,null,,,,,,,,,,,,,,,,,,
null,,thebreak,991671,break,,null,,,,,,,,,,,,,,,,,,
1092,,realistic_rating,992765,Montelake,,51,Montelake,Fictional,3,,,,,,,,,,,,,,,
null,,confidence_buffer,992880,confidence_buffer,,null,,,,,,,,,,,,,,,,,,
1597,,pt2_unique_rating,994477,Montelake,,50,,,2,,,,,,,,,,,,,,,
null,,confidence_buffer,994585,confidence_buffer,,null,,,,,,,,,,,,,,,,,,
1690,,pt2_memorable_rating,996276,Montelake,,49,,,1,,,,,,,,,,,,,,,
null,,confidence_buffer,996392,confidence_buffer,,null,,,,,,,,,,,,,,,,,,
2439,,probe_rating,998833,probe_rating,,52,,,,4,1,,,,,,,,,,,,,
null,,confidence_buffer,998948,confidence_buffer,,null,,,,,,,,,,,,,,,,,,
3356,,recognition_phase,1002306,Montelake,,51,,,,,,new,1,0.4423076923076923,,,,,,,,,,
null,,confidence_buffer,1002413,confidence_buffer,,null,,,,,,,,,,,,,,,,,,
null,,thebreak,1002916,break,,null,,,,,,,,,,,,,,,,,,
1685,,realistic_rating,1004603,Baymarsh,,51,Baymarsh,Fictional,3,,,,,,,,,,,,,,,
null,,confidence_buffer,1004707,confidence_buffer,,null,,,,,,,,,,,,,,,,,,
5449,,pt2_unique_rating,1010157,Baymarsh,,52,,,4,,,,,,,,,,,,,,,
null,,confidence_buffer,1010265,confidence_buffer,,null,,,,,,,,,,,,,,,,,,
2477,,pt2_memorable_rating,1012741,Baymarsh,,51,,,3,,,,,,,,,,,,,,,
null,,confidence_buffer,1012845,confidence_buffer,,null,,,,,,,,,,,,,,,,,,
2074,,recognition_phase,1014921,Baymarsh,,50,,,,,,old,0,0.4339622641509434,,,,,,,,,,
null,,confidence_buffer,1015039,confidence_buffer,,null,,,,,,,,,,,,,,,,,,
null,,thebreak,1015544,break,,null,,,,,,,,,,,,,,,,,,
25901,,realistic_rating,1041447,West Talora,,51,West Talora,Fictional,3,,,,,,,,,,,,,,,
null,,confidence_buffer,1041558,confidence_buffer,,null,,,,,,,,,,,,,,,,,,
1703,,pt2_unique_rating,1043263,West Talora,,52,,,4,,,,,,,,,,,,,,,
null,,confidence_buffer,1043381,confidence_buffer,,null,,,,,,,,,,,,,,,,,,
1255,,pt2_memorable_rating,1044637,West Talora,,51,,,3,,,,,,,,,,,,,,,
null,,confidence_buffer,1044748,confidence_buffer,,null,,,,,,,,,,,,,,,,,,
3130,,recognition_phase,1047880,West Talora,,52,,,,,,new,1,0.4444444444444444,,,,,,,,,,
null,,confidence_buffer,1047986,confidence_buffer,,null,,,,,,,,,,,,,,,,,,
null,,thebreak,1048502,break,,null,,,,,,,,,,,,,,,,,,
1050,,realistic_rating,1049554,Berkeley Springs,,50,Berkeley Springs,US,2,,,,,,,,,,,,,,,
null,,confidence_buffer,1049670,confidence_buffer,,null,,,,,,,,,,,,,,,,,,
2234,,pt2_unique_rating,1051904,Berkeley Springs,,51,,,3,,,,,,,,,,,,,,,
null,,confidence_buffer,1052018,confidence_buffer,,null,,,,,,,,,,,,,,,,,,
2453,,pt2_memorable_rating,1054472,Berkeley Springs,,52,,,4,,,,,,,,,,,,,,,
null,,confidence_buffer,1054576,confidence_buffer,,null,,,,,,,,,,,,,,,,,,
1450,,recognition_phase,1056028,Berkeley Springs,,50,,,,,,old,1,0.45454545454545453,,,,,,,,,,
null,,confidence_buffer,1056134,confidence_buffer,,null,,,,,,,,,,,,,,,,,,
null,,thebreak,1056673,break,,null,,,,,,,,,,,,,,,,,,
3917,,realistic_rating,1060591,Elmsbury,,52,Elmsbury,Fictional,4,,,,,,,,,,,,,,,
null,,confidence_buffer,1060698,confidence_buffer,,null,,,,,,,,,,,,,,,,,,
1155,,pt2_unique_rating,1061853,Elmsbury,,49,,,1,,,,,,,,,,,,,,,
null,,confidence_buffer,1061957,confidence_buffer,,null,,,,,,,,,,,,,,,,,,
1512,,pt2_memorable_rating,1063471,Elmsbury,,50,,,2,,,,,,,,,,,,,,,
null,,confidence_buffer,1063580,confidence_buffer,,null,,,,,,,,,,,,,,,,,,
1219,,recognition_phase,1064800,Elmsbury,,52,,,,,,new,1,0.4642857142857143,,,,,,,,,,
null,,confidence_buffer,1064917,confidence_buffer,,null,,,,,,,,,,,,,,,,,,
null,,thebreak,1065473,break,,null,,,,,,,,,,,,,,,,,,
1391,,realistic_rating,1066867,Sitka,,51,Sitka,US,3,,,,,,,,,,,,,,,
null,,confidence_buffer,1066980,confidence_buffer,,null,,,,,,,,,,,,,,,,,,
1804,,pt2_unique_rating,1068785,Sitka,,49,,,1,,,,,,,,,,,,,,,
null,,confidence_buffer,1068891,confidence_buffer,,null,,,,,,,,,,,,,,,,,,
2135,,pt2_memorable_rating,1071027,Sitka,,50,,,2,,,,,,,,,,,,,,,
null,,confidence_buffer,1071132,confidence_buffer,,null,,,,,,,,,,,,,,,,,,
4109,,probe_rating,1075242,probe_rating,,53,,,,5,1,,,,,,,,,,,,,
null,,confidence_buffer,1075351,confidence_buffer,,null,,,,,,,,,,,,,,,,,,
3358,,recognition_phase,1078712,Sitka,,52,,,,,,new,1,0.47368421052631576,,,,,,,,,,
null,,confidence_buffer,1078821,confidence_buffer,,null,,,,,,,,,,,,,,,,,,
null,,thebreak,1079325,break,,null,,,,,,,,,,,,,,,,,,
1050,,realistic_rating,1080377,Gatlinburg,,50,Gatlinburg,US,2,,,,,,,,,,,,,,,
null,,confidence_buffer,1080491,confidence_buffer,,null,,,,,,,,,,,,,,,,,,
1152,,pt2_unique_rating,1081645,Gatlinburg,,49,,,1,,,,,,,,,,,,,,,
null,,confidence_buffer,1081750,confidence_buffer,,null,,,,,,,,,,,,,,,,,,
2707,,pt2_memorable_rating,1084459,Gatlinburg,,51,,,3,,,,,,,,,,,,,,,
null,,confidence_buffer,1084565,confidence_buffer,,null,,,,,,,,,,,,,,,,,,
1554,,recognition_phase,1086123,Gatlinburg,,52,,,,,,new,0,0.46551724137931033,,,,,,,,,,
null,,confidence_buffer,1086227,confidence_buffer,,null,,,,,,,,,,,,,,,,,,
null,,thebreak,1086746,break,,null,,,,,,,,,,,,,,,,,,
1984,,realistic_rating,1088731,Livingston,,51,Livingston,US,3,,,,,,,,,,,,,,,
null,,confidence_buffer,1088853,confidence_buffer,,null,,,,,,,,,,,,,,,,,,
1095,,pt2_unique_rating,1089949,Livingston,,49,,,1,,,,,,,,,,,,,,,
null,,confidence_buffer,1090060,confidence_buffer,,null,,,,,,,,,,,,,,,,,,
4435,,pt2_memorable_rating,1094498,Livingston,,50,,,2,,,,,,,,,,,,,,,
null,,confidence_buffer,1094611,confidence_buffer,,null,,,,,,,,,,,,,,,,,,
1195,,recognition_phase,1095807,Livingston,,51,,,,,,new,0,0.4576271186440678,,,,,,,,,,
null,,confidence_buffer,1095918,confidence_buffer,,null,,,,,,,,,,,,,,,,,,
null,,thebreak,1096420,break,,null,,,,,,,,,,,,,,,,,,
2954,,realistic_rating,1099378,New Hope,,50,New Hope,US,2,,,,,,,,,,,,,,,
null,,confidence_buffer,1099486,confidence_buffer,,null,,,,,,,,,,,,,,,,,,
1211,,pt2_unique_rating,1100697,New Hope,,51,,,3,,,,,,,,,,,,,,,
null,,confidence_buffer,1100811,confidence_buffer,,null,,,,,,,,,,,,,,,,,,
884,,pt2_memorable_rating,1101698,New Hope,,49,,,1,,,,,,,,,,,,,,,
null,,confidence_buffer,1101815,confidence_buffer,,null,,,,,,,,,,,,,,,,,,
1644,,recognition_phase,1103461,New Hope,,50,,,,,,old,0,0.45,,,,,,,,,,
null,,confidence_buffer,1103571,confidence_buffer,,null,,,,,,,,,,,,,,,,,,
null,,thebreak,1104074,break,,null,,,,,,,,,,,,,,,,,,
,,survey,1213331,survey-questions,,,,,,,,,,,none,high,no, only the survey,re-read everything,common names vs weird names,common,weird,honest,Only Prolific,
