rt,responses,trial_type,time_elapsed,stimulus,button_pressed,key_press,name_trial,rating,probe,probe_accuracy,response,correct,accuracy,problems,smooth,distraction,strategies,familiar,memorable,unique,realistic,similar,comments
7003,{worker_id:66b77f8e10fb77f6a5b470da},id_enter,7005,,,,,,,,,,,,,,,,,,,,
16140,,fullscreen,23148,fullscreen,0,,,,,,,,,,,,,,,,,,
5844.999999999996,,intro_0,29000,instruct,,32,,,,,,,,,,,,,,,,,
11770,,intro_1,40772,instruct,,32,,,,,,,,,,,,,,,,,
6902,,intro_2,47675,instruct,,32,,,,,,,,,,,,,,,,,
null,,instruct_dir_4,49178,instruct,,null,,,,,,,,,,,,,,,,,
null,,thebreak,49680,break,,null,,,,,,,,,,,,,,,,,
7787,,familiar_rating,57469,Dothan,,52,Dothan,4,,,,,,,,,,,,,,,
null,,confidence_buffer,57571,confidence_buffer,,null,,,,,,,,,,,,,,,,,
4332,,unique_rating,61905,Dothan,,52,,4,,,,,,,,,,,,,,,
null,,confidence_buffer,62008,confidence_buffer,,null,,,,,,,,,,,,,,,,,
3667.9999999999927,,memorable_rating,65678,Dothan,,51,,3,,,,,,,,,,,,,,,
null,,confidence_buffer,65780,confidence_buffer,,null,,,,,,,,,,,,,,,,,
null,,thebreak,66282,break,,null,,,,,,,,,,,,,,,,,
3218,,familiar_rating,69502,Syracuse,,53,Syracuse,5,,,,,,,,,,,,,,,
null,,confidence_buffer,69605,confidence_buffer,,null,,,,,,,,,,,,,,,,,
4301,,unique_rating,73908,Syracuse,,51,,3,,,,,,,,,,,,,,,
null,,confidence_buffer,74010,confidence_buffer,,null,,,,,,,,,,,,,,,,,
3482,,memorable_rating,77494,Syracuse,,51,,3,,,,,,,,,,,,,,,
null,,confidence_buffer,77596,confidence_buffer,,null,,,,,,,,,,,,,,,,,
null,,thebreak,78098,break,,null,,,,,,,,,,,,,,,,,
5597,,familiar_rating,83697,McKinney,,50,McKinney,2,,,,,,,,,,,,,,,
null,,confidence_buffer,83799,confidence_buffer,,null,,,,,,,,,,,,,,,,,
1965,,unique_rating,85766,McKinney,,53,,5,,,,,,,,,,,,,,,
null,,confidence_buffer,85868,confidence_buffer,,null,,,,,,,,,,,,,,,,,
4926.000000000015,,memorable_rating,90796,McKinney,,50,,2,,,,,,,,,,,,,,,
null,,confidence_buffer,90898,confidence_buffer,,null,,,,,,,,,,,,,,,,,
4074,,probe_rating,94974,probe_rating,,49,,,1,1,,,,,,,,,,,,,
null,,confidence_buffer,95076,confidence_buffer,,null,,,,,,,,,,,,,,,,,
null,,thebreak,95578,break,,null,,,,,,,,,,,,,,,,,
5269,,familiar_rating,100849,Dover,,51,Dover,3,,,,,,,,,,,,,,,
null,,confidence_buffer,100951,confidence_buffer,,null,,,,,,,,,,,,,,,,,
3680,,unique_rating,104633,Dover,,51,,3,,,,,,,,,,,,,,,
null,,confidence_buffer,104736,confidence_buffer,,null,,,,,,,,,,,,,,,,,
2256,,probe_rating,106994,probe_rating,,51,,,3,1,,,,,,,,,,,,,
null,,confidence_buffer,107097,confidence_buffer,,null,,,,,,,,,,,,,,,,,
4361.000000000015,,memorable_rating,111460,Dover,,50,,2,,,,,,,,,,,,,,,
null,,confidence_buffer,111562,confidence_buffer,,null,,,,,,,,,,,,,,,,,
null,,thebreak,112064,break,,null,,,,,,,,,,,,,,,,,
4121,,familiar_rating,116187,Decatur,,53,Decatur,5,,,,,,,,,,,,,,,
null,,confidence_buffer,116290,confidence_buffer,,null,,,,,,,,,,,,,,,,,
9328,,unique_rating,125620,Decatur,,51,,3,,,,,,,,,,,,,,,
null,,confidence_buffer,125722,confidence_buffer,,null,,,,,,,,,,,,,,,,,
6038.000000000015,,memorable_rating,131762,Decatur,,52,,4,,,,,,,,,,,,,,,
null,,confidence_buffer,131864,confidence_buffer,,null,,,,,,,,,,,,,,,,,
null,,thebreak,132366,break,,null,,,,,,,,,,,,,,,,,
3088,,familiar_rating,135455,Abilene,,53,Abilene,5,,,,,,,,,,,,,,,
null,,confidence_buffer,135557,confidence_buffer,,null,,,,,,,,,,,,,,,,,
3374,,unique_rating,138933,Abilene,,52,,4,,,,,,,,,,,,,,,
null,,confidence_buffer,139035,confidence_buffer,,null,,,,,,,,,,,,,,,,,
2677,,memorable_rating,141714,Abilene,,51,,3,,,,,,,,,,,,,,,
null,,confidence_buffer,141816,confidence_buffer,,null,,,,,,,,,,,,,,,,,
null,,thebreak,142318,break,,null,,,,,,,,,,,,,,,,,
3854,,familiar_rating,146173,Marquette,,51,Marquette,3,,,,,,,,,,,,,,,
null,,confidence_buffer,146275,confidence_buffer,,null,,,,,,,,,,,,,,,,,
3131,,unique_rating,149408,Marquette,,52,,4,,,,,,,,,,,,,,,
null,,confidence_buffer,149510,confidence_buffer,,null,,,,,,,,,,,,,,,,,
3132,,memorable_rating,152644,Marquette,,50,,2,,,,,,,,,,,,,,,
null,,confidence_buffer,152747,confidence_buffer,,null,,,,,,,,,,,,,,,,,
null,,thebreak,153248,break,,null,,,,,,,,,,,,,,,,,
3644,,familiar_rating,156894,Burlington,,51,Burlington,3,,,,,,,,,,,,,,,
null,,confidence_buffer,156998,confidence_buffer,,null,,,,,,,,,,,,,,,,,
4052.000000000029,,unique_rating,161051,Burlington,,51,,3,,,,,,,,,,,,,,,
null,,confidence_buffer,161153,confidence_buffer,,null,,,,,,,,,,,,,,,,,
2081,,probe_rating,163236,probe_rating,,51,,,3,1,,,,,,,,,,,,,
null,,confidence_buffer,163339,confidence_buffer,,null,,,,,,,,,,,,,,,,,
4429,,memorable_rating,167770,Burlington,,50,,2,,,,,,,,,,,,,,,
null,,confidence_buffer,167872,confidence_buffer,,null,,,,,,,,,,,,,,,,,
null,,thebreak,168374,break,,null,,,,,,,,,,,,,,,,,
2939,,familiar_rating,171315,Carson City,,53,Carson City,5,,,,,,,,,,,,,,,
null,,confidence_buffer,171417,confidence_buffer,,null,,,,,,,,,,,,,,,,,
3932,,unique_rating,175351,Carson City,,52,,4,,,,,,,,,,,,,,,
null,,confidence_buffer,175454,confidence_buffer,,null,,,,,,,,,,,,,,,,,
2615,,memorable_rating,178070,Carson City,,52,,4,,,,,,,,,,,,,,,
null,,confidence_buffer,178173,confidence_buffer,,null,,,,,,,,,,,,,,,,,
null,,thebreak,178674,break,,null,,,,,,,,,,,,,,,,,
3266.999999999971,,familiar_rating,181944,Altoona,,50,Altoona,2,,,,,,,,,,,,,,,
null,,confidence_buffer,182046,confidence_buffer,,null,,,,,,,,,,,,,,,,,
2518,,unique_rating,184565,Altoona,,52,,4,,,,,,,,,,,,,,,
null,,confidence_buffer,184667,confidence_buffer,,null,,,,,,,,,,,,,,,,,
2470,,memorable_rating,187139,Altoona,,50,,2,,,,,,,,,,,,,,,
null,,confidence_buffer,187241,confidence_buffer,,null,,,,,,,,,,,,,,,,,
null,,thebreak,187743,break,,null,,,,,,,,,,,,,,,,,
3675,,familiar_rating,191419,Stamford,,51,Stamford,3,,,,,,,,,,,,,,,
null,,confidence_buffer,191521,confidence_buffer,,null,,,,,,,,,,,,,,,,,
4990,,unique_rating,196512,Stamford,,52,,4,,,,,,,,,,,,,,,
null,,confidence_buffer,196614,confidence_buffer,,null,,,,,,,,,,,,,,,,,
2840.999999999971,,memorable_rating,199457,Stamford,,50,,2,,,,,,,,,,,,,,,
null,,confidence_buffer,199559,confidence_buffer,,null,,,,,,,,,,,,,,,,,
null,,thebreak,200061,break,,null,,,,,,,,,,,,,,,,,
4812,,familiar_rating,204874,Boulder,,53,Boulder,5,,,,,,,,,,,,,,,
null,,confidence_buffer,204976,confidence_buffer,,null,,,,,,,,,,,,,,,,,
7290,,unique_rating,212268,Boulder,,50,,2,,,,,,,,,,,,,,,
null,,confidence_buffer,212371,confidence_buffer,,null,,,,,,,,,,,,,,,,,
2929.999999999971,,memorable_rating,215302,Boulder,,52,,4,,,,,,,,,,,,,,,
null,,confidence_buffer,215404,confidence_buffer,,null,,,,,,,,,,,,,,,,,
null,,thebreak,215906,break,,null,,,,,,,,,,,,,,,,,
4071.999999999971,,familiar_rating,219980,Yakima,,50,Yakima,2,,,,,,,,,,,,,,,
null,,confidence_buffer,220083,confidence_buffer,,null,,,,,,,,,,,,,,,,,
3737,,unique_rating,223821,Yakima,,53,,5,,,,,,,,,,,,,,,
null,,confidence_buffer,223924,confidence_buffer,,null,,,,,,,,,,,,,,,,,
4052,,memorable_rating,227977,Yakima,,50,,2,,,,,,,,,,,,,,,
null,,confidence_buffer,228079,confidence_buffer,,null,,,,,,,,,,,,,,,,,
null,,thebreak,228581,break,,null,,,,,,,,,,,,,,,,,
3582,,familiar_rating,232165,Terre Haute,,52,Terre Haute,4,,,,,,,,,,,,,,,
null,,confidence_buffer,232267,confidence_buffer,,null,,,,,,,,,,,,,,,,,
3661,,unique_rating,235929,Terre Haute,,53,,5,,,,,,,,,,,,,,,
null,,confidence_buffer,236032,confidence_buffer,,null,,,,,,,,,,,,,,,,,
2387.999999999971,,memorable_rating,238422,Terre Haute,,50,,2,,,,,,,,,,,,,,,
null,,confidence_buffer,238524,confidence_buffer,,null,,,,,,,,,,,,,,,,,
null,,thebreak,239026,break,,null,,,,,,,,,,,,,,,,,
4252.999999999971,,familiar_rating,243281,Olympia,,50,Olympia,2,,,,,,,,,,,,,,,
null,,confidence_buffer,243384,confidence_buffer,,null,,,,,,,,,,,,,,,,,
2055,,unique_rating,245440,Olympia,,51,,3,,,,,,,,,,,,,,,
null,,confidence_buffer,245543,confidence_buffer,,null,,,,,,,,,,,,,,,,,
1699,,probe_rating,247243,probe_rating,,52,,,4,1,,,,,,,,,,,,,
null,,confidence_buffer,247345,confidence_buffer,,null,,,,,,,,,,,,,,,,,
4057,,memorable_rating,251403,Olympia,,50,,2,,,,,,,,,,,,,,,
null,,confidence_buffer,251506,confidence_buffer,,null,,,,,,,,,,,,,,,,,
null,,thebreak,252008,break,,null,,,,,,,,,,,,,,,,,
3642,,familiar_rating,255652,Toledo,,53,Toledo,5,,,,,,,,,,,,,,,
null,,confidence_buffer,255754,confidence_buffer,,null,,,,,,,,,,,,,,,,,
2848,,unique_rating,258603,Toledo,,51,,3,,,,,,,,,,,,,,,
null,,confidence_buffer,258705,confidence_buffer,,null,,,,,,,,,,,,,,,,,
3923.999999999971,,memorable_rating,262630,Toledo,,52,,4,,,,,,,,,,,,,,,
null,,confidence_buffer,262733,confidence_buffer,,null,,,,,,,,,,,,,,,,,
null,,thebreak,263235,break,,null,,,,,,,,,,,,,,,,,
3216,,familiar_rating,266452,Santa Monica,,53,Santa Monica,5,,,,,,,,,,,,,,,
null,,confidence_buffer,266554,confidence_buffer,,null,,,,,,,,,,,,,,,,,
3137,,unique_rating,269692,Santa Monica,,50,,2,,,,,,,,,,,,,,,
null,,confidence_buffer,269793,confidence_buffer,,null,,,,,,,,,,,,,,,,,
3287,,memorable_rating,273081,Santa Monica,,53,,5,,,,,,,,,,,,,,,
null,,confidence_buffer,273183,confidence_buffer,,null,,,,,,,,,,,,,,,,,
null,,thebreak,273685,break,,null,,,,,,,,,,,,,,,,,
6266,,familiar_rating,279952,Fort Wayne,,53,Fort Wayne,5,,,,,,,,,,,,,,,
null,,confidence_buffer,280055,confidence_buffer,,null,,,,,,,,,,,,,,,,,
5036,,unique_rating,285092,Fort Wayne,,51,,3,,,,,,,,,,,,,,,
null,,confidence_buffer,285195,confidence_buffer,,null,,,,,,,,,,,,,,,,,
1896,,memorable_rating,287093,Fort Wayne,,51,,3,,,,,,,,,,,,,,,
null,,confidence_buffer,287195,confidence_buffer,,null,,,,,,,,,,,,,,,,,
null,,thebreak,287697,break,,null,,,,,,,,,,,,,,,,,
2232,,familiar_rating,289930,New Haven,,53,New Haven,5,,,,,,,,,,,,,,,
null,,confidence_buffer,290032,confidence_buffer,,null,,,,,,,,,,,,,,,,,
4662,,unique_rating,294697,New Haven,,52,,4,,,,,,,,,,,,,,,
null,,confidence_buffer,294799,confidence_buffer,,null,,,,,,,,,,,,,,,,,
2592,,memorable_rating,297392,New Haven,,51,,3,,,,,,,,,,,,,,,
null,,confidence_buffer,297494,confidence_buffer,,null,,,,,,,,,,,,,,,,,
null,,thebreak,297996,break,,null,,,,,,,,,,,,,,,,,
3560,,familiar_rating,301558,Hagerstown,,49,Hagerstown,1,,,,,,,,,,,,,,,
null,,confidence_buffer,301660,confidence_buffer,,null,,,,,,,,,,,,,,,,,
2390,,unique_rating,304051,Hagerstown,,51,,3,,,,,,,,,,,,,,,
null,,confidence_buffer,304153,confidence_buffer,,null,,,,,,,,,,,,,,,,,
1772,,probe_rating,305927,probe_rating,,53,,,5,1,,,,,,,,,,,,,
null,,confidence_buffer,306030,confidence_buffer,,null,,,,,,,,,,,,,,,,,
4160.000000000058,,memorable_rating,310192,Hagerstown,,50,,2,,,,,,,,,,,,,,,
null,,confidence_buffer,310294,confidence_buffer,,null,,,,,,,,,,,,,,,,,
null,,thebreak,310796,break,,null,,,,,,,,,,,,,,,,,
2365,,familiar_rating,313162,Concord,,53,Concord,5,,,,,,,,,,,,,,,
null,,confidence_buffer,313264,confidence_buffer,,null,,,,,,,,,,,,,,,,,
2674,,unique_rating,315939,Concord,,51,,3,,,,,,,,,,,,,,,
null,,confidence_buffer,316042,confidence_buffer,,null,,,,,,,,,,,,,,,,,
3532,,memorable_rating,319575,Concord,,51,,3,,,,,,,,,,,,,,,
null,,confidence_buffer,319677,confidence_buffer,,null,,,,,,,,,,,,,,,,,
null,,thebreak,320179,break,,null,,,,,,,,,,,,,,,,,
4941,,familiar_rating,325122,Muncie,,51,Muncie,3,,,,,,,,,,,,,,,
null,,confidence_buffer,325224,confidence_buffer,,null,,,,,,,,,,,,,,,,,
2777,,unique_rating,328002,Muncie,,52,,4,,,,,,,,,,,,,,,
null,,confidence_buffer,328105,confidence_buffer,,null,,,,,,,,,,,,,,,,,
2298,,memorable_rating,330404,Muncie,,50,,2,,,,,,,,,,,,,,,
null,,confidence_buffer,330507,confidence_buffer,,null,,,,,,,,,,,,,,,,,
null,,thebreak,331008,break,,null,,,,,,,,,,,,,,,,,
3489,,familiar_rating,334498,Peoria,,52,Peoria,4,,,,,,,,,,,,,,,
null,,confidence_buffer,334600,confidence_buffer,,null,,,,,,,,,,,,,,,,,
2553,,unique_rating,337154,Peoria,,53,,5,,,,,,,,,,,,,,,
null,,confidence_buffer,337257,confidence_buffer,,null,,,,,,,,,,,,,,,,,
2517.000000000058,,memorable_rating,339775,Peoria,,50,,2,,,,,,,,,,,,,,,
null,,confidence_buffer,339876,confidence_buffer,,null,,,,,,,,,,,,,,,,,
null,,thebreak,340378,break,,null,,,,,,,,,,,,,,,,,
2674,,familiar_rating,343053,Scottsdale,,53,Scottsdale,5,,,,,,,,,,,,,,,
null,,confidence_buffer,343155,confidence_buffer,,null,,,,,,,,,,,,,,,,,
3283,,unique_rating,346439,Scottsdale,,51,,3,,,,,,,,,,,,,,,
null,,confidence_buffer,346541,confidence_buffer,,null,,,,,,,,,,,,,,,,,
2278.999999999942,,memorable_rating,348822,Scottsdale,,52,,4,,,,,,,,,,,,,,,
null,,confidence_buffer,348924,confidence_buffer,,null,,,,,,,,,,,,,,,,,
null,,thebreak,349426,break,,null,,,,,,,,,,,,,,,,,
2896,,familiar_rating,352323,Norfolk,,53,Norfolk,5,,,,,,,,,,,,,,,
null,,confidence_buffer,352425,confidence_buffer,,null,,,,,,,,,,,,,,,,,
5769,,unique_rating,358196,Norfolk,,51,,3,,,,,,,,,,,,,,,
null,,confidence_buffer,358299,confidence_buffer,,null,,,,,,,,,,,,,,,,,
2602,,memorable_rating,360902,Norfolk,,52,,4,,,,,,,,,,,,,,,
null,,confidence_buffer,361005,confidence_buffer,,null,,,,,,,,,,,,,,,,,
null,,thebreak,361506,break,,null,,,,,,,,,,,,,,,,,
5920,,intro_0,367428,instruct,,32,,,,,,,,,,,,,,,,,
7476.999999999942,,intro_1,374907,instruct,,32,,,,,,,,,,,,,,,,,
31285,,intro_2,406194,instruct,,32,,,,,,,,,,,,,,,,,
null,,instruct_dir_4,407696,instruct,,null,,,,,,,,,,,,,,,,,
5120,,realistic_rating,412818,Peoria,,52,Peoria,4,,,,,,,,,,,,,,,
null,,confidence_buffer,412921,confidence_buffer,,null,,,,,,,,,,,,,,,,,
6356,,pt2_unique_rating,419277,Peoria,,53,,5,,,,,,,,,,,,,,,
null,,confidence_buffer,419380,confidence_buffer,,null,,,,,,,,,,,,,,,,,
2814.999999999942,,pt2_memorable_rating,422196,Peoria,,51,,3,,,,,,,,,,,,,,,
null,,confidence_buffer,422300,confidence_buffer,,null,,,,,,,,,,,,,,,,,
3787,,recognition_phase,426089,Peoria,,49,,,,,old,1,1,,,,,,,,,,
null,,confidence_buffer,426192,confidence_buffer,,null,,,,,,,,,,,,,,,,,
null,,thebreak,426694,break,,null,,,,,,,,,,,,,,,,,
5070,,realistic_rating,431765,Dubuque,,51,Dubuque,3,,,,,,,,,,,,,,,
null,,confidence_buffer,431868,confidence_buffer,,null,,,,,,,,,,,,,,,,,
3600,,pt2_unique_rating,435469,Dubuque,,52,,4,,,,,,,,,,,,,,,
null,,confidence_buffer,435572,confidence_buffer,,null,,,,,,,,,,,,,,,,,
2926.999999999942,,pt2_memorable_rating,438501,Dubuque,,51,,3,,,,,,,,,,,,,,,
null,,confidence_buffer,438604,confidence_buffer,,null,,,,,,,,,,,,,,,,,
3293,,recognition_phase,441899,Dubuque,,52,,,,,new,1,1,,,,,,,,,,
null,,confidence_buffer,442002,confidence_buffer,,null,,,,,,,,,,,,,,,,,
null,,thebreak,442504,break,,null,,,,,,,,,,,,,,,,,
6207,,realistic_rating,448713,Yakima,,50,Yakima,2,,,,,,,,,,,,,,,
null,,confidence_buffer,448814,confidence_buffer,,null,,,,,,,,,,,,,,,,,
4124,,pt2_unique_rating,452940,Yakima,,53,,5,,,,,,,,,,,,,,,
null,,confidence_buffer,453042,confidence_buffer,,null,,,,,,,,,,,,,,,,,
3565.999999999942,,pt2_memorable_rating,456609,Yakima,,51,,3,,,,,,,,,,,,,,,
null,,confidence_buffer,456711,confidence_buffer,,null,,,,,,,,,,,,,,,,,
1665.0000000000582,,recognition_phase,458377,Yakima,,49,,,,,old,1,1,,,,,,,,,,
null,,confidence_buffer,458480,confidence_buffer,,null,,,,,,,,,,,,,,,,,
null,,thebreak,458981,break,,null,,,,,,,,,,,,,,,,,
5568,,realistic_rating,464551,Concord,,53,Concord,5,,,,,,,,,,,,,,,
null,,confidence_buffer,464653,confidence_buffer,,null,,,,,,,,,,,,,,,,,
2063,,pt2_unique_rating,466718,Concord,,51,,3,,,,,,,,,,,,,,,
null,,confidence_buffer,466821,confidence_buffer,,null,,,,,,,,,,,,,,,,,
2323,,pt2_memorable_rating,469146,Concord,,50,,2,,,,,,,,,,,,,,,
null,,confidence_buffer,469249,confidence_buffer,,null,,,,,,,,,,,,,,,,,
4559,,recognition_phase,473811,Concord,,50,,,,,old,1,1,,,,,,,,,,
null,,confidence_buffer,473913,confidence_buffer,,null,,,,,,,,,,,,,,,,,
null,,thebreak,474415,break,,null,,,,,,,,,,,,,,,,,
4186,,realistic_rating,478602,Newport News,,53,Newport News,5,,,,,,,,,,,,,,,
null,,confidence_buffer,478705,confidence_buffer,,null,,,,,,,,,,,,,,,,,
2265,,pt2_unique_rating,480972,Newport News,,52,,4,,,,,,,,,,,,,,,
null,,confidence_buffer,481074,confidence_buffer,,null,,,,,,,,,,,,,,,,,
1798,,pt2_memorable_rating,482873,Newport News,,51,,3,,,,,,,,,,,,,,,
null,,confidence_buffer,482975,confidence_buffer,,null,,,,,,,,,,,,,,,,,
1977.0000000000582,,recognition_phase,484954,Newport News,,52,,,,,new,1,1,,,,,,,,,,
null,,confidence_buffer,485057,confidence_buffer,,null,,,,,,,,,,,,,,,,,
null,,thebreak,485558,break,,null,,,,,,,,,,,,,,,,,
3962,,realistic_rating,489522,Fort Wayne,,52,Fort Wayne,4,,,,,,,,,,,,,,,
null,,confidence_buffer,489624,confidence_buffer,,null,,,,,,,,,,,,,,,,,
2961.000000000058,,pt2_unique_rating,492586,Fort Wayne,,50,,2,,,,,,,,,,,,,,,
null,,confidence_buffer,492689,confidence_buffer,,null,,,,,,,,,,,,,,,,,
4784,,pt2_memorable_rating,497475,Fort Wayne,,52,,4,,,,,,,,,,,,,,,
null,,confidence_buffer,497578,confidence_buffer,,null,,,,,,,,,,,,,,,,,
1788.9999999999418,,recognition_phase,499368,Fort Wayne,,49,,,,,old,1,1,,,,,,,,,,
null,,confidence_buffer,499469,confidence_buffer,,null,,,,,,,,,,,,,,,,,
null,,thebreak,499972,break,,null,,,,,,,,,,,,,,,,,
3537.999999999942,,realistic_rating,503511,Pueblo,,52,Pueblo,4,,,,,,,,,,,,,,,
null,,confidence_buffer,503614,confidence_buffer,,null,,,,,,,,,,,,,,,,,
2221,,pt2_unique_rating,505837,Pueblo,,51,,3,,,,,,,,,,,,,,,
null,,confidence_buffer,505940,confidence_buffer,,null,,,,,,,,,,,,,,,,,
2662.999999999942,,pt2_memorable_rating,508606,Pueblo,,51,,3,,,,,,,,,,,,,,,
null,,confidence_buffer,508708,confidence_buffer,,null,,,,,,,,,,,,,,,,,
2127.000000000058,,recognition_phase,510836,Pueblo,,52,,,,,new,1,1,,,,,,,,,,
null,,confidence_buffer,510939,confidence_buffer,,null,,,,,,,,,,,,,,,,,
null,,thebreak,511440,break,,null,,,,,,,,,,,,,,,,,
4875.999999999942,,realistic_rating,516318,Pasadena,,52,Pasadena,4,,,,,,,,,,,,,,,
null,,confidence_buffer,516420,confidence_buffer,,null,,,,,,,,,,,,,,,,,
3212,,pt2_unique_rating,519635,Pasadena,,51,,3,,,,,,,,,,,,,,,
null,,confidence_buffer,519737,confidence_buffer,,null,,,,,,,,,,,,,,,,,
1895.9999999999418,,pt2_memorable_rating,521635,Pasadena,,50,,2,,,,,,,,,,,,,,,
null,,confidence_buffer,521738,confidence_buffer,,null,,,,,,,,,,,,,,,,,
2376,,recognition_phase,524115,Pasadena,,52,,,,,new,1,1,,,,,,,,,,
null,,confidence_buffer,524217,confidence_buffer,,null,,,,,,,,,,,,,,,,,
null,,thebreak,524720,break,,null,,,,,,,,,,,,,,,,,
3439,,realistic_rating,528160,Tallahassee,,53,Tallahassee,5,,,,,,,,,,,,,,,
null,,confidence_buffer,528263,confidence_buffer,,null,,,,,,,,,,,,,,,,,
2319,,pt2_unique_rating,530583,Tallahassee,,51,,3,,,,,,,,,,,,,,,
null,,confidence_buffer,530686,confidence_buffer,,null,,,,,,,,,,,,,,,,,
2927,,pt2_memorable_rating,533615,Tallahassee,,51,,3,,,,,,,,,,,,,,,
null,,confidence_buffer,533717,confidence_buffer,,null,,,,,,,,,,,,,,,,,
1907,,recognition_phase,535625,Tallahassee,,52,,,,,new,1,1,,,,,,,,,,
null,,confidence_buffer,535728,confidence_buffer,,null,,,,,,,,,,,,,,,,,
null,,thebreak,536230,break,,null,,,,,,,,,,,,,,,,,
4815,,realistic_rating,541047,Olympia,,51,Olympia,3,,,,,,,,,,,,,,,
null,,confidence_buffer,541150,confidence_buffer,,null,,,,,,,,,,,,,,,,,
1992,,pt2_unique_rating,543145,Olympia,,51,,3,,,,,,,,,,,,,,,
null,,confidence_buffer,543247,confidence_buffer,,null,,,,,,,,,,,,,,,,,
1599,,pt2_memorable_rating,544847,Olympia,,50,,2,,,,,,,,,,,,,,,
null,,confidence_buffer,544950,confidence_buffer,,null,,,,,,,,,,,,,,,,,
2418,,recognition_phase,547370,Olympia,,49,,,,,old,1,1,,,,,,,,,,
null,,confidence_buffer,547472,confidence_buffer,,null,,,,,,,,,,,,,,,,,
null,,thebreak,547974,break,,null,,,,,,,,,,,,,,,,,
5002,,realistic_rating,552977,Ann Arbor,,52,Ann Arbor,4,,,,,,,,,,,,,,,
null,,confidence_buffer,553080,confidence_buffer,,null,,,,,,,,,,,,,,,,,
2936,,pt2_unique_rating,556017,Ann Arbor,,50,,2,,,,,,,,,,,,,,,
null,,confidence_buffer,556120,confidence_buffer,,null,,,,,,,,,,,,,,,,,
2016,,pt2_memorable_rating,558138,Ann Arbor,,51,,3,,,,,,,,,,,,,,,
null,,confidence_buffer,558241,confidence_buffer,,null,,,,,,,,,,,,,,,,,
1764,,recognition_phase,560008,Ann Arbor,,52,,,,,new,1,1,,,,,,,,,,
null,,confidence_buffer,560111,confidence_buffer,,null,,,,,,,,,,,,,,,,,
null,,thebreak,560613,break,,null,,,,,,,,,,,,,,,,,
2873,,realistic_rating,563487,Stamford,,52,Stamford,4,,,,,,,,,,,,,,,
null,,confidence_buffer,563590,confidence_buffer,,null,,,,,,,,,,,,,,,,,
1778,,probe_rating,565370,probe_rating,,52,,,4,1,,,,,,,,,,,,,
null,,confidence_buffer,565472,confidence_buffer,,null,,,,,,,,,,,,,,,,,
3170,,pt2_unique_rating,568645,Stamford,,51,,3,,,,,,,,,,,,,,,
null,,confidence_buffer,568747,confidence_buffer,,null,,,,,,,,,,,,,,,,,
1744,,pt2_memorable_rating,570494,Stamford,,50,,2,,,,,,,,,,,,,,,
null,,confidence_buffer,570596,confidence_buffer,,null,,,,,,,,,,,,,,,,,
2108,,recognition_phase,572706,Stamford,,49,,,,,old,1,1,,,,,,,,,,
null,,confidence_buffer,572808,confidence_buffer,,null,,,,,,,,,,,,,,,,,
null,,thebreak,573310,break,,null,,,,,,,,,,,,,,,,,
5323,,realistic_rating,578635,Norfolk,,53,Norfolk,5,,,,,,,,,,,,,,,
null,,confidence_buffer,578738,confidence_buffer,,null,,,,,,,,,,,,,,,,,
1721.0000000001164,,pt2_unique_rating,580460,Norfolk,,51,,3,,,,,,,,,,,,,,,
null,,confidence_buffer,580563,confidence_buffer,,null,,,,,,,,,,,,,,,,,
2428,,pt2_memorable_rating,582994,Norfolk,,52,,4,,,,,,,,,,,,,,,
null,,confidence_buffer,583096,confidence_buffer,,null,,,,,,,,,,,,,,,,,
1611,,recognition_phase,584708,Norfolk,,49,,,,,old,1,1,,,,,,,,,,
null,,confidence_buffer,584810,confidence_buffer,,null,,,,,,,,,,,,,,,,,
null,,thebreak,585312,break,,null,,,,,,,,,,,,,,,,,
4264,,realistic_rating,589577,Palo Alto,,52,Palo Alto,4,,,,,,,,,,,,,,,
null,,confidence_buffer,589679,confidence_buffer,,null,,,,,,,,,,,,,,,,,
2091.9999999998836,,pt2_unique_rating,591773,Palo Alto,,52,,4,,,,,,,,,,,,,,,
null,,confidence_buffer,591875,confidence_buffer,,null,,,,,,,,,,,,,,,,,
2626,,pt2_memorable_rating,594503,Palo Alto,,52,,4,,,,,,,,,,,,,,,
null,,confidence_buffer,594606,confidence_buffer,,null,,,,,,,,,,,,,,,,,
2344,,recognition_phase,596951,Palo Alto,,52,,,,,new,1,1,,,,,,,,,,
null,,confidence_buffer,597054,confidence_buffer,,null,,,,,,,,,,,,,,,,,
null,,thebreak,597555,break,,null,,,,,,,,,,,,,,,,,
3266.9999999998836,,realistic_rating,600824,Burlington,,52,Burlington,4,,,,,,,,,,,,,,,
null,,confidence_buffer,600926,confidence_buffer,,null,,,,,,,,,,,,,,,,,
2667,,pt2_unique_rating,603595,Burlington,,50,,2,,,,,,,,,,,,,,,
null,,confidence_buffer,603698,confidence_buffer,,null,,,,,,,,,,,,,,,,,
2642,,pt2_memorable_rating,606342,Burlington,,51,,3,,,,,,,,,,,,,,,
null,,confidence_buffer,606444,confidence_buffer,,null,,,,,,,,,,,,,,,,,
1778,,recognition_phase,608224,Burlington,,49,,,,,old,1,1,,,,,,,,,,
null,,confidence_buffer,608327,confidence_buffer,,null,,,,,,,,,,,,,,,,,
null,,thebreak,608828,break,,null,,,,,,,,,,,,,,,,,
3196,,realistic_rating,612026,Las Cruces,,52,Las Cruces,4,,,,,,,,,,,,,,,
null,,confidence_buffer,612128,confidence_buffer,,null,,,,,,,,,,,,,,,,,
3011,,pt2_unique_rating,615141,Las Cruces,,52,,4,,,,,,,,,,,,,,,
null,,confidence_buffer,615243,confidence_buffer,,null,,,,,,,,,,,,,,,,,
1844,,pt2_memorable_rating,617089,Las Cruces,,52,,4,,,,,,,,,,,,,,,
null,,confidence_buffer,617191,confidence_buffer,,null,,,,,,,,,,,,,,,,,
2166,,recognition_phase,619359,Las Cruces,,52,,,,,new,1,1,,,,,,,,,,
null,,confidence_buffer,619462,confidence_buffer,,null,,,,,,,,,,,,,,,,,
null,,thebreak,619964,break,,null,,,,,,,,,,,,,,,,,
6418.000000000116,,realistic_rating,626384,Helena,,51,Helena,3,,,,,,,,,,,,,,,
null,,confidence_buffer,626485,confidence_buffer,,null,,,,,,,,,,,,,,,,,
4030,,pt2_unique_rating,630517,Helena,,50,,2,,,,,,,,,,,,,,,
null,,confidence_buffer,630620,confidence_buffer,,null,,,,,,,,,,,,,,,,,
1525,,pt2_memorable_rating,632146,Helena,,50,,2,,,,,,,,,,,,,,,
null,,confidence_buffer,632249,confidence_buffer,,null,,,,,,,,,,,,,,,,,
2760,,recognition_phase,635010,Helena,,50,,,,,old,0,0.9411764705882353,,,,,,,,,,
null,,confidence_buffer,635113,confidence_buffer,,null,,,,,,,,,,,,,,,,,
null,,thebreak,635615,break,,null,,,,,,,,,,,,,,,,,
4250,,realistic_rating,639867,Carson City,,52,Carson City,4,,,,,,,,,,,,,,,
null,,confidence_buffer,639969,confidence_buffer,,null,,,,,,,,,,,,,,,,,
2310,,pt2_unique_rating,642281,Carson City,,52,,4,,,,,,,,,,,,,,,
null,,confidence_buffer,642383,confidence_buffer,,null,,,,,,,,,,,,,,,,,
2251,,pt2_memorable_rating,644636,Carson City,,52,,4,,,,,,,,,,,,,,,
null,,confidence_buffer,644738,confidence_buffer,,null,,,,,,,,,,,,,,,,,
2216.0000000001164,,recognition_phase,646956,Carson City,,52,,,,,new,0,0.8888888888888888,,,,,,,,,,
null,,confidence_buffer,647058,confidence_buffer,,null,,,,,,,,,,,,,,,,,
null,,thebreak,647560,break,,null,,,,,,,,,,,,,,,,,
8810.999999999884,,realistic_rating,656373,Syracuse,,53,Syracuse,5,,,,,,,,,,,,,,,
null,,confidence_buffer,656476,confidence_buffer,,null,,,,,,,,,,,,,,,,,
1757.0000000001164,,pt2_unique_rating,658235,Syracuse,,51,,3,,,,,,,,,,,,,,,
null,,confidence_buffer,658337,confidence_buffer,,null,,,,,,,,,,,,,,,,,
2374,,pt2_memorable_rating,660713,Syracuse,,51,,3,,,,,,,,,,,,,,,
null,,confidence_buffer,660815,confidence_buffer,,null,,,,,,,,,,,,,,,,,
3657,,recognition_phase,664473,Syracuse,,50,,,,,old,1,0.8947368421052632,,,,,,,,,,
null,,confidence_buffer,664576,confidence_buffer,,null,,,,,,,,,,,,,,,,,
null,,thebreak,665077,break,,null,,,,,,,,,,,,,,,,,
5620,,realistic_rating,670699,Rock Springs,,53,Rock Springs,5,,,,,,,,,,,,,,,
null,,confidence_buffer,670801,confidence_buffer,,null,,,,,,,,,,,,,,,,,
1912,,pt2_unique_rating,672715,Rock Springs,,50,,2,,,,,,,,,,,,,,,
null,,confidence_buffer,672817,confidence_buffer,,null,,,,,,,,,,,,,,,,,
1561,,pt2_memorable_rating,674380,Rock Springs,,50,,2,,,,,,,,,,,,,,,
null,,confidence_buffer,674482,confidence_buffer,,null,,,,,,,,,,,,,,,,,
3417,,probe_rating,677901,probe_rating,,51,,,3,1,,,,,,,,,,,,,
null,,confidence_buffer,678004,confidence_buffer,,null,,,,,,,,,,,,,,,,,
2477,,recognition_phase,680483,Rock Springs,,52,,,,,new,1,0.9,,,,,,,,,,
null,,confidence_buffer,680585,confidence_buffer,,null,,,,,,,,,,,,,,,,,
null,,thebreak,681086,break,,null,,,,,,,,,,,,,,,,,
2970,,realistic_rating,684058,New Haven,,52,New Haven,4,,,,,,,,,,,,,,,
null,,confidence_buffer,684160,confidence_buffer,,null,,,,,,,,,,,,,,,,,
4469,,pt2_unique_rating,688630,New Haven,,50,,2,,,,,,,,,,,,,,,
null,,confidence_buffer,688733,confidence_buffer,,null,,,,,,,,,,,,,,,,,
1348,,pt2_memorable_rating,690080,New Haven,,50,,2,,,,,,,,,,,,,,,
null,,confidence_buffer,690182,confidence_buffer,,null,,,,,,,,,,,,,,,,,
3050,,recognition_phase,693229,New Haven,,49,,,,,old,1,0.9047619047619048,,,,,,,,,,
null,,confidence_buffer,693331,confidence_buffer,,null,,,,,,,,,,,,,,,,,
null,,thebreak,693833,break,,null,,,,,,,,,,,,,,,,,
5875,,realistic_rating,699702,Dover,,52,Dover,4,,,,,,,,,,,,,,,
null,,confidence_buffer,699804,confidence_buffer,,null,,,,,,,,,,,,,,,,,
1526,,pt2_unique_rating,701330,Dover,,52,,4,,,,,,,,,,,,,,,
null,,confidence_buffer,701432,confidence_buffer,,null,,,,,,,,,,,,,,,,,
2896,,pt2_memorable_rating,704327,Dover,,50,,2,,,,,,,,,,,,,,,
null,,confidence_buffer,704429,confidence_buffer,,null,,,,,,,,,,,,,,,,,
1864,,recognition_phase,706293,Dover,,50,,,,,old,1,0.9090909090909091,,,,,,,,,,
null,,confidence_buffer,706396,confidence_buffer,,null,,,,,,,,,,,,,,,,,
null,,thebreak,706897,break,,null,,,,,,,,,,,,,,,,,
3985,,realistic_rating,710881,Montpelier,,52,Montpelier,4,,,,,,,,,,,,,,,
null,,confidence_buffer,710984,confidence_buffer,,null,,,,,,,,,,,,,,,,,
1605,,pt2_unique_rating,712589,Montpelier,,53,,5,,,,,,,,,,,,,,,
null,,confidence_buffer,712691,confidence_buffer,,null,,,,,,,,,,,,,,,,,
2156.0000000001164,,pt2_memorable_rating,714849,Montpelier,,50,,2,,,,,,,,,,,,,,,
null,,confidence_buffer,714952,confidence_buffer,,null,,,,,,,,,,,,,,,,,
2448.0000000001164,,recognition_phase,717400,Montpelier,,52,,,,,new,1,0.9130434782608695,,,,,,,,,,
null,,confidence_buffer,717503,confidence_buffer,,null,,,,,,,,,,,,,,,,,
null,,thebreak,718005,break,,null,,,,,,,,,,,,,,,,,
3040.9999999998836,,realistic_rating,721046,Annapolis,,52,Annapolis,4,,,,,,,,,,,,,,,
null,,confidence_buffer,721147,confidence_buffer,,null,,,,,,,,,,,,,,,,,
1495,,pt2_unique_rating,722643,Annapolis,,52,,4,,,,,,,,,,,,,,,
null,,confidence_buffer,722745,confidence_buffer,,null,,,,,,,,,,,,,,,,,
2794,,pt2_memorable_rating,725540,Annapolis,,50,,2,,,,,,,,,,,,,,,
null,,confidence_buffer,725643,confidence_buffer,,null,,,,,,,,,,,,,,,,,
3496,,recognition_phase,729139,Annapolis,,51,,,,,new,1,0.9166666666666666,,,,,,,,,,
null,,confidence_buffer,729240,confidence_buffer,,null,,,,,,,,,,,,,,,,,
null,,thebreak,729742,break,,null,,,,,,,,,,,,,,,,,
5107.999999999884,,realistic_rating,734850,Altoona,,52,Altoona,4,,,,,,,,,,,,,,,
null,,confidence_buffer,734953,confidence_buffer,,null,,,,,,,,,,,,,,,,,
2168,,pt2_unique_rating,737124,Altoona,,53,,5,,,,,,,,,,,,,,,
null,,confidence_buffer,737227,confidence_buffer,,null,,,,,,,,,,,,,,,,,
1589,,pt2_memorable_rating,738818,Altoona,,50,,2,,,,,,,,,,,,,,,
null,,confidence_buffer,738921,confidence_buffer,,null,,,,,,,,,,,,,,,,,
4176.000000000116,,recognition_phase,743098,Altoona,,52,,,,,new,0,0.88,,,,,,,,,,
null,,confidence_buffer,743200,confidence_buffer,,null,,,,,,,,,,,,,,,,,
null,,thebreak,743701,break,,null,,,,,,,,,,,,,,,,,
6593,,realistic_rating,750295,Champaign,,52,Champaign,4,,,,,,,,,,,,,,,
null,,confidence_buffer,750398,confidence_buffer,,null,,,,,,,,,,,,,,,,,
1834.9999999998836,,pt2_unique_rating,752235,Champaign,,51,,3,,,,,,,,,,,,,,,
null,,confidence_buffer,752337,confidence_buffer,,null,,,,,,,,,,,,,,,,,
1878.0000000001164,,pt2_memorable_rating,754217,Champaign,,50,,2,,,,,,,,,,,,,,,
null,,confidence_buffer,754320,confidence_buffer,,null,,,,,,,,,,,,,,,,,
2709,,recognition_phase,757030,Champaign,,52,,,,,new,1,0.8846153846153846,,,,,,,,,,
null,,confidence_buffer,757131,confidence_buffer,,null,,,,,,,,,,,,,,,,,
null,,thebreak,757632,break,,null,,,,,,,,,,,,,,,,,
3201,,realistic_rating,760834,Abilene,,52,Abilene,4,,,,,,,,,,,,,,,
null,,confidence_buffer,760936,confidence_buffer,,null,,,,,,,,,,,,,,,,,
1155.9999999998836,,pt2_unique_rating,762094,Abilene,,52,,4,,,,,,,,,,,,,,,
null,,confidence_buffer,762196,confidence_buffer,,null,,,,,,,,,,,,,,,,,
2563.9999999998836,,pt2_memorable_rating,764762,Abilene,,51,,3,,,,,,,,,,,,,,,
null,,confidence_buffer,764865,confidence_buffer,,null,,,,,,,,,,,,,,,,,
2265,,recognition_phase,767131,Abilene,,49,,,,,old,1,0.8888888888888888,,,,,,,,,,
null,,confidence_buffer,767234,confidence_buffer,,null,,,,,,,,,,,,,,,,,
null,,thebreak,767735,break,,null,,,,,,,,,,,,,,,,,
2873,,realistic_rating,770610,Muncie,,52,Muncie,4,,,,,,,,,,,,,,,
null,,confidence_buffer,770713,confidence_buffer,,null,,,,,,,,,,,,,,,,,
1973.0000000001164,,pt2_unique_rating,772688,Muncie,,51,,3,,,,,,,,,,,,,,,
null,,confidence_buffer,772791,confidence_buffer,,null,,,,,,,,,,,,,,,,,
2821,,pt2_memorable_rating,775614,Muncie,,51,,3,,,,,,,,,,,,,,,
null,,confidence_buffer,775717,confidence_buffer,,null,,,,,,,,,,,,,,,,,
2045,,recognition_phase,777764,Muncie,,49,,,,,old,1,0.8928571428571429,,,,,,,,,,
null,,confidence_buffer,777867,confidence_buffer,,null,,,,,,,,,,,,,,,,,
null,,thebreak,778369,break,,null,,,,,,,,,,,,,,,,,
2721.9999999998836,,realistic_rating,781093,Fargo,,52,Fargo,4,,,,,,,,,,,,,,,
null,,confidence_buffer,781196,confidence_buffer,,null,,,,,,,,,,,,,,,,,
1726,,pt2_unique_rating,782923,Fargo,,52,,4,,,,,,,,,,,,,,,
null,,confidence_buffer,783025,confidence_buffer,,null,,,,,,,,,,,,,,,,,
1867,,pt2_memorable_rating,784894,Fargo,,50,,2,,,,,,,,,,,,,,,
null,,confidence_buffer,784997,confidence_buffer,,null,,,,,,,,,,,,,,,,,
3358,,recognition_phase,788357,Fargo,,50,,,,,old,0,0.8620689655172413,,,,,,,,,,
null,,confidence_buffer,788459,confidence_buffer,,null,,,,,,,,,,,,,,,,,
null,,thebreak,788961,break,,null,,,,,,,,,,,,,,,,,
7437.000000000116,,realistic_rating,796399,Cambridge,,52,Cambridge,4,,,,,,,,,,,,,,,
null,,confidence_buffer,796501,confidence_buffer,,null,,,,,,,,,,,,,,,,,
2366,,pt2_unique_rating,798868,Cambridge,,50,,2,,,,,,,,,,,,,,,
null,,confidence_buffer,798971,confidence_buffer,,null,,,,,,,,,,,,,,,,,
1614.0000000001164,,pt2_memorable_rating,800587,Cambridge,,50,,2,,,,,,,,,,,,,,,
null,,confidence_buffer,800689,confidence_buffer,,null,,,,,,,,,,,,,,,,,
1510,,recognition_phase,802200,Cambridge,,52,,,,,new,1,0.8666666666666667,,,,,,,,,,
null,,confidence_buffer,802303,confidence_buffer,,null,,,,,,,,,,,,,,,,,
null,,thebreak,802805,break,,null,,,,,,,,,,,,,,,,,
4039,,realistic_rating,806846,Boise,,52,Boise,4,,,,,,,,,,,,,,,
null,,confidence_buffer,806948,confidence_buffer,,null,,,,,,,,,,,,,,,,,
1773,,pt2_unique_rating,808722,Boise,,52,,4,,,,,,,,,,,,,,,
null,,confidence_buffer,808825,confidence_buffer,,null,,,,,,,,,,,,,,,,,
2045,,pt2_memorable_rating,810872,Boise,,50,,2,,,,,,,,,,,,,,,
null,,confidence_buffer,810975,confidence_buffer,,null,,,,,,,,,,,,,,,,,
5665,,recognition_phase,816642,Boise,,50,,,,,old,0,0.8387096774193549,,,,,,,,,,
null,,confidence_buffer,816744,confidence_buffer,,null,,,,,,,,,,,,,,,,,
null,,thebreak,817246,break,,null,,,,,,,,,,,,,,,,,
5124,,realistic_rating,822372,Hagerstown,,52,Hagerstown,4,,,,,,,,,,,,,,,
null,,confidence_buffer,822475,confidence_buffer,,null,,,,,,,,,,,,,,,,,
1523,,pt2_unique_rating,823999,Hagerstown,,53,,5,,,,,,,,,,,,,,,
null,,confidence_buffer,824102,confidence_buffer,,null,,,,,,,,,,,,,,,,,
2569,,pt2_memorable_rating,826672,Hagerstown,,50,,2,,,,,,,,,,,,,,,
null,,confidence_buffer,826774,confidence_buffer,,null,,,,,,,,,,,,,,,,,
3169,,recognition_phase,829944,Hagerstown,,50,,,,,old,1,0.84375,,,,,,,,,,
null,,confidence_buffer,830047,confidence_buffer,,null,,,,,,,,,,,,,,,,,
null,,thebreak,830549,break,,null,,,,,,,,,,,,,,,,,
4710,,realistic_rating,835261,Berkeley,,53,Berkeley,5,,,,,,,,,,,,,,,
null,,confidence_buffer,835363,confidence_buffer,,null,,,,,,,,,,,,,,,,,
1631.9999999998836,,probe_rating,836997,probe_rating,,52,,,4,1,,,,,,,,,,,,,
null,,confidence_buffer,837099,confidence_buffer,,null,,,,,,,,,,,,,,,,,
3763,,pt2_unique_rating,840863,Berkeley,,51,,3,,,,,,,,,,,,,,,
null,,confidence_buffer,840965,confidence_buffer,,null,,,,,,,,,,,,,,,,,
1418.9999999998836,,pt2_memorable_rating,842385,Berkeley,,50,,2,,,,,,,,,,,,,,,
null,,confidence_buffer,842488,confidence_buffer,,null,,,,,,,,,,,,,,,,,
3163,,recognition_phase,845652,Berkeley,,51,,,,,new,1,0.8484848484848485,,,,,,,,,,
null,,confidence_buffer,845754,confidence_buffer,,null,,,,,,,,,,,,,,,,,
null,,thebreak,846255,break,,null,,,,,,,,,,,,,,,,,
3485,,realistic_rating,849742,Athens,,53,Athens,5,,,,,,,,,,,,,,,
null,,confidence_buffer,849845,confidence_buffer,,null,,,,,,,,,,,,,,,,,
2170.9999999998836,,pt2_unique_rating,852017,Athens,,51,,3,,,,,,,,,,,,,,,
null,,confidence_buffer,852119,confidence_buffer,,null,,,,,,,,,,,,,,,,,
1833.9999999998836,,pt2_memorable_rating,853954,Athens,,53,,5,,,,,,,,,,,,,,,
null,,confidence_buffer,854056,confidence_buffer,,null,,,,,,,,,,,,,,,,,
1629.0000000001164,,probe_rating,855688,probe_rating,,53,,,5,1,,,,,,,,,,,,,
null,,confidence_buffer,855791,confidence_buffer,,null,,,,,,,,,,,,,,,,,
2790,,recognition_phase,858583,Athens,,52,,,,,new,1,0.8529411764705882,,,,,,,,,,
null,,confidence_buffer,858685,confidence_buffer,,null,,,,,,,,,,,,,,,,,
null,,thebreak,859187,break,,null,,,,,,,,,,,,,,,,,
2527.0000000001164,,realistic_rating,861716,Dothan,,52,Dothan,4,,,,,,,,,,,,,,,
null,,confidence_buffer,861819,confidence_buffer,,null,,,,,,,,,,,,,,,,,
1673,,probe_rating,863494,probe_rating,,49,,,1,1,,,,,,,,,,,,,
null,,confidence_buffer,863597,confidence_buffer,,null,,,,,,,,,,,,,,,,,
3879,,pt2_unique_rating,867476,Dothan,,53,,5,,,,,,,,,,,,,,,
null,,confidence_buffer,867578,confidence_buffer,,null,,,,,,,,,,,,,,,,,
3443,,pt2_memorable_rating,871023,Dothan,,52,,4,,,,,,,,,,,,,,,
null,,confidence_buffer,871126,confidence_buffer,,null,,,,,,,,,,,,,,,,,
1514,,recognition_phase,872642,Dothan,,49,,,,,old,1,0.8571428571428571,,,,,,,,,,
null,,confidence_buffer,872744,confidence_buffer,,null,,,,,,,,,,,,,,,,,
null,,thebreak,873246,break,,null,,,,,,,,,,,,,,,,,
3007,,realistic_rating,876255,Santa Monica,,52,Santa Monica,4,,,,,,,,,,,,,,,
null,,confidence_buffer,876358,confidence_buffer,,null,,,,,,,,,,,,,,,,,
2249,,probe_rating,878608,probe_rating,,50,,,2,1,,,,,,,,,,,,,
null,,confidence_buffer,878710,confidence_buffer,,null,,,,,,,,,,,,,,,,,
4602.999999999884,,pt2_unique_rating,883314,Santa Monica,,51,,3,,,,,,,,,,,,,,,
null,,confidence_buffer,883416,confidence_buffer,,null,,,,,,,,,,,,,,,,,
1950.9999999998836,,pt2_memorable_rating,885369,Santa Monica,,50,,2,,,,,,,,,,,,,,,
null,,confidence_buffer,885472,confidence_buffer,,null,,,,,,,,,,,,,,,,,
2020,,recognition_phase,887494,Santa Monica,,51,,,,,new,0,0.8333333333333334,,,,,,,,,,
null,,confidence_buffer,887596,confidence_buffer,,null,,,,,,,,,,,,,,,,,
null,,thebreak,888098,break,,null,,,,,,,,,,,,,,,,,
4559,,realistic_rating,892659,McKinney,,52,McKinney,4,,,,,,,,,,,,,,,
null,,confidence_buffer,892761,confidence_buffer,,null,,,,,,,,,,,,,,,,,
1167,,pt2_unique_rating,893930,McKinney,,51,,3,,,,,,,,,,,,,,,
null,,confidence_buffer,894032,confidence_buffer,,null,,,,,,,,,,,,,,,,,
2554,,pt2_memorable_rating,896588,McKinney,,51,,3,,,,,,,,,,,,,,,
null,,confidence_buffer,896691,confidence_buffer,,null,,,,,,,,,,,,,,,,,
1712,,recognition_phase,898405,McKinney,,49,,,,,old,1,0.8378378378378378,,,,,,,,,,
null,,confidence_buffer,898508,confidence_buffer,,null,,,,,,,,,,,,,,,,,
null,,thebreak,899010,break,,null,,,,,,,,,,,,,,,,,
5878,,realistic_rating,904890,Toledo,,52,Toledo,4,,,,,,,,,,,,,,,
null,,confidence_buffer,904992,confidence_buffer,,null,,,,,,,,,,,,,,,,,
1523,,pt2_unique_rating,906517,Toledo,,52,,4,,,,,,,,,,,,,,,
null,,confidence_buffer,906620,confidence_buffer,,null,,,,,,,,,,,,,,,,,
1781,,pt2_memorable_rating,908403,Toledo,,50,,2,,,,,,,,,,,,,,,
null,,confidence_buffer,908504,confidence_buffer,,null,,,,,,,,,,,,,,,,,
1418,,recognition_phase,909923,Toledo,,49,,,,,old,1,0.8421052631578947,,,,,,,,,,
null,,confidence_buffer,910025,confidence_buffer,,null,,,,,,,,,,,,,,,,,
null,,thebreak,910527,break,,null,,,,,,,,,,,,,,,,,
5141,,realistic_rating,915669,Frankfort,,52,Frankfort,4,,,,,,,,,,,,,,,
null,,confidence_buffer,915770,confidence_buffer,,null,,,,,,,,,,,,,,,,,
3772,,pt2_unique_rating,919544,Frankfort,,51,,3,,,,,,,,,,,,,,,
null,,confidence_buffer,919646,confidence_buffer,,null,,,,,,,,,,,,,,,,,
2186,,pt2_memorable_rating,921833,Frankfort,,50,,2,,,,,,,,,,,,,,,
null,,confidence_buffer,921935,confidence_buffer,,null,,,,,,,,,,,,,,,,,
1958.9999999998836,,recognition_phase,923895,Frankfort,,51,,,,,new,1,0.8461538461538461,,,,,,,,,,
null,,confidence_buffer,923996,confidence_buffer,,null,,,,,,,,,,,,,,,,,
null,,thebreak,924498,break,,null,,,,,,,,,,,,,,,,,
4506.999999999884,,realistic_rating,929007,Gainesville,,53,Gainesville,5,,,,,,,,,,,,,,,
null,,confidence_buffer,929109,confidence_buffer,,null,,,,,,,,,,,,,,,,,
1765,,pt2_unique_rating,930876,Gainesville,,51,,3,,,,,,,,,,,,,,,
null,,confidence_buffer,930978,confidence_buffer,,null,,,,,,,,,,,,,,,,,
1845,,pt2_memorable_rating,932825,Gainesville,,52,,4,,,,,,,,,,,,,,,
null,,confidence_buffer,932926,confidence_buffer,,null,,,,,,,,,,,,,,,,,
1865,,recognition_phase,934794,Gainesville,,52,,,,,new,1,0.85,,,,,,,,,,
null,,confidence_buffer,934896,confidence_buffer,,null,,,,,,,,,,,,,,,,,
null,,thebreak,935399,break,,null,,,,,,,,,,,,,,,,,
3568,,realistic_rating,938968,Bozeman,,52,Bozeman,4,,,,,,,,,,,,,,,
null,,confidence_buffer,939071,confidence_buffer,,null,,,,,,,,,,,,,,,,,
2015,,pt2_unique_rating,941087,Bozeman,,53,,5,,,,,,,,,,,,,,,
null,,confidence_buffer,941190,confidence_buffer,,null,,,,,,,,,,,,,,,,,
6569.999999999884,,pt2_memorable_rating,947762,Bozeman,,50,,2,,,,,,,,,,,,,,,
null,,confidence_buffer,947864,confidence_buffer,,null,,,,,,,,,,,,,,,,,
4723,,recognition_phase,952589,Bozeman,,51,,,,,new,1,0.8536585365853658,,,,,,,,,,
null,,confidence_buffer,952691,confidence_buffer,,null,,,,,,,,,,,,,,,,,
null,,thebreak,953193,break,,null,,,,,,,,,,,,,,,,,
5966,,realistic_rating,959162,Topeka,,52,Topeka,4,,,,,,,,,,,,,,,
null,,confidence_buffer,959265,confidence_buffer,,null,,,,,,,,,,,,,,,,,
1429,,pt2_unique_rating,960696,Topeka,,53,,5,,,,,,,,,,,,,,,
null,,confidence_buffer,960798,confidence_buffer,,null,,,,,,,,,,,,,,,,,
1801,,pt2_memorable_rating,962601,Topeka,,50,,2,,,,,,,,,,,,,,,
null,,confidence_buffer,962702,confidence_buffer,,null,,,,,,,,,,,,,,,,,
2584.0000000001164,,recognition_phase,965288,Topeka,,52,,,,,new,1,0.8571428571428571,,,,,,,,,,
null,,confidence_buffer,965390,confidence_buffer,,null,,,,,,,,,,,,,,,,,
null,,thebreak,965892,break,,null,,,,,,,,,,,,,,,,,
4764.999999999884,,realistic_rating,970659,Boulder,,53,Boulder,5,,,,,,,,,,,,,,,
null,,confidence_buffer,970761,confidence_buffer,,null,,,,,,,,,,,,,,,,,
1556,,pt2_unique_rating,972319,Boulder,,52,,4,,,,,,,,,,,,,,,
null,,confidence_buffer,972421,confidence_buffer,,null,,,,,,,,,,,,,,,,,
1762.9999999998836,,pt2_memorable_rating,974186,Boulder,,50,,2,,,,,,,,,,,,,,,
null,,confidence_buffer,974288,confidence_buffer,,null,,,,,,,,,,,,,,,,,
3902.0000000001164,,recognition_phase,978191,Boulder,,50,,,,,old,1,0.8604651162790697,,,,,,,,,,
null,,confidence_buffer,978294,confidence_buffer,,null,,,,,,,,,,,,,,,,,
null,,thebreak,978795,break,,null,,,,,,,,,,,,,,,,,
3612,,realistic_rating,982409,Youngstown,,53,Youngstown,5,,,,,,,,,,,,,,,
null,,confidence_buffer,982511,confidence_buffer,,null,,,,,,,,,,,,,,,,,
1673,,pt2_unique_rating,984186,Youngstown,,53,,5,,,,,,,,,,,,,,,
null,,confidence_buffer,984288,confidence_buffer,,null,,,,,,,,,,,,,,,,,
2035,,pt2_memorable_rating,986325,Youngstown,,50,,2,,,,,,,,,,,,,,,
null,,confidence_buffer,986428,confidence_buffer,,null,,,,,,,,,,,,,,,,,
2157,,recognition_phase,988587,Youngstown,,51,,,,,new,1,0.8636363636363636,,,,,,,,,,
null,,confidence_buffer,988689,confidence_buffer,,null,,,,,,,,,,,,,,,,,
null,,thebreak,989191,break,,null,,,,,,,,,,,,,,,,,
2421,,realistic_rating,991613,Bellingham,,52,Bellingham,4,,,,,,,,,,,,,,,
null,,confidence_buffer,991715,confidence_buffer,,null,,,,,,,,,,,,,,,,,
1521,,pt2_unique_rating,993238,Bellingham,,52,,4,,,,,,,,,,,,,,,
null,,confidence_buffer,993340,confidence_buffer,,null,,,,,,,,,,,,,,,,,
2706,,pt2_memorable_rating,996048,Bellingham,,51,,3,,,,,,,,,,,,,,,
null,,confidence_buffer,996151,confidence_buffer,,null,,,,,,,,,,,,,,,,,
1562.0000000001164,,recognition_phase,997715,Bellingham,,52,,,,,new,1,0.8666666666666667,,,,,,,,,,
null,,confidence_buffer,997817,confidence_buffer,,null,,,,,,,,,,,,,,,,,
null,,thebreak,998319,break,,null,,,,,,,,,,,,,,,,,
5583,,realistic_rating,1003903,Ithaca,,52,Ithaca,4,,,,,,,,,,,,,,,
null,,confidence_buffer,1004006,confidence_buffer,,null,,,,,,,,,,,,,,,,,
2309.9999999998836,,pt2_unique_rating,1006318,Ithaca,,52,,4,,,,,,,,,,,,,,,
null,,confidence_buffer,1006421,confidence_buffer,,null,,,,,,,,,,,,,,,,,
2173.9999999998836,,pt2_memorable_rating,1008596,Ithaca,,52,,4,,,,,,,,,,,,,,,
null,,confidence_buffer,1008699,confidence_buffer,,null,,,,,,,,,,,,,,,,,
3084,,recognition_phase,1011785,Ithaca,,52,,,,,new,1,0.8695652173913043,,,,,,,,,,
null,,confidence_buffer,1011888,confidence_buffer,,null,,,,,,,,,,,,,,,,,
null,,thebreak,1012390,break,,null,,,,,,,,,,,,,,,,,
4448.000000000116,,realistic_rating,1016840,Marquette,,52,Marquette,4,,,,,,,,,,,,,,,
null,,confidence_buffer,1016943,confidence_buffer,,null,,,,,,,,,,,,,,,,,
1758,,pt2_unique_rating,1018703,Marquette,,53,,5,,,,,,,,,,,,,,,
null,,confidence_buffer,1018806,confidence_buffer,,null,,,,,,,,,,,,,,,,,
1873.0000000001164,,pt2_memorable_rating,1020681,Marquette,,50,,2,,,,,,,,,,,,,,,
null,,confidence_buffer,1020784,confidence_buffer,,null,,,,,,,,,,,,,,,,,
2024.0000000001164,,recognition_phase,1022809,Marquette,,49,,,,,old,1,0.8723404255319149,,,,,,,,,,
null,,confidence_buffer,1022912,confidence_buffer,,null,,,,,,,,,,,,,,,,,
null,,thebreak,1023414,break,,null,,,,,,,,,,,,,,,,,
4994.999999999884,,realistic_rating,1028409,Decatur,,53,Decatur,5,,,,,,,,,,,,,,,
null,,confidence_buffer,1028512,confidence_buffer,,null,,,,,,,,,,,,,,,,,
1609.9999999998836,,pt2_unique_rating,1030123,Decatur,,52,,4,,,,,,,,,,,,,,,
null,,confidence_buffer,1030226,confidence_buffer,,null,,,,,,,,,,,,,,,,,
1557,,pt2_memorable_rating,1031785,Decatur,,52,,4,,,,,,,,,,,,,,,
null,,confidence_buffer,1031888,confidence_buffer,,null,,,,,,,,,,,,,,,,,
1299,,recognition_phase,1033189,Decatur,,49,,,,,old,1,0.875,,,,,,,,,,
null,,confidence_buffer,1033292,confidence_buffer,,null,,,,,,,,,,,,,,,,,
null,,thebreak,1033794,break,,null,,,,,,,,,,,,,,,,,
2836,,realistic_rating,1036632,Scottsdale,,52,Scottsdale,4,,,,,,,,,,,,,,,
null,,confidence_buffer,1036734,confidence_buffer,,null,,,,,,,,,,,,,,,,,
1750,,pt2_unique_rating,1038486,Scottsdale,,52,,4,,,,,,,,,,,,,,,
null,,confidence_buffer,1038589,confidence_buffer,,null,,,,,,,,,,,,,,,,,
2363.0000000001164,,pt2_memorable_rating,1040954,Scottsdale,,51,,3,,,,,,,,,,,,,,,
null,,confidence_buffer,1041057,confidence_buffer,,null,,,,,,,,,,,,,,,,,
1420.0000000001164,,recognition_phase,1042478,Scottsdale,,49,,,,,old,1,0.8775510204081632,,,,,,,,,,
null,,confidence_buffer,1042581,confidence_buffer,,null,,,,,,,,,,,,,,,,,
null,,thebreak,1043083,break,,null,,,,,,,,,,,,,,,,,
2471.9999999998836,,realistic_rating,1045557,Terre Haute,,52,Terre Haute,4,,,,,,,,,,,,,,,
null,,confidence_buffer,1045659,confidence_buffer,,null,,,,,,,,,,,,,,,,,
1681,,pt2_unique_rating,1047342,Terre Haute,,53,,5,,,,,,,,,,,,,,,
null,,confidence_buffer,1047444,confidence_buffer,,null,,,,,,,,,,,,,,,,,
4779,,pt2_memorable_rating,1052225,Terre Haute,,52,,4,,,,,,,,,,,,,,,
null,,confidence_buffer,1052328,confidence_buffer,,null,,,,,,,,,,,,,,,,,
2363.000000000233,,probe_rating,1054693,probe_rating,,53,,,5,1,,,,,,,,,,,,,
null,,confidence_buffer,1054796,confidence_buffer,,null,,,,,,,,,,,,,,,,,
2113,,recognition_phase,1056911,Terre Haute,,49,,,,,old,1,0.88,,,,,,,,,,
null,,confidence_buffer,1057014,confidence_buffer,,null,,,,,,,,,,,,,,,,,
null,,thebreak,1057516,break,,null,,,,,,,,,,,,,,,,,
,,survey,1233217,survey-questions,,,,,,,,,,none,high,no,I do sound the words out and put a twist on them as I say them to help me remember,If I knew the city name and especially if I knew the state name as well,If I remembered the city and state,If the name was different or distinct from normal state names,If I believed an actual city and state existed with that name,no,It was a lot of fun! Thanks
