rt,responses,trial_type,time_elapsed,stimulus,button_pressed,key_press,name_trial,rating,probe,probe_accuracy,response,correct,accuracy,problems,smooth,distraction,strategies,familiar,memorable,unique,realistic,similar,comments
6763.5,{worker_id:66d395c19ecb2d5c8acc6680},id_enter,6765,,,,,,,,,,,,,,,,,,,,
13748.90000000596,,fullscreen,20518,fullscreen,0,,,,,,,,,,,,,,,,,,
7127.4000000059605,,intro_0,27647,instruct,,32,,,,,,,,,,,,,,,,,
6397.4000000059605,,intro_1,34046,instruct,,32,,,,,,,,,,,,,,,,,
9044.70000000298,,intro_2,43091,instruct,,32,,,,,,,,,,,,,,,,,
null,,instruct_dir_4,44598,instruct,,null,,,,,,,,,,,,,,,,,
null,,thebreak,45099,break,,null,,,,,,,,,,,,,,,,,
10216.29999999702,,familiar_rating,55316,Reno,,52,Reno,4,,,,,,,,,,,,,,,
null,,confidence_buffer,55418,confidence_buffer,,null,,,,,,,,,,,,,,,,,
10328.59999999404,,unique_rating,65748,Reno,,51,,3,,,,,,,,,,,,,,,
null,,confidence_buffer,65850,confidence_buffer,,null,,,,,,,,,,,,,,,,,
4427.5,,memorable_rating,70279,Reno,,52,,4,,,,,,,,,,,,,,,
null,,confidence_buffer,70380,confidence_buffer,,null,,,,,,,,,,,,,,,,,
null,,thebreak,70882,break,,null,,,,,,,,,,,,,,,,,
5888.9000000059605,,familiar_rating,76772,Tallahassee,,52,Tallahassee,4,,,,,,,,,,,,,,,
null,,confidence_buffer,76875,confidence_buffer,,null,,,,,,,,,,,,,,,,,
3093.7999999970198,,unique_rating,79970,Tallahassee,,52,,4,,,,,,,,,,,,,,,
null,,confidence_buffer,80073,confidence_buffer,,null,,,,,,,,,,,,,,,,,
6617,,memorable_rating,86691,Tallahassee,,51,,3,,,,,,,,,,,,,,,
null,,confidence_buffer,86795,confidence_buffer,,null,,,,,,,,,,,,,,,,,
null,,thebreak,87296,break,,null,,,,,,,,,,,,,,,,,
8022.100000008941,,familiar_rating,95319,Champaign,,50,Champaign,2,,,,,,,,,,,,,,,
null,,confidence_buffer,95421,confidence_buffer,,null,,,,,,,,,,,,,,,,,
5461.70000000298,,unique_rating,100883,Champaign,,51,,3,,,,,,,,,,,,,,,
null,,confidence_buffer,100985,confidence_buffer,,null,,,,,,,,,,,,,,,,,
2848.7999999970198,,memorable_rating,103835,Champaign,,50,,2,,,,,,,,,,,,,,,
null,,confidence_buffer,103937,confidence_buffer,,null,,,,,,,,,,,,,,,,,
null,,thebreak,104438,break,,null,,,,,,,,,,,,,,,,,
5594.20000000298,,familiar_rating,110033,Decatur,,51,Decatur,3,,,,,,,,,,,,,,,
null,,confidence_buffer,110135,confidence_buffer,,null,,,,,,,,,,,,,,,,,
7058.20000000298,,unique_rating,117195,Decatur,,51,,3,,,,,,,,,,,,,,,
null,,confidence_buffer,117296,confidence_buffer,,null,,,,,,,,,,,,,,,,,
3978.7000000029802,,memorable_rating,121276,Decatur,,50,,2,,,,,,,,,,,,,,,
null,,confidence_buffer,121379,confidence_buffer,,null,,,,,,,,,,,,,,,,,
null,,thebreak,121881,break,,null,,,,,,,,,,,,,,,,,
5128.0999999940395,,familiar_rating,127010,Helena,,53,Helena,5,,,,,,,,,,,,,,,
null,,confidence_buffer,127111,confidence_buffer,,null,,,,,,,,,,,,,,,,,
3934.6000000089407,,unique_rating,131047,Helena,,52,,4,,,,,,,,,,,,,,,
null,,confidence_buffer,131150,confidence_buffer,,null,,,,,,,,,,,,,,,,,
2595.9000000059605,,memorable_rating,133746,Helena,,53,,5,,,,,,,,,,,,,,,
null,,confidence_buffer,133848,confidence_buffer,,null,,,,,,,,,,,,,,,,,
null,,thebreak,134350,break,,null,,,,,,,,,,,,,,,,,
4335.4000000059605,,familiar_rating,138687,Scottsdale,,53,Scottsdale,5,,,,,,,,,,,,,,,
null,,confidence_buffer,138789,confidence_buffer,,null,,,,,,,,,,,,,,,,,
3561.6000000089407,,unique_rating,142352,Scottsdale,,51,,3,,,,,,,,,,,,,,,
null,,confidence_buffer,142455,confidence_buffer,,null,,,,,,,,,,,,,,,,,
4801.20000000298,,memorable_rating,147257,Scottsdale,,50,,2,,,,,,,,,,,,,,,
null,,confidence_buffer,147358,confidence_buffer,,null,,,,,,,,,,,,,,,,,
null,,thebreak,147860,break,,null,,,,,,,,,,,,,,,,,
7469.100000008941,,familiar_rating,155330,Gainesville,,49,Gainesville,1,,,,,,,,,,,,,,,
null,,confidence_buffer,155431,confidence_buffer,,null,,,,,,,,,,,,,,,,,
3153.7000000029802,,unique_rating,158586,Gainesville,,50,,2,,,,,,,,,,,,,,,
null,,confidence_buffer,158688,confidence_buffer,,null,,,,,,,,,,,,,,,,,
1876.8999999910593,,memorable_rating,160566,Gainesville,,50,,2,,,,,,,,,,,,,,,
null,,confidence_buffer,160669,confidence_buffer,,null,,,,,,,,,,,,,,,,,
null,,thebreak,161171,break,,null,,,,,,,,,,,,,,,,,
5904.20000000298,,familiar_rating,167076,Dover,,50,Dover,2,,,,,,,,,,,,,,,
null,,confidence_buffer,167177,confidence_buffer,,null,,,,,,,,,,,,,,,,,
5500.5999999940395,,unique_rating,172679,Dover,,49,,1,,,,,,,,,,,,,,,
null,,confidence_buffer,172780,confidence_buffer,,null,,,,,,,,,,,,,,,,,
1084.2000000029802,,memorable_rating,173865,Dover,,50,,2,,,,,,,,,,,,,,,
null,,confidence_buffer,173967,confidence_buffer,,null,,,,,,,,,,,,,,,,,
6075.70000000298,,probe_rating,180044,probe_rating,,53,,,5,1,,,,,,,,,,,,,
null,,confidence_buffer,180145,confidence_buffer,,null,,,,,,,,,,,,,,,,,
null,,thebreak,180648,break,,null,,,,,,,,,,,,,,,,,
6757.0999999940395,,familiar_rating,187406,Fargo,,53,Fargo,5,,,,,,,,,,,,,,,
null,,confidence_buffer,187508,confidence_buffer,,null,,,,,,,,,,,,,,,,,
3977.0999999940395,,unique_rating,191486,Fargo,,52,,4,,,,,,,,,,,,,,,
null,,confidence_buffer,191588,confidence_buffer,,null,,,,,,,,,,,,,,,,,
3232.4000000059605,,memorable_rating,194821,Fargo,,52,,4,,,,,,,,,,,,,,,
null,,confidence_buffer,194923,confidence_buffer,,null,,,,,,,,,,,,,,,,,
null,,thebreak,195425,break,,null,,,,,,,,,,,,,,,,,
4067.4000000059605,,familiar_rating,199493,Dubuque,,51,Dubuque,3,,,,,,,,,,,,,,,
null,,confidence_buffer,199594,confidence_buffer,,null,,,,,,,,,,,,,,,,,
4487.399999991059,,unique_rating,204082,Dubuque,,52,,4,,,,,,,,,,,,,,,
null,,confidence_buffer,204184,confidence_buffer,,null,,,,,,,,,,,,,,,,,
1634.9000000059605,,memorable_rating,205820,Dubuque,,52,,4,,,,,,,,,,,,,,,
null,,confidence_buffer,205932,confidence_buffer,,null,,,,,,,,,,,,,,,,,
null,,thebreak,206435,break,,null,,,,,,,,,,,,,,,,,
5688.899999991059,,familiar_rating,212124,Abilene,,51,Abilene,3,,,,,,,,,,,,,,,
null,,confidence_buffer,212226,confidence_buffer,,null,,,,,,,,,,,,,,,,,
5442.100000008941,,unique_rating,217671,Abilene,,52,,4,,,,,,,,,,,,,,,
null,,confidence_buffer,217772,confidence_buffer,,null,,,,,,,,,,,,,,,,,
6510.100000008941,,memorable_rating,224284,Abilene,,53,,5,,,,,,,,,,,,,,,
null,,confidence_buffer,224385,confidence_buffer,,null,,,,,,,,,,,,,,,,,
null,,thebreak,224888,break,,null,,,,,,,,,,,,,,,,,
5046.600000008941,,familiar_rating,229935,Dothan,,49,Dothan,1,,,,,,,,,,,,,,,
null,,confidence_buffer,230037,confidence_buffer,,null,,,,,,,,,,,,,,,,,
4681.899999991059,,unique_rating,234720,Dothan,,52,,4,,,,,,,,,,,,,,,
null,,confidence_buffer,234823,confidence_buffer,,null,,,,,,,,,,,,,,,,,
2347.3999999910593,,memorable_rating,237172,Dothan,,52,,4,,,,,,,,,,,,,,,
null,,confidence_buffer,237273,confidence_buffer,,null,,,,,,,,,,,,,,,,,
null,,thebreak,237775,break,,null,,,,,,,,,,,,,,,,,
5478.100000008941,,familiar_rating,243254,Frankfort,,50,Frankfort,2,,,,,,,,,,,,,,,
null,,confidence_buffer,243355,confidence_buffer,,null,,,,,,,,,,,,,,,,,
4423.4000000059605,,probe_rating,247780,probe_rating,,50,,,2,1,,,,,,,,,,,,,
null,,confidence_buffer,247882,confidence_buffer,,null,,,,,,,,,,,,,,,,,
5256.399999991059,,unique_rating,253140,Frankfort,,51,,3,,,,,,,,,,,,,,,
null,,confidence_buffer,253248,confidence_buffer,,null,,,,,,,,,,,,,,,,,
4156.899999991059,,memorable_rating,257405,Frankfort,,50,,2,,,,,,,,,,,,,,,
null,,confidence_buffer,257507,confidence_buffer,,null,,,,,,,,,,,,,,,,,
null,,thebreak,258009,break,,null,,,,,,,,,,,,,,,,,
164.20000000298023,,familiar_rating,258174,Carson City,,50,Carson City,2,,,,,,,,,,,,,,,
null,,confidence_buffer,258279,confidence_buffer,,null,,,,,,,,,,,,,,,,,
17384.39999999106,,unique_rating,275664,Carson City,,52,,4,,,,,,,,,,,,,,,
null,,confidence_buffer,275765,confidence_buffer,,null,,,,,,,,,,,,,,,,,
5829.5,,memorable_rating,281596,Carson City,,52,,4,,,,,,,,,,,,,,,
null,,confidence_buffer,281698,confidence_buffer,,null,,,,,,,,,,,,,,,,,
null,,thebreak,282200,break,,null,,,,,,,,,,,,,,,,,
4046.3999999910593,,familiar_rating,286247,Bellingham,,53,Bellingham,5,,,,,,,,,,,,,,,
null,,confidence_buffer,286349,confidence_buffer,,null,,,,,,,,,,,,,,,,,
3512.0999999940395,,unique_rating,289862,Bellingham,,51,,3,,,,,,,,,,,,,,,
null,,confidence_buffer,289964,confidence_buffer,,null,,,,,,,,,,,,,,,,,
2388.5,,memorable_rating,292353,Bellingham,,52,,4,,,,,,,,,,,,,,,
null,,confidence_buffer,292456,confidence_buffer,,null,,,,,,,,,,,,,,,,,
null,,thebreak,292957,break,,null,,,,,,,,,,,,,,,,,
6256.4000000059605,,familiar_rating,299215,Boise,,53,Boise,5,,,,,,,,,,,,,,,
null,,confidence_buffer,299317,confidence_buffer,,null,,,,,,,,,,,,,,,,,
2286.2000000029802,,unique_rating,301604,Boise,,52,,4,,,,,,,,,,,,,,,
null,,confidence_buffer,301706,confidence_buffer,,null,,,,,,,,,,,,,,,,,
1448.9000000059605,,memorable_rating,303156,Boise,,52,,4,,,,,,,,,,,,,,,
null,,confidence_buffer,303259,confidence_buffer,,null,,,,,,,,,,,,,,,,,
null,,thebreak,303761,break,,null,,,,,,,,,,,,,,,,,
7408.20000000298,,familiar_rating,311170,Berkeley,,51,Berkeley,3,,,,,,,,,,,,,,,
null,,confidence_buffer,311282,confidence_buffer,,null,,,,,,,,,,,,,,,,,
3971.3999999910593,,unique_rating,315254,Berkeley,,51,,3,,,,,,,,,,,,,,,
null,,confidence_buffer,315356,confidence_buffer,,null,,,,,,,,,,,,,,,,,
2933,,memorable_rating,318290,Berkeley,,50,,2,,,,,,,,,,,,,,,
null,,confidence_buffer,318393,confidence_buffer,,null,,,,,,,,,,,,,,,,,
null,,thebreak,318895,break,,null,,,,,,,,,,,,,,,,,
4339.79999999702,,familiar_rating,323236,Pasadena,,51,Pasadena,3,,,,,,,,,,,,,,,
null,,confidence_buffer,323337,confidence_buffer,,null,,,,,,,,,,,,,,,,,
4286.800000011921,,probe_rating,327626,probe_rating,,52,,,4,1,,,,,,,,,,,,,
null,,confidence_buffer,327728,confidence_buffer,,null,,,,,,,,,,,,,,,,,
6418.5,,unique_rating,334147,Pasadena,,51,,3,,,,,,,,,,,,,,,
null,,confidence_buffer,334249,confidence_buffer,,null,,,,,,,,,,,,,,,,,
4368.399999991059,,memorable_rating,338618,Pasadena,,51,,3,,,,,,,,,,,,,,,
null,,confidence_buffer,338720,confidence_buffer,,null,,,,,,,,,,,,,,,,,
null,,thebreak,339222,break,,null,,,,,,,,,,,,,,,,,
6572.5999999940395,,familiar_rating,345796,Montpelier,,51,Montpelier,3,,,,,,,,,,,,,,,
null,,confidence_buffer,345897,confidence_buffer,,null,,,,,,,,,,,,,,,,,
3007.2000000029802,,unique_rating,348905,Montpelier,,52,,4,,,,,,,,,,,,,,,
null,,confidence_buffer,349007,confidence_buffer,,null,,,,,,,,,,,,,,,,,
2070.2999999970198,,memorable_rating,351079,Montpelier,,52,,4,,,,,,,,,,,,,,,
null,,confidence_buffer,351180,confidence_buffer,,null,,,,,,,,,,,,,,,,,
null,,thebreak,351682,break,,null,,,,,,,,,,,,,,,,,
4475.5999999940395,,familiar_rating,356158,Burlington,,51,Burlington,3,,,,,,,,,,,,,,,
null,,confidence_buffer,356260,confidence_buffer,,null,,,,,,,,,,,,,,,,,
2482,,probe_rating,358743,probe_rating,,53,,,5,1,,,,,,,,,,,,,
null,,confidence_buffer,358845,confidence_buffer,,null,,,,,,,,,,,,,,,,,
4752.300000011921,,unique_rating,363598,Burlington,,50,,2,,,,,,,,,,,,,,,
null,,confidence_buffer,363702,confidence_buffer,,null,,,,,,,,,,,,,,,,,
1539.2000000029802,,memorable_rating,365242,Burlington,,50,,2,,,,,,,,,,,,,,,
null,,confidence_buffer,365345,confidence_buffer,,null,,,,,,,,,,,,,,,,,
null,,thebreak,365847,break,,null,,,,,,,,,,,,,,,,,
5953.5,,familiar_rating,371802,Annapolis,,51,Annapolis,3,,,,,,,,,,,,,,,
null,,confidence_buffer,371904,confidence_buffer,,null,,,,,,,,,,,,,,,,,
3391.0999999940395,,unique_rating,375296,Annapolis,,52,,4,,,,,,,,,,,,,,,
null,,confidence_buffer,375398,confidence_buffer,,null,,,,,,,,,,,,,,,,,
1235.3999999910593,,memorable_rating,376634,Annapolis,,52,,4,,,,,,,,,,,,,,,
null,,confidence_buffer,376735,confidence_buffer,,null,,,,,,,,,,,,,,,,,
null,,thebreak,377238,break,,null,,,,,,,,,,,,,,,,,
4936.100000008941,,familiar_rating,382174,Ann Arbor,,50,Ann Arbor,2,,,,,,,,,,,,,,,
null,,confidence_buffer,382275,confidence_buffer,,null,,,,,,,,,,,,,,,,,
5088.9000000059605,,unique_rating,387365,Ann Arbor,,51,,3,,,,,,,,,,,,,,,
null,,confidence_buffer,387467,confidence_buffer,,null,,,,,,,,,,,,,,,,,
1938.199999988079,,probe_rating,389406,probe_rating,,49,,,1,1,,,,,,,,,,,,,
null,,confidence_buffer,389507,confidence_buffer,,null,,,,,,,,,,,,,,,,,
3523.5999999940395,,memorable_rating,393032,Ann Arbor,,51,,3,,,,,,,,,,,,,,,
null,,confidence_buffer,393135,confidence_buffer,,null,,,,,,,,,,,,,,,,,
null,,thebreak,393636,break,,null,,,,,,,,,,,,,,,,,
6214.600000008941,,familiar_rating,399852,Toledo,,51,Toledo,3,,,,,,,,,,,,,,,
null,,confidence_buffer,399955,confidence_buffer,,null,,,,,,,,,,,,,,,,,
2617.9000000059605,,unique_rating,402573,Toledo,,52,,4,,,,,,,,,,,,,,,
null,,confidence_buffer,402676,confidence_buffer,,null,,,,,,,,,,,,,,,,,
1871.7999999970198,,memorable_rating,404549,Toledo,,52,,4,,,,,,,,,,,,,,,
null,,confidence_buffer,404649,confidence_buffer,,null,,,,,,,,,,,,,,,,,
null,,thebreak,405152,break,,null,,,,,,,,,,,,,,,,,
3702.2000000029802,,familiar_rating,408854,Marquette,,50,Marquette,2,,,,,,,,,,,,,,,
null,,confidence_buffer,408956,confidence_buffer,,null,,,,,,,,,,,,,,,,,
3723.7999999970198,,unique_rating,412681,Marquette,,51,,3,,,,,,,,,,,,,,,
null,,confidence_buffer,412783,confidence_buffer,,null,,,,,,,,,,,,,,,,,
3297.2000000029802,,memorable_rating,416081,Marquette,,51,,3,,,,,,,,,,,,,,,
null,,confidence_buffer,416183,confidence_buffer,,null,,,,,,,,,,,,,,,,,
null,,thebreak,416685,break,,null,,,,,,,,,,,,,,,,,
5800,,familiar_rating,422486,Concord,,50,Concord,2,,,,,,,,,,,,,,,
null,,confidence_buffer,422587,confidence_buffer,,null,,,,,,,,,,,,,,,,,
4701.79999999702,,unique_rating,427290,Concord,,49,,1,,,,,,,,,,,,,,,
null,,confidence_buffer,427398,confidence_buffer,,null,,,,,,,,,,,,,,,,,
1446.7000000029802,,memorable_rating,428846,Concord,,50,,2,,,,,,,,,,,,,,,
null,,confidence_buffer,428948,confidence_buffer,,null,,,,,,,,,,,,,,,,,
null,,thebreak,429452,break,,null,,,,,,,,,,,,,,,,,
4847.5999999940395,,intro_0,434300,instruct,,32,,,,,,,,,,,,,,,,,
8377.10000000894,,intro_1,442678,instruct,,32,,,,,,,,,,,,,,,,,
24180.20000000298,,intro_2,466858,instruct,,32,,,,,,,,,,,,,,,,,
null,,instruct_dir_4,468363,instruct,,null,,,,,,,,,,,,,,,,,
14207.60000000894,,realistic_rating,482571,Newport News,,51,Newport News,3,,,,,,,,,,,,,,,
null,,confidence_buffer,482674,confidence_buffer,,null,,,,,,,,,,,,,,,,,
2633.5999999940395,,probe_rating,485309,probe_rating,,50,,,2,1,,,,,,,,,,,,,
null,,confidence_buffer,485411,confidence_buffer,,null,,,,,,,,,,,,,,,,,
5981.29999999702,,pt2_unique_rating,491393,Newport News,,51,,3,,,,,,,,,,,,,,,
null,,confidence_buffer,491495,confidence_buffer,,null,,,,,,,,,,,,,,,,,
3686.7000000029802,,pt2_memorable_rating,495183,Newport News,,51,,3,,,,,,,,,,,,,,,
null,,confidence_buffer,495286,confidence_buffer,,null,,,,,,,,,,,,,,,,,
4530.5,,recognition_phase,499817,Newport News,,52,,,,,new,1,1,,,,,,,,,,
null,,confidence_buffer,499919,confidence_buffer,,null,,,,,,,,,,,,,,,,,
null,,thebreak,500422,break,,null,,,,,,,,,,,,,,,,,
8389.20000000298,,realistic_rating,508811,Rock Springs,,53,Rock Springs,5,,,,,,,,,,,,,,,
null,,confidence_buffer,508913,confidence_buffer,,null,,,,,,,,,,,,,,,,,
5116.600000008941,,pt2_unique_rating,514030,Rock Springs,,50,,2,,,,,,,,,,,,,,,
null,,confidence_buffer,514132,confidence_buffer,,null,,,,,,,,,,,,,,,,,
2158.5,,pt2_memorable_rating,516291,Rock Springs,,50,,2,,,,,,,,,,,,,,,
null,,confidence_buffer,516393,confidence_buffer,,null,,,,,,,,,,,,,,,,,
3502.300000011921,,recognition_phase,519896,Rock Springs,,52,,,,,new,1,1,,,,,,,,,,
null,,confidence_buffer,519998,confidence_buffer,,null,,,,,,,,,,,,,,,,,
null,,thebreak,520501,break,,null,,,,,,,,,,,,,,,,,
5469.79999999702,,realistic_rating,525971,Bellingham,,53,Bellingham,5,,,,,,,,,,,,,,,
null,,confidence_buffer,526074,confidence_buffer,,null,,,,,,,,,,,,,,,,,
3330.300000011921,,pt2_unique_rating,529405,Bellingham,,50,,2,,,,,,,,,,,,,,,
null,,confidence_buffer,529507,confidence_buffer,,null,,,,,,,,,,,,,,,,,
2680.7999999970198,,pt2_memorable_rating,532188,Bellingham,,51,,3,,,,,,,,,,,,,,,
null,,confidence_buffer,532289,confidence_buffer,,null,,,,,,,,,,,,,,,,,
2574.8999999910593,,recognition_phase,534866,Bellingham,,49,,,,,old,1,1,,,,,,,,,,
null,,confidence_buffer,534967,confidence_buffer,,null,,,,,,,,,,,,,,,,,
null,,thebreak,535470,break,,null,,,,,,,,,,,,,,,,,
6826.300000011921,,realistic_rating,542297,Topeka,,53,Topeka,5,,,,,,,,,,,,,,,
null,,confidence_buffer,542398,confidence_buffer,,null,,,,,,,,,,,,,,,,,
3419,,pt2_unique_rating,545818,Topeka,,52,,4,,,,,,,,,,,,,,,
null,,confidence_buffer,545921,confidence_buffer,,null,,,,,,,,,,,,,,,,,
1568.5,,pt2_memorable_rating,547491,Topeka,,52,,4,,,,,,,,,,,,,,,
null,,confidence_buffer,547593,confidence_buffer,,null,,,,,,,,,,,,,,,,,
5149.800000011921,,recognition_phase,552743,Topeka,,52,,,,,new,1,1,,,,,,,,,,
null,,confidence_buffer,552845,confidence_buffer,,null,,,,,,,,,,,,,,,,,
null,,thebreak,553347,break,,null,,,,,,,,,,,,,,,,,
4721.79999999702,,realistic_rating,558069,Terre Haute,,53,Terre Haute,5,,,,,,,,,,,,,,,
null,,confidence_buffer,558171,confidence_buffer,,null,,,,,,,,,,,,,,,,,
3859.2000000029802,,pt2_unique_rating,562031,Terre Haute,,52,,4,,,,,,,,,,,,,,,
null,,confidence_buffer,562133,confidence_buffer,,null,,,,,,,,,,,,,,,,,
1895.2000000029802,,pt2_memorable_rating,564029,Terre Haute,,52,,4,,,,,,,,,,,,,,,
null,,confidence_buffer,564131,confidence_buffer,,null,,,,,,,,,,,,,,,,,
3830.5,,recognition_phase,567962,Terre Haute,,52,,,,,new,1,1,,,,,,,,,,
null,,confidence_buffer,568066,confidence_buffer,,null,,,,,,,,,,,,,,,,,
null,,thebreak,568567,break,,null,,,,,,,,,,,,,,,,,
4190.4000000059605,,realistic_rating,572759,Reno,,53,Reno,5,,,,,,,,,,,,,,,
null,,confidence_buffer,572860,confidence_buffer,,null,,,,,,,,,,,,,,,,,
4197.70000000298,,pt2_unique_rating,577059,Reno,,51,,3,,,,,,,,,,,,,,,
null,,confidence_buffer,577161,confidence_buffer,,null,,,,,,,,,,,,,,,,,
1591.8999999910593,,pt2_memorable_rating,578754,Reno,,51,,3,,,,,,,,,,,,,,,
null,,confidence_buffer,578856,confidence_buffer,,null,,,,,,,,,,,,,,,,,
2200.199999988079,,recognition_phase,581057,Reno,,49,,,,,old,1,1,,,,,,,,,,
null,,confidence_buffer,581160,confidence_buffer,,null,,,,,,,,,,,,,,,,,
null,,thebreak,581661,break,,null,,,,,,,,,,,,,,,,,
4253.199999988079,,realistic_rating,585916,Toledo,,53,Toledo,5,,,,,,,,,,,,,,,
null,,confidence_buffer,586018,confidence_buffer,,null,,,,,,,,,,,,,,,,,
5113.9000000059605,,pt2_unique_rating,591133,Toledo,,52,,4,,,,,,,,,,,,,,,
null,,confidence_buffer,591237,confidence_buffer,,null,,,,,,,,,,,,,,,,,
1950.3999999910593,,probe_rating,593188,probe_rating,,49,,,1,1,,,,,,,,,,,,,
null,,confidence_buffer,593290,confidence_buffer,,null,,,,,,,,,,,,,,,,,
2034.7000000029802,,pt2_memorable_rating,595326,Toledo,,51,,3,,,,,,,,,,,,,,,
null,,confidence_buffer,595428,confidence_buffer,,null,,,,,,,,,,,,,,,,,
2258.2999999970198,,recognition_phase,597688,Toledo,,49,,,,,old,1,1,,,,,,,,,,
null,,confidence_buffer,597791,confidence_buffer,,null,,,,,,,,,,,,,,,,,
null,,thebreak,598293,break,,null,,,,,,,,,,,,,,,,,
3836.4000000059605,,realistic_rating,602130,Fargo,,53,Fargo,5,,,,,,,,,,,,,,,
null,,confidence_buffer,602236,confidence_buffer,,null,,,,,,,,,,,,,,,,,
3413.5,,pt2_unique_rating,605650,Fargo,,51,,3,,,,,,,,,,,,,,,
null,,confidence_buffer,605752,confidence_buffer,,null,,,,,,,,,,,,,,,,,
4118,,pt2_memorable_rating,609871,Fargo,,51,,3,,,,,,,,,,,,,,,
null,,confidence_buffer,609973,confidence_buffer,,null,,,,,,,,,,,,,,,,,
2006.9000000059605,,recognition_phase,611981,Fargo,,49,,,,,old,1,1,,,,,,,,,,
null,,confidence_buffer,612083,confidence_buffer,,null,,,,,,,,,,,,,,,,,
null,,thebreak,612585,break,,null,,,,,,,,,,,,,,,,,
5123.4000000059605,,realistic_rating,617710,Ann Arbor,,53,Ann Arbor,5,,,,,,,,,,,,,,,
null,,confidence_buffer,617811,confidence_buffer,,null,,,,,,,,,,,,,,,,,
3780.7999999970198,,pt2_unique_rating,621593,Ann Arbor,,52,,4,,,,,,,,,,,,,,,
null,,confidence_buffer,621696,confidence_buffer,,null,,,,,,,,,,,,,,,,,
2967.699999988079,,pt2_memorable_rating,624664,Ann Arbor,,52,,4,,,,,,,,,,,,,,,
null,,confidence_buffer,624766,confidence_buffer,,null,,,,,,,,,,,,,,,,,
1248.2999999970198,,recognition_phase,626015,Ann Arbor,,49,,,,,old,1,1,,,,,,,,,,
null,,confidence_buffer,626118,confidence_buffer,,null,,,,,,,,,,,,,,,,,
null,,thebreak,626620,break,,null,,,,,,,,,,,,,,,,,
5480.100000008941,,realistic_rating,632101,Dover,,53,Dover,5,,,,,,,,,,,,,,,
null,,confidence_buffer,632203,confidence_buffer,,null,,,,,,,,,,,,,,,,,
4135.100000008941,,pt2_unique_rating,636339,Dover,,49,,1,,,,,,,,,,,,,,,
null,,confidence_buffer,636440,confidence_buffer,,null,,,,,,,,,,,,,,,,,
1756.1000000089407,,pt2_memorable_rating,638197,Dover,,50,,2,,,,,,,,,,,,,,,
null,,confidence_buffer,638299,confidence_buffer,,null,,,,,,,,,,,,,,,,,
1395.2000000029802,,recognition_phase,639695,Dover,,49,,,,,old,1,1,,,,,,,,,,
null,,confidence_buffer,639798,confidence_buffer,,null,,,,,,,,,,,,,,,,,
null,,thebreak,640299,break,,null,,,,,,,,,,,,,,,,,
4192.5,,realistic_rating,644492,Olympia,,53,Olympia,5,,,,,,,,,,,,,,,
null,,confidence_buffer,644595,confidence_buffer,,null,,,,,,,,,,,,,,,,,
5530.5,,pt2_unique_rating,650126,Olympia,,51,,3,,,,,,,,,,,,,,,
null,,confidence_buffer,650227,confidence_buffer,,null,,,,,,,,,,,,,,,,,
2587.3999999910593,,pt2_memorable_rating,652815,Olympia,,51,,3,,,,,,,,,,,,,,,
null,,confidence_buffer,652917,confidence_buffer,,null,,,,,,,,,,,,,,,,,
3647.7999999970198,,recognition_phase,656566,Olympia,,52,,,,,new,1,1,,,,,,,,,,
null,,confidence_buffer,656668,confidence_buffer,,null,,,,,,,,,,,,,,,,,
null,,thebreak,657171,break,,null,,,,,,,,,,,,,,,,,
5024.29999999702,,realistic_rating,662196,Frankfort,,53,Frankfort,5,,,,,,,,,,,,,,,
null,,confidence_buffer,662298,confidence_buffer,,null,,,,,,,,,,,,,,,,,
4616.20000000298,,pt2_unique_rating,666915,Frankfort,,50,,2,,,,,,,,,,,,,,,
null,,confidence_buffer,667017,confidence_buffer,,null,,,,,,,,,,,,,,,,,
1077.7000000029802,,pt2_memorable_rating,668096,Frankfort,,50,,2,,,,,,,,,,,,,,,
null,,confidence_buffer,668198,confidence_buffer,,null,,,,,,,,,,,,,,,,,
4919.199999988079,,recognition_phase,673117,Frankfort,,50,,,,,old,1,1,,,,,,,,,,
null,,confidence_buffer,673220,confidence_buffer,,null,,,,,,,,,,,,,,,,,
null,,thebreak,673736,break,,null,,,,,,,,,,,,,,,,,
4553.79999999702,,realistic_rating,678291,New Haven,,53,New Haven,5,,,,,,,,,,,,,,,
null,,confidence_buffer,678393,confidence_buffer,,null,,,,,,,,,,,,,,,,,
3220.1000000089407,,pt2_unique_rating,681614,New Haven,,51,,3,,,,,,,,,,,,,,,
null,,confidence_buffer,681715,confidence_buffer,,null,,,,,,,,,,,,,,,,,
1728.0999999940395,,pt2_memorable_rating,683444,New Haven,,51,,3,,,,,,,,,,,,,,,
null,,confidence_buffer,683547,confidence_buffer,,null,,,,,,,,,,,,,,,,,
3556.8999999910593,,recognition_phase,687105,New Haven,,51,,,,,new,1,1,,,,,,,,,,
null,,confidence_buffer,687206,confidence_buffer,,null,,,,,,,,,,,,,,,,,
null,,thebreak,687707,break,,null,,,,,,,,,,,,,,,,,
2031.4000000059605,,realistic_rating,689740,Cheyenne,,49,Cheyenne,1,,,,,,,,,,,,,,,
null,,confidence_buffer,689841,confidence_buffer,,null,,,,,,,,,,,,,,,,,
4896.9000000059605,,pt2_unique_rating,694739,Cheyenne,,51,,3,,,,,,,,,,,,,,,
null,,confidence_buffer,694841,confidence_buffer,,null,,,,,,,,,,,,,,,,,
2027.0999999940395,,pt2_memorable_rating,696869,Cheyenne,,51,,3,,,,,,,,,,,,,,,
null,,confidence_buffer,696971,confidence_buffer,,null,,,,,,,,,,,,,,,,,
3833.7000000029802,,recognition_phase,700806,Cheyenne,,52,,,,,new,1,1,,,,,,,,,,
null,,confidence_buffer,700908,confidence_buffer,,null,,,,,,,,,,,,,,,,,
null,,thebreak,701409,break,,null,,,,,,,,,,,,,,,,,
3807.5,,realistic_rating,705218,Cambridge,,53,Cambridge,5,,,,,,,,,,,,,,,
null,,confidence_buffer,705320,confidence_buffer,,null,,,,,,,,,,,,,,,,,
5383.4000000059605,,pt2_unique_rating,710704,Cambridge,,50,,2,,,,,,,,,,,,,,,
null,,confidence_buffer,710806,confidence_buffer,,null,,,,,,,,,,,,,,,,,
2270.8999999910593,,pt2_memorable_rating,713078,Cambridge,,50,,2,,,,,,,,,,,,,,,
null,,confidence_buffer,713180,confidence_buffer,,null,,,,,,,,,,,,,,,,,
4409.800000011921,,recognition_phase,717590,Cambridge,,51,,,,,new,1,1,,,,,,,,,,
null,,confidence_buffer,717692,confidence_buffer,,null,,,,,,,,,,,,,,,,,
null,,thebreak,718194,break,,null,,,,,,,,,,,,,,,,,
3285.7000000029802,,realistic_rating,721481,Altoona,,49,Altoona,1,,,,,,,,,,,,,,,
null,,confidence_buffer,721584,confidence_buffer,,null,,,,,,,,,,,,,,,,,
6352.0999999940395,,pt2_unique_rating,727937,Altoona,,52,,4,,,,,,,,,,,,,,,
null,,confidence_buffer,728038,confidence_buffer,,null,,,,,,,,,,,,,,,,,
2206.5,,pt2_memorable_rating,730245,Altoona,,52,,4,,,,,,,,,,,,,,,
null,,confidence_buffer,730346,confidence_buffer,,null,,,,,,,,,,,,,,,,,
4633.29999999702,,recognition_phase,734981,Altoona,,51,,,,,new,1,1,,,,,,,,,,
null,,confidence_buffer,735083,confidence_buffer,,null,,,,,,,,,,,,,,,,,
null,,thebreak,735585,break,,null,,,,,,,,,,,,,,,,,
3401.5,,realistic_rating,738987,Tallahassee,,53,Tallahassee,5,,,,,,,,,,,,,,,
null,,confidence_buffer,739088,confidence_buffer,,null,,,,,,,,,,,,,,,,,
2040.2000000029802,,probe_rating,741129,probe_rating,,53,,,5,1,,,,,,,,,,,,,
null,,confidence_buffer,741230,confidence_buffer,,null,,,,,,,,,,,,,,,,,
2907,,pt2_unique_rating,744138,Tallahassee,,52,,4,,,,,,,,,,,,,,,
null,,confidence_buffer,744239,confidence_buffer,,null,,,,,,,,,,,,,,,,,
1532.2999999970198,,pt2_memorable_rating,745771,Tallahassee,,52,,4,,,,,,,,,,,,,,,
null,,confidence_buffer,745873,confidence_buffer,,null,,,,,,,,,,,,,,,,,
2460.9000000059605,,recognition_phase,748334,Tallahassee,,49,,,,,old,1,1,,,,,,,,,,
null,,confidence_buffer,748436,confidence_buffer,,null,,,,,,,,,,,,,,,,,
null,,thebreak,748939,break,,null,,,,,,,,,,,,,,,,,
7041.600000008941,,realistic_rating,755982,Athens,,53,Athens,5,,,,,,,,,,,,,,,
null,,confidence_buffer,756083,confidence_buffer,,null,,,,,,,,,,,,,,,,,
2418.5999999940395,,pt2_unique_rating,758502,Athens,,51,,3,,,,,,,,,,,,,,,
null,,confidence_buffer,758604,confidence_buffer,,null,,,,,,,,,,,,,,,,,
1202.5,,pt2_memorable_rating,759807,Athens,,51,,3,,,,,,,,,,,,,,,
null,,confidence_buffer,759909,confidence_buffer,,null,,,,,,,,,,,,,,,,,
5441.399999991059,,recognition_phase,765351,Athens,,52,,,,,new,1,1,,,,,,,,,,
null,,confidence_buffer,765454,confidence_buffer,,null,,,,,,,,,,,,,,,,,
null,,thebreak,765956,break,,null,,,,,,,,,,,,,,,,,
4251,,realistic_rating,770208,Dubuque,,53,Dubuque,5,,,,,,,,,,,,,,,
null,,confidence_buffer,770309,confidence_buffer,,null,,,,,,,,,,,,,,,,,
6003.9000000059605,,pt2_unique_rating,776314,Dubuque,,53,,5,,,,,,,,,,,,,,,
null,,confidence_buffer,776416,confidence_buffer,,null,,,,,,,,,,,,,,,,,
2220.2000000029802,,pt2_memorable_rating,778638,Dubuque,,52,,4,,,,,,,,,,,,,,,
null,,confidence_buffer,778739,confidence_buffer,,null,,,,,,,,,,,,,,,,,
2835.7000000029802,,recognition_phase,781576,Dubuque,,49,,,,,old,1,1,,,,,,,,,,
null,,confidence_buffer,781678,confidence_buffer,,null,,,,,,,,,,,,,,,,,
null,,thebreak,782179,break,,null,,,,,,,,,,,,,,,,,
3971.3999999910593,,realistic_rating,786151,Gainesville,,53,Gainesville,5,,,,,,,,,,,,,,,
null,,confidence_buffer,786253,confidence_buffer,,null,,,,,,,,,,,,,,,,,
3157.6000000089407,,pt2_unique_rating,789411,Gainesville,,50,,2,,,,,,,,,,,,,,,
null,,confidence_buffer,789514,confidence_buffer,,null,,,,,,,,,,,,,,,,,
1457.199999988079,,pt2_memorable_rating,790972,Gainesville,,50,,2,,,,,,,,,,,,,,,
null,,confidence_buffer,791074,confidence_buffer,,null,,,,,,,,,,,,,,,,,
2760.4000000059605,,recognition_phase,793836,Gainesville,,49,,,,,old,1,1,,,,,,,,,,
null,,confidence_buffer,793939,confidence_buffer,,null,,,,,,,,,,,,,,,,,
null,,thebreak,794441,break,,null,,,,,,,,,,,,,,,,,
3668.2000000029802,,realistic_rating,798111,Ithaca,,53,Ithaca,5,,,,,,,,,,,,,,,
null,,confidence_buffer,798213,confidence_buffer,,null,,,,,,,,,,,,,,,,,
2497.0999999940395,,probe_rating,800711,probe_rating,,53,,,5,1,,,,,,,,,,,,,
null,,confidence_buffer,800813,confidence_buffer,,null,,,,,,,,,,,,,,,,,
4236.4000000059605,,pt2_unique_rating,805050,Ithaca,,53,,5,,,,,,,,,,,,,,,
null,,confidence_buffer,805152,confidence_buffer,,null,,,,,,,,,,,,,,,,,
1439.2999999970198,,pt2_memorable_rating,806592,Ithaca,,52,,4,,,,,,,,,,,,,,,
null,,confidence_buffer,806694,confidence_buffer,,null,,,,,,,,,,,,,,,,,
4748.20000000298,,recognition_phase,811444,Ithaca,,51,,,,,new,1,1,,,,,,,,,,
null,,confidence_buffer,811545,confidence_buffer,,null,,,,,,,,,,,,,,,,,
null,,thebreak,812046,break,,null,,,,,,,,,,,,,,,,,
3365.2000000029802,,realistic_rating,815412,Annapolis,,53,Annapolis,5,,,,,,,,,,,,,,,
null,,confidence_buffer,815514,confidence_buffer,,null,,,,,,,,,,,,,,,,,
2173.6000000089407,,pt2_unique_rating,817688,Annapolis,,52,,4,,,,,,,,,,,,,,,
null,,confidence_buffer,817790,confidence_buffer,,null,,,,,,,,,,,,,,,,,
2578.300000011921,,pt2_memorable_rating,820369,Annapolis,,52,,4,,,,,,,,,,,,,,,
null,,confidence_buffer,820471,confidence_buffer,,null,,,,,,,,,,,,,,,,,
2413.4000000059605,,recognition_phase,822885,Annapolis,,49,,,,,old,1,1,,,,,,,,,,
null,,confidence_buffer,822987,confidence_buffer,,null,,,,,,,,,,,,,,,,,
null,,thebreak,823490,break,,null,,,,,,,,,,,,,,,,,
3918.3999999910593,,realistic_rating,827409,Santa Monica,,53,Santa Monica,5,,,,,,,,,,,,,,,
null,,confidence_buffer,827510,confidence_buffer,,null,,,,,,,,,,,,,,,,,
3660.5,,pt2_unique_rating,831172,Santa Monica,,51,,3,,,,,,,,,,,,,,,
null,,confidence_buffer,831274,confidence_buffer,,null,,,,,,,,,,,,,,,,,
1707,,pt2_memorable_rating,832982,Santa Monica,,51,,3,,,,,,,,,,,,,,,
null,,confidence_buffer,833084,confidence_buffer,,null,,,,,,,,,,,,,,,,,
5792.100000008941,,recognition_phase,838877,Santa Monica,,51,,,,,new,1,1,,,,,,,,,,
null,,confidence_buffer,838979,confidence_buffer,,null,,,,,,,,,,,,,,,,,
null,,thebreak,839481,break,,null,,,,,,,,,,,,,,,,,
3117,,realistic_rating,842599,Boise,,53,Boise,5,,,,,,,,,,,,,,,
null,,confidence_buffer,842700,confidence_buffer,,null,,,,,,,,,,,,,,,,,
2472.0999999940395,,probe_rating,845173,probe_rating,,51,,,3,1,,,,,,,,,,,,,
null,,confidence_buffer,845275,confidence_buffer,,null,,,,,,,,,,,,,,,,,
3505.4000000059605,,pt2_unique_rating,848782,Boise,,52,,4,,,,,,,,,,,,,,,
null,,confidence_buffer,848883,confidence_buffer,,null,,,,,,,,,,,,,,,,,
1368.5999999940395,,pt2_memorable_rating,850253,Boise,,52,,4,,,,,,,,,,,,,,,
null,,confidence_buffer,850354,confidence_buffer,,null,,,,,,,,,,,,,,,,,
2485,,recognition_phase,852840,Boise,,49,,,,,old,1,1,,,,,,,,,,
null,,confidence_buffer,852943,confidence_buffer,,null,,,,,,,,,,,,,,,,,
null,,thebreak,853445,break,,null,,,,,,,,,,,,,,,,,
3404.6000000089407,,realistic_rating,856850,Berkeley,,53,Berkeley,5,,,,,,,,,,,,,,,
null,,confidence_buffer,856952,confidence_buffer,,null,,,,,,,,,,,,,,,,,
5418.79999999702,,pt2_unique_rating,862372,Berkeley,,51,,3,,,,,,,,,,,,,,,
null,,confidence_buffer,862475,confidence_buffer,,null,,,,,,,,,,,,,,,,,
1550.2000000029802,,pt2_memorable_rating,864027,Berkeley,,51,,3,,,,,,,,,,,,,,,
null,,confidence_buffer,864129,confidence_buffer,,null,,,,,,,,,,,,,,,,,
3440.5,,recognition_phase,867570,Berkeley,,49,,,,,old,1,1,,,,,,,,,,
null,,confidence_buffer,867675,confidence_buffer,,null,,,,,,,,,,,,,,,,,
null,,thebreak,868177,break,,null,,,,,,,,,,,,,,,,,
3371.7999999970198,,realistic_rating,871549,Montpelier,,53,Montpelier,5,,,,,,,,,,,,,,,
null,,confidence_buffer,871651,confidence_buffer,,null,,,,,,,,,,,,,,,,,
4137.600000008941,,pt2_unique_rating,875790,Montpelier,,51,,3,,,,,,,,,,,,,,,
null,,confidence_buffer,875892,confidence_buffer,,null,,,,,,,,,,,,,,,,,
1589.199999988079,,pt2_memorable_rating,877482,Montpelier,,51,,3,,,,,,,,,,,,,,,
null,,confidence_buffer,877585,confidence_buffer,,null,,,,,,,,,,,,,,,,,
1960.3999999910593,,recognition_phase,879546,Montpelier,,49,,,,,old,1,1,,,,,,,,,,
null,,confidence_buffer,879648,confidence_buffer,,null,,,,,,,,,,,,,,,,,
null,,thebreak,880165,break,,null,,,,,,,,,,,,,,,,,
3631.2999999970198,,realistic_rating,883797,Peoria,,53,Peoria,5,,,,,,,,,,,,,,,
null,,confidence_buffer,883900,confidence_buffer,,null,,,,,,,,,,,,,,,,,
4500,,pt2_unique_rating,888401,Peoria,,53,,5,,,,,,,,,,,,,,,
null,,confidence_buffer,888502,confidence_buffer,,null,,,,,,,,,,,,,,,,,
1776.7000000029802,,pt2_memorable_rating,890280,Peoria,,52,,4,,,,,,,,,,,,,,,
null,,confidence_buffer,890390,confidence_buffer,,null,,,,,,,,,,,,,,,,,
6299.4000000059605,,recognition_phase,896690,Peoria,,52,,,,,new,1,1,,,,,,,,,,
null,,confidence_buffer,896792,confidence_buffer,,null,,,,,,,,,,,,,,,,,
null,,thebreak,897295,break,,null,,,,,,,,,,,,,,,,,
3375.7000000029802,,realistic_rating,900671,Bozeman,,53,Bozeman,5,,,,,,,,,,,,,,,
null,,confidence_buffer,900774,confidence_buffer,,null,,,,,,,,,,,,,,,,,
3538.4000000059605,,pt2_unique_rating,904313,Bozeman,,51,,3,,,,,,,,,,,,,,,
null,,confidence_buffer,904415,confidence_buffer,,null,,,,,,,,,,,,,,,,,
1493,,pt2_memorable_rating,905909,Bozeman,,51,,3,,,,,,,,,,,,,,,
null,,confidence_buffer,906011,confidence_buffer,,null,,,,,,,,,,,,,,,,,
3143.7999999970198,,recognition_phase,909155,Bozeman,,52,,,,,new,1,1,,,,,,,,,,
null,,confidence_buffer,909257,confidence_buffer,,null,,,,,,,,,,,,,,,,,
null,,thebreak,909760,break,,null,,,,,,,,,,,,,,,,,
3827,,realistic_rating,913589,Decatur,,53,Decatur,5,,,,,,,,,,,,,,,
null,,confidence_buffer,913691,confidence_buffer,,null,,,,,,,,,,,,,,,,,
2023.7000000029802,,probe_rating,915716,probe_rating,,52,,,4,1,,,,,,,,,,,,,
null,,confidence_buffer,915817,confidence_buffer,,null,,,,,,,,,,,,,,,,,
4392.9000000059605,,pt2_unique_rating,920212,Decatur,,52,,4,,,,,,,,,,,,,,,
null,,confidence_buffer,920314,confidence_buffer,,null,,,,,,,,,,,,,,,,,
1655.7000000029802,,pt2_memorable_rating,921970,Decatur,,52,,4,,,,,,,,,,,,,,,
null,,confidence_buffer,922073,confidence_buffer,,null,,,,,,,,,,,,,,,,,
1958.1000000089407,,recognition_phase,924032,Decatur,,49,,,,,old,1,1,,,,,,,,,,
null,,confidence_buffer,924135,confidence_buffer,,null,,,,,,,,,,,,,,,,,
null,,thebreak,924637,break,,null,,,,,,,,,,,,,,,,,
3453.5999999940395,,realistic_rating,928091,Marquette,,53,Marquette,5,,,,,,,,,,,,,,,
null,,confidence_buffer,928194,confidence_buffer,,null,,,,,,,,,,,,,,,,,
2960.4000000059605,,pt2_unique_rating,931155,Marquette,,51,,3,,,,,,,,,,,,,,,
null,,confidence_buffer,931256,confidence_buffer,,null,,,,,,,,,,,,,,,,,
1298.4000000059605,,pt2_memorable_rating,932555,Marquette,,51,,3,,,,,,,,,,,,,,,
null,,confidence_buffer,932658,confidence_buffer,,null,,,,,,,,,,,,,,,,,
3808.699999988079,,recognition_phase,936467,Marquette,,51,,,,,new,0,0.9666666666666667,,,,,,,,,,
null,,confidence_buffer,936570,confidence_buffer,,null,,,,,,,,,,,,,,,,,
null,,thebreak,937072,break,,null,,,,,,,,,,,,,,,,,
4302.4000000059605,,realistic_rating,941375,Abilene,,53,Abilene,5,,,,,,,,,,,,,,,
null,,confidence_buffer,941478,confidence_buffer,,null,,,,,,,,,,,,,,,,,
2942,,pt2_unique_rating,944420,Abilene,,52,,4,,,,,,,,,,,,,,,
null,,confidence_buffer,944523,confidence_buffer,,null,,,,,,,,,,,,,,,,,
1608.9000000059605,,pt2_memorable_rating,946132,Abilene,,52,,4,,,,,,,,,,,,,,,
null,,confidence_buffer,946235,confidence_buffer,,null,,,,,,,,,,,,,,,,,
1803.2999999970198,,recognition_phase,948039,Abilene,,49,,,,,old,1,0.967741935483871,,,,,,,,,,
null,,confidence_buffer,948142,confidence_buffer,,null,,,,,,,,,,,,,,,,,
null,,thebreak,948643,break,,null,,,,,,,,,,,,,,,,,
3564.2999999970198,,realistic_rating,952208,Burlington,,53,Burlington,5,,,,,,,,,,,,,,,
null,,confidence_buffer,952310,confidence_buffer,,null,,,,,,,,,,,,,,,,,
3036.7999999970198,,pt2_unique_rating,955348,Burlington,,50,,2,,,,,,,,,,,,,,,
null,,confidence_buffer,955450,confidence_buffer,,null,,,,,,,,,,,,,,,,,
2454.2000000029802,,pt2_memorable_rating,957905,Burlington,,50,,2,,,,,,,,,,,,,,,
null,,confidence_buffer,958008,confidence_buffer,,null,,,,,,,,,,,,,,,,,
2840.4000000059605,,recognition_phase,960849,Burlington,,49,,,,,old,1,0.96875,,,,,,,,,,
null,,confidence_buffer,960951,confidence_buffer,,null,,,,,,,,,,,,,,,,,
null,,thebreak,961454,break,,null,,,,,,,,,,,,,,,,,
3293,,realistic_rating,964748,Boulder,,53,Boulder,5,,,,,,,,,,,,,,,
null,,confidence_buffer,964849,confidence_buffer,,null,,,,,,,,,,,,,,,,,
2564.6000000089407,,pt2_unique_rating,967415,Boulder,,50,,2,,,,,,,,,,,,,,,
null,,confidence_buffer,967517,confidence_buffer,,null,,,,,,,,,,,,,,,,,
1566.7000000029802,,pt2_memorable_rating,969085,Boulder,,50,,2,,,,,,,,,,,,,,,
null,,confidence_buffer,969186,confidence_buffer,,null,,,,,,,,,,,,,,,,,
2169.800000011921,,recognition_phase,971357,Boulder,,52,,,,,new,1,0.9696969696969697,,,,,,,,,,
null,,confidence_buffer,971458,confidence_buffer,,null,,,,,,,,,,,,,,,,,
null,,thebreak,971960,break,,null,,,,,,,,,,,,,,,,,
5155,,realistic_rating,977116,Stamford,,53,Stamford,5,,,,,,,,,,,,,,,
null,,confidence_buffer,977218,confidence_buffer,,null,,,,,,,,,,,,,,,,,
2582.2000000029802,,pt2_unique_rating,979801,Stamford,,50,,2,,,,,,,,,,,,,,,
null,,confidence_buffer,979903,confidence_buffer,,null,,,,,,,,,,,,,,,,,
1562.1000000089407,,pt2_memorable_rating,981467,Stamford,,50,,2,,,,,,,,,,,,,,,
null,,confidence_buffer,981568,confidence_buffer,,null,,,,,,,,,,,,,,,,,
3750.4000000059605,,recognition_phase,985319,Stamford,,51,,,,,new,1,0.9705882352941176,,,,,,,,,,
null,,confidence_buffer,985421,confidence_buffer,,null,,,,,,,,,,,,,,,,,
null,,thebreak,985923,break,,null,,,,,,,,,,,,,,,,,
2743.2000000029802,,realistic_rating,988667,Palo Alto,,53,Palo Alto,5,,,,,,,,,,,,,,,
null,,confidence_buffer,988768,confidence_buffer,,null,,,,,,,,,,,,,,,,,
3516.5,,pt2_unique_rating,992286,Palo Alto,,51,,3,,,,,,,,,,,,,,,
null,,confidence_buffer,992388,confidence_buffer,,null,,,,,,,,,,,,,,,,,
1517,,pt2_memorable_rating,993906,Palo Alto,,51,,3,,,,,,,,,,,,,,,
null,,confidence_buffer,994008,confidence_buffer,,null,,,,,,,,,,,,,,,,,
5353.399999991059,,recognition_phase,999362,Palo Alto,,51,,,,,new,1,0.9714285714285714,,,,,,,,,,
null,,confidence_buffer,999465,confidence_buffer,,null,,,,,,,,,,,,,,,,,
null,,thebreak,999967,break,,null,,,,,,,,,,,,,,,,,
4510.5,,realistic_rating,1004478,Muncie,,53,Muncie,5,,,,,,,,,,,,,,,
null,,confidence_buffer,1004581,confidence_buffer,,null,,,,,,,,,,,,,,,,,
2631.1000000089407,,pt2_unique_rating,1007213,Muncie,,52,,4,,,,,,,,,,,,,,,
null,,confidence_buffer,1007315,confidence_buffer,,null,,,,,,,,,,,,,,,,,
1742.9000000059605,,pt2_memorable_rating,1009058,Muncie,,52,,4,,,,,,,,,,,,,,,
null,,confidence_buffer,1009160,confidence_buffer,,null,,,,,,,,,,,,,,,,,
4739.70000000298,,recognition_phase,1013901,Muncie,,51,,,,,new,1,0.9722222222222222,,,,,,,,,,
null,,confidence_buffer,1014013,confidence_buffer,,null,,,,,,,,,,,,,,,,,
null,,thebreak,1014515,break,,null,,,,,,,,,,,,,,,,,
3410.9000000059605,,realistic_rating,1017926,Concord,,53,Concord,5,,,,,,,,,,,,,,,
null,,confidence_buffer,1018028,confidence_buffer,,null,,,,,,,,,,,,,,,,,
2834.0999999940395,,pt2_unique_rating,1020863,Concord,,50,,2,,,,,,,,,,,,,,,
null,,confidence_buffer,1020965,confidence_buffer,,null,,,,,,,,,,,,,,,,,
1095.5999999940395,,pt2_memorable_rating,1022061,Concord,,50,,2,,,,,,,,,,,,,,,
null,,confidence_buffer,1022163,confidence_buffer,,null,,,,,,,,,,,,,,,,,
3915.5999999940395,,recognition_phase,1026080,Concord,,51,,,,,new,0,0.9459459459459459,,,,,,,,,,
null,,confidence_buffer,1026182,confidence_buffer,,null,,,,,,,,,,,,,,,,,
null,,thebreak,1026685,break,,null,,,,,,,,,,,,,,,,,
2778.6000000089407,,realistic_rating,1029464,Scottsdale,,53,Scottsdale,5,,,,,,,,,,,,,,,
null,,confidence_buffer,1029566,confidence_buffer,,null,,,,,,,,,,,,,,,,,
5153.699999988079,,pt2_unique_rating,1034720,Scottsdale,,50,,2,,,,,,,,,,,,,,,
null,,confidence_buffer,1034821,confidence_buffer,,null,,,,,,,,,,,,,,,,,
1194.1000000089407,,pt2_memorable_rating,1036016,Scottsdale,,50,,2,,,,,,,,,,,,,,,
null,,confidence_buffer,1036118,confidence_buffer,,null,,,,,,,,,,,,,,,,,
1594.4000000059605,,recognition_phase,1037714,Scottsdale,,49,,,,,old,1,0.9473684210526315,,,,,,,,,,
null,,confidence_buffer,1037815,confidence_buffer,,null,,,,,,,,,,,,,,,,,
null,,thebreak,1038318,break,,null,,,,,,,,,,,,,,,,,
3274.5,,realistic_rating,1041594,Champaign,,53,Champaign,5,,,,,,,,,,,,,,,
null,,confidence_buffer,1041695,confidence_buffer,,null,,,,,,,,,,,,,,,,,
2309.0999999940395,,pt2_unique_rating,1044006,Champaign,,51,,3,,,,,,,,,,,,,,,
null,,confidence_buffer,1044108,confidence_buffer,,null,,,,,,,,,,,,,,,,,
2222.5,,probe_rating,1046331,probe_rating,,51,,,3,1,,,,,,,,,,,,,
null,,confidence_buffer,1046432,confidence_buffer,,null,,,,,,,,,,,,,,,,,
4688,,pt2_memorable_rating,1051121,Champaign,,51,,3,,,,,,,,,,,,,,,
null,,confidence_buffer,1051223,confidence_buffer,,null,,,,,,,,,,,,,,,,,
2042.8999999910593,,recognition_phase,1053267,Champaign,,49,,,,,old,1,0.9487179487179487,,,,,,,,,,
null,,confidence_buffer,1053368,confidence_buffer,,null,,,,,,,,,,,,,,,,,
null,,thebreak,1053871,break,,null,,,,,,,,,,,,,,,,,
3162.7000000029802,,realistic_rating,1057034,Fort Collins,,53,Fort Collins,5,,,,,,,,,,,,,,,
null,,confidence_buffer,1057136,confidence_buffer,,null,,,,,,,,,,,,,,,,,
6353.300000011921,,pt2_unique_rating,1063490,Fort Collins,,50,,2,,,,,,,,,,,,,,,
null,,confidence_buffer,1063594,confidence_buffer,,null,,,,,,,,,,,,,,,,,
3462.9000000059605,,probe_rating,1067058,probe_rating,,50,,,2,1,,,,,,,,,,,,,
null,,confidence_buffer,1067160,confidence_buffer,,null,,,,,,,,,,,,,,,,,
2335.5,,pt2_memorable_rating,1069496,Fort Collins,,50,,2,,,,,,,,,,,,,,,
null,,confidence_buffer,1069598,confidence_buffer,,null,,,,,,,,,,,,,,,,,
2948.2999999970198,,recognition_phase,1072548,Fort Collins,,52,,,,,new,1,0.95,,,,,,,,,,
null,,confidence_buffer,1072650,confidence_buffer,,null,,,,,,,,,,,,,,,,,
null,,thebreak,1073152,break,,null,,,,,,,,,,,,,,,,,
3230.5,,realistic_rating,1076383,Youngstown,,53,Youngstown,5,,,,,,,,,,,,,,,
null,,confidence_buffer,1076484,confidence_buffer,,null,,,,,,,,,,,,,,,,,
2407.2000000029802,,pt2_unique_rating,1078893,Youngstown,,50,,2,,,,,,,,,,,,,,,
null,,confidence_buffer,1078995,confidence_buffer,,null,,,,,,,,,,,,,,,,,
1360.3999999910593,,pt2_memorable_rating,1080356,Youngstown,,50,,2,,,,,,,,,,,,,,,
null,,confidence_buffer,1080458,confidence_buffer,,null,,,,,,,,,,,,,,,,,
3196.7999999970198,,recognition_phase,1083656,Youngstown,,51,,,,,new,1,0.9512195121951219,,,,,,,,,,
null,,confidence_buffer,1083758,confidence_buffer,,null,,,,,,,,,,,,,,,,,
null,,thebreak,1084260,break,,null,,,,,,,,,,,,,,,,,
3001.4000000059605,,realistic_rating,1087262,Salem,,53,Salem,5,,,,,,,,,,,,,,,
null,,confidence_buffer,1087365,confidence_buffer,,null,,,,,,,,,,,,,,,,,
4333.5,,pt2_unique_rating,1091699,Salem,,50,,2,,,,,,,,,,,,,,,
null,,confidence_buffer,1091802,confidence_buffer,,null,,,,,,,,,,,,,,,,,
1393.7999999970198,,pt2_memorable_rating,1093196,Salem,,50,,2,,,,,,,,,,,,,,,
null,,confidence_buffer,1093298,confidence_buffer,,null,,,,,,,,,,,,,,,,,
2957.5,,recognition_phase,1096256,Salem,,51,,,,,new,1,0.9523809523809523,,,,,,,,,,
null,,confidence_buffer,1096358,confidence_buffer,,null,,,,,,,,,,,,,,,,,
null,,thebreak,1096868,break,,null,,,,,,,,,,,,,,,,,
4402,,realistic_rating,1101271,Norfolk,,53,Norfolk,5,,,,,,,,,,,,,,,
null,,confidence_buffer,1101374,confidence_buffer,,null,,,,,,,,,,,,,,,,,
4874.9000000059605,,pt2_unique_rating,1106250,Norfolk,,51,,3,,,,,,,,,,,,,,,
null,,confidence_buffer,1106359,confidence_buffer,,null,,,,,,,,,,,,,,,,,
1498.7999999970198,,pt2_memorable_rating,1107858,Norfolk,,51,,3,,,,,,,,,,,,,,,
null,,confidence_buffer,1107961,confidence_buffer,,null,,,,,,,,,,,,,,,,,
3855.1000000089407,,recognition_phase,1111817,Norfolk,,51,,,,,new,1,0.9534883720930233,,,,,,,,,,
null,,confidence_buffer,1111918,confidence_buffer,,null,,,,,,,,,,,,,,,,,
null,,thebreak,1112421,break,,null,,,,,,,,,,,,,,,,,
3298.699999988079,,realistic_rating,1115721,Las Cruces,,53,Las Cruces,5,,,,,,,,,,,,,,,
null,,confidence_buffer,1115823,confidence_buffer,,null,,,,,,,,,,,,,,,,,
2752.7000000178814,,probe_rating,1118577,probe_rating,,51,,,3,1,,,,,,,,,,,,,
null,,confidence_buffer,1118679,confidence_buffer,,null,,,,,,,,,,,,,,,,,
3051.9000000059605,,pt2_unique_rating,1121731,Las Cruces,,52,,4,,,,,,,,,,,,,,,
null,,confidence_buffer,1121833,confidence_buffer,,null,,,,,,,,,,,,,,,,,
1368.2999999821186,,pt2_memorable_rating,1123202,Las Cruces,,52,,4,,,,,,,,,,,,,,,
null,,confidence_buffer,1123305,confidence_buffer,,null,,,,,,,,,,,,,,,,,
4421.799999982119,,recognition_phase,1127728,Las Cruces,,51,,,,,new,1,0.9545454545454546,,,,,,,,,,
null,,confidence_buffer,1127830,confidence_buffer,,null,,,,,,,,,,,,,,,,,
null,,thebreak,1128333,break,,null,,,,,,,,,,,,,,,,,
2964.7000000178814,,realistic_rating,1131298,Helena,,53,Helena,5,,,,,,,,,,,,,,,
null,,confidence_buffer,1131400,confidence_buffer,,null,,,,,,,,,,,,,,,,,
4748.5999999940395,,pt2_unique_rating,1136149,Helena,,52,,4,,,,,,,,,,,,,,,
null,,confidence_buffer,1136250,confidence_buffer,,null,,,,,,,,,,,,,,,,,
1345.300000011921,,pt2_memorable_rating,1137597,Helena,,52,,4,,,,,,,,,,,,,,,
null,,confidence_buffer,1137698,confidence_buffer,,null,,,,,,,,,,,,,,,,,
1789.8999999761581,,recognition_phase,1139489,Helena,,49,,,,,old,1,0.9555555555555556,,,,,,,,,,
null,,confidence_buffer,1139592,confidence_buffer,,null,,,,,,,,,,,,,,,,,
null,,thebreak,1140095,break,,null,,,,,,,,,,,,,,,,,
13243.699999988079,,realistic_rating,1153340,Dothan,,52,Dothan,4,,,,,,,,,,,,,,,
null,,confidence_buffer,1153441,confidence_buffer,,null,,,,,,,,,,,,,,,,,
6165.300000011921,,pt2_unique_rating,1159607,Dothan,,52,,4,,,,,,,,,,,,,,,
null,,confidence_buffer,1159709,confidence_buffer,,null,,,,,,,,,,,,,,,,,
2875,,pt2_memorable_rating,1162585,Dothan,,51,,3,,,,,,,,,,,,,,,
null,,confidence_buffer,1162687,confidence_buffer,,null,,,,,,,,,,,,,,,,,
3765.5999999940395,,recognition_phase,1166453,Dothan,,52,,,,,new,0,0.9347826086956522,,,,,,,,,,
null,,confidence_buffer,1166555,confidence_buffer,,null,,,,,,,,,,,,,,,,,
null,,thebreak,1167058,break,,null,,,,,,,,,,,,,,,,,
4114.200000017881,,realistic_rating,1171173,Pasadena,,53,Pasadena,5,,,,,,,,,,,,,,,
null,,confidence_buffer,1171275,confidence_buffer,,null,,,,,,,,,,,,,,,,,
4028.9000000059605,,pt2_unique_rating,1175305,Pasadena,,52,,4,,,,,,,,,,,,,,,
null,,confidence_buffer,1175406,confidence_buffer,,null,,,,,,,,,,,,,,,,,
2198.4000000059605,,pt2_memorable_rating,1177605,Pasadena,,51,,3,,,,,,,,,,,,,,,
null,,confidence_buffer,1177708,confidence_buffer,,null,,,,,,,,,,,,,,,,,
2115.7000000178814,,recognition_phase,1179824,Pasadena,,49,,,,,old,1,0.9361702127659575,,,,,,,,,,
null,,confidence_buffer,1179926,confidence_buffer,,null,,,,,,,,,,,,,,,,,
null,,thebreak,1180428,break,,null,,,,,,,,,,,,,,,,,
4508.600000023842,,realistic_rating,1184937,McKinney,,53,McKinney,5,,,,,,,,,,,,,,,
null,,confidence_buffer,1185040,confidence_buffer,,null,,,,,,,,,,,,,,,,,
3980.100000023842,,pt2_unique_rating,1189021,McKinney,,51,,3,,,,,,,,,,,,,,,
null,,confidence_buffer,1189122,confidence_buffer,,null,,,,,,,,,,,,,,,,,
1725,,pt2_memorable_rating,1190848,McKinney,,51,,3,,,,,,,,,,,,,,,
null,,confidence_buffer,1190949,confidence_buffer,,null,,,,,,,,,,,,,,,,,
4088.699999988079,,recognition_phase,1195038,McKinney,,51,,,,,new,1,0.9375,,,,,,,,,,
null,,confidence_buffer,1195140,confidence_buffer,,null,,,,,,,,,,,,,,,,,
null,,thebreak,1195642,break,,null,,,,,,,,,,,,,,,,,
5062.699999988079,,realistic_rating,1200706,Carson City,,53,Carson City,5,,,,,,,,,,,,,,,
null,,confidence_buffer,1200807,confidence_buffer,,null,,,,,,,,,,,,,,,,,
160.2000000178814,,pt2_unique_rating,1200969,Carson City,,53,,5,,,,,,,,,,,,,,,
null,,confidence_buffer,1201070,confidence_buffer,,null,,,,,,,,,,,,,,,,,
5861.4000000059605,,pt2_memorable_rating,1206932,Carson City,,50,,2,,,,,,,,,,,,,,,
null,,confidence_buffer,1207034,confidence_buffer,,null,,,,,,,,,,,,,,,,,
2462.9000000059605,,recognition_phase,1209498,Carson City,,49,,,,,old,1,0.9387755102040817,,,,,,,,,,
null,,confidence_buffer,1209599,confidence_buffer,,null,,,,,,,,,,,,,,,,,
null,,thebreak,1210102,break,,null,,,,,,,,,,,,,,,,,
3872.7999999821186,,realistic_rating,1213975,Hagerstown,,53,Hagerstown,5,,,,,,,,,,,,,,,
null,,confidence_buffer,1214078,confidence_buffer,,null,,,,,,,,,,,,,,,,,
3245.5,,pt2_unique_rating,1217324,Hagerstown,,51,,3,,,,,,,,,,,,,,,
null,,confidence_buffer,1217426,confidence_buffer,,null,,,,,,,,,,,,,,,,,
1265.6000000238419,,pt2_memorable_rating,1218693,Hagerstown,,51,,3,,,,,,,,,,,,,,,
null,,confidence_buffer,1218795,confidence_buffer,,null,,,,,,,,,,,,,,,,,
2645.0999999940395,,recognition_phase,1221440,Hagerstown,,52,,,,,new,1,0.94,,,,,,,,,,
null,,confidence_buffer,1221543,confidence_buffer,,null,,,,,,,,,,,,,,,,,
null,,thebreak,1222045,break,,null,,,,,,,,,,,,,,,,,
,,survey,1699758,survey-questions,,,,,,,,,,none,high,No,Tried to stay focused and attentive to each page. Would often think of the state the city was in and that helped me remember.,If I had hear the name before it was easier to remember.,Unusual names were easier to remember. Also if I associated the city with a state it was easier to remember.,If I thought the names were strange I rated them more unique.,Rated the city very realistic if I had heard the name before.,No,
