rt,responses,trial_type,time_elapsed,stimulus,button_pressed,key_press,name_trial,city_type,rating,probe,probe_accuracy,response,correct,accuracy,problems,smooth,distraction,strategies,familiar,memorable,unique,realistic,similar,comments
3393.800000011921,{worker_id:663a49132a49d2638c64b84d},id_enter,3401,,,,,,,,,,,,,,,,,,,,,
13180.700000017881,,fullscreen,16593,fullscreen,0,,,,,,,,,,,,,,,,,,,
10301.09999999404,,intro_0,26903,instruct,,32,,,,,,,,,,,,,,,,,,
10590.699999988079,,intro_1,37495,instruct,,32,,,,,,,,,,,,,,,,,,
4197.800000011921,,intro_2,41695,instruct,,32,,,,,,,,,,,,,,,,,,
null,,instruct_dir_4,43202,instruct,,null,,,,,,,,,,,,,,,,,,
null,,thebreak,43712,break,,null,,,,,,,,,,,,,,,,,,
5648.4000000059605,,familiar_rating,49363,New Hope,,50,New Hope,US,2,,,,,,,,,,,,,,,
null,,confidence_buffer,49465,confidence_buffer,,null,,,,,,,,,,,,,,,,,,
4227.200000017881,,unique_rating,53695,New Hope,,51,,,3,,,,,,,,,,,,,,,
null,,confidence_buffer,53802,confidence_buffer,,null,,,,,,,,,,,,,,,,,,
4744.0999999940395,,memorable_rating,58548,New Hope,,49,,,1,,,,,,,,,,,,,,,
null,,confidence_buffer,58661,confidence_buffer,,null,,,,,,,,,,,,,,,,,,
null,,thebreak,59171,break,,null,,,,,,,,,,,,,,,,,,
3230.199999988079,,familiar_rating,62403,Meadowspire,,49,Meadowspire,Fictional,1,,,,,,,,,,,,,,,
null,,confidence_buffer,62512,confidence_buffer,,null,,,,,,,,,,,,,,,,,,
4018,,unique_rating,66532,Meadowspire,,51,,,3,,,,,,,,,,,,,,,
null,,confidence_buffer,66643,confidence_buffer,,null,,,,,,,,,,,,,,,,,,
4110.5999999940395,,memorable_rating,70756,Meadowspire,,49,,,1,,,,,,,,,,,,,,,
null,,confidence_buffer,70857,confidence_buffer,,null,,,,,,,,,,,,,,,,,,
null,,thebreak,71362,break,,null,,,,,,,,,,,,,,,,,,
3480.5999999940395,,familiar_rating,74844,Abilene,,49,Abilene,US,1,,,,,,,,,,,,,,,
null,,confidence_buffer,74956,confidence_buffer,,null,,,,,,,,,,,,,,,,,,
7472.9000000059605,,unique_rating,82430,Abilene,,52,,,4,,,,,,,,,,,,,,,
null,,confidence_buffer,82538,confidence_buffer,,null,,,,,,,,,,,,,,,,,,
2483.2000000178814,,memorable_rating,85022,Abilene,,50,,,2,,,,,,,,,,,,,,,
null,,confidence_buffer,85132,confidence_buffer,,null,,,,,,,,,,,,,,,,,,
2800.5999999940395,,probe_rating,87935,probe_rating,,53,,,,5,1,,,,,,,,,,,,,
null,,confidence_buffer,88046,confidence_buffer,,null,,,,,,,,,,,,,,,,,,
null,,thebreak,88552,break,,null,,,,,,,,,,,,,,,,,,
4018.800000011921,,familiar_rating,92573,Golden Trace,,49,Golden Trace,Fictional,1,,,,,,,,,,,,,,,
null,,confidence_buffer,92685,confidence_buffer,,null,,,,,,,,,,,,,,,,,,
1926.9000000059605,,unique_rating,94613,Golden Trace,,49,,,1,,,,,,,,,,,,,,,
null,,confidence_buffer,94722,confidence_buffer,,null,,,,,,,,,,,,,,,,,,
1882,,memorable_rating,96606,Golden Trace,,51,,,3,,,,,,,,,,,,,,,
null,,confidence_buffer,96714,confidence_buffer,,null,,,,,,,,,,,,,,,,,,
null,,thebreak,97218,break,,null,,,,,,,,,,,,,,,,,,
2505.699999988079,,familiar_rating,99726,Coeur d'Alene,,49,Coeur d'Alene,US,1,,,,,,,,,,,,,,,
null,,confidence_buffer,99837,confidence_buffer,,null,,,,,,,,,,,,,,,,,,
2390.800000011921,,unique_rating,102230,Coeur d'Alene,,53,,,5,,,,,,,,,,,,,,,
null,,confidence_buffer,102339,confidence_buffer,,null,,,,,,,,,,,,,,,,,,
2177.0999999940395,,probe_rating,104518,probe_rating,,52,,,,4,1,,,,,,,,,,,,,
null,,confidence_buffer,104626,confidence_buffer,,null,,,,,,,,,,,,,,,,,,
9446.09999999404,,memorable_rating,114074,Coeur d'Alene,,50,,,2,,,,,,,,,,,,,,,
null,,confidence_buffer,114179,confidence_buffer,,null,,,,,,,,,,,,,,,,,,
null,,thebreak,114682,break,,null,,,,,,,,,,,,,,,,,,
7408.800000011921,,familiar_rating,122093,Ashford Hills,,51,Ashford Hills,Fictional,3,,,,,,,,,,,,,,,
null,,confidence_buffer,122195,confidence_buffer,,null,,,,,,,,,,,,,,,,,,
1296.199999988079,,unique_rating,123492,Ashford Hills,,49,,,1,,,,,,,,,,,,,,,
null,,confidence_buffer,123598,confidence_buffer,,null,,,,,,,,,,,,,,,,,,
2941.399999976158,,memorable_rating,126541,Ashford Hills,,52,,,4,,,,,,,,,,,,,,,
null,,confidence_buffer,126651,confidence_buffer,,null,,,,,,,,,,,,,,,,,,
null,,thebreak,127155,break,,null,,,,,,,,,,,,,,,,,,
2537.699999988079,,familiar_rating,129693,Delaware City,,53,Delaware City,US,5,,,,,,,,,,,,,,,
null,,confidence_buffer,129803,confidence_buffer,,null,,,,,,,,,,,,,,,,,,
1448.7000000178814,,probe_rating,131253,probe_rating,,49,,,,1,1,,,,,,,,,,,,,
null,,confidence_buffer,131354,confidence_buffer,,null,,,,,,,,,,,,,,,,,,
1625.5,,unique_rating,132981,Delaware City,,49,,,1,,,,,,,,,,,,,,,
null,,confidence_buffer,133083,confidence_buffer,,null,,,,,,,,,,,,,,,,,,
2729,,memorable_rating,135813,Delaware City,,51,,,3,,,,,,,,,,,,,,,
null,,confidence_buffer,135915,confidence_buffer,,null,,,,,,,,,,,,,,,,,,
null,,thebreak,136418,break,,null,,,,,,,,,,,,,,,,,,
4556.5,,familiar_rating,140976,Coralridge,,51,Coralridge,Fictional,3,,,,,,,,,,,,,,,
null,,confidence_buffer,141084,confidence_buffer,,null,,,,,,,,,,,,,,,,,,
2140.0999999940395,,unique_rating,143225,Coralridge,,50,,,2,,,,,,,,,,,,,,,
null,,confidence_buffer,143335,confidence_buffer,,null,,,,,,,,,,,,,,,,,,
3281.699999988079,,memorable_rating,146617,Coralridge,,52,,,4,,,,,,,,,,,,,,,
null,,confidence_buffer,146725,confidence_buffer,,null,,,,,,,,,,,,,,,,,,
null,,thebreak,147230,break,,null,,,,,,,,,,,,,,,,,,
3490.9000000059605,,familiar_rating,150723,Cleveland,,53,Cleveland,US,5,,,,,,,,,,,,,,,
null,,confidence_buffer,150829,confidence_buffer,,null,,,,,,,,,,,,,,,,,,
1812.7000000178814,,unique_rating,152643,Cleveland,,50,,,2,,,,,,,,,,,,,,,
null,,confidence_buffer,152749,confidence_buffer,,null,,,,,,,,,,,,,,,,,,
1781,,memorable_rating,154531,Cleveland,,53,,,5,,,,,,,,,,,,,,,
null,,confidence_buffer,154638,confidence_buffer,,null,,,,,,,,,,,,,,,,,,
null,,thebreak,155142,break,,null,,,,,,,,,,,,,,,,,,
3598.800000011921,,familiar_rating,158743,Racine,,51,Racine,US,3,,,,,,,,,,,,,,,
null,,confidence_buffer,158852,confidence_buffer,,null,,,,,,,,,,,,,,,,,,
1824.0999999940395,,unique_rating,160677,Racine,,51,,,3,,,,,,,,,,,,,,,
null,,confidence_buffer,160779,confidence_buffer,,null,,,,,,,,,,,,,,,,,,
2283.600000023842,,memorable_rating,163064,Racine,,52,,,4,,,,,,,,,,,,,,,
null,,confidence_buffer,163171,confidence_buffer,,null,,,,,,,,,,,,,,,,,,
null,,thebreak,163678,break,,null,,,,,,,,,,,,,,,,,,
2680.0999999940395,,familiar_rating,166359,Baymarsh,,49,Baymarsh,Fictional,1,,,,,,,,,,,,,,,
null,,confidence_buffer,166471,confidence_buffer,,null,,,,,,,,,,,,,,,,,,
3230.600000023842,,unique_rating,169703,Baymarsh,,51,,,3,,,,,,,,,,,,,,,
null,,confidence_buffer,169812,confidence_buffer,,null,,,,,,,,,,,,,,,,,,
2218.100000023842,,memorable_rating,172031,Baymarsh,,52,,,4,,,,,,,,,,,,,,,
null,,confidence_buffer,172140,confidence_buffer,,null,,,,,,,,,,,,,,,,,,
null,,thebreak,172644,break,,null,,,,,,,,,,,,,,,,,,
3124.199999988079,,familiar_rating,175770,Sunmere,,49,Sunmere,Fictional,1,,,,,,,,,,,,,,,
null,,confidence_buffer,175879,confidence_buffer,,null,,,,,,,,,,,,,,,,,,
4621.700000017881,,unique_rating,180502,Sunmere,,53,,,5,,,,,,,,,,,,,,,
null,,confidence_buffer,180608,confidence_buffer,,null,,,,,,,,,,,,,,,,,,
2508.699999988079,,memorable_rating,183118,Sunmere,,52,,,4,,,,,,,,,,,,,,,
null,,confidence_buffer,183222,confidence_buffer,,null,,,,,,,,,,,,,,,,,,
null,,thebreak,183727,break,,null,,,,,,,,,,,,,,,,,,
2111.0999999940395,,familiar_rating,185839,Brookmere,,49,Brookmere,Fictional,1,,,,,,,,,,,,,,,
null,,confidence_buffer,185942,confidence_buffer,,null,,,,,,,,,,,,,,,,,,
958.6999999880791,,probe_rating,186902,probe_rating,,50,,,,2,1,,,,,,,,,,,,,
null,,confidence_buffer,187013,confidence_buffer,,null,,,,,,,,,,,,,,,,,,
8617.600000023842,,unique_rating,195632,Brookmere,,50,,,2,,,,,,,,,,,,,,,
null,,confidence_buffer,195744,confidence_buffer,,null,,,,,,,,,,,,,,,,,,
1503.199999988079,,memorable_rating,197249,Brookmere,,50,,,2,,,,,,,,,,,,,,,
null,,confidence_buffer,197358,confidence_buffer,,null,,,,,,,,,,,,,,,,,,
null,,thebreak,197863,break,,null,,,,,,,,,,,,,,,,,,
28502.90000000596,,familiar_rating,226368,Hanover,,52,Hanover,US,4,,,,,,,,,,,,,,,
null,,confidence_buffer,226477,confidence_buffer,,null,,,,,,,,,,,,,,,,,,
3009.199999988079,,probe_rating,229488,probe_rating,,53,,,,5,1,,,,,,,,,,,,,
null,,confidence_buffer,229594,confidence_buffer,,null,,,,,,,,,,,,,,,,,,
3147.699999988079,,unique_rating,232743,Hanover,,50,,,2,,,,,,,,,,,,,,,
null,,confidence_buffer,232845,confidence_buffer,,null,,,,,,,,,,,,,,,,,,
2376.199999988079,,memorable_rating,235222,Hanover,,52,,,4,,,,,,,,,,,,,,,
null,,confidence_buffer,235326,confidence_buffer,,null,,,,,,,,,,,,,,,,,,
null,,thebreak,235834,break,,null,,,,,,,,,,,,,,,,,,
2348.2999999821186,,familiar_rating,238183,Riverlyn,,49,Riverlyn,Fictional,1,,,,,,,,,,,,,,,
null,,confidence_buffer,238288,confidence_buffer,,null,,,,,,,,,,,,,,,,,,
1924.800000011921,,unique_rating,240215,Riverlyn,,52,,,4,,,,,,,,,,,,,,,
null,,confidence_buffer,240321,confidence_buffer,,null,,,,,,,,,,,,,,,,,,
2380.800000011921,,memorable_rating,242703,Riverlyn,,52,,,4,,,,,,,,,,,,,,,
null,,confidence_buffer,242810,confidence_buffer,,null,,,,,,,,,,,,,,,,,,
null,,thebreak,243322,break,,null,,,,,,,,,,,,,,,,,,
3898.9000000059605,,familiar_rating,247222,Maplehurst,,52,Maplehurst,Fictional,4,,,,,,,,,,,,,,,
null,,confidence_buffer,247326,confidence_buffer,,null,,,,,,,,,,,,,,,,,,
1663.5,,unique_rating,248990,Maplehurst,,50,,,2,,,,,,,,,,,,,,,
null,,confidence_buffer,249097,confidence_buffer,,null,,,,,,,,,,,,,,,,,,
1788.7000000178814,,memorable_rating,250886,Maplehurst,,50,,,2,,,,,,,,,,,,,,,
null,,confidence_buffer,250991,confidence_buffer,,null,,,,,,,,,,,,,,,,,,
null,,thebreak,251498,break,,null,,,,,,,,,,,,,,,,,,
2323,,familiar_rating,253822,Falconridge,,52,Falconridge,Fictional,4,,,,,,,,,,,,,,,
null,,confidence_buffer,253928,confidence_buffer,,null,,,,,,,,,,,,,,,,,,
1669.1000000238419,,unique_rating,255598,Falconridge,,49,,,1,,,,,,,,,,,,,,,
null,,confidence_buffer,255705,confidence_buffer,,null,,,,,,,,,,,,,,,,,,
2532.2000000178814,,probe_rating,258239,probe_rating,,52,,,,4,1,,,,,,,,,,,,,
null,,confidence_buffer,258346,confidence_buffer,,null,,,,,,,,,,,,,,,,,,
2699.7000000178814,,memorable_rating,261047,Falconridge,,50,,,2,,,,,,,,,,,,,,,
null,,confidence_buffer,261151,confidence_buffer,,null,,,,,,,,,,,,,,,,,,
null,,thebreak,261654,break,,null,,,,,,,,,,,,,,,,,,
2120,,familiar_rating,263776,Newport,,53,Newport,US,5,,,,,,,,,,,,,,,
null,,confidence_buffer,263882,confidence_buffer,,null,,,,,,,,,,,,,,,,,,
2396.0999999940395,,unique_rating,266280,Newport,,49,,,1,,,,,,,,,,,,,,,
null,,confidence_buffer,266387,confidence_buffer,,null,,,,,,,,,,,,,,,,,,
1394.2999999821186,,memorable_rating,267783,Newport,,53,,,5,,,,,,,,,,,,,,,
null,,confidence_buffer,267890,confidence_buffer,,null,,,,,,,,,,,,,,,,,,
null,,thebreak,268401,break,,null,,,,,,,,,,,,,,,,,,
3774.5,,familiar_rating,272177,Medora,,49,Medora,US,1,,,,,,,,,,,,,,,
null,,confidence_buffer,272283,confidence_buffer,,null,,,,,,,,,,,,,,,,,,
1789.699999988079,,unique_rating,274074,Medora,,53,,,5,,,,,,,,,,,,,,,
null,,confidence_buffer,274177,confidence_buffer,,null,,,,,,,,,,,,,,,,,,
2278.5999999940395,,memorable_rating,276457,Medora,,51,,,3,,,,,,,,,,,,,,,
null,,confidence_buffer,276563,confidence_buffer,,null,,,,,,,,,,,,,,,,,,
null,,thebreak,277074,break,,null,,,,,,,,,,,,,,,,,,
1590.699999988079,,familiar_rating,278666,Orchard Bend,,49,Orchard Bend,Fictional,1,,,,,,,,,,,,,,,
null,,confidence_buffer,278775,confidence_buffer,,null,,,,,,,,,,,,,,,,,,
2017.2999999821186,,unique_rating,280794,Orchard Bend,,49,,,1,,,,,,,,,,,,,,,
null,,confidence_buffer,280896,confidence_buffer,,null,,,,,,,,,,,,,,,,,,
1561.199999988079,,memorable_rating,282459,Orchard Bend,,49,,,1,,,,,,,,,,,,,,,
null,,confidence_buffer,282570,confidence_buffer,,null,,,,,,,,,,,,,,,,,,
null,,thebreak,283079,break,,null,,,,,,,,,,,,,,,,,,
3441.9000000059605,,familiar_rating,286523,Carmel,,52,Carmel,US,4,,,,,,,,,,,,,,,
null,,confidence_buffer,286636,confidence_buffer,,null,,,,,,,,,,,,,,,,,,
4897.5,,unique_rating,296244,Carmel,,51,,,3,,,,,,,,,,,,,,,
null,,confidence_buffer,296351,confidence_buffer,,null,,,,,,,,,,,,,,,,,,
1748.9000000059605,,memorable_rating,298101,Carmel,,53,,,5,,,,,,,,,,,,,,,
null,,confidence_buffer,298205,confidence_buffer,,null,,,,,,,,,,,,,,,,,,
null,,thebreak,298711,break,,null,,,,,,,,,,,,,,,,,,
4384.699999988079,,familiar_rating,303097,Briarfield,,52,Briarfield,Fictional,4,,,,,,,,,,,,,,,
null,,confidence_buffer,303208,confidence_buffer,,null,,,,,,,,,,,,,,,,,,
1256.2999999821186,,unique_rating,304466,Briarfield,,49,,,1,,,,,,,,,,,,,,,
null,,confidence_buffer,304575,confidence_buffer,,null,,,,,,,,,,,,,,,,,,
1240.199999988079,,probe_rating,305817,probe_rating,,51,,,,3,1,,,,,,,,,,,,,
null,,confidence_buffer,305927,confidence_buffer,,null,,,,,,,,,,,,,,,,,,
3113.0999999940395,,memorable_rating,309042,Briarfield,,50,,,2,,,,,,,,,,,,,,,
null,,confidence_buffer,309154,confidence_buffer,,null,,,,,,,,,,,,,,,,,,
null,,thebreak,309658,break,,null,,,,,,,,,,,,,,,,,,
1558.5999999940395,,familiar_rating,311218,Albuquerque,,53,Albuquerque,US,5,,,,,,,,,,,,,,,
null,,confidence_buffer,311326,confidence_buffer,,null,,,,,,,,,,,,,,,,,,
1320.7999999821186,,unique_rating,312648,Albuquerque,,53,,,5,,,,,,,,,,,,,,,
null,,confidence_buffer,312760,confidence_buffer,,null,,,,,,,,,,,,,,,,,,
792.2999999821186,,memorable_rating,313554,Albuquerque,,53,,,5,,,,,,,,,,,,,,,
null,,confidence_buffer,313666,confidence_buffer,,null,,,,,,,,,,,,,,,,,,
null,,thebreak,314176,break,,null,,,,,,,,,,,,,,,,,,
2423.9000000059605,,familiar_rating,316602,Pine Hollow,,53,Pine Hollow,Fictional,5,,,,,,,,,,,,,,,
null,,confidence_buffer,316713,confidence_buffer,,null,,,,,,,,,,,,,,,,,,
1502.800000011921,,unique_rating,318218,Pine Hollow,,49,,,1,,,,,,,,,,,,,,,
null,,confidence_buffer,318328,confidence_buffer,,null,,,,,,,,,,,,,,,,,,
22288.09999999404,,memorable_rating,340618,Pine Hollow,,49,,,1,,,,,,,,,,,,,,,
null,,confidence_buffer,340729,confidence_buffer,,null,,,,,,,,,,,,,,,,,,
null,,thebreak,341240,break,,null,,,,,,,,,,,,,,,,,,
1392.300000011921,,familiar_rating,342634,Sitka,,49,Sitka,US,1,,,,,,,,,,,,,,,
null,,confidence_buffer,342743,confidence_buffer,,null,,,,,,,,,,,,,,,,,,
1713.5,,unique_rating,344458,Sitka,,52,,,4,,,,,,,,,,,,,,,
null,,confidence_buffer,344567,confidence_buffer,,null,,,,,,,,,,,,,,,,,,
1793.5999999940395,,memorable_rating,346362,Sitka,,50,,,2,,,,,,,,,,,,,,,
null,,confidence_buffer,346473,confidence_buffer,,null,,,,,,,,,,,,,,,,,,
null,,thebreak,346977,break,,null,,,,,,,,,,,,,,,,,,
2763.699999988079,,familiar_rating,349742,Peoria,,53,Peoria,US,5,,,,,,,,,,,,,,,
null,,confidence_buffer,349848,confidence_buffer,,null,,,,,,,,,,,,,,,,,,
2397.4000000059605,,unique_rating,352247,Peoria,,51,,,3,,,,,,,,,,,,,,,
null,,confidence_buffer,352351,confidence_buffer,,null,,,,,,,,,,,,,,,,,,
2029.9000000059605,,memorable_rating,354383,Peoria,,52,,,4,,,,,,,,,,,,,,,
null,,confidence_buffer,354487,confidence_buffer,,null,,,,,,,,,,,,,,,,,,
null,,thebreak,354990,break,,null,,,,,,,,,,,,,,,,,,
2134.4000000059605,,familiar_rating,357126,Duck,,49,Duck,US,1,,,,,,,,,,,,,,,
null,,confidence_buffer,357233,confidence_buffer,,null,,,,,,,,,,,,,,,,,,
1763.7999999821186,,unique_rating,358997,Duck,,53,,,5,,,,,,,,,,,,,,,
null,,confidence_buffer,359102,confidence_buffer,,null,,,,,,,,,,,,,,,,,,
1582.300000011921,,memorable_rating,360685,Duck,,53,,,5,,,,,,,,,,,,,,,
null,,confidence_buffer,360790,confidence_buffer,,null,,,,,,,,,,,,,,,,,,
null,,thebreak,361296,break,,null,,,,,,,,,,,,,,,,,,
2516.4000000059605,,familiar_rating,363814,Gloucester,,50,Gloucester,US,2,,,,,,,,,,,,,,,
null,,confidence_buffer,363919,confidence_buffer,,null,,,,,,,,,,,,,,,,,,
2341.800000011921,,unique_rating,366262,Gloucester,,53,,,5,,,,,,,,,,,,,,,
null,,confidence_buffer,366370,confidence_buffer,,null,,,,,,,,,,,,,,,,,,
1322.1000000238419,,probe_rating,367694,probe_rating,,49,,,,1,1,,,,,,,,,,,,,
null,,confidence_buffer,367802,confidence_buffer,,null,,,,,,,,,,,,,,,,,,
2394.800000011921,,memorable_rating,370198,Gloucester,,52,,,4,,,,,,,,,,,,,,,
null,,confidence_buffer,370306,confidence_buffer,,null,,,,,,,,,,,,,,,,,,
null,,thebreak,370811,break,,null,,,,,,,,,,,,,,,,,,
2393.5,,familiar_rating,373206,Granton Ridge,,49,Granton Ridge,Fictional,1,,,,,,,,,,,,,,,
null,,confidence_buffer,373311,confidence_buffer,,null,,,,,,,,,,,,,,,,,,
1270,,unique_rating,374582,Granton Ridge,,49,,,1,,,,,,,,,,,,,,,
null,,confidence_buffer,374691,confidence_buffer,,null,,,,,,,,,,,,,,,,,,
1161.9000000059605,,memorable_rating,375854,Granton Ridge,,49,,,1,,,,,,,,,,,,,,,
null,,confidence_buffer,375960,confidence_buffer,,null,,,,,,,,,,,,,,,,,,
null,,thebreak,376467,break,,null,,,,,,,,,,,,,,,,,,
2193.9000000059605,,familiar_rating,378662,Montelake,,49,Montelake,Fictional,1,,,,,,,,,,,,,,,
null,,confidence_buffer,378768,confidence_buffer,,null,,,,,,,,,,,,,,,,,,
1348.9000000059605,,unique_rating,380118,Montelake,,52,,,4,,,,,,,,,,,,,,,
null,,confidence_buffer,380222,confidence_buffer,,null,,,,,,,,,,,,,,,,,,
1359.300000011921,,memorable_rating,381582,Montelake,,52,,,4,,,,,,,,,,,,,,,
null,,confidence_buffer,381687,confidence_buffer,,null,,,,,,,,,,,,,,,,,,
null,,thebreak,382195,break,,null,,,,,,,,,,,,,,,,,,
4128.300000011921,,intro_0,386324,instruct,,32,,,,,,,,,,,,,,,,,,
6326.9000000059605,,intro_1,392652,instruct,,32,,,,,,,,,,,,,,,,,,
9523.200000017881,,intro_2,402177,instruct,,32,,,,,,,,,,,,,,,,,,
null,,instruct_dir_4,403692,instruct,,null,,,,,,,,,,,,,,,,,,
5338.5,,realistic_rating,409032,Bar Harbor,,52,Bar Harbor,US,4,,,,,,,,,,,,,,,
null,,confidence_buffer,409137,confidence_buffer,,null,,,,,,,,,,,,,,,,,,
3552.300000011921,,pt2_unique_rating,412690,Bar Harbor,,49,,,1,,,,,,,,,,,,,,,
null,,confidence_buffer,412795,confidence_buffer,,null,,,,,,,,,,,,,,,,,,
822.6999999880791,,probe_rating,413619,probe_rating,,50,,,,2,1,,,,,,,,,,,,,
null,,confidence_buffer,413724,confidence_buffer,,null,,,,,,,,,,,,,,,,,,
1750,,pt2_memorable_rating,415475,Bar Harbor,,50,,,2,,,,,,,,,,,,,,,
null,,confidence_buffer,415578,confidence_buffer,,null,,,,,,,,,,,,,,,,,,
2855.699999988079,,recognition_phase,418435,Bar Harbor,,52,,,,,,new,1,1,,,,,,,,,,
null,,confidence_buffer,418541,confidence_buffer,,null,,,,,,,,,,,,,,,,,,
null,,thebreak,419052,break,,null,,,,,,,,,,,,,,,,,,
3102.399999976158,,realistic_rating,422156,Falconridge,,53,Falconridge,Fictional,5,,,,,,,,,,,,,,,
null,,confidence_buffer,422265,confidence_buffer,,null,,,,,,,,,,,,,,,,,,
1738.0999999940395,,pt2_unique_rating,424005,Falconridge,,49,,,1,,,,,,,,,,,,,,,
null,,confidence_buffer,424115,confidence_buffer,,null,,,,,,,,,,,,,,,,,,
3144.100000023842,,pt2_memorable_rating,427260,Falconridge,,51,,,3,,,,,,,,,,,,,,,
null,,confidence_buffer,427371,confidence_buffer,,null,,,,,,,,,,,,,,,,,,
2535.100000023842,,recognition_phase,429908,Falconridge,,49,,,,,,old,1,1,,,,,,,,,,
null,,confidence_buffer,430020,confidence_buffer,,null,,,,,,,,,,,,,,,,,,
null,,thebreak,430523,break,,null,,,,,,,,,,,,,,,,,,
2207.9000000059605,,realistic_rating,432733,Gatlinburg,,53,Gatlinburg,US,5,,,,,,,,,,,,,,,
null,,confidence_buffer,432842,confidence_buffer,,null,,,,,,,,,,,,,,,,,,
1497.9000000059605,,pt2_unique_rating,434341,Gatlinburg,,50,,,2,,,,,,,,,,,,,,,
null,,confidence_buffer,434449,confidence_buffer,,null,,,,,,,,,,,,,,,,,,
1394.5,,pt2_memorable_rating,435845,Gatlinburg,,53,,,5,,,,,,,,,,,,,,,
null,,confidence_buffer,435957,confidence_buffer,,null,,,,,,,,,,,,,,,,,,
2182.0999999940395,,recognition_phase,438141,Gatlinburg,,52,,,,,,new,1,1,,,,,,,,,,
null,,confidence_buffer,438250,confidence_buffer,,null,,,,,,,,,,,,,,,,,,
null,,thebreak,438755,break,,null,,,,,,,,,,,,,,,,,,
3026.5,,realistic_rating,441783,Delaro Park,,53,Delaro Park,Fictional,5,,,,,,,,,,,,,,,
null,,confidence_buffer,441889,confidence_buffer,,null,,,,,,,,,,,,,,,,,,
2532.7999999821186,,pt2_unique_rating,444424,Delaro Park,,52,,,4,,,,,,,,,,,,,,,
null,,confidence_buffer,444530,confidence_buffer,,null,,,,,,,,,,,,,,,,,,
1331.6000000238419,,pt2_memorable_rating,445864,Delaro Park,,52,,,4,,,,,,,,,,,,,,,
null,,confidence_buffer,445971,confidence_buffer,,null,,,,,,,,,,,,,,,,,,
1827.0999999940395,,recognition_phase,447800,Delaro Park,,52,,,,,,new,1,1,,,,,,,,,,
null,,confidence_buffer,447905,confidence_buffer,,null,,,,,,,,,,,,,,,,,,
null,,thebreak,448414,break,,null,,,,,,,,,,,,,,,,,,
2207.800000011921,,realistic_rating,450624,Hanover,,53,Hanover,US,5,,,,,,,,,,,,,,,
null,,confidence_buffer,450731,confidence_buffer,,null,,,,,,,,,,,,,,,,,,
2314.5999999940395,,pt2_unique_rating,453048,Hanover,,49,,,1,,,,,,,,,,,,,,,
null,,confidence_buffer,453158,confidence_buffer,,null,,,,,,,,,,,,,,,,,,
1456.5,,pt2_memorable_rating,454616,Hanover,,53,,,5,,,,,,,,,,,,,,,
null,,confidence_buffer,454726,confidence_buffer,,null,,,,,,,,,,,,,,,,,,
1663.699999988079,,recognition_phase,456391,Hanover,,49,,,,,,old,1,1,,,,,,,,,,
null,,confidence_buffer,456497,confidence_buffer,,null,,,,,,,,,,,,,,,,,,
null,,thebreak,457003,break,,null,,,,,,,,,,,,,,,,,,
8737.299999982119,,realistic_rating,465742,New Hope,,51,New Hope,US,3,,,,,,,,,,,,,,,
null,,confidence_buffer,465854,confidence_buffer,,null,,,,,,,,,,,,,,,,,,
3626.4000000059605,,pt2_unique_rating,469482,New Hope,,49,,,1,,,,,,,,,,,,,,,
null,,confidence_buffer,469589,confidence_buffer,,null,,,,,,,,,,,,,,,,,,
2108,,pt2_memorable_rating,471698,New Hope,,51,,,3,,,,,,,,,,,,,,,
null,,confidence_buffer,471804,confidence_buffer,,null,,,,,,,,,,,,,,,,,,
2140.2999999821186,,recognition_phase,473946,New Hope,,49,,,,,,old,1,1,,,,,,,,,,
null,,confidence_buffer,474051,confidence_buffer,,null,,,,,,,,,,,,,,,,,,
null,,thebreak,474555,break,,null,,,,,,,,,,,,,,,,,,
2020.800000011921,,realistic_rating,476577,Redgrove,,53,Redgrove,Fictional,5,,,,,,,,,,,,,,,
null,,confidence_buffer,476681,confidence_buffer,,null,,,,,,,,,,,,,,,,,,
2622.199999988079,,pt2_unique_rating,479305,Redgrove,,50,,,2,,,,,,,,,,,,,,,
null,,confidence_buffer,479414,confidence_buffer,,null,,,,,,,,,,,,,,,,,,
7192.200000017881,,pt2_memorable_rating,486608,Redgrove,,50,,,2,,,,,,,,,,,,,,,
null,,confidence_buffer,486716,confidence_buffer,,null,,,,,,,,,,,,,,,,,,
1521.699999988079,,recognition_phase,488239,Redgrove,,52,,,,,,new,1,1,,,,,,,,,,
null,,confidence_buffer,488343,confidence_buffer,,null,,,,,,,,,,,,,,,,,,
null,,thebreak,488853,break,,null,,,,,,,,,,,,,,,,,,
2921.300000011921,,realistic_rating,491775,Sunmere,,50,Sunmere,Fictional,2,,,,,,,,,,,,,,,
null,,confidence_buffer,491884,confidence_buffer,,null,,,,,,,,,,,,,,,,,,
2874.0999999940395,,pt2_unique_rating,494759,Sunmere,,53,,,5,,,,,,,,,,,,,,,
null,,confidence_buffer,494868,confidence_buffer,,null,,,,,,,,,,,,,,,,,,
4434.0999999940395,,pt2_memorable_rating,499303,Sunmere,,51,,,3,,,,,,,,,,,,,,,
null,,confidence_buffer,499407,confidence_buffer,,null,,,,,,,,,,,,,,,,,,
2119.199999988079,,recognition_phase,501527,Sunmere,,49,,,,,,old,1,1,,,,,,,,,,
null,,confidence_buffer,501639,confidence_buffer,,null,,,,,,,,,,,,,,,,,,
null,,thebreak,502147,break,,null,,,,,,,,,,,,,,,,,,
2330.9000000059605,,realistic_rating,504479,Meadowspire,,53,Meadowspire,Fictional,5,,,,,,,,,,,,,,,
null,,confidence_buffer,504587,confidence_buffer,,null,,,,,,,,,,,,,,,,,,
4704.800000011921,,pt2_unique_rating,509293,Meadowspire,,50,,,2,,,,,,,,,,,,,,,
null,,confidence_buffer,509398,confidence_buffer,,null,,,,,,,,,,,,,,,,,,
1549.300000011921,,pt2_memorable_rating,510949,Meadowspire,,50,,,2,,,,,,,,,,,,,,,
null,,confidence_buffer,511053,confidence_buffer,,null,,,,,,,,,,,,,,,,,,
2342.5999999940395,,recognition_phase,513397,Meadowspire,,49,,,,,,old,1,1,,,,,,,,,,
null,,confidence_buffer,513500,confidence_buffer,,null,,,,,,,,,,,,,,,,,,
null,,thebreak,514007,break,,null,,,,,,,,,,,,,,,,,,
1884.0999999940395,,realistic_rating,515893,Pine Hollow,,53,Pine Hollow,Fictional,5,,,,,,,,,,,,,,,
null,,confidence_buffer,515999,confidence_buffer,,null,,,,,,,,,,,,,,,,,,
1533.0999999940395,,pt2_unique_rating,517533,Pine Hollow,,49,,,1,,,,,,,,,,,,,,,
null,,confidence_buffer,517636,confidence_buffer,,null,,,,,,,,,,,,,,,,,,
2056.199999988079,,pt2_memorable_rating,519694,Pine Hollow,,52,,,4,,,,,,,,,,,,,,,
null,,confidence_buffer,519796,confidence_buffer,,null,,,,,,,,,,,,,,,,,,
2063.5,,recognition_phase,521861,Pine Hollow,,52,,,,,,new,0,0.9,,,,,,,,,,
null,,confidence_buffer,521966,confidence_buffer,,null,,,,,,,,,,,,,,,,,,
null,,thebreak,522471,break,,null,,,,,,,,,,,,,,,,,,
1820.5999999940395,,realistic_rating,524294,Solara Glen,,53,Solara Glen,Fictional,5,,,,,,,,,,,,,,,
null,,confidence_buffer,524399,confidence_buffer,,null,,,,,,,,,,,,,,,,,,
2156.699999988079,,pt2_unique_rating,526557,Solara Glen,,51,,,3,,,,,,,,,,,,,,,
null,,confidence_buffer,526663,confidence_buffer,,null,,,,,,,,,,,,,,,,,,
1653.300000011921,,pt2_memorable_rating,528318,Solara Glen,,52,,,4,,,,,,,,,,,,,,,
null,,confidence_buffer,528420,confidence_buffer,,null,,,,,,,,,,,,,,,,,,
1448.4000000059605,,recognition_phase,529870,Solara Glen,,52,,,,,,new,1,0.9090909090909091,,,,,,,,,,
null,,confidence_buffer,529972,confidence_buffer,,null,,,,,,,,,,,,,,,,,,
null,,thebreak,530476,break,,null,,,,,,,,,,,,,,,,,,
2432.5999999940395,,realistic_rating,532910,Custer,,49,Custer,US,1,,,,,,,,,,,,,,,
null,,confidence_buffer,533012,confidence_buffer,,null,,,,,,,,,,,,,,,,,,
2632,,pt2_unique_rating,535646,Custer,,52,,,4,,,,,,,,,,,,,,,
null,,confidence_buffer,535748,confidence_buffer,,null,,,,,,,,,,,,,,,,,,
1856.699999988079,,pt2_memorable_rating,537606,Custer,,52,,,4,,,,,,,,,,,,,,,
null,,confidence_buffer,537710,confidence_buffer,,null,,,,,,,,,,,,,,,,,,
1518.2000000178814,,recognition_phase,539230,Custer,,52,,,,,,new,1,0.9166666666666666,,,,,,,,,,
null,,confidence_buffer,539334,confidence_buffer,,null,,,,,,,,,,,,,,,,,,
null,,thebreak,539840,break,,null,,,,,,,,,,,,,,,,,,
1692.5999999940395,,realistic_rating,541534,Ashford Hills,,53,Ashford Hills,Fictional,5,,,,,,,,,,,,,,,
null,,confidence_buffer,541640,confidence_buffer,,null,,,,,,,,,,,,,,,,,,
2332.5,,pt2_unique_rating,543974,Ashford Hills,,50,,,2,,,,,,,,,,,,,,,
null,,confidence_buffer,544078,confidence_buffer,,null,,,,,,,,,,,,,,,,,,
1990.5999999940395,,pt2_memorable_rating,546070,Ashford Hills,,53,,,5,,,,,,,,,,,,,,,
null,,confidence_buffer,546174,confidence_buffer,,null,,,,,,,,,,,,,,,,,,
1581.699999988079,,recognition_phase,547757,Ashford Hills,,49,,,,,,old,1,0.9230769230769231,,,,,,,,,,
null,,confidence_buffer,547863,confidence_buffer,,null,,,,,,,,,,,,,,,,,,
null,,thebreak,548374,break,,null,,,,,,,,,,,,,,,,,,
2769,,realistic_rating,551144,Duck,,50,Duck,US,2,,,,,,,,,,,,,,,
null,,confidence_buffer,551253,confidence_buffer,,null,,,,,,,,,,,,,,,,,,
2241.9000000059605,,pt2_unique_rating,553497,Duck,,53,,,5,,,,,,,,,,,,,,,
null,,confidence_buffer,553605,confidence_buffer,,null,,,,,,,,,,,,,,,,,,
1139.0999999940395,,pt2_memorable_rating,554745,Duck,,53,,,5,,,,,,,,,,,,,,,
null,,confidence_buffer,554853,confidence_buffer,,null,,,,,,,,,,,,,,,,,,
1593.800000011921,,recognition_phase,556448,Duck,,49,,,,,,old,1,0.9285714285714286,,,,,,,,,,
null,,confidence_buffer,556560,confidence_buffer,,null,,,,,,,,,,,,,,,,,,
null,,thebreak,557069,break,,null,,,,,,,,,,,,,,,,,,
1794.5,,realistic_rating,558865,Maravilla Springs,,53,Maravilla Springs,Fictional,5,,,,,,,,,,,,,,,
null,,confidence_buffer,558974,confidence_buffer,,null,,,,,,,,,,,,,,,,,,
2176.0999999940395,,pt2_unique_rating,561152,Maravilla Springs,,52,,,4,,,,,,,,,,,,,,,
null,,confidence_buffer,561262,confidence_buffer,,null,,,,,,,,,,,,,,,,,,
1473,,pt2_memorable_rating,562737,Maravilla Springs,,52,,,4,,,,,,,,,,,,,,,
null,,confidence_buffer,562847,confidence_buffer,,null,,,,,,,,,,,,,,,,,,
1224.7000000178814,,recognition_phase,564073,Maravilla Springs,,52,,,,,,new,1,0.9333333333333333,,,,,,,,,,
null,,confidence_buffer,564177,confidence_buffer,,null,,,,,,,,,,,,,,,,,,
null,,thebreak,564687,break,,null,,,,,,,,,,,,,,,,,,
1624.800000011921,,realistic_rating,566313,Crestwood,,53,Crestwood,Fictional,5,,,,,,,,,,,,,,,
null,,confidence_buffer,566422,confidence_buffer,,null,,,,,,,,,,,,,,,,,,
1592.800000011921,,pt2_unique_rating,568017,Crestwood,,49,,,1,,,,,,,,,,,,,,,
null,,confidence_buffer,568120,confidence_buffer,,null,,,,,,,,,,,,,,,,,,
1855.5999999940395,,pt2_memorable_rating,569977,Crestwood,,53,,,5,,,,,,,,,,,,,,,
null,,confidence_buffer,570085,confidence_buffer,,null,,,,,,,,,,,,,,,,,,
2009.2999999821186,,recognition_phase,572096,Crestwood,,52,,,,,,new,1,0.9375,,,,,,,,,,
null,,confidence_buffer,572205,confidence_buffer,,null,,,,,,,,,,,,,,,,,,
null,,thebreak,572709,break,,null,,,,,,,,,,,,,,,,,,
2057.7999999821186,,realistic_rating,574768,Albuquerque,,53,Albuquerque,US,5,,,,,,,,,,,,,,,
null,,confidence_buffer,574881,confidence_buffer,,null,,,,,,,,,,,,,,,,,,
964.8000000119209,,pt2_unique_rating,575849,Albuquerque,,53,,,5,,,,,,,,,,,,,,,
null,,confidence_buffer,575960,confidence_buffer,,null,,,,,,,,,,,,,,,,,,
1015.5999999940395,,pt2_memorable_rating,576976,Albuquerque,,53,,,5,,,,,,,,,,,,,,,
null,,confidence_buffer,577086,confidence_buffer,,null,,,,,,,,,,,,,,,,,,
1344.6000000238419,,recognition_phase,578432,Albuquerque,,49,,,,,,old,1,0.9411764705882353,,,,,,,,,,
null,,confidence_buffer,578537,confidence_buffer,,null,,,,,,,,,,,,,,,,,,
null,,thebreak,579049,break,,null,,,,,,,,,,,,,,,,,,
2653.4000000059605,,realistic_rating,581704,Briarfield,,52,Briarfield,Fictional,4,,,,,,,,,,,,,,,
null,,confidence_buffer,581805,confidence_buffer,,null,,,,,,,,,,,,,,,,,,
1913.7000000178814,,pt2_unique_rating,583720,Briarfield,,49,,,1,,,,,,,,,,,,,,,
null,,confidence_buffer,583825,confidence_buffer,,null,,,,,,,,,,,,,,,,,,
1733.5,,pt2_memorable_rating,585560,Briarfield,,50,,,2,,,,,,,,,,,,,,,
null,,confidence_buffer,585662,confidence_buffer,,null,,,,,,,,,,,,,,,,,,
1305.5,,recognition_phase,586968,Briarfield,,49,,,,,,old,1,0.9444444444444444,,,,,,,,,,
null,,confidence_buffer,587070,confidence_buffer,,null,,,,,,,,,,,,,,,,,,
null,,thebreak,587576,break,,null,,,,,,,,,,,,,,,,,,
2103.300000011921,,realistic_rating,589680,Medora,,53,Medora,US,5,,,,,,,,,,,,,,,
null,,confidence_buffer,589783,confidence_buffer,,null,,,,,,,,,,,,,,,,,,
1888.300000011921,,pt2_unique_rating,591672,Medora,,51,,,3,,,,,,,,,,,,,,,
null,,confidence_buffer,591774,confidence_buffer,,null,,,,,,,,,,,,,,,,,,
1577.4000000059605,,pt2_memorable_rating,593352,Medora,,51,,,3,,,,,,,,,,,,,,,
null,,confidence_buffer,593456,confidence_buffer,,null,,,,,,,,,,,,,,,,,,
1358.3999999761581,,recognition_phase,594816,Medora,,49,,,,,,old,1,0.9473684210526315,,,,,,,,,,
null,,confidence_buffer,594921,confidence_buffer,,null,,,,,,,,,,,,,,,,,,
null,,thebreak,595425,break,,null,,,,,,,,,,,,,,,,,,
1814.5,,realistic_rating,597240,New Verdan,,50,New Verdan,Fictional,2,,,,,,,,,,,,,,,
null,,confidence_buffer,597351,confidence_buffer,,null,,,,,,,,,,,,,,,,,,
1504.3999999761581,,pt2_unique_rating,598856,New Verdan,,50,,,2,,,,,,,,,,,,,,,
null,,confidence_buffer,598960,confidence_buffer,,null,,,,,,,,,,,,,,,,,,
1552,,pt2_memorable_rating,600513,New Verdan,,49,,,1,,,,,,,,,,,,,,,
null,,confidence_buffer,600615,confidence_buffer,,null,,,,,,,,,,,,,,,,,,
2064.9000000059605,,recognition_phase,602681,New Verdan,,52,,,,,,new,1,0.95,,,,,,,,,,
null,,confidence_buffer,602789,confidence_buffer,,null,,,,,,,,,,,,,,,,,,
null,,thebreak,603297,break,,null,,,,,,,,,,,,,,,,,,
3974.2000000178814,,realistic_rating,607273,Assateague Island,,50,Assateague Island,US,2,,,,,,,,,,,,,,,
null,,confidence_buffer,607378,confidence_buffer,,null,,,,,,,,,,,,,,,,,,
1389,,pt2_unique_rating,608768,Assateague Island,,53,,,5,,,,,,,,,,,,,,,
null,,confidence_buffer,608870,confidence_buffer,,null,,,,,,,,,,,,,,,,,,
1840.7999999821186,,pt2_memorable_rating,610713,Assateague Island,,50,,,2,,,,,,,,,,,,,,,
null,,confidence_buffer,610814,confidence_buffer,,null,,,,,,,,,,,,,,,,,,
1320.5,,recognition_phase,612137,Assateague Island,,52,,,,,,new,1,0.9523809523809523,,,,,,,,,,
null,,confidence_buffer,612240,confidence_buffer,,null,,,,,,,,,,,,,,,,,,
null,,thebreak,612743,break,,null,,,,,,,,,,,,,,,,,,
1583.5999999940395,,realistic_rating,614329,Cleveland,,53,Cleveland,US,5,,,,,,,,,,,,,,,
null,,confidence_buffer,614431,confidence_buffer,,null,,,,,,,,,,,,,,,,,,
2000.199999988079,,pt2_unique_rating,616433,Cleveland,,49,,,1,,,,,,,,,,,,,,,
null,,confidence_buffer,616538,confidence_buffer,,null,,,,,,,,,,,,,,,,,,
1588.6000000238419,,pt2_memorable_rating,618129,Cleveland,,53,,,5,,,,,,,,,,,,,,,
null,,confidence_buffer,618234,confidence_buffer,,null,,,,,,,,,,,,,,,,,,
1541.199999988079,,probe_rating,619776,probe_rating,,52,,,,4,1,,,,,,,,,,,,,
null,,confidence_buffer,619881,confidence_buffer,,null,,,,,,,,,,,,,,,,,,
1526.300000011921,,recognition_phase,621409,Cleveland,,49,,,,,,old,1,0.9545454545454546,,,,,,,,,,
null,,confidence_buffer,621513,confidence_buffer,,null,,,,,,,,,,,,,,,,,,
null,,thebreak,622018,break,,null,,,,,,,,,,,,,,,,,,
2517.2999999821186,,realistic_rating,624537,Newport,,53,Newport,US,5,,,,,,,,,,,,,,,
null,,confidence_buffer,624648,confidence_buffer,,null,,,,,,,,,,,,,,,,,,
1279.300000011921,,pt2_unique_rating,625929,Newport,,49,,,1,,,,,,,,,,,,,,,
null,,confidence_buffer,626033,confidence_buffer,,null,,,,,,,,,,,,,,,,,,
1351,,pt2_memorable_rating,627385,Newport,,53,,,5,,,,,,,,,,,,,,,
null,,confidence_buffer,627487,confidence_buffer,,null,,,,,,,,,,,,,,,,,,
1344.0999999940395,,recognition_phase,628833,Newport,,49,,,,,,old,1,0.9565217391304348,,,,,,,,,,
null,,confidence_buffer,628937,confidence_buffer,,null,,,,,,,,,,,,,,,,,,
null,,thebreak,629443,break,,null,,,,,,,,,,,,,,,,,,
2029.4000000059605,,realistic_rating,631474,Ironwood Heights,,53,Ironwood Heights,Fictional,5,,,,,,,,,,,,,,,
null,,confidence_buffer,631578,confidence_buffer,,null,,,,,,,,,,,,,,,,,,
1158.199999988079,,pt2_unique_rating,632737,Ironwood Heights,,50,,,2,,,,,,,,,,,,,,,
null,,confidence_buffer,632840,confidence_buffer,,null,,,,,,,,,,,,,,,,,,
2047.5999999940395,,pt2_memorable_rating,634889,Ironwood Heights,,51,,,3,,,,,,,,,,,,,,,
null,,confidence_buffer,634993,confidence_buffer,,null,,,,,,,,,,,,,,,,,,
1270.300000011921,,probe_rating,636265,probe_rating,,52,,,,4,1,,,,,,,,,,,,,
null,,confidence_buffer,636374,confidence_buffer,,null,,,,,,,,,,,,,,,,,,
1329.699999988079,,recognition_phase,637705,Ironwood Heights,,52,,,,,,new,1,0.9583333333333334,,,,,,,,,,
null,,confidence_buffer,637810,confidence_buffer,,null,,,,,,,,,,,,,,,,,,
null,,thebreak,638314,break,,null,,,,,,,,,,,,,,,,,,
1798.199999988079,,realistic_rating,640114,Abilene,,50,Abilene,US,2,,,,,,,,,,,,,,,
null,,confidence_buffer,640217,confidence_buffer,,null,,,,,,,,,,,,,,,,,,
3271.2000000178814,,pt2_unique_rating,643490,Abilene,,50,,,2,,,,,,,,,,,,,,,
null,,confidence_buffer,643596,confidence_buffer,,null,,,,,,,,,,,,,,,,,,
1540.300000011921,,pt2_memorable_rating,645138,Abilene,,50,,,2,,,,,,,,,,,,,,,
null,,confidence_buffer,645244,confidence_buffer,,null,,,,,,,,,,,,,,,,,,
2275.899999976158,,recognition_phase,647522,Abilene,,49,,,,,,old,1,0.96,,,,,,,,,,
null,,confidence_buffer,647626,confidence_buffer,,null,,,,,,,,,,,,,,,,,,
null,,thebreak,648130,break,,null,,,,,,,,,,,,,,,,,,
3196.699999988079,,realistic_rating,651329,Barnard,,51,Barnard,US,3,,,,,,,,,,,,,,,
null,,confidence_buffer,651433,confidence_buffer,,null,,,,,,,,,,,,,,,,,,
1485.699999988079,,pt2_unique_rating,652920,Barnard,,49,,,1,,,,,,,,,,,,,,,
null,,confidence_buffer,653024,confidence_buffer,,null,,,,,,,,,,,,,,,,,,
2719,,pt2_memorable_rating,655745,Barnard,,52,,,4,,,,,,,,,,,,,,,
null,,confidence_buffer,655850,confidence_buffer,,null,,,,,,,,,,,,,,,,,,
2563.699999988079,,recognition_phase,658415,Barnard,,52,,,,,,new,1,0.9615384615384616,,,,,,,,,,
null,,confidence_buffer,658521,confidence_buffer,,null,,,,,,,,,,,,,,,,,,
null,,thebreak,659023,break,,null,,,,,,,,,,,,,,,,,,
10424.199999988079,,realistic_rating,669448,Sitka,,51,Sitka,US,3,,,,,,,,,,,,,,,
null,,confidence_buffer,669557,confidence_buffer,,null,,,,,,,,,,,,,,,,,,
2873.9000000059605,,pt2_unique_rating,672432,Sitka,,53,,,5,,,,,,,,,,,,,,,
null,,confidence_buffer,672536,confidence_buffer,,null,,,,,,,,,,,,,,,,,,
1942.9000000059605,,pt2_memorable_rating,674480,Sitka,,50,,,2,,,,,,,,,,,,,,,
null,,confidence_buffer,674587,confidence_buffer,,null,,,,,,,,,,,,,,,,,,
1492,,probe_rating,676080,probe_rating,,53,,,,5,1,,,,,,,,,,,,,
null,,confidence_buffer,676187,confidence_buffer,,null,,,,,,,,,,,,,,,,,,
7968.199999988079,,recognition_phase,684157,Sitka,,49,,,,,,old,1,0.9629629629629629,,,,,,,,,,
null,,confidence_buffer,684266,confidence_buffer,,null,,,,,,,,,,,,,,,,,,
null,,thebreak,684771,break,,null,,,,,,,,,,,,,,,,,,
1826,,realistic_rating,686598,Westridge,,53,Westridge,Fictional,5,,,,,,,,,,,,,,,
null,,confidence_buffer,686707,confidence_buffer,,null,,,,,,,,,,,,,,,,,,
3380.399999976158,,pt2_unique_rating,690089,Westridge,,49,,,1,,,,,,,,,,,,,,,
null,,confidence_buffer,690195,confidence_buffer,,null,,,,,,,,,,,,,,,,,,
7372.300000011921,,pt2_memorable_rating,697569,Westridge,,49,,,1,,,,,,,,,,,,,,,
null,,confidence_buffer,697677,confidence_buffer,,null,,,,,,,,,,,,,,,,,,
1921,,recognition_phase,699600,Westridge,,49,,,,,,old,0,0.9285714285714286,,,,,,,,,,
null,,confidence_buffer,699707,confidence_buffer,,null,,,,,,,,,,,,,,,,,,
null,,thebreak,700213,break,,null,,,,,,,,,,,,,,,,,,
12712.40000000596,,realistic_rating,712927,Gardnerville,,53,Gardnerville,US,5,,,,,,,,,,,,,,,
null,,confidence_buffer,713038,confidence_buffer,,null,,,,,,,,,,,,,,,,,,
1798.699999988079,,pt2_unique_rating,714838,Gardnerville,,49,,,1,,,,,,,,,,,,,,,
null,,confidence_buffer,714942,confidence_buffer,,null,,,,,,,,,,,,,,,,,,
1230.4000000059605,,pt2_memorable_rating,716174,Gardnerville,,49,,,1,,,,,,,,,,,,,,,
null,,confidence_buffer,716283,confidence_buffer,,null,,,,,,,,,,,,,,,,,,
1544.5,,recognition_phase,717829,Gardnerville,,52,,,,,,new,1,0.9310344827586207,,,,,,,,,,
null,,confidence_buffer,717937,confidence_buffer,,null,,,,,,,,,,,,,,,,,,
null,,thebreak,718442,break,,null,,,,,,,,,,,,,,,,,,
2115.2999999821186,,realistic_rating,720559,Claywater,,51,Claywater,Fictional,3,,,,,,,,,,,,,,,
null,,confidence_buffer,720662,confidence_buffer,,null,,,,,,,,,,,,,,,,,,
1742.5999999940395,,pt2_unique_rating,722407,Claywater,,49,,,1,,,,,,,,,,,,,,,
null,,confidence_buffer,722510,confidence_buffer,,null,,,,,,,,,,,,,,,,,,
4286.300000011921,,pt2_memorable_rating,726798,Claywater,,49,,,1,,,,,,,,,,,,,,,
null,,confidence_buffer,726906,confidence_buffer,,null,,,,,,,,,,,,,,,,,,
3057.600000023842,,recognition_phase,729966,Claywater,,52,,,,,,new,1,0.9333333333333333,,,,,,,,,,
null,,confidence_buffer,730069,confidence_buffer,,null,,,,,,,,,,,,,,,,,,
null,,thebreak,730581,break,,null,,,,,,,,,,,,,,,,,,
4635.5999999940395,,realistic_rating,735218,Park City,,51,Park City,US,3,,,,,,,,,,,,,,,
null,,confidence_buffer,735323,confidence_buffer,,null,,,,,,,,,,,,,,,,,,
1165.8999999761581,,pt2_unique_rating,736491,Park City,,49,,,1,,,,,,,,,,,,,,,
null,,confidence_buffer,736595,confidence_buffer,,null,,,,,,,,,,,,,,,,,,
2142.800000011921,,pt2_memorable_rating,738739,Park City,,53,,,5,,,,,,,,,,,,,,,
null,,confidence_buffer,738847,confidence_buffer,,null,,,,,,,,,,,,,,,,,,
1528.7000000178814,,recognition_phase,740377,Park City,,52,,,,,,new,1,0.9354838709677419,,,,,,,,,,
null,,confidence_buffer,740484,confidence_buffer,,null,,,,,,,,,,,,,,,,,,
null,,thebreak,740989,break,,null,,,,,,,,,,,,,,,,,,
1860,,realistic_rating,742851,Delaware City,,53,Delaware City,US,5,,,,,,,,,,,,,,,
null,,confidence_buffer,742958,confidence_buffer,,null,,,,,,,,,,,,,,,,,,
1275.5999999940395,,pt2_unique_rating,744235,Delaware City,,49,,,1,,,,,,,,,,,,,,,
null,,confidence_buffer,744339,confidence_buffer,,null,,,,,,,,,,,,,,,,,,
1878.4000000059605,,pt2_memorable_rating,746218,Delaware City,,53,,,5,,,,,,,,,,,,,,,
null,,confidence_buffer,746324,confidence_buffer,,null,,,,,,,,,,,,,,,,,,
1285.5,,recognition_phase,747611,Delaware City,,49,,,,,,old,1,0.9375,,,,,,,,,,
null,,confidence_buffer,747717,confidence_buffer,,null,,,,,,,,,,,,,,,,,,
null,,thebreak,748228,break,,null,,,,,,,,,,,,,,,,,,
3863.7000000178814,,realistic_rating,752094,Brookmere,,52,Brookmere,Fictional,4,,,,,,,,,,,,,,,
null,,confidence_buffer,752205,confidence_buffer,,null,,,,,,,,,,,,,,,,,,
1295.4000000059605,,pt2_unique_rating,753502,Brookmere,,50,,,2,,,,,,,,,,,,,,,
null,,confidence_buffer,753616,confidence_buffer,,null,,,,,,,,,,,,,,,,,,
1748.5999999940395,,pt2_memorable_rating,755366,Brookmere,,51,,,3,,,,,,,,,,,,,,,
null,,confidence_buffer,755479,confidence_buffer,,null,,,,,,,,,,,,,,,,,,
1653,,recognition_phase,757134,Brookmere,,52,,,,,,new,0,0.9090909090909091,,,,,,,,,,
null,,confidence_buffer,757244,confidence_buffer,,null,,,,,,,,,,,,,,,,,,
null,,thebreak,757748,break,,null,,,,,,,,,,,,,,,,,,
1807.5,,realistic_rating,759557,Yukon,,53,Yukon,US,5,,,,,,,,,,,,,,,
null,,confidence_buffer,759667,confidence_buffer,,null,,,,,,,,,,,,,,,,,,
1544.9000000059605,,pt2_unique_rating,761214,Yukon,,51,,,3,,,,,,,,,,,,,,,
null,,confidence_buffer,761325,confidence_buffer,,null,,,,,,,,,,,,,,,,,,
2055.5999999940395,,pt2_memorable_rating,763382,Yukon,,52,,,4,,,,,,,,,,,,,,,
null,,confidence_buffer,763486,confidence_buffer,,null,,,,,,,,,,,,,,,,,,
1086.0999999940395,,probe_rating,764574,probe_rating,,52,,,,4,1,,,,,,,,,,,,,
null,,confidence_buffer,764685,confidence_buffer,,null,,,,,,,,,,,,,,,,,,
2151.600000023842,,recognition_phase,766838,Yukon,,52,,,,,,new,1,0.9117647058823529,,,,,,,,,,
null,,confidence_buffer,766952,confidence_buffer,,null,,,,,,,,,,,,,,,,,,
null,,thebreak,767455,break,,null,,,,,,,,,,,,,,,,,,
1797.5,,realistic_rating,769254,Racine,,51,Racine,US,3,,,,,,,,,,,,,,,
null,,confidence_buffer,769365,confidence_buffer,,null,,,,,,,,,,,,,,,,,,
1824.300000011921,,pt2_unique_rating,771191,Racine,,51,,,3,,,,,,,,,,,,,,,
null,,confidence_buffer,771294,confidence_buffer,,null,,,,,,,,,,,,,,,,,,
1615.0999999940395,,pt2_memorable_rating,772911,Racine,,49,,,1,,,,,,,,,,,,,,,
null,,confidence_buffer,773021,confidence_buffer,,null,,,,,,,,,,,,,,,,,,
1775.300000011921,,recognition_phase,774798,Racine,,49,,,,,,old,1,0.9142857142857143,,,,,,,,,,
null,,confidence_buffer,774901,confidence_buffer,,null,,,,,,,,,,,,,,,,,,
null,,thebreak,775414,break,,null,,,,,,,,,,,,,,,,,,
3226.199999988079,,realistic_rating,778641,Montelake,,52,Montelake,Fictional,4,,,,,,,,,,,,,,,
null,,confidence_buffer,778752,confidence_buffer,,null,,,,,,,,,,,,,,,,,,
1184.4000000059605,,pt2_unique_rating,779937,Montelake,,52,,,4,,,,,,,,,,,,,,,
null,,confidence_buffer,780046,confidence_buffer,,null,,,,,,,,,,,,,,,,,,
1185.8999999761581,,pt2_memorable_rating,781233,Montelake,,52,,,4,,,,,,,,,,,,,,,
null,,confidence_buffer,781341,confidence_buffer,,null,,,,,,,,,,,,,,,,,,
1963.0999999940395,,recognition_phase,783305,Montelake,,49,,,,,,old,1,0.9166666666666666,,,,,,,,,,
null,,confidence_buffer,783415,confidence_buffer,,null,,,,,,,,,,,,,,,,,,
null,,thebreak,783917,break,,null,,,,,,,,,,,,,,,,,,
3091.2000000178814,,realistic_rating,787010,Driftwood Bay,,51,Driftwood Bay,Fictional,3,,,,,,,,,,,,,,,
null,,confidence_buffer,787117,confidence_buffer,,null,,,,,,,,,,,,,,,,,,
5992,,pt2_unique_rating,793110,Driftwood Bay,,49,,,1,,,,,,,,,,,,,,,
null,,confidence_buffer,793216,confidence_buffer,,null,,,,,,,,,,,,,,,,,,
1324.300000011921,,pt2_memorable_rating,794542,Driftwood Bay,,49,,,1,,,,,,,,,,,,,,,
null,,confidence_buffer,794644,confidence_buffer,,null,,,,,,,,,,,,,,,,,,
1432.800000011921,,recognition_phase,796078,Driftwood Bay,,52,,,,,,new,1,0.918918918918919,,,,,,,,,,
null,,confidence_buffer,796179,confidence_buffer,,null,,,,,,,,,,,,,,,,,,
null,,thebreak,796683,break,,null,,,,,,,,,,,,,,,,,,
2410.199999988079,,realistic_rating,799094,Orchard Bend,,51,Orchard Bend,Fictional,3,,,,,,,,,,,,,,,
null,,confidence_buffer,799197,confidence_buffer,,null,,,,,,,,,,,,,,,,,,
1296.2000000178814,,pt2_unique_rating,800494,Orchard Bend,,49,,,1,,,,,,,,,,,,,,,
null,,confidence_buffer,800596,confidence_buffer,,null,,,,,,,,,,,,,,,,,,
1241.0999999940395,,pt2_memorable_rating,801838,Orchard Bend,,49,,,1,,,,,,,,,,,,,,,
null,,confidence_buffer,801945,confidence_buffer,,null,,,,,,,,,,,,,,,,,,
1876.5,,recognition_phase,803822,Orchard Bend,,49,,,,,,old,1,0.9210526315789473,,,,,,,,,,
null,,confidence_buffer,803924,confidence_buffer,,null,,,,,,,,,,,,,,,,,,
null,,thebreak,804427,break,,null,,,,,,,,,,,,,,,,,,
1971.7000000178814,,realistic_rating,806400,Coralridge,,53,Coralridge,Fictional,5,,,,,,,,,,,,,,,
null,,confidence_buffer,806509,confidence_buffer,,null,,,,,,,,,,,,,,,,,,
1273.5,,pt2_unique_rating,807784,Coralridge,,49,,,1,,,,,,,,,,,,,,,
null,,confidence_buffer,807896,confidence_buffer,,null,,,,,,,,,,,,,,,,,,
2006.4000000059605,,pt2_memorable_rating,809905,Coralridge,,51,,,3,,,,,,,,,,,,,,,
null,,confidence_buffer,810015,confidence_buffer,,null,,,,,,,,,,,,,,,,,,
1159.699999988079,,recognition_phase,811176,Coralridge,,49,,,,,,old,1,0.9230769230769231,,,,,,,,,,
null,,confidence_buffer,811284,confidence_buffer,,null,,,,,,,,,,,,,,,,,,
null,,thebreak,811789,break,,null,,,,,,,,,,,,,,,,,,
1841,,realistic_rating,813632,Natchez,,50,Natchez,US,2,,,,,,,,,,,,,,,
null,,confidence_buffer,813740,confidence_buffer,,null,,,,,,,,,,,,,,,,,,
2441.399999976158,,pt2_unique_rating,816183,Natchez,,50,,,2,,,,,,,,,,,,,,,
null,,confidence_buffer,816288,confidence_buffer,,null,,,,,,,,,,,,,,,,,,
1869.7999999821186,,pt2_memorable_rating,818160,Natchez,,49,,,1,,,,,,,,,,,,,,,
null,,confidence_buffer,818274,confidence_buffer,,null,,,,,,,,,,,,,,,,,,
1533,,recognition_phase,819808,Natchez,,52,,,,,,new,1,0.925,,,,,,,,,,
null,,confidence_buffer,819917,confidence_buffer,,null,,,,,,,,,,,,,,,,,,
null,,thebreak,820421,break,,null,,,,,,,,,,,,,,,,,,
1761.4000000059605,,realistic_rating,822184,Granton Ridge,,53,Granton Ridge,Fictional,5,,,,,,,,,,,,,,,
null,,confidence_buffer,822296,confidence_buffer,,null,,,,,,,,,,,,,,,,,,
1382.7999999821186,,probe_rating,823680,probe_rating,,52,,,,4,1,,,,,,,,,,,,,
null,,confidence_buffer,823789,confidence_buffer,,null,,,,,,,,,,,,,,,,,,
1498.5,,pt2_unique_rating,825289,Granton Ridge,,49,,,1,,,,,,,,,,,,,,,
null,,confidence_buffer,825392,confidence_buffer,,null,,,,,,,,,,,,,,,,,,
1927.0999999940395,,pt2_memorable_rating,827321,Granton Ridge,,51,,,3,,,,,,,,,,,,,,,
null,,confidence_buffer,827428,confidence_buffer,,null,,,,,,,,,,,,,,,,,,
1654.5999999940395,,recognition_phase,829085,Granton Ridge,,52,,,,,,new,0,0.9024390243902439,,,,,,,,,,
null,,confidence_buffer,829193,confidence_buffer,,null,,,,,,,,,,,,,,,,,,
null,,thebreak,829704,break,,null,,,,,,,,,,,,,,,,,,
1478.800000011921,,realistic_rating,831185,Baymarsh,,49,Baymarsh,Fictional,1,,,,,,,,,,,,,,,
null,,confidence_buffer,831294,confidence_buffer,,null,,,,,,,,,,,,,,,,,,
1936.8999999761581,,pt2_unique_rating,833233,Baymarsh,,49,,,1,,,,,,,,,,,,,,,
null,,confidence_buffer,833344,confidence_buffer,,null,,,,,,,,,,,,,,,,,,
1134.7999999821186,,pt2_memorable_rating,834480,Baymarsh,,49,,,1,,,,,,,,,,,,,,,
null,,confidence_buffer,834589,confidence_buffer,,null,,,,,,,,,,,,,,,,,,
1010.5,,probe_rating,835601,probe_rating,,51,,,,3,1,,,,,,,,,,,,,
null,,confidence_buffer,835712,confidence_buffer,,null,,,,,,,,,,,,,,,,,,
1854.4000000059605,,recognition_phase,837568,Baymarsh,,49,,,,,,old,1,0.9047619047619048,,,,,,,,,,
null,,confidence_buffer,837680,confidence_buffer,,null,,,,,,,,,,,,,,,,,,
null,,thebreak,838193,break,,null,,,,,,,,,,,,,,,,,,
2134,,realistic_rating,840328,Bowling Green,,53,Bowling Green,US,5,,,,,,,,,,,,,,,
null,,confidence_buffer,840442,confidence_buffer,,null,,,,,,,,,,,,,,,,,,
1565.2000000178814,,pt2_unique_rating,842009,Bowling Green,,49,,,1,,,,,,,,,,,,,,,
null,,confidence_buffer,842121,confidence_buffer,,null,,,,,,,,,,,,,,,,,,
2463.0999999940395,,pt2_memorable_rating,844585,Bowling Green,,53,,,5,,,,,,,,,,,,,,,
null,,confidence_buffer,844689,confidence_buffer,,null,,,,,,,,,,,,,,,,,,
1998.4000000059605,,recognition_phase,846689,Bowling Green,,52,,,,,,new,1,0.9069767441860465,,,,,,,,,,
null,,confidence_buffer,846799,confidence_buffer,,null,,,,,,,,,,,,,,,,,,
null,,thebreak,847304,break,,null,,,,,,,,,,,,,,,,,,
1583.300000011921,,realistic_rating,848889,Hollendale,,50,Hollendale,Fictional,2,,,,,,,,,,,,,,,
null,,confidence_buffer,849000,confidence_buffer,,null,,,,,,,,,,,,,,,,,,
2279.5999999940395,,pt2_unique_rating,851281,Hollendale,,52,,,4,,,,,,,,,,,,,,,
null,,confidence_buffer,851384,confidence_buffer,,null,,,,,,,,,,,,,,,,,,
2575.399999976158,,pt2_memorable_rating,853961,Hollendale,,53,,,5,,,,,,,,,,,,,,,
null,,confidence_buffer,854069,confidence_buffer,,null,,,,,,,,,,,,,,,,,,
1322.7999999821186,,recognition_phase,855394,Hollendale,,52,,,,,,new,1,0.9090909090909091,,,,,,,,,,
null,,confidence_buffer,855503,confidence_buffer,,null,,,,,,,,,,,,,,,,,,
null,,thebreak,856007,break,,null,,,,,,,,,,,,,,,,,,
2608.5999999940395,,realistic_rating,858617,Tamarisk Hills,,49,Tamarisk Hills,Fictional,1,,,,,,,,,,,,,,,
null,,confidence_buffer,858730,confidence_buffer,,null,,,,,,,,,,,,,,,,,,
1236.5,,pt2_unique_rating,859968,Tamarisk Hills,,50,,,2,,,,,,,,,,,,,,,
null,,confidence_buffer,860071,confidence_buffer,,null,,,,,,,,,,,,,,,,,,
808.5,,probe_rating,860881,probe_rating,,50,,,,2,1,,,,,,,,,,,,,
null,,confidence_buffer,860994,confidence_buffer,,null,,,,,,,,,,,,,,,,,,
1373.800000011921,,pt2_memorable_rating,862370,Tamarisk Hills,,49,,,1,,,,,,,,,,,,,,,
null,,confidence_buffer,862480,confidence_buffer,,null,,,,,,,,,,,,,,,,,,
1319,,recognition_phase,863801,Tamarisk Hills,,52,,,,,,new,1,0.9111111111111111,,,,,,,,,,
null,,confidence_buffer,863914,confidence_buffer,,null,,,,,,,,,,,,,,,,,,
null,,thebreak,864425,break,,null,,,,,,,,,,,,,,,,,,
2759.300000011921,,realistic_rating,867186,Riverlyn,,50,Riverlyn,Fictional,2,,,,,,,,,,,,,,,
null,,confidence_buffer,867295,confidence_buffer,,null,,,,,,,,,,,,,,,,,,
1960.5,,pt2_unique_rating,869258,Riverlyn,,50,,,2,,,,,,,,,,,,,,,
null,,confidence_buffer,869366,confidence_buffer,,null,,,,,,,,,,,,,,,,,,
1522.4000000059605,,pt2_memorable_rating,870890,Riverlyn,,50,,,2,,,,,,,,,,,,,,,
null,,confidence_buffer,871002,confidence_buffer,,null,,,,,,,,,,,,,,,,,,
1445.4000000059605,,recognition_phase,872449,Riverlyn,,49,,,,,,old,1,0.9130434782608695,,,,,,,,,,
null,,confidence_buffer,872560,confidence_buffer,,null,,,,,,,,,,,,,,,,,,
null,,thebreak,873064,break,,null,,,,,,,,,,,,,,,,,,
1808.699999988079,,realistic_rating,874874,Shreveport,,53,Shreveport,US,5,,,,,,,,,,,,,,,
null,,confidence_buffer,874984,confidence_buffer,,null,,,,,,,,,,,,,,,,,,
1392.2999999821186,,pt2_unique_rating,876378,Shreveport,,49,,,1,,,,,,,,,,,,,,,
null,,confidence_buffer,876488,confidence_buffer,,null,,,,,,,,,,,,,,,,,,
1664.5999999940395,,pt2_memorable_rating,878154,Shreveport,,52,,,4,,,,,,,,,,,,,,,
null,,confidence_buffer,878264,confidence_buffer,,null,,,,,,,,,,,,,,,,,,
967.6999999880791,,recognition_phase,879234,Shreveport,,52,,,,,,new,1,0.9148936170212766,,,,,,,,,,
null,,confidence_buffer,879345,confidence_buffer,,null,,,,,,,,,,,,,,,,,,
null,,thebreak,879849,break,,null,,,,,,,,,,,,,,,,,,
2095.5,,realistic_rating,881946,Gloucester,,51,Gloucester,US,3,,,,,,,,,,,,,,,
null,,confidence_buffer,882056,confidence_buffer,,null,,,,,,,,,,,,,,,,,,
2007.9000000059605,,pt2_unique_rating,884066,Gloucester,,51,,,3,,,,,,,,,,,,,,,
null,,confidence_buffer,884175,confidence_buffer,,null,,,,,,,,,,,,,,,,,,
3761,,pt2_memorable_rating,887937,Gloucester,,50,,,2,,,,,,,,,,,,,,,
null,,confidence_buffer,888048,confidence_buffer,,null,,,,,,,,,,,,,,,,,,
896,,probe_rating,888946,probe_rating,,49,,,,1,1,,,,,,,,,,,,,
null,,confidence_buffer,889048,confidence_buffer,,null,,,,,,,,,,,,,,,,,,
1663.4000000059605,,recognition_phase,890713,Gloucester,,49,,,,,,old,1,0.9166666666666666,,,,,,,,,,
null,,confidence_buffer,890818,confidence_buffer,,null,,,,,,,,,,,,,,,,,,
null,,thebreak,891330,break,,null,,,,,,,,,,,,,,,,,,
3221.5,,realistic_rating,894553,Lake of the Ozarks,,53,Lake of the Ozarks,US,5,,,,,,,,,,,,,,,
null,,confidence_buffer,894658,confidence_buffer,,null,,,,,,,,,,,,,,,,,,
1230.300000011921,,pt2_unique_rating,895889,Lake of the Ozarks,,50,,,2,,,,,,,,,,,,,,,
null,,confidence_buffer,895996,confidence_buffer,,null,,,,,,,,,,,,,,,,,,
1844.5,,pt2_memorable_rating,897841,Lake of the Ozarks,,52,,,4,,,,,,,,,,,,,,,
null,,confidence_buffer,897943,confidence_buffer,,null,,,,,,,,,,,,,,,,,,
1200.699999988079,,recognition_phase,899145,Lake of the Ozarks,,52,,,,,,new,1,0.9183673469387755,,,,,,,,,,
null,,confidence_buffer,899247,confidence_buffer,,null,,,,,,,,,,,,,,,,,,
null,,thebreak,899755,break,,null,,,,,,,,,,,,,,,,,,
2981.5,,realistic_rating,902737,Golden Trace,,52,Golden Trace,Fictional,4,,,,,,,,,,,,,,,
null,,confidence_buffer,902840,confidence_buffer,,null,,,,,,,,,,,,,,,,,,
1424.1000000238419,,pt2_unique_rating,904265,Golden Trace,,49,,,1,,,,,,,,,,,,,,,
null,,confidence_buffer,904370,confidence_buffer,,null,,,,,,,,,,,,,,,,,,
1214.2000000178814,,pt2_memorable_rating,905585,Golden Trace,,49,,,1,,,,,,,,,,,,,,,
null,,confidence_buffer,905688,confidence_buffer,,null,,,,,,,,,,,,,,,,,,
1520.5999999940395,,recognition_phase,907209,Golden Trace,,52,,,,,,new,0,0.9,,,,,,,,,,
null,,confidence_buffer,907312,confidence_buffer,,null,,,,,,,,,,,,,,,,,,
null,,thebreak,907818,break,,null,,,,,,,,,,,,,,,,,,
4030.5999999940395,,realistic_rating,911850,Cornwall,,49,Cornwall,US,1,,,,,,,,,,,,,,,
null,,confidence_buffer,911954,confidence_buffer,,null,,,,,,,,,,,,,,,,,,
1758.800000011921,,pt2_unique_rating,913714,Cornwall,,51,,,3,,,,,,,,,,,,,,,
null,,confidence_buffer,913816,confidence_buffer,,null,,,,,,,,,,,,,,,,,,
1633,,pt2_memorable_rating,915450,Cornwall,,53,,,5,,,,,,,,,,,,,,,
null,,confidence_buffer,915552,confidence_buffer,,null,,,,,,,,,,,,,,,,,,
1313,,recognition_phase,916866,Cornwall,,52,,,,,,new,1,0.9019607843137255,,,,,,,,,,
null,,confidence_buffer,916977,confidence_buffer,,null,,,,,,,,,,,,,,,,,,
null,,thebreak,917480,break,,null,,,,,,,,,,,,,,,,,,
4300.5999999940395,,realistic_rating,921781,Maplehurst,,52,Maplehurst,Fictional,4,,,,,,,,,,,,,,,
null,,confidence_buffer,921890,confidence_buffer,,null,,,,,,,,,,,,,,,,,,
2017.6000000238419,,pt2_unique_rating,923909,Maplehurst,,49,,,1,,,,,,,,,,,,,,,
null,,confidence_buffer,924020,confidence_buffer,,null,,,,,,,,,,,,,,,,,,
1223.199999988079,,probe_rating,925246,probe_rating,,49,,,,1,1,,,,,,,,,,,,,
null,,confidence_buffer,925355,confidence_buffer,,null,,,,,,,,,,,,,,,,,,
3192.5999999940395,,pt2_memorable_rating,928550,Maplehurst,,50,,,2,,,,,,,,,,,,,,,
null,,confidence_buffer,928659,confidence_buffer,,null,,,,,,,,,,,,,,,,,,
2040.4000000059605,,recognition_phase,930702,Maplehurst,,50,,,,,,old,1,0.9038461538461539,,,,,,,,,,
null,,confidence_buffer,930812,confidence_buffer,,null,,,,,,,,,,,,,,,,,,
null,,thebreak,931323,break,,null,,,,,,,,,,,,,,,,,,
2336.300000011921,,realistic_rating,933661,Peoria,,51,Peoria,US,3,,,,,,,,,,,,,,,
null,,confidence_buffer,933768,confidence_buffer,,null,,,,,,,,,,,,,,,,,,
1676,,pt2_unique_rating,935446,Peoria,,51,,,3,,,,,,,,,,,,,,,
null,,confidence_buffer,935555,confidence_buffer,,null,,,,,,,,,,,,,,,,,,
1216.7000000178814,,pt2_memorable_rating,936774,Peoria,,52,,,4,,,,,,,,,,,,,,,
null,,confidence_buffer,936880,confidence_buffer,,null,,,,,,,,,,,,,,,,,,
1779.5999999940395,,recognition_phase,938661,Peoria,,52,,,,,,new,0,0.8867924528301887,,,,,,,,,,
null,,confidence_buffer,938772,confidence_buffer,,null,,,,,,,,,,,,,,,,,,
null,,thebreak,939282,break,,null,,,,,,,,,,,,,,,,,,
2234.0999999940395,,realistic_rating,941518,Carmel,,50,Carmel,US,2,,,,,,,,,,,,,,,
null,,confidence_buffer,941628,confidence_buffer,,null,,,,,,,,,,,,,,,,,,
1912.800000011921,,pt2_unique_rating,943542,Carmel,,52,,,4,,,,,,,,,,,,,,,
null,,confidence_buffer,943649,confidence_buffer,,null,,,,,,,,,,,,,,,,,,
1636.0999999940395,,pt2_memorable_rating,945286,Carmel,,53,,,5,,,,,,,,,,,,,,,
null,,confidence_buffer,945395,confidence_buffer,,null,,,,,,,,,,,,,,,,,,
1304.800000011921,,recognition_phase,946702,Carmel,,49,,,,,,old,1,0.8888888888888888,,,,,,,,,,
null,,confidence_buffer,946812,confidence_buffer,,null,,,,,,,,,,,,,,,,,,
null,,thebreak,947322,break,,null,,,,,,,,,,,,,,,,,,
2227.100000023842,,realistic_rating,949551,Folly Beach,,51,Folly Beach,US,3,,,,,,,,,,,,,,,
null,,confidence_buffer,949658,confidence_buffer,,null,,,,,,,,,,,,,,,,,,
1210.0999999940395,,pt2_unique_rating,950870,Folly Beach,,49,,,1,,,,,,,,,,,,,,,
null,,confidence_buffer,950980,confidence_buffer,,null,,,,,,,,,,,,,,,,,,
1913.199999988079,,pt2_memorable_rating,952895,Folly Beach,,50,,,2,,,,,,,,,,,,,,,
null,,confidence_buffer,953006,confidence_buffer,,null,,,,,,,,,,,,,,,,,,
1303.199999988079,,recognition_phase,954311,Folly Beach,,52,,,,,,new,1,0.8909090909090909,,,,,,,,,,
null,,confidence_buffer,954420,confidence_buffer,,null,,,,,,,,,,,,,,,,,,
null,,thebreak,954932,break,,null,,,,,,,,,,,,,,,,,,
1608.300000011921,,realistic_rating,956541,Fairhaven,,53,Fairhaven,Fictional,5,,,,,,,,,,,,,,,
null,,confidence_buffer,956649,confidence_buffer,,null,,,,,,,,,,,,,,,,,,
1546.800000011921,,pt2_unique_rating,958197,Fairhaven,,49,,,1,,,,,,,,,,,,,,,
null,,confidence_buffer,958304,confidence_buffer,,null,,,,,,,,,,,,,,,,,,
1459.7999999821186,,pt2_memorable_rating,959765,Fairhaven,,53,,,5,,,,,,,,,,,,,,,
null,,confidence_buffer,959873,confidence_buffer,,null,,,,,,,,,,,,,,,,,,
1387.3999999761581,,recognition_phase,961261,Fairhaven,,52,,,,,,new,1,0.8928571428571429,,,,,,,,,,
null,,confidence_buffer,961370,confidence_buffer,,null,,,,,,,,,,,,,,,,,,
null,,thebreak,961872,break,,null,,,,,,,,,,,,,,,,,,
2187.7999999821186,,realistic_rating,964061,Summershade,,50,Summershade,Fictional,2,,,,,,,,,,,,,,,
null,,confidence_buffer,964169,confidence_buffer,,null,,,,,,,,,,,,,,,,,,
1227,,pt2_unique_rating,965397,Summershade,,49,,,1,,,,,,,,,,,,,,,
null,,confidence_buffer,965505,confidence_buffer,,null,,,,,,,,,,,,,,,,,,
835.1999999880791,,pt2_memorable_rating,966341,Summershade,,49,,,1,,,,,,,,,,,,,,,
null,,confidence_buffer,966451,confidence_buffer,,null,,,,,,,,,,,,,,,,,,
1465.699999988079,,recognition_phase,967917,Summershade,,52,,,,,,new,1,0.8947368421052632,,,,,,,,,,
null,,confidence_buffer,968026,confidence_buffer,,null,,,,,,,,,,,,,,,,,,
null,,thebreak,968529,break,,null,,,,,,,,,,,,,,,,,,
1659.5,,realistic_rating,970190,Clearbrook,,51,Clearbrook,Fictional,3,,,,,,,,,,,,,,,
null,,confidence_buffer,970293,confidence_buffer,,null,,,,,,,,,,,,,,,,,,
1599.0999999940395,,pt2_unique_rating,971893,Clearbrook,,49,,,1,,,,,,,,,,,,,,,
null,,confidence_buffer,972001,confidence_buffer,,null,,,,,,,,,,,,,,,,,,
1627,,pt2_memorable_rating,973630,Clearbrook,,50,,,2,,,,,,,,,,,,,,,
null,,confidence_buffer,973739,confidence_buffer,,null,,,,,,,,,,,,,,,,,,
1281.5999999940395,,recognition_phase,975022,Clearbrook,,52,,,,,,new,1,0.896551724137931,,,,,,,,,,
null,,confidence_buffer,975130,confidence_buffer,,null,,,,,,,,,,,,,,,,,,
null,,thebreak,975634,break,,null,,,,,,,,,,,,,,,,,,
1906.699999988079,,realistic_rating,977542,Sisters,,49,Sisters,US,1,,,,,,,,,,,,,,,
null,,confidence_buffer,977649,confidence_buffer,,null,,,,,,,,,,,,,,,,,,
1988,,pt2_unique_rating,979638,Sisters,,53,,,5,,,,,,,,,,,,,,,
null,,confidence_buffer,979745,confidence_buffer,,null,,,,,,,,,,,,,,,,,,
1300.300000011921,,pt2_memorable_rating,981046,Sisters,,53,,,5,,,,,,,,,,,,,,,
null,,confidence_buffer,981155,confidence_buffer,,null,,,,,,,,,,,,,,,,,,
1138.199999988079,,recognition_phase,982294,Sisters,,52,,,,,,new,1,0.8983050847457628,,,,,,,,,,
null,,confidence_buffer,982402,confidence_buffer,,null,,,,,,,,,,,,,,,,,,
null,,thebreak,982904,break,,null,,,,,,,,,,,,,,,,,,
2836.4000000059605,,realistic_rating,985742,Coeur d'Alene,,51,Coeur d'Alene,US,3,,,,,,,,,,,,,,,
null,,confidence_buffer,985854,confidence_buffer,,null,,,,,,,,,,,,,,,,,,
1352.4000000059605,,pt2_unique_rating,987207,Coeur d'Alene,,50,,,2,,,,,,,,,,,,,,,
null,,confidence_buffer,987314,confidence_buffer,,null,,,,,,,,,,,,,,,,,,
1459.0999999940395,,pt2_memorable_rating,988775,Coeur d'Alene,,50,,,2,,,,,,,,,,,,,,,
null,,confidence_buffer,988882,confidence_buffer,,null,,,,,,,,,,,,,,,,,,
1212.0999999940395,,recognition_phase,990095,Coeur d'Alene,,49,,,,,,old,1,0.9,,,,,,,,,,
null,,confidence_buffer,990205,confidence_buffer,,null,,,,,,,,,,,,,,,,,,
null,,thebreak,990710,break,,null,,,,,,,,,,,,,,,,,,
,,survey,1117152,survey-questions,,,,,,,,,,,none,high,no i did the study with my full focus and attention,i did not use any strategies,picturing a globe,would i remember it tomorrow,if it was easy to pronounce, it it had port, hollow, ridge, run, brook, wood, i did not think it was unique and very common,picturing a globe,no,no
