rt,responses,trial_type,time_elapsed,stimulus,button_pressed,key_press,name_trial,city_type,rating,probe,probe_accuracy,response,correct,accuracy,problems,smooth,distraction,strategies,familiar,memorable,unique,realistic,similar,comments
3669.5,{worker_id:66ee44d2ec6ab9e0c8da3922},id_enter,3671,,,,,,,,,,,,,,,,,,,,,
6075.300000011921,,fullscreen,9758,fullscreen,0,,,,,,,,,,,,,,,,,,,
7207,,intro_0,16977,instruct,,32,,,,,,,,,,,,,,,,,,
4692.400000035763,,intro_1,21672,instruct,,32,,,,,,,,,,,,,,,,,,
5589.900000035763,,intro_2,27263,instruct,,32,,,,,,,,,,,,,,,,,,
null,,instruct_dir_4,28779,instruct,,null,,,,,,,,,,,,,,,,,,
null,,thebreak,29290,break,,null,,,,,,,,,,,,,,,,,,
5765.100000023842,,familiar_rating,35056,Yukon,,50,Yukon,US,2,,,,,,,,,,,,,,,
null,,confidence_buffer,35159,confidence_buffer,,null,,,,,,,,,,,,,,,,,,
3367.699999988079,,unique_rating,38527,Yukon,,51,,,3,,,,,,,,,,,,,,,
null,,confidence_buffer,38629,confidence_buffer,,null,,,,,,,,,,,,,,,,,,
2049.399999976158,,memorable_rating,40680,Yukon,,52,,,4,,,,,,,,,,,,,,,
null,,confidence_buffer,40782,confidence_buffer,,null,,,,,,,,,,,,,,,,,,
null,,thebreak,41284,break,,null,,,,,,,,,,,,,,,,,,
1731.7999999523163,,familiar_rating,43016,Lakehaven,,49,Lakehaven,Fictional,1,,,,,,,,,,,,,,,
null,,confidence_buffer,43118,confidence_buffer,,null,,,,,,,,,,,,,,,,,,
4648.5,,unique_rating,47768,Lakehaven,,52,,,4,,,,,,,,,,,,,,,
null,,confidence_buffer,47869,confidence_buffer,,null,,,,,,,,,,,,,,,,,,
2249.7999999523163,,memorable_rating,50120,Lakehaven,,50,,,2,,,,,,,,,,,,,,,
null,,confidence_buffer,50222,confidence_buffer,,null,,,,,,,,,,,,,,,,,,
null,,thebreak,50724,break,,null,,,,,,,,,,,,,,,,,,
1987.0999999642372,,familiar_rating,52712,Coeur d'Alene,,49,Coeur d'Alene,US,1,,,,,,,,,,,,,,,
null,,confidence_buffer,52815,confidence_buffer,,null,,,,,,,,,,,,,,,,,,
1720.9000000357628,,unique_rating,54537,Coeur d'Alene,,53,,,5,,,,,,,,,,,,,,,
null,,confidence_buffer,54638,confidence_buffer,,null,,,,,,,,,,,,,,,,,,
793.8000000119209,,memorable_rating,55432,Coeur d'Alene,,49,,,1,,,,,,,,,,,,,,,
null,,confidence_buffer,55534,confidence_buffer,,null,,,,,,,,,,,,,,,,,,
null,,thebreak,56036,break,,null,,,,,,,,,,,,,,,,,,
2771.400000035763,,familiar_rating,58808,New Verdan,,49,New Verdan,Fictional,1,,,,,,,,,,,,,,,
null,,confidence_buffer,58909,confidence_buffer,,null,,,,,,,,,,,,,,,,,,
2409.599999964237,,unique_rating,61320,New Verdan,,50,,,2,,,,,,,,,,,,,,,
null,,confidence_buffer,61422,confidence_buffer,,null,,,,,,,,,,,,,,,,,,
1433.7999999523163,,memorable_rating,62857,New Verdan,,50,,,2,,,,,,,,,,,,,,,
null,,confidence_buffer,62958,confidence_buffer,,null,,,,,,,,,,,,,,,,,,
null,,thebreak,63460,break,,null,,,,,,,,,,,,,,,,,,
2572,,familiar_rating,66032,Bar Harbor,,49,Bar Harbor,US,1,,,,,,,,,,,,,,,
null,,confidence_buffer,66134,confidence_buffer,,null,,,,,,,,,,,,,,,,,,
2560.699999988079,,unique_rating,68696,Bar Harbor,,51,,,3,,,,,,,,,,,,,,,
null,,confidence_buffer,68798,confidence_buffer,,null,,,,,,,,,,,,,,,,,,
1863.5,,memorable_rating,70662,Bar Harbor,,51,,,3,,,,,,,,,,,,,,,
null,,confidence_buffer,70764,confidence_buffer,,null,,,,,,,,,,,,,,,,,,
null,,thebreak,71266,break,,null,,,,,,,,,,,,,,,,,,
1652.4000000357628,,familiar_rating,72920,Lake of the Ozarks,,49,Lake of the Ozarks,US,1,,,,,,,,,,,,,,,
null,,confidence_buffer,73022,confidence_buffer,,null,,,,,,,,,,,,,,,,,,
1609,,unique_rating,74633,Lake of the Ozarks,,52,,,4,,,,,,,,,,,,,,,
null,,confidence_buffer,74736,confidence_buffer,,null,,,,,,,,,,,,,,,,,,
2902.399999976158,,memorable_rating,77640,Lake of the Ozarks,,52,,,4,,,,,,,,,,,,,,,
null,,confidence_buffer,77743,confidence_buffer,,null,,,,,,,,,,,,,,,,,,
1526.5999999642372,,probe_rating,79272,probe_rating,,51,,,,3,1,,,,,,,,,,,,,
null,,confidence_buffer,79374,confidence_buffer,,null,,,,,,,,,,,,,,,,,,
null,,thebreak,79877,break,,null,,,,,,,,,,,,,,,,,,
2298.699999988079,,familiar_rating,82177,Sitka,,50,Sitka,US,2,,,,,,,,,,,,,,,
null,,confidence_buffer,82279,confidence_buffer,,null,,,,,,,,,,,,,,,,,,
1525.699999988079,,unique_rating,83806,Sitka,,51,,,3,,,,,,,,,,,,,,,
null,,confidence_buffer,83906,confidence_buffer,,null,,,,,,,,,,,,,,,,,,
2698.600000023842,,memorable_rating,86605,Sitka,,51,,,3,,,,,,,,,,,,,,,
null,,confidence_buffer,86706,confidence_buffer,,null,,,,,,,,,,,,,,,,,,
null,,thebreak,87207,break,,null,,,,,,,,,,,,,,,,,,
1408.2999999523163,,familiar_rating,88616,Claywater,,49,Claywater,Fictional,1,,,,,,,,,,,,,,,
null,,confidence_buffer,88716,confidence_buffer,,null,,,,,,,,,,,,,,,,,,
914.5,,unique_rating,89631,Claywater,,52,,,4,,,,,,,,,,,,,,,
null,,confidence_buffer,89733,confidence_buffer,,null,,,,,,,,,,,,,,,,,,
2050.2000000476837,,memorable_rating,91784,Claywater,,50,,,2,,,,,,,,,,,,,,,
null,,confidence_buffer,91886,confidence_buffer,,null,,,,,,,,,,,,,,,,,,
null,,thebreak,92388,break,,null,,,,,,,,,,,,,,,,,,
1722.3999999761581,,familiar_rating,94112,Hollendale,,50,Hollendale,Fictional,2,,,,,,,,,,,,,,,
null,,confidence_buffer,94214,confidence_buffer,,null,,,,,,,,,,,,,,,,,,
680.5,,unique_rating,94896,Hollendale,,51,,,3,,,,,,,,,,,,,,,
null,,confidence_buffer,94998,confidence_buffer,,null,,,,,,,,,,,,,,,,,,
2106.300000011921,,memorable_rating,97106,Hollendale,,50,,,2,,,,,,,,,,,,,,,
null,,confidence_buffer,97207,confidence_buffer,,null,,,,,,,,,,,,,,,,,,
null,,thebreak,97708,break,,null,,,,,,,,,,,,,,,,,,
3762.899999976158,,familiar_rating,101473,Highvale,,49,Highvale,Fictional,1,,,,,,,,,,,,,,,
null,,confidence_buffer,101575,confidence_buffer,,null,,,,,,,,,,,,,,,,,,
1202.800000011921,,unique_rating,102778,Highvale,,50,,,2,,,,,,,,,,,,,,,
null,,confidence_buffer,102880,confidence_buffer,,null,,,,,,,,,,,,,,,,,,
796.1999999880791,,memorable_rating,103677,Highvale,,50,,,2,,,,,,,,,,,,,,,
null,,confidence_buffer,103778,confidence_buffer,,null,,,,,,,,,,,,,,,,,,
null,,thebreak,104280,break,,null,,,,,,,,,,,,,,,,,,
1222.5,,familiar_rating,105504,Natchez,,49,Natchez,US,1,,,,,,,,,,,,,,,
null,,confidence_buffer,105607,confidence_buffer,,null,,,,,,,,,,,,,,,,,,
2032.5,,unique_rating,107640,Natchez,,50,,,2,,,,,,,,,,,,,,,
null,,confidence_buffer,107742,confidence_buffer,,null,,,,,,,,,,,,,,,,,,
656.6000000238419,,memorable_rating,108400,Natchez,,49,,,1,,,,,,,,,,,,,,,
null,,confidence_buffer,108502,confidence_buffer,,null,,,,,,,,,,,,,,,,,,
1568.699999988079,,probe_rating,110072,probe_rating,,53,,,,5,1,,,,,,,,,,,,,
null,,confidence_buffer,110174,confidence_buffer,,null,,,,,,,,,,,,,,,,,,
null,,thebreak,110676,break,,null,,,,,,,,,,,,,,,,,,
2659,,familiar_rating,113336,Hawthorne Bluffs,,49,Hawthorne Bluffs,Fictional,1,,,,,,,,,,,,,,,
null,,confidence_buffer,113437,confidence_buffer,,null,,,,,,,,,,,,,,,,,,
1729.8999999761581,,probe_rating,115168,probe_rating,,53,,,,5,1,,,,,,,,,,,,,
null,,confidence_buffer,115270,confidence_buffer,,null,,,,,,,,,,,,,,,,,,
3400.2999999523163,,unique_rating,118672,Hawthorne Bluffs,,51,,,3,,,,,,,,,,,,,,,
null,,confidence_buffer,118773,confidence_buffer,,null,,,,,,,,,,,,,,,,,,
1425.2000000476837,,memorable_rating,120199,Hawthorne Bluffs,,50,,,2,,,,,,,,,,,,,,,
null,,confidence_buffer,120301,confidence_buffer,,null,,,,,,,,,,,,,,,,,,
null,,thebreak,120803,break,,null,,,,,,,,,,,,,,,,,,
6356.800000011921,,familiar_rating,127161,New Hope,,49,New Hope,US,1,,,,,,,,,,,,,,,
null,,confidence_buffer,127263,confidence_buffer,,null,,,,,,,,,,,,,,,,,,
2144.099999964237,,unique_rating,129408,New Hope,,50,,,2,,,,,,,,,,,,,,,
null,,confidence_buffer,129511,confidence_buffer,,null,,,,,,,,,,,,,,,,,,
1169.0999999642372,,probe_rating,130681,probe_rating,,53,,,,5,1,,,,,,,,,,,,,
null,,confidence_buffer,130783,confidence_buffer,,null,,,,,,,,,,,,,,,,,,
4568.800000011921,,memorable_rating,135353,New Hope,,49,,,1,,,,,,,,,,,,,,,
null,,confidence_buffer,135455,confidence_buffer,,null,,,,,,,,,,,,,,,,,,
null,,thebreak,135955,break,,null,,,,,,,,,,,,,,,,,,
1267,,familiar_rating,137223,Falconridge,,49,Falconridge,Fictional,1,,,,,,,,,,,,,,,
null,,confidence_buffer,137324,confidence_buffer,,null,,,,,,,,,,,,,,,,,,
2859.199999988079,,unique_rating,140185,Falconridge,,50,,,2,,,,,,,,,,,,,,,
null,,confidence_buffer,140286,confidence_buffer,,null,,,,,,,,,,,,,,,,,,
1688.5,,memorable_rating,141976,Falconridge,,50,,,2,,,,,,,,,,,,,,,
null,,confidence_buffer,142078,confidence_buffer,,null,,,,,,,,,,,,,,,,,,
null,,thebreak,142580,break,,null,,,,,,,,,,,,,,,,,,
1361.699999988079,,familiar_rating,143942,Brookmere,,49,Brookmere,Fictional,1,,,,,,,,,,,,,,,
null,,confidence_buffer,144044,confidence_buffer,,null,,,,,,,,,,,,,,,,,,
2033.2999999523163,,unique_rating,146078,Brookmere,,51,,,3,,,,,,,,,,,,,,,
null,,confidence_buffer,146179,confidence_buffer,,null,,,,,,,,,,,,,,,,,,
827.3000000119209,,probe_rating,147006,probe_rating,,49,,,,1,1,,,,,,,,,,,,,
null,,confidence_buffer,147108,confidence_buffer,,null,,,,,,,,,,,,,,,,,,
4243.699999988079,,memorable_rating,151352,Brookmere,,50,,,2,,,,,,,,,,,,,,,
null,,confidence_buffer,151454,confidence_buffer,,null,,,,,,,,,,,,,,,,,,
null,,thebreak,151956,break,,null,,,,,,,,,,,,,,,,,,
4331.599999964237,,familiar_rating,156288,Gardnerville,,49,Gardnerville,US,1,,,,,,,,,,,,,,,
null,,confidence_buffer,156389,confidence_buffer,,null,,,,,,,,,,,,,,,,,,
1121.3999999761581,,unique_rating,157512,Gardnerville,,49,,,1,,,,,,,,,,,,,,,
null,,confidence_buffer,157615,confidence_buffer,,null,,,,,,,,,,,,,,,,,,
1048.0999999642372,,memorable_rating,158664,Gardnerville,,49,,,1,,,,,,,,,,,,,,,
null,,confidence_buffer,158765,confidence_buffer,,null,,,,,,,,,,,,,,,,,,
null,,thebreak,159267,break,,null,,,,,,,,,,,,,,,,,,
2147.699999988079,,familiar_rating,161416,Delaro Park,,49,Delaro Park,Fictional,1,,,,,,,,,,,,,,,
null,,confidence_buffer,161517,confidence_buffer,,null,,,,,,,,,,,,,,,,,,
2058,,unique_rating,163576,Delaro Park,,50,,,2,,,,,,,,,,,,,,,
null,,confidence_buffer,163677,confidence_buffer,,null,,,,,,,,,,,,,,,,,,
2354.599999964237,,memorable_rating,166032,Delaro Park,,50,,,2,,,,,,,,,,,,,,,
null,,confidence_buffer,166134,confidence_buffer,,null,,,,,,,,,,,,,,,,,,
null,,thebreak,166636,break,,null,,,,,,,,,,,,,,,,,,
1505.5999999642372,,familiar_rating,168142,Linden Trace,,49,Linden Trace,Fictional,1,,,,,,,,,,,,,,,
null,,confidence_buffer,168244,confidence_buffer,,null,,,,,,,,,,,,,,,,,,
1842.3999999761581,,unique_rating,170087,Linden Trace,,51,,,3,,,,,,,,,,,,,,,
null,,confidence_buffer,170189,confidence_buffer,,null,,,,,,,,,,,,,,,,,,
1866.800000011921,,memorable_rating,172057,Linden Trace,,51,,,3,,,,,,,,,,,,,,,
null,,confidence_buffer,172158,confidence_buffer,,null,,,,,,,,,,,,,,,,,,
null,,thebreak,172659,break,,null,,,,,,,,,,,,,,,,,,
2467.599999964237,,familiar_rating,175127,Westridge,,51,Westridge,Fictional,3,,,,,,,,,,,,,,,
null,,confidence_buffer,175229,confidence_buffer,,null,,,,,,,,,,,,,,,,,,
2521.199999988079,,unique_rating,177751,Westridge,,49,,,1,,,,,,,,,,,,,,,
null,,confidence_buffer,177852,confidence_buffer,,null,,,,,,,,,,,,,,,,,,
1682,,memorable_rating,179535,Westridge,,52,,,4,,,,,,,,,,,,,,,
null,,confidence_buffer,179637,confidence_buffer,,null,,,,,,,,,,,,,,,,,,
null,,thebreak,180139,break,,null,,,,,,,,,,,,,,,,,,
1803.199999988079,,familiar_rating,181943,North Arroya,,49,North Arroya,Fictional,1,,,,,,,,,,,,,,,
null,,confidence_buffer,182044,confidence_buffer,,null,,,,,,,,,,,,,,,,,,
2298,,unique_rating,184343,North Arroya,,51,,,3,,,,,,,,,,,,,,,
null,,confidence_buffer,184446,confidence_buffer,,null,,,,,,,,,,,,,,,,,,
1904.300000011921,,memorable_rating,186351,North Arroya,,50,,,2,,,,,,,,,,,,,,,
null,,confidence_buffer,186454,confidence_buffer,,null,,,,,,,,,,,,,,,,,,
null,,thebreak,186956,break,,null,,,,,,,,,,,,,,,,,,
2466.600000023842,,familiar_rating,189423,Millstone,,50,Millstone,Fictional,2,,,,,,,,,,,,,,,
null,,confidence_buffer,189526,confidence_buffer,,null,,,,,,,,,,,,,,,,,,
4121.199999988079,,unique_rating,193648,Millstone,,49,,,1,,,,,,,,,,,,,,,
null,,confidence_buffer,193749,confidence_buffer,,null,,,,,,,,,,,,,,,,,,
1970.6000000238419,,memorable_rating,195720,Millstone,,51,,,3,,,,,,,,,,,,,,,
null,,confidence_buffer,195822,confidence_buffer,,null,,,,,,,,,,,,,,,,,,
null,,thebreak,196324,break,,null,,,,,,,,,,,,,,,,,,
2947.099999964237,,familiar_rating,199272,Elmsbury,,50,Elmsbury,Fictional,2,,,,,,,,,,,,,,,
null,,confidence_buffer,199374,confidence_buffer,,null,,,,,,,,,,,,,,,,,,
2937.7999999523163,,unique_rating,202313,Elmsbury,,49,,,1,,,,,,,,,,,,,,,
null,,confidence_buffer,202416,confidence_buffer,,null,,,,,,,,,,,,,,,,,,
1109.300000011921,,memorable_rating,203526,Elmsbury,,49,,,1,,,,,,,,,,,,,,,
null,,confidence_buffer,203626,confidence_buffer,,null,,,,,,,,,,,,,,,,,,
null,,thebreak,204127,break,,null,,,,,,,,,,,,,,,,,,
2270.7000000476837,,familiar_rating,206398,Peoria,,49,Peoria,US,1,,,,,,,,,,,,,,,
null,,confidence_buffer,206500,confidence_buffer,,null,,,,,,,,,,,,,,,,,,
1353.6000000238419,,unique_rating,207854,Peoria,,53,,,5,,,,,,,,,,,,,,,
null,,confidence_buffer,207955,confidence_buffer,,null,,,,,,,,,,,,,,,,,,
2067.599999964237,,memorable_rating,210023,Peoria,,51,,,3,,,,,,,,,,,,,,,
null,,confidence_buffer,210138,confidence_buffer,,null,,,,,,,,,,,,,,,,,,
null,,thebreak,210639,break,,null,,,,,,,,,,,,,,,,,,
2247.300000011921,,familiar_rating,212888,West Talora,,49,West Talora,Fictional,1,,,,,,,,,,,,,,,
null,,confidence_buffer,212989,confidence_buffer,,null,,,,,,,,,,,,,,,,,,
1594.3999999761581,,unique_rating,214584,West Talora,,51,,,3,,,,,,,,,,,,,,,
null,,confidence_buffer,214685,confidence_buffer,,null,,,,,,,,,,,,,,,,,,
1057.0999999642372,,memorable_rating,215744,West Talora,,51,,,3,,,,,,,,,,,,,,,
null,,confidence_buffer,215856,confidence_buffer,,null,,,,,,,,,,,,,,,,,,
null,,thebreak,216357,break,,null,,,,,,,,,,,,,,,,,,
2299.100000023842,,familiar_rating,218657,Healdsburg,,49,Healdsburg,US,1,,,,,,,,,,,,,,,
null,,confidence_buffer,218759,confidence_buffer,,null,,,,,,,,,,,,,,,,,,
1016.1000000238419,,unique_rating,219777,Healdsburg,,51,,,3,,,,,,,,,,,,,,,
null,,confidence_buffer,219879,confidence_buffer,,null,,,,,,,,,,,,,,,,,,
1751.800000011921,,memorable_rating,221631,Healdsburg,,50,,,2,,,,,,,,,,,,,,,
null,,confidence_buffer,221733,confidence_buffer,,null,,,,,,,,,,,,,,,,,,
null,,thebreak,222235,break,,null,,,,,,,,,,,,,,,,,,
1947.699999988079,,familiar_rating,224183,Carmel,,51,Carmel,US,3,,,,,,,,,,,,,,,
null,,confidence_buffer,224285,confidence_buffer,,null,,,,,,,,,,,,,,,,,,
1657.199999988079,,unique_rating,225943,Carmel,,50,,,2,,,,,,,,,,,,,,,
null,,confidence_buffer,226046,confidence_buffer,,null,,,,,,,,,,,,,,,,,,
1825.5,,memorable_rating,227872,Carmel,,51,,,3,,,,,,,,,,,,,,,
null,,confidence_buffer,227974,confidence_buffer,,null,,,,,,,,,,,,,,,,,,
null,,thebreak,228476,break,,null,,,,,,,,,,,,,,,,,,
1330.9000000357628,,familiar_rating,229808,Custer,,49,Custer,US,1,,,,,,,,,,,,,,,
null,,confidence_buffer,229909,confidence_buffer,,null,,,,,,,,,,,,,,,,,,
2753.199999988079,,unique_rating,232664,Custer,,50,,,2,,,,,,,,,,,,,,,
null,,confidence_buffer,232765,confidence_buffer,,null,,,,,,,,,,,,,,,,,,
1696.8999999761581,,memorable_rating,234463,Custer,,50,,,2,,,,,,,,,,,,,,,
null,,confidence_buffer,234565,confidence_buffer,,null,,,,,,,,,,,,,,,,,,
null,,thebreak,235067,break,,null,,,,,,,,,,,,,,,,,,
2275.899999976158,,familiar_rating,237343,Athens,,52,Athens,US,4,,,,,,,,,,,,,,,
null,,confidence_buffer,237446,confidence_buffer,,null,,,,,,,,,,,,,,,,,,
1784.7999999523163,,unique_rating,239232,Athens,,53,,,5,,,,,,,,,,,,,,,
null,,confidence_buffer,239333,confidence_buffer,,null,,,,,,,,,,,,,,,,,,
1481.800000011921,,memorable_rating,240816,Athens,,52,,,4,,,,,,,,,,,,,,,
null,,confidence_buffer,240918,confidence_buffer,,null,,,,,,,,,,,,,,,,,,
1600.199999988079,,probe_rating,242519,probe_rating,,50,,,,2,1,,,,,,,,,,,,,
null,,confidence_buffer,242620,confidence_buffer,,null,,,,,,,,,,,,,,,,,,
null,,thebreak,243122,break,,null,,,,,,,,,,,,,,,,,,
1501.800000011921,,familiar_rating,244624,Berkeley Springs,,49,Berkeley Springs,US,1,,,,,,,,,,,,,,,
null,,confidence_buffer,244727,confidence_buffer,,null,,,,,,,,,,,,,,,,,,
1416.300000011921,,unique_rating,246144,Berkeley Springs,,51,,,3,,,,,,,,,,,,,,,
null,,confidence_buffer,246246,confidence_buffer,,null,,,,,,,,,,,,,,,,,,
832.6000000238419,,memorable_rating,247079,Berkeley Springs,,50,,,2,,,,,,,,,,,,,,,
null,,confidence_buffer,247180,confidence_buffer,,null,,,,,,,,,,,,,,,,,,
null,,thebreak,247682,break,,null,,,,,,,,,,,,,,,,,,
2036.6000000238419,,familiar_rating,249719,Livingston,,51,Livingston,US,3,,,,,,,,,,,,,,,
null,,confidence_buffer,249821,confidence_buffer,,null,,,,,,,,,,,,,,,,,,
1001.1000000238419,,unique_rating,250824,Livingston,,50,,,2,,,,,,,,,,,,,,,
null,,confidence_buffer,250926,confidence_buffer,,null,,,,,,,,,,,,,,,,,,
1240.2000000476837,,memorable_rating,252167,Livingston,,51,,,3,,,,,,,,,,,,,,,
null,,confidence_buffer,252270,confidence_buffer,,null,,,,,,,,,,,,,,,,,,
null,,thebreak,252771,break,,null,,,,,,,,,,,,,,,,,,
5418.799999952316,,intro_0,258191,instruct,,32,,,,,,,,,,,,,,,,,,
6367.600000023842,,intro_1,264560,instruct,,32,,,,,,,,,,,,,,,,,,
8719,,intro_2,273279,instruct,,32,,,,,,,,,,,,,,,,,,
null,,instruct_dir_4,274781,instruct,,null,,,,,,,,,,,,,,,,,,
9751.699999988079,,realistic_rating,284534,Bisbee,,51,Bisbee,US,3,,,,,,,,,,,,,,,
null,,confidence_buffer,284635,confidence_buffer,,null,,,,,,,,,,,,,,,,,,
1187.6000000238419,,pt2_unique_rating,285824,Bisbee,,51,,,3,,,,,,,,,,,,,,,
null,,confidence_buffer,285925,confidence_buffer,,null,,,,,,,,,,,,,,,,,,
1721.1000000238419,,pt2_memorable_rating,287648,Bisbee,,50,,,2,,,,,,,,,,,,,,,
null,,confidence_buffer,287749,confidence_buffer,,null,,,,,,,,,,,,,,,,,,
4160.699999988079,,recognition_phase,291911,Bisbee,,52,,,,,,new,1,1,,,,,,,,,,
null,,confidence_buffer,292014,confidence_buffer,,null,,,,,,,,,,,,,,,,,,
null,,thebreak,292515,break,,null,,,,,,,,,,,,,,,,,,
3804,,realistic_rating,296321,Ashford Hills,,50,Ashford Hills,Fictional,2,,,,,,,,,,,,,,,
null,,confidence_buffer,296423,confidence_buffer,,null,,,,,,,,,,,,,,,,,,
1295.8999999761581,,pt2_unique_rating,297720,Ashford Hills,,50,,,2,,,,,,,,,,,,,,,
null,,confidence_buffer,297821,confidence_buffer,,null,,,,,,,,,,,,,,,,,,
2761.699999988079,,pt2_memorable_rating,300584,Ashford Hills,,50,,,2,,,,,,,,,,,,,,,
null,,confidence_buffer,300686,confidence_buffer,,null,,,,,,,,,,,,,,,,,,
1696.199999988079,,recognition_phase,302382,Ashford Hills,,52,,,,,,new,1,1,,,,,,,,,,
null,,confidence_buffer,302483,confidence_buffer,,null,,,,,,,,,,,,,,,,,,
null,,thebreak,302985,break,,null,,,,,,,,,,,,,,,,,,
3916.899999976158,,realistic_rating,306904,Medora,,52,Medora,US,4,,,,,,,,,,,,,,,
null,,confidence_buffer,307005,confidence_buffer,,null,,,,,,,,,,,,,,,,,,
1608.8999999761581,,probe_rating,308615,probe_rating,,50,,,,2,1,,,,,,,,,,,,,
null,,confidence_buffer,308729,confidence_buffer,,null,,,,,,,,,,,,,,,,,,
2526.2000000476837,,pt2_unique_rating,311256,Medora,,52,,,4,,,,,,,,,,,,,,,
null,,confidence_buffer,311358,confidence_buffer,,null,,,,,,,,,,,,,,,,,,
2063.800000011921,,pt2_memorable_rating,313423,Medora,,52,,,4,,,,,,,,,,,,,,,
null,,confidence_buffer,313524,confidence_buffer,,null,,,,,,,,,,,,,,,,,,
1345.9000000357628,,recognition_phase,314871,Medora,,52,,,,,,new,1,1,,,,,,,,,,
null,,confidence_buffer,314972,confidence_buffer,,null,,,,,,,,,,,,,,,,,,
null,,thebreak,315473,break,,null,,,,,,,,,,,,,,,,,,
4557.099999964237,,realistic_rating,320031,New Hope,,51,New Hope,US,3,,,,,,,,,,,,,,,
null,,confidence_buffer,320134,confidence_buffer,,null,,,,,,,,,,,,,,,,,,
1552.6000000238419,,pt2_unique_rating,321687,New Hope,,50,,,2,,,,,,,,,,,,,,,
null,,confidence_buffer,321788,confidence_buffer,,null,,,,,,,,,,,,,,,,,,
1712.199999988079,,probe_rating,323501,probe_rating,,49,,,,1,1,,,,,,,,,,,,,
null,,confidence_buffer,323603,confidence_buffer,,null,,,,,,,,,,,,,,,,,,
2395.099999964237,,pt2_memorable_rating,325998,New Hope,,50,,,2,,,,,,,,,,,,,,,
null,,confidence_buffer,326099,confidence_buffer,,null,,,,,,,,,,,,,,,,,,
1426.4000000357628,,recognition_phase,327526,New Hope,,49,,,,,,old,1,1,,,,,,,,,,
null,,confidence_buffer,327626,confidence_buffer,,null,,,,,,,,,,,,,,,,,,
null,,thebreak,328128,break,,null,,,,,,,,,,,,,,,,,,
3247,,realistic_rating,331376,Livingston,,52,Livingston,US,4,,,,,,,,,,,,,,,
null,,confidence_buffer,331477,confidence_buffer,,null,,,,,,,,,,,,,,,,,,
1977.699999988079,,pt2_unique_rating,333456,Livingston,,49,,,1,,,,,,,,,,,,,,,
null,,confidence_buffer,333557,confidence_buffer,,null,,,,,,,,,,,,,,,,,,
1602,,pt2_memorable_rating,335160,Livingston,,51,,,3,,,,,,,,,,,,,,,
null,,confidence_buffer,335262,confidence_buffer,,null,,,,,,,,,,,,,,,,,,
1472.6000000238419,,recognition_phase,336736,Livingston,,49,,,,,,old,1,1,,,,,,,,,,
null,,confidence_buffer,336839,confidence_buffer,,null,,,,,,,,,,,,,,,,,,
null,,thebreak,337340,break,,null,,,,,,,,,,,,,,,,,,
2804.400000035763,,realistic_rating,340146,Natchez,,51,Natchez,US,3,,,,,,,,,,,,,,,
null,,confidence_buffer,340248,confidence_buffer,,null,,,,,,,,,,,,,,,,,,
1143.0999999642372,,pt2_unique_rating,341392,Natchez,,50,,,2,,,,,,,,,,,,,,,
null,,confidence_buffer,341494,confidence_buffer,,null,,,,,,,,,,,,,,,,,,
1355,,pt2_memorable_rating,342850,Natchez,,51,,,3,,,,,,,,,,,,,,,
null,,confidence_buffer,342952,confidence_buffer,,null,,,,,,,,,,,,,,,,,,
1518.1000000238419,,probe_rating,344471,probe_rating,,51,,,,3,1,,,,,,,,,,,,,
null,,confidence_buffer,344572,confidence_buffer,,null,,,,,,,,,,,,,,,,,,
1738.300000011921,,recognition_phase,346312,Natchez,,52,,,,,,new,0,0.8333333333333334,,,,,,,,,,
null,,confidence_buffer,346413,confidence_buffer,,null,,,,,,,,,,,,,,,,,,
null,,thebreak,346914,break,,null,,,,,,,,,,,,,,,,,,
4251.400000035763,,realistic_rating,351167,Stonebrook,,52,Stonebrook,Fictional,4,,,,,,,,,,,,,,,
null,,confidence_buffer,351269,confidence_buffer,,null,,,,,,,,,,,,,,,,,,
1500,,pt2_unique_rating,352770,Stonebrook,,50,,,2,,,,,,,,,,,,,,,
null,,confidence_buffer,352872,confidence_buffer,,null,,,,,,,,,,,,,,,,,,
1302.199999988079,,pt2_memorable_rating,354176,Stonebrook,,51,,,3,,,,,,,,,,,,,,,
null,,confidence_buffer,354277,confidence_buffer,,null,,,,,,,,,,,,,,,,,,
2288.800000011921,,recognition_phase,356567,Stonebrook,,52,,,,,,new,1,0.8571428571428571,,,,,,,,,,
null,,confidence_buffer,356670,confidence_buffer,,null,,,,,,,,,,,,,,,,,,
null,,thebreak,357172,break,,null,,,,,,,,,,,,,,,,,,
2569.7999999523163,,realistic_rating,359743,Summershade,,51,Summershade,Fictional,3,,,,,,,,,,,,,,,
null,,confidence_buffer,359845,confidence_buffer,,null,,,,,,,,,,,,,,,,,,
1056.6000000238419,,pt2_unique_rating,360902,Summershade,,50,,,2,,,,,,,,,,,,,,,
null,,confidence_buffer,361004,confidence_buffer,,null,,,,,,,,,,,,,,,,,,
947,,pt2_memorable_rating,361952,Summershade,,51,,,3,,,,,,,,,,,,,,,
null,,confidence_buffer,362053,confidence_buffer,,null,,,,,,,,,,,,,,,,,,
1323.0999999642372,,probe_rating,363377,probe_rating,,52,,,,4,1,,,,,,,,,,,,,
null,,confidence_buffer,363479,confidence_buffer,,null,,,,,,,,,,,,,,,,,,
2047.699999988079,,recognition_phase,365527,Summershade,,52,,,,,,new,1,0.875,,,,,,,,,,
null,,confidence_buffer,365630,confidence_buffer,,null,,,,,,,,,,,,,,,,,,
null,,thebreak,366131,break,,null,,,,,,,,,,,,,,,,,,
3283.7000000476837,,realistic_rating,369416,Cody,,50,Cody,US,2,,,,,,,,,,,,,,,
null,,confidence_buffer,369518,confidence_buffer,,null,,,,,,,,,,,,,,,,,,
1128,,pt2_unique_rating,370647,Cody,,51,,,3,,,,,,,,,,,,,,,
null,,confidence_buffer,370748,confidence_buffer,,null,,,,,,,,,,,,,,,,,,
1058,,pt2_memorable_rating,371807,Cody,,50,,,2,,,,,,,,,,,,,,,
null,,confidence_buffer,371909,confidence_buffer,,null,,,,,,,,,,,,,,,,,,
2315.899999976158,,recognition_phase,374226,Cody,,52,,,,,,new,1,0.8888888888888888,,,,,,,,,,
null,,confidence_buffer,374328,confidence_buffer,,null,,,,,,,,,,,,,,,,,,
null,,thebreak,374829,break,,null,,,,,,,,,,,,,,,,,,
7465.599999964237,,realistic_rating,382296,Assateague Island,,49,Assateague Island,US,1,,,,,,,,,,,,,,,
null,,confidence_buffer,382397,confidence_buffer,,null,,,,,,,,,,,,,,,,,,
1976.3999999761581,,pt2_unique_rating,384374,Assateague Island,,52,,,4,,,,,,,,,,,,,,,
null,,confidence_buffer,384475,confidence_buffer,,null,,,,,,,,,,,,,,,,,,
1801.800000011921,,pt2_memorable_rating,386278,Assateague Island,,49,,,1,,,,,,,,,,,,,,,
null,,confidence_buffer,386380,confidence_buffer,,null,,,,,,,,,,,,,,,,,,
1322.1000000238419,,recognition_phase,387702,Assateague Island,,52,,,,,,new,1,0.9,,,,,,,,,,
null,,confidence_buffer,387803,confidence_buffer,,null,,,,,,,,,,,,,,,,,,
null,,thebreak,388304,break,,null,,,,,,,,,,,,,,,,,,
3847.100000023842,,realistic_rating,392152,Northbridge,,50,Northbridge,Fictional,2,,,,,,,,,,,,,,,
null,,confidence_buffer,392255,confidence_buffer,,null,,,,,,,,,,,,,,,,,,
1608.0999999642372,,pt2_unique_rating,393864,Northbridge,,50,,,2,,,,,,,,,,,,,,,
null,,confidence_buffer,393967,confidence_buffer,,null,,,,,,,,,,,,,,,,,,
1295.8999999761581,,pt2_memorable_rating,395263,Northbridge,,50,,,2,,,,,,,,,,,,,,,
null,,confidence_buffer,395365,confidence_buffer,,null,,,,,,,,,,,,,,,,,,
833,,recognition_phase,396199,Northbridge,,50,,,,,,old,0,0.8181818181818182,,,,,,,,,,
null,,confidence_buffer,396300,confidence_buffer,,null,,,,,,,,,,,,,,,,,,
null,,thebreak,396801,break,,null,,,,,,,,,,,,,,,,,,
3132.800000011921,,realistic_rating,399936,Gardnerville,,51,Gardnerville,US,3,,,,,,,,,,,,,,,
null,,confidence_buffer,400038,confidence_buffer,,null,,,,,,,,,,,,,,,,,,
1551.1000000238419,,pt2_unique_rating,401589,Gardnerville,,50,,,2,,,,,,,,,,,,,,,
null,,confidence_buffer,401691,confidence_buffer,,null,,,,,,,,,,,,,,,,,,
2122.900000035763,,pt2_memorable_rating,403815,Gardnerville,,50,,,2,,,,,,,,,,,,,,,
null,,confidence_buffer,403917,confidence_buffer,,null,,,,,,,,,,,,,,,,,,
1386.0999999642372,,recognition_phase,405304,Gardnerville,,49,,,,,,old,1,0.8333333333333334,,,,,,,,,,
null,,confidence_buffer,405406,confidence_buffer,,null,,,,,,,,,,,,,,,,,,
null,,thebreak,405908,break,,null,,,,,,,,,,,,,,,,,,
5395.5,,realistic_rating,411304,Elmsbury,,51,Elmsbury,Fictional,3,,,,,,,,,,,,,,,
null,,confidence_buffer,411406,confidence_buffer,,null,,,,,,,,,,,,,,,,,,
1055.5,,pt2_unique_rating,412462,Elmsbury,,51,,,3,,,,,,,,,,,,,,,
null,,confidence_buffer,412564,confidence_buffer,,null,,,,,,,,,,,,,,,,,,
1514.7999999523163,,pt2_memorable_rating,414080,Elmsbury,,50,,,2,,,,,,,,,,,,,,,
null,,confidence_buffer,414181,confidence_buffer,,null,,,,,,,,,,,,,,,,,,
1265.1000000238419,,recognition_phase,415447,Elmsbury,,49,,,,,,old,1,0.8461538461538461,,,,,,,,,,
null,,confidence_buffer,415549,confidence_buffer,,null,,,,,,,,,,,,,,,,,,
null,,thebreak,416051,break,,null,,,,,,,,,,,,,,,,,,
2236.300000011921,,realistic_rating,418289,Claywater,,51,Claywater,Fictional,3,,,,,,,,,,,,,,,
null,,confidence_buffer,418391,confidence_buffer,,null,,,,,,,,,,,,,,,,,,
1663.800000011921,,pt2_unique_rating,420056,Claywater,,50,,,2,,,,,,,,,,,,,,,
null,,confidence_buffer,420158,confidence_buffer,,null,,,,,,,,,,,,,,,,,,
1208.800000011921,,pt2_memorable_rating,421368,Claywater,,50,,,2,,,,,,,,,,,,,,,
null,,confidence_buffer,421469,confidence_buffer,,null,,,,,,,,,,,,,,,,,,
778.1000000238419,,recognition_phase,422248,Claywater,,49,,,,,,old,1,0.8571428571428571,,,,,,,,,,
null,,confidence_buffer,422350,confidence_buffer,,null,,,,,,,,,,,,,,,,,,
null,,thebreak,422852,break,,null,,,,,,,,,,,,,,,,,,
2850.599999964237,,realistic_rating,425704,Athens,,53,Athens,US,5,,,,,,,,,,,,,,,
null,,confidence_buffer,425805,confidence_buffer,,null,,,,,,,,,,,,,,,,,,
1969.2000000476837,,pt2_unique_rating,427775,Athens,,53,,,5,,,,,,,,,,,,,,,
null,,confidence_buffer,427878,confidence_buffer,,null,,,,,,,,,,,,,,,,,,
1241,,probe_rating,429120,probe_rating,,51,,,,3,1,,,,,,,,,,,,,
null,,confidence_buffer,429222,confidence_buffer,,null,,,,,,,,,,,,,,,,,,
1456.6000000238419,,pt2_memorable_rating,430680,Athens,,53,,,5,,,,,,,,,,,,,,,
null,,confidence_buffer,430782,confidence_buffer,,null,,,,,,,,,,,,,,,,,,
1168.800000011921,,recognition_phase,431952,Athens,,49,,,,,,old,1,0.8666666666666667,,,,,,,,,,
null,,confidence_buffer,432053,confidence_buffer,,null,,,,,,,,,,,,,,,,,,
null,,thebreak,432554,break,,null,,,,,,,,,,,,,,,,,,
7059.899999976158,,realistic_rating,439615,Newport,,53,Newport,US,5,,,,,,,,,,,,,,,
null,,confidence_buffer,439717,confidence_buffer,,null,,,,,,,,,,,,,,,,,,
1658.6000000238419,,pt2_unique_rating,441376,Newport,,52,,,4,,,,,,,,,,,,,,,
null,,confidence_buffer,441478,confidence_buffer,,null,,,,,,,,,,,,,,,,,,
1200.1000000238419,,pt2_memorable_rating,442679,Newport,,52,,,4,,,,,,,,,,,,,,,
null,,confidence_buffer,442780,confidence_buffer,,null,,,,,,,,,,,,,,,,,,
1976.6000000238419,,recognition_phase,444757,Newport,,52,,,,,,new,1,0.875,,,,,,,,,,
null,,confidence_buffer,444858,confidence_buffer,,null,,,,,,,,,,,,,,,,,,
null,,thebreak,445360,break,,null,,,,,,,,,,,,,,,,,,
3184.399999976158,,realistic_rating,448545,Lake of the Ozarks,,50,Lake of the Ozarks,US,2,,,,,,,,,,,,,,,
null,,confidence_buffer,448646,confidence_buffer,,null,,,,,,,,,,,,,,,,,,
2625.199999988079,,pt2_unique_rating,451272,Lake of the Ozarks,,51,,,3,,,,,,,,,,,,,,,
null,,confidence_buffer,451374,confidence_buffer,,null,,,,,,,,,,,,,,,,,,
1208.699999988079,,probe_rating,452583,probe_rating,,53,,,,5,1,,,,,,,,,,,,,
null,,confidence_buffer,452685,confidence_buffer,,null,,,,,,,,,,,,,,,,,,
970.8999999761581,,pt2_memorable_rating,453656,Lake of the Ozarks,,50,,,2,,,,,,,,,,,,,,,
null,,confidence_buffer,453758,confidence_buffer,,null,,,,,,,,,,,,,,,,,,
1089.199999988079,,recognition_phase,454848,Lake of the Ozarks,,49,,,,,,old,1,0.8823529411764706,,,,,,,,,,
null,,confidence_buffer,454949,confidence_buffer,,null,,,,,,,,,,,,,,,,,,
null,,thebreak,455463,break,,null,,,,,,,,,,,,,,,,,,
2727.800000011921,,realistic_rating,458191,Rosehollow,,51,Rosehollow,Fictional,3,,,,,,,,,,,,,,,
null,,confidence_buffer,458293,confidence_buffer,,null,,,,,,,,,,,,,,,,,,
858,,pt2_unique_rating,459152,Rosehollow,,50,,,2,,,,,,,,,,,,,,,
null,,confidence_buffer,459254,confidence_buffer,,null,,,,,,,,,,,,,,,,,,
1889.6000000238419,,pt2_memorable_rating,461145,Rosehollow,,51,,,3,,,,,,,,,,,,,,,
null,,confidence_buffer,461246,confidence_buffer,,null,,,,,,,,,,,,,,,,,,
1464.199999988079,,recognition_phase,462712,Rosehollow,,52,,,,,,new,1,0.8888888888888888,,,,,,,,,,
null,,confidence_buffer,462813,confidence_buffer,,null,,,,,,,,,,,,,,,,,,
null,,thebreak,463315,break,,null,,,,,,,,,,,,,,,,,,
2019.699999988079,,realistic_rating,465336,Delaro Park,,51,Delaro Park,Fictional,3,,,,,,,,,,,,,,,
null,,confidence_buffer,465437,confidence_buffer,,null,,,,,,,,,,,,,,,,,,
1244.199999988079,,pt2_unique_rating,466682,Delaro Park,,50,,,2,,,,,,,,,,,,,,,
null,,confidence_buffer,466784,confidence_buffer,,null,,,,,,,,,,,,,,,,,,
1246.3999999761581,,pt2_memorable_rating,468032,Delaro Park,,51,,,3,,,,,,,,,,,,,,,
null,,confidence_buffer,468133,confidence_buffer,,null,,,,,,,,,,,,,,,,,,
1281.699999988079,,recognition_phase,469416,Delaro Park,,49,,,,,,old,1,0.8947368421052632,,,,,,,,,,
null,,confidence_buffer,469517,confidence_buffer,,null,,,,,,,,,,,,,,,,,,
null,,thebreak,470019,break,,null,,,,,,,,,,,,,,,,,,
2683.100000023842,,realistic_rating,472702,Duck,,50,Duck,US,2,,,,,,,,,,,,,,,
null,,confidence_buffer,472804,confidence_buffer,,null,,,,,,,,,,,,,,,,,,
2043.1000000238419,,pt2_unique_rating,474848,Duck,,53,,,5,,,,,,,,,,,,,,,
null,,confidence_buffer,474949,confidence_buffer,,null,,,,,,,,,,,,,,,,,,
1034.0999999642372,,pt2_memorable_rating,475985,Duck,,53,,,5,,,,,,,,,,,,,,,
null,,confidence_buffer,476086,confidence_buffer,,null,,,,,,,,,,,,,,,,,,
1336.2999999523163,,recognition_phase,477424,Duck,,52,,,,,,new,1,0.9,,,,,,,,,,
null,,confidence_buffer,477525,confidence_buffer,,null,,,,,,,,,,,,,,,,,,
null,,thebreak,478027,break,,null,,,,,,,,,,,,,,,,,,
4083,,realistic_rating,482111,Watkins Glen,,51,Watkins Glen,US,3,,,,,,,,,,,,,,,
null,,confidence_buffer,482213,confidence_buffer,,null,,,,,,,,,,,,,,,,,,
2489.7999999523163,,probe_rating,484704,probe_rating,,52,,,,4,1,,,,,,,,,,,,,
null,,confidence_buffer,484806,confidence_buffer,,null,,,,,,,,,,,,,,,,,,
1625.8999999761581,,pt2_unique_rating,486432,Watkins Glen,,51,,,3,,,,,,,,,,,,,,,
null,,confidence_buffer,486535,confidence_buffer,,null,,,,,,,,,,,,,,,,,,
1552.300000011921,,pt2_memorable_rating,488088,Watkins Glen,,51,,,3,,,,,,,,,,,,,,,
null,,confidence_buffer,488190,confidence_buffer,,null,,,,,,,,,,,,,,,,,,
1720.1000000238419,,recognition_phase,489911,Watkins Glen,,52,,,,,,new,1,0.9047619047619048,,,,,,,,,,
null,,confidence_buffer,490013,confidence_buffer,,null,,,,,,,,,,,,,,,,,,
null,,thebreak,490514,break,,null,,,,,,,,,,,,,,,,,,
8461.199999988079,,realistic_rating,498976,Lakehaven,,51,Lakehaven,Fictional,3,,,,,,,,,,,,,,,
null,,confidence_buffer,499077,confidence_buffer,,null,,,,,,,,,,,,,,,,,,
1759.199999988079,,pt2_unique_rating,500837,Lakehaven,,51,,,3,,,,,,,,,,,,,,,
null,,confidence_buffer,500938,confidence_buffer,,null,,,,,,,,,,,,,,,,,,
827.6999999880791,,pt2_memorable_rating,501766,Lakehaven,,50,,,2,,,,,,,,,,,,,,,
null,,confidence_buffer,501876,confidence_buffer,,null,,,,,,,,,,,,,,,,,,
2523,,recognition_phase,504400,Lakehaven,,49,,,,,,old,1,0.9090909090909091,,,,,,,,,,
null,,confidence_buffer,504501,confidence_buffer,,null,,,,,,,,,,,,,,,,,,
null,,thebreak,505003,break,,null,,,,,,,,,,,,,,,,,,
2003.5,,realistic_rating,507008,Hollendale,,51,Hollendale,Fictional,3,,,,,,,,,,,,,,,
null,,confidence_buffer,507109,confidence_buffer,,null,,,,,,,,,,,,,,,,,,
746,,pt2_unique_rating,507857,Hollendale,,51,,,3,,,,,,,,,,,,,,,
null,,confidence_buffer,507958,confidence_buffer,,null,,,,,,,,,,,,,,,,,,
2544.399999976158,,pt2_memorable_rating,510504,Hollendale,,51,,,3,,,,,,,,,,,,,,,
null,,confidence_buffer,510606,confidence_buffer,,null,,,,,,,,,,,,,,,,,,
4368.300000011921,,recognition_phase,514975,Hollendale,,49,,,,,,old,1,0.9130434782608695,,,,,,,,,,
null,,confidence_buffer,515076,confidence_buffer,,null,,,,,,,,,,,,,,,,,,
null,,thebreak,515578,break,,null,,,,,,,,,,,,,,,,,,
4557.300000011921,,realistic_rating,520136,Millstone,,52,Millstone,Fictional,4,,,,,,,,,,,,,,,
null,,confidence_buffer,520239,confidence_buffer,,null,,,,,,,,,,,,,,,,,,
1288,,probe_rating,521528,probe_rating,,51,,,,3,1,,,,,,,,,,,,,
null,,confidence_buffer,521629,confidence_buffer,,null,,,,,,,,,,,,,,,,,,
1338.800000011921,,pt2_unique_rating,522969,Millstone,,50,,,2,,,,,,,,,,,,,,,
null,,confidence_buffer,523071,confidence_buffer,,null,,,,,,,,,,,,,,,,,,
1049,,pt2_memorable_rating,524122,Millstone,,50,,,2,,,,,,,,,,,,,,,
null,,confidence_buffer,524223,confidence_buffer,,null,,,,,,,,,,,,,,,,,,
903.7000000476837,,recognition_phase,525127,Millstone,,50,,,,,,old,1,0.9166666666666666,,,,,,,,,,
null,,confidence_buffer,525229,confidence_buffer,,null,,,,,,,,,,,,,,,,,,
null,,thebreak,525730,break,,null,,,,,,,,,,,,,,,,,,
3677.900000035763,,realistic_rating,529409,Yukon,,52,Yukon,US,4,,,,,,,,,,,,,,,
null,,confidence_buffer,529511,confidence_buffer,,null,,,,,,,,,,,,,,,,,,
1889.199999988079,,pt2_unique_rating,531402,Yukon,,52,,,4,,,,,,,,,,,,,,,
null,,confidence_buffer,531505,confidence_buffer,,null,,,,,,,,,,,,,,,,,,
1643.8999999761581,,pt2_memorable_rating,533150,Yukon,,52,,,4,,,,,,,,,,,,,,,
null,,confidence_buffer,533250,confidence_buffer,,null,,,,,,,,,,,,,,,,,,
845.2000000476837,,recognition_phase,534097,Yukon,,49,,,,,,old,1,0.92,,,,,,,,,,
null,,confidence_buffer,534198,confidence_buffer,,null,,,,,,,,,,,,,,,,,,
null,,thebreak,534699,break,,null,,,,,,,,,,,,,,,,,,
5874.899999976158,,realistic_rating,540575,Gloucester,,50,Gloucester,US,2,,,,,,,,,,,,,,,
null,,confidence_buffer,540676,confidence_buffer,,null,,,,,,,,,,,,,,,,,,
1387.1000000238419,,pt2_unique_rating,542064,Gloucester,,51,,,3,,,,,,,,,,,,,,,
null,,confidence_buffer,542167,confidence_buffer,,null,,,,,,,,,,,,,,,,,,
1456.3999999761581,,pt2_memorable_rating,543624,Gloucester,,50,,,2,,,,,,,,,,,,,,,
null,,confidence_buffer,543725,confidence_buffer,,null,,,,,,,,,,,,,,,,,,
1440.800000011921,,recognition_phase,545167,Gloucester,,52,,,,,,new,1,0.9230769230769231,,,,,,,,,,
null,,confidence_buffer,545270,confidence_buffer,,null,,,,,,,,,,,,,,,,,,
null,,thebreak,545772,break,,null,,,,,,,,,,,,,,,,,,
1928.5999999642372,,realistic_rating,547702,Delaware City,,52,Delaware City,US,4,,,,,,,,,,,,,,,
null,,confidence_buffer,547804,confidence_buffer,,null,,,,,,,,,,,,,,,,,,
1417.699999988079,,pt2_unique_rating,549222,Delaware City,,50,,,2,,,,,,,,,,,,,,,
null,,confidence_buffer,549323,confidence_buffer,,null,,,,,,,,,,,,,,,,,,
1074.1000000238419,,pt2_memorable_rating,550398,Delaware City,,51,,,3,,,,,,,,,,,,,,,
null,,confidence_buffer,550500,confidence_buffer,,null,,,,,,,,,,,,,,,,,,
1041.6000000238419,,recognition_phase,551542,Delaware City,,52,,,,,,new,1,0.9259259259259259,,,,,,,,,,
null,,confidence_buffer,551644,confidence_buffer,,null,,,,,,,,,,,,,,,,,,
null,,thebreak,552145,break,,null,,,,,,,,,,,,,,,,,,
2086.399999976158,,realistic_rating,554232,Coeur d'Alene,,51,Coeur d'Alene,US,3,,,,,,,,,,,,,,,
null,,confidence_buffer,554333,confidence_buffer,,null,,,,,,,,,,,,,,,,,,
3073.600000023842,,pt2_unique_rating,557407,Coeur d'Alene,,52,,,4,,,,,,,,,,,,,,,
null,,confidence_buffer,557509,confidence_buffer,,null,,,,,,,,,,,,,,,,,,
3065.800000011921,,pt2_memorable_rating,560576,Coeur d'Alene,,49,,,1,,,,,,,,,,,,,,,
null,,confidence_buffer,560678,confidence_buffer,,null,,,,,,,,,,,,,,,,,,
1257.300000011921,,recognition_phase,561936,Coeur d'Alene,,49,,,,,,old,1,0.9285714285714286,,,,,,,,,,
null,,confidence_buffer,562038,confidence_buffer,,null,,,,,,,,,,,,,,,,,,
null,,thebreak,562540,break,,null,,,,,,,,,,,,,,,,,,
2130.7999999523163,,realistic_rating,564672,Tamarisk Hills,,51,Tamarisk Hills,Fictional,3,,,,,,,,,,,,,,,
null,,confidence_buffer,564774,confidence_buffer,,null,,,,,,,,,,,,,,,,,,
886.6000000238419,,pt2_unique_rating,565662,Tamarisk Hills,,50,,,2,,,,,,,,,,,,,,,
null,,confidence_buffer,565764,confidence_buffer,,null,,,,,,,,,,,,,,,,,,
3707.400000035763,,pt2_memorable_rating,569472,Tamarisk Hills,,51,,,3,,,,,,,,,,,,,,,
null,,confidence_buffer,569574,confidence_buffer,,null,,,,,,,,,,,,,,,,,,
999.8000000119209,,recognition_phase,570575,Tamarisk Hills,,52,,,,,,new,1,0.9310344827586207,,,,,,,,,,
null,,confidence_buffer,570676,confidence_buffer,,null,,,,,,,,,,,,,,,,,,
null,,thebreak,571178,break,,null,,,,,,,,,,,,,,,,,,
7220.899999976158,,realistic_rating,578400,Crestwood,,51,Crestwood,Fictional,3,,,,,,,,,,,,,,,
null,,confidence_buffer,578502,confidence_buffer,,null,,,,,,,,,,,,,,,,,,
937.8000000119209,,pt2_unique_rating,579440,Crestwood,,50,,,2,,,,,,,,,,,,,,,
null,,confidence_buffer,579543,confidence_buffer,,null,,,,,,,,,,,,,,,,,,
1031.3999999761581,,pt2_memorable_rating,580575,Crestwood,,50,,,2,,,,,,,,,,,,,,,
null,,confidence_buffer,580677,confidence_buffer,,null,,,,,,,,,,,,,,,,,,
1617.8999999761581,,recognition_phase,582296,Crestwood,,51,,,,,,new,1,0.9333333333333333,,,,,,,,,,
null,,confidence_buffer,582397,confidence_buffer,,null,,,,,,,,,,,,,,,,,,
null,,thebreak,582899,break,,null,,,,,,,,,,,,,,,,,,
2428.599999964237,,realistic_rating,585328,Falconridge,,51,Falconridge,Fictional,3,,,,,,,,,,,,,,,
null,,confidence_buffer,585430,confidence_buffer,,null,,,,,,,,,,,,,,,,,,
1065.2000000476837,,pt2_unique_rating,586496,Falconridge,,51,,,3,,,,,,,,,,,,,,,
null,,confidence_buffer,586597,confidence_buffer,,null,,,,,,,,,,,,,,,,,,
1160.8999999761581,,pt2_memorable_rating,587759,Falconridge,,50,,,2,,,,,,,,,,,,,,,
null,,confidence_buffer,587862,confidence_buffer,,null,,,,,,,,,,,,,,,,,,
1577.800000011921,,probe_rating,589440,probe_rating,,53,,,,5,1,,,,,,,,,,,,,
null,,confidence_buffer,589542,confidence_buffer,,null,,,,,,,,,,,,,,,,,,
1231.199999988079,,recognition_phase,590775,Falconridge,,49,,,,,,old,1,0.9354838709677419,,,,,,,,,,
null,,confidence_buffer,590877,confidence_buffer,,null,,,,,,,,,,,,,,,,,,
null,,thebreak,591378,break,,null,,,,,,,,,,,,,,,,,,
2462,,realistic_rating,593841,Westridge,,52,Westridge,Fictional,4,,,,,,,,,,,,,,,
null,,confidence_buffer,593943,confidence_buffer,,null,,,,,,,,,,,,,,,,,,
1455.9000000357628,,pt2_unique_rating,595400,Westridge,,49,,,1,,,,,,,,,,,,,,,
null,,confidence_buffer,595501,confidence_buffer,,null,,,,,,,,,,,,,,,,,,
1681,,pt2_memorable_rating,597183,Westridge,,50,,,2,,,,,,,,,,,,,,,
null,,confidence_buffer,597286,confidence_buffer,,null,,,,,,,,,,,,,,,,,,
1287.8999999761581,,probe_rating,598576,probe_rating,,52,,,,4,1,,,,,,,,,,,,,
null,,confidence_buffer,598678,confidence_buffer,,null,,,,,,,,,,,,,,,,,,
896.0999999642372,,recognition_phase,599575,Westridge,,49,,,,,,old,1,0.9375,,,,,,,,,,
null,,confidence_buffer,599677,confidence_buffer,,null,,,,,,,,,,,,,,,,,,
null,,thebreak,600177,break,,null,,,,,,,,,,,,,,,,,,
2358.300000011921,,realistic_rating,602537,Solara Glen,,51,Solara Glen,Fictional,3,,,,,,,,,,,,,,,
null,,confidence_buffer,602640,confidence_buffer,,null,,,,,,,,,,,,,,,,,,
1063.300000011921,,pt2_unique_rating,603704,Solara Glen,,51,,,3,,,,,,,,,,,,,,,
null,,confidence_buffer,603806,confidence_buffer,,null,,,,,,,,,,,,,,,,,,
1111.300000011921,,pt2_memorable_rating,604918,Solara Glen,,51,,,3,,,,,,,,,,,,,,,
null,,confidence_buffer,605020,confidence_buffer,,null,,,,,,,,,,,,,,,,,,
1634.300000011921,,recognition_phase,606654,Solara Glen,,51,,,,,,new,1,0.9393939393939394,,,,,,,,,,
null,,confidence_buffer,606756,confidence_buffer,,null,,,,,,,,,,,,,,,,,,
null,,thebreak,607257,break,,null,,,,,,,,,,,,,,,,,,
1580.7999999523163,,realistic_rating,608839,Folly Beach,,50,Folly Beach,US,2,,,,,,,,,,,,,,,
null,,confidence_buffer,608940,confidence_buffer,,null,,,,,,,,,,,,,,,,,,
1442,,probe_rating,610384,probe_rating,,50,,,,2,1,,,,,,,,,,,,,
null,,confidence_buffer,610486,confidence_buffer,,null,,,,,,,,,,,,,,,,,,
1209.9000000357628,,pt2_unique_rating,611697,Folly Beach,,51,,,3,,,,,,,,,,,,,,,
null,,confidence_buffer,611799,confidence_buffer,,null,,,,,,,,,,,,,,,,,,
1855.3999999761581,,pt2_memorable_rating,613655,Folly Beach,,49,,,1,,,,,,,,,,,,,,,
null,,confidence_buffer,613758,confidence_buffer,,null,,,,,,,,,,,,,,,,,,
1648.3999999761581,,recognition_phase,615407,Folly Beach,,52,,,,,,new,1,0.9411764705882353,,,,,,,,,,
null,,confidence_buffer,615509,confidence_buffer,,null,,,,,,,,,,,,,,,,,,
null,,thebreak,616011,break,,null,,,,,,,,,,,,,,,,,,
1884.1000000238419,,realistic_rating,617896,Hawthorne Bluffs,,51,Hawthorne Bluffs,Fictional,3,,,,,,,,,,,,,,,
null,,confidence_buffer,617998,confidence_buffer,,null,,,,,,,,,,,,,,,,,,
887,,pt2_unique_rating,618886,Hawthorne Bluffs,,51,,,3,,,,,,,,,,,,,,,
null,,confidence_buffer,618988,confidence_buffer,,null,,,,,,,,,,,,,,,,,,
1026.5999999642372,,probe_rating,620015,probe_rating,,49,,,,1,1,,,,,,,,,,,,,
null,,confidence_buffer,620118,confidence_buffer,,null,,,,,,,,,,,,,,,,,,
1362.199999988079,,pt2_memorable_rating,621481,Hawthorne Bluffs,,51,,,3,,,,,,,,,,,,,,,
null,,confidence_buffer,621582,confidence_buffer,,null,,,,,,,,,,,,,,,,,,
952.6000000238419,,recognition_phase,622536,Hawthorne Bluffs,,49,,,,,,old,1,0.9428571428571428,,,,,,,,,,
null,,confidence_buffer,622638,confidence_buffer,,null,,,,,,,,,,,,,,,,,,
null,,thebreak,623139,break,,null,,,,,,,,,,,,,,,,,,
2162.699999988079,,realistic_rating,625302,Peoria,,52,Peoria,US,4,,,,,,,,,,,,,,,
null,,confidence_buffer,625404,confidence_buffer,,null,,,,,,,,,,,,,,,,,,
2401.599999964237,,pt2_unique_rating,627806,Peoria,,51,,,3,,,,,,,,,,,,,,,
null,,confidence_buffer,627908,confidence_buffer,,null,,,,,,,,,,,,,,,,,,
1563.6000000238419,,pt2_memorable_rating,629472,Peoria,,49,,,1,,,,,,,,,,,,,,,
null,,confidence_buffer,629574,confidence_buffer,,null,,,,,,,,,,,,,,,,,,
928.1999999880791,,recognition_phase,630503,Peoria,,49,,,,,,old,1,0.9444444444444444,,,,,,,,,,
null,,confidence_buffer,630605,confidence_buffer,,null,,,,,,,,,,,,,,,,,,
null,,thebreak,631107,break,,null,,,,,,,,,,,,,,,,,,
2404.5,,realistic_rating,633512,West Talora,,51,West Talora,Fictional,3,,,,,,,,,,,,,,,
null,,confidence_buffer,633613,confidence_buffer,,null,,,,,,,,,,,,,,,,,,
800.4000000357628,,pt2_unique_rating,634415,West Talora,,50,,,2,,,,,,,,,,,,,,,
null,,confidence_buffer,634523,confidence_buffer,,null,,,,,,,,,,,,,,,,,,
2996.300000011921,,pt2_memorable_rating,637521,West Talora,,50,,,2,,,,,,,,,,,,,,,
null,,confidence_buffer,637623,confidence_buffer,,null,,,,,,,,,,,,,,,,,,
1777,,recognition_phase,639401,West Talora,,51,,,,,,new,0,0.918918918918919,,,,,,,,,,
null,,confidence_buffer,639503,confidence_buffer,,null,,,,,,,,,,,,,,,,,,
null,,thebreak,640005,break,,null,,,,,,,,,,,,,,,,,,
1721.5,,realistic_rating,641727,Abilene,,52,Abilene,US,4,,,,,,,,,,,,,,,
null,,confidence_buffer,641828,confidence_buffer,,null,,,,,,,,,,,,,,,,,,
2219.099999964237,,pt2_unique_rating,644048,Abilene,,50,,,2,,,,,,,,,,,,,,,
null,,confidence_buffer,644151,confidence_buffer,,null,,,,,,,,,,,,,,,,,,
1568.6000000238419,,pt2_memorable_rating,645721,Abilene,,49,,,1,,,,,,,,,,,,,,,
null,,confidence_buffer,645822,confidence_buffer,,null,,,,,,,,,,,,,,,,,,
1176.300000011921,,recognition_phase,646999,Abilene,,52,,,,,,new,1,0.9210526315789473,,,,,,,,,,
null,,confidence_buffer,647102,confidence_buffer,,null,,,,,,,,,,,,,,,,,,
null,,thebreak,647604,break,,null,,,,,,,,,,,,,,,,,,
1592.3999999761581,,realistic_rating,649198,Linden Trace,,51,Linden Trace,Fictional,3,,,,,,,,,,,,,,,
null,,confidence_buffer,649299,confidence_buffer,,null,,,,,,,,,,,,,,,,,,
2291.099999964237,,pt2_unique_rating,651591,Linden Trace,,51,,,3,,,,,,,,,,,,,,,
null,,confidence_buffer,651693,confidence_buffer,,null,,,,,,,,,,,,,,,,,,
1600.1000000238419,,pt2_memorable_rating,653293,Linden Trace,,51,,,3,,,,,,,,,,,,,,,
null,,confidence_buffer,653394,confidence_buffer,,null,,,,,,,,,,,,,,,,,,
1084,,probe_rating,654479,probe_rating,,50,,,,2,1,,,,,,,,,,,,,
null,,confidence_buffer,654581,confidence_buffer,,null,,,,,,,,,,,,,,,,,,
1872.300000011921,,recognition_phase,656455,Linden Trace,,50,,,,,,old,1,0.9230769230769231,,,,,,,,,,
null,,confidence_buffer,656557,confidence_buffer,,null,,,,,,,,,,,,,,,,,,
null,,thebreak,657059,break,,null,,,,,,,,,,,,,,,,,,
3571.300000011921,,realistic_rating,660631,Brookmere,,51,Brookmere,Fictional,3,,,,,,,,,,,,,,,
null,,confidence_buffer,660732,confidence_buffer,,null,,,,,,,,,,,,,,,,,,
3634.800000011921,,pt2_unique_rating,664368,Brookmere,,50,,,2,,,,,,,,,,,,,,,
null,,confidence_buffer,664470,confidence_buffer,,null,,,,,,,,,,,,,,,,,,
864.6999999880791,,pt2_memorable_rating,665335,Brookmere,,49,,,1,,,,,,,,,,,,,,,
null,,confidence_buffer,665437,confidence_buffer,,null,,,,,,,,,,,,,,,,,,
1121.5,,recognition_phase,666559,Brookmere,,50,,,,,,old,1,0.925,,,,,,,,,,
null,,confidence_buffer,666660,confidence_buffer,,null,,,,,,,,,,,,,,,,,,
null,,thebreak,667162,break,,null,,,,,,,,,,,,,,,,,,
5492.199999988079,,realistic_rating,672656,Healdsburg,,50,Healdsburg,US,2,,,,,,,,,,,,,,,
null,,confidence_buffer,672758,confidence_buffer,,null,,,,,,,,,,,,,,,,,,
1912.199999988079,,pt2_unique_rating,674670,Healdsburg,,51,,,3,,,,,,,,,,,,,,,
null,,confidence_buffer,674772,confidence_buffer,,null,,,,,,,,,,,,,,,,,,
1418.199999988079,,pt2_memorable_rating,676191,Healdsburg,,50,,,2,,,,,,,,,,,,,,,
null,,confidence_buffer,676291,confidence_buffer,,null,,,,,,,,,,,,,,,,,,
1196.6000000238419,,recognition_phase,677489,Healdsburg,,51,,,,,,new,0,0.9024390243902439,,,,,,,,,,
null,,confidence_buffer,677591,confidence_buffer,,null,,,,,,,,,,,,,,,,,,
null,,thebreak,678092,break,,null,,,,,,,,,,,,,,,,,,
2210.400000035763,,realistic_rating,680303,Bar Harbor,,51,Bar Harbor,US,3,,,,,,,,,,,,,,,
null,,confidence_buffer,680406,confidence_buffer,,null,,,,,,,,,,,,,,,,,,
1362.300000011921,,pt2_unique_rating,681769,Bar Harbor,,49,,,1,,,,,,,,,,,,,,,
null,,confidence_buffer,681872,confidence_buffer,,null,,,,,,,,,,,,,,,,,,
798.5,,pt2_memorable_rating,682671,Bar Harbor,,51,,,3,,,,,,,,,,,,,,,
null,,confidence_buffer,682773,confidence_buffer,,null,,,,,,,,,,,,,,,,,,
1408.5,,recognition_phase,684182,Bar Harbor,,49,,,,,,old,1,0.9047619047619048,,,,,,,,,,
null,,confidence_buffer,684283,confidence_buffer,,null,,,,,,,,,,,,,,,,,,
null,,thebreak,684784,break,,null,,,,,,,,,,,,,,,,,,
3141.399999976158,,realistic_rating,687926,Racine,,50,Racine,US,2,,,,,,,,,,,,,,,
null,,confidence_buffer,688027,confidence_buffer,,null,,,,,,,,,,,,,,,,,,
774.0999999642372,,pt2_unique_rating,688801,Racine,,50,,,2,,,,,,,,,,,,,,,
null,,confidence_buffer,688904,confidence_buffer,,null,,,,,,,,,,,,,,,,,,
2478.699999988079,,pt2_memorable_rating,691384,Racine,,50,,,2,,,,,,,,,,,,,,,
null,,confidence_buffer,691492,confidence_buffer,,null,,,,,,,,,,,,,,,,,,
1434.6000000238419,,recognition_phase,692927,Racine,,51,,,,,,new,1,0.9069767441860465,,,,,,,,,,
null,,confidence_buffer,693029,confidence_buffer,,null,,,,,,,,,,,,,,,,,,
null,,thebreak,693531,break,,null,,,,,,,,,,,,,,,,,,
3396,,realistic_rating,696928,Montelake,,51,Montelake,Fictional,3,,,,,,,,,,,,,,,
null,,confidence_buffer,697030,confidence_buffer,,null,,,,,,,,,,,,,,,,,,
1578.300000011921,,pt2_unique_rating,698609,Montelake,,50,,,2,,,,,,,,,,,,,,,
null,,confidence_buffer,698711,confidence_buffer,,null,,,,,,,,,,,,,,,,,,
1295.5999999642372,,pt2_memorable_rating,700007,Montelake,,51,,,3,,,,,,,,,,,,,,,
null,,confidence_buffer,700109,confidence_buffer,,null,,,,,,,,,,,,,,,,,,
1681.199999988079,,recognition_phase,701792,Montelake,,51,,,,,,new,1,0.9090909090909091,,,,,,,,,,
null,,confidence_buffer,701894,confidence_buffer,,null,,,,,,,,,,,,,,,,,,
null,,thebreak,702396,break,,null,,,,,,,,,,,,,,,,,,
2275.5,,realistic_rating,704672,Clearbrook,,52,Clearbrook,Fictional,4,,,,,,,,,,,,,,,
null,,confidence_buffer,704775,confidence_buffer,,null,,,,,,,,,,,,,,,,,,
1439.9000000357628,,pt2_unique_rating,706216,Clearbrook,,50,,,2,,,,,,,,,,,,,,,
null,,confidence_buffer,706317,confidence_buffer,,null,,,,,,,,,,,,,,,,,,
1184.7000000476837,,pt2_memorable_rating,707503,Clearbrook,,50,,,2,,,,,,,,,,,,,,,
null,,confidence_buffer,707605,confidence_buffer,,null,,,,,,,,,,,,,,,,,,
2585.100000023842,,recognition_phase,710192,Clearbrook,,51,,,,,,new,1,0.9111111111111111,,,,,,,,,,
null,,confidence_buffer,710293,confidence_buffer,,null,,,,,,,,,,,,,,,,,,
null,,thebreak,710794,break,,null,,,,,,,,,,,,,,,,,,
3500.800000011921,,realistic_rating,714296,Meadowspire,,51,Meadowspire,Fictional,3,,,,,,,,,,,,,,,
null,,confidence_buffer,714397,confidence_buffer,,null,,,,,,,,,,,,,,,,,,
1465,,pt2_unique_rating,715863,Meadowspire,,49,,,1,,,,,,,,,,,,,,,
null,,confidence_buffer,715966,confidence_buffer,,null,,,,,,,,,,,,,,,,,,
1160.300000011921,,pt2_memorable_rating,717127,Meadowspire,,50,,,2,,,,,,,,,,,,,,,
null,,confidence_buffer,717231,confidence_buffer,,null,,,,,,,,,,,,,,,,,,
880.0999999642372,,probe_rating,718112,probe_rating,,50,,,,2,1,,,,,,,,,,,,,
null,,confidence_buffer,718213,confidence_buffer,,null,,,,,,,,,,,,,,,,,,
2178.600000023842,,recognition_phase,720393,Meadowspire,,51,,,,,,new,1,0.9130434782608695,,,,,,,,,,
null,,confidence_buffer,720494,confidence_buffer,,null,,,,,,,,,,,,,,,,,,
null,,thebreak,720996,break,,null,,,,,,,,,,,,,,,,,,
2138,,realistic_rating,723135,Carmel,,52,Carmel,US,4,,,,,,,,,,,,,,,
null,,confidence_buffer,723237,confidence_buffer,,null,,,,,,,,,,,,,,,,,,
1466.6000000238419,,pt2_unique_rating,724704,Carmel,,50,,,2,,,,,,,,,,,,,,,
null,,confidence_buffer,724806,confidence_buffer,,null,,,,,,,,,,,,,,,,,,
1042.3999999761581,,pt2_memorable_rating,725849,Carmel,,51,,,3,,,,,,,,,,,,,,,
null,,confidence_buffer,725950,confidence_buffer,,null,,,,,,,,,,,,,,,,,,
1048.2000000476837,,recognition_phase,727000,Carmel,,49,,,,,,old,1,0.9148936170212766,,,,,,,,,,
null,,confidence_buffer,727102,confidence_buffer,,null,,,,,,,,,,,,,,,,,,
null,,thebreak,727603,break,,null,,,,,,,,,,,,,,,,,,
2267.199999988079,,realistic_rating,729872,Oakridge,,51,Oakridge,Fictional,3,,,,,,,,,,,,,,,
null,,confidence_buffer,729974,confidence_buffer,,null,,,,,,,,,,,,,,,,,,
1128.3999999761581,,pt2_unique_rating,731104,Oakridge,,51,,,3,,,,,,,,,,,,,,,
null,,confidence_buffer,731205,confidence_buffer,,null,,,,,,,,,,,,,,,,,,
1865.800000011921,,pt2_memorable_rating,733072,Oakridge,,49,,,1,,,,,,,,,,,,,,,
null,,confidence_buffer,733174,confidence_buffer,,null,,,,,,,,,,,,,,,,,,
1239.699999988079,,recognition_phase,734415,Oakridge,,49,,,,,,old,0,0.8958333333333334,,,,,,,,,,
null,,confidence_buffer,734518,confidence_buffer,,null,,,,,,,,,,,,,,,,,,
null,,thebreak,735019,break,,null,,,,,,,,,,,,,,,,,,
3099.199999988079,,realistic_rating,738120,Gatlinburg,,51,Gatlinburg,US,3,,,,,,,,,,,,,,,
null,,confidence_buffer,738221,confidence_buffer,,null,,,,,,,,,,,,,,,,,,
1193.199999988079,,probe_rating,739416,probe_rating,,49,,,,1,1,,,,,,,,,,,,,
null,,confidence_buffer,739518,confidence_buffer,,null,,,,,,,,,,,,,,,,,,
1802.300000011921,,pt2_unique_rating,741321,Gatlinburg,,50,,,2,,,,,,,,,,,,,,,
null,,confidence_buffer,741423,confidence_buffer,,null,,,,,,,,,,,,,,,,,,
903.8999999761581,,pt2_memorable_rating,742327,Gatlinburg,,50,,,2,,,,,,,,,,,,,,,
null,,confidence_buffer,742429,confidence_buffer,,null,,,,,,,,,,,,,,,,,,
1256.800000011921,,recognition_phase,743686,Gatlinburg,,52,,,,,,new,1,0.8979591836734694,,,,,,,,,,
null,,confidence_buffer,743787,confidence_buffer,,null,,,,,,,,,,,,,,,,,,
null,,thebreak,744288,break,,null,,,,,,,,,,,,,,,,,,
2494.5,,realistic_rating,746783,Maplehurst,,51,Maplehurst,Fictional,3,,,,,,,,,,,,,,,
null,,confidence_buffer,746885,confidence_buffer,,null,,,,,,,,,,,,,,,,,,
1504.199999988079,,pt2_unique_rating,748390,Maplehurst,,50,,,2,,,,,,,,,,,,,,,
null,,confidence_buffer,748491,confidence_buffer,,null,,,,,,,,,,,,,,,,,,
629.6999999880791,,pt2_memorable_rating,749122,Maplehurst,,49,,,1,,,,,,,,,,,,,,,
null,,confidence_buffer,749223,confidence_buffer,,null,,,,,,,,,,,,,,,,,,
1032.0999999642372,,recognition_phase,750256,Maplehurst,,50,,,,,,old,0,0.88,,,,,,,,,,
null,,confidence_buffer,750358,confidence_buffer,,null,,,,,,,,,,,,,,,,,,
null,,thebreak,750860,break,,null,,,,,,,,,,,,,,,,,,
4690.300000011921,,realistic_rating,755551,Sitka,,50,Sitka,US,2,,,,,,,,,,,,,,,
null,,confidence_buffer,755653,confidence_buffer,,null,,,,,,,,,,,,,,,,,,
1674.2999999523163,,pt2_unique_rating,757328,Sitka,,51,,,3,,,,,,,,,,,,,,,
null,,confidence_buffer,757429,confidence_buffer,,null,,,,,,,,,,,,,,,,,,
1298,,pt2_memorable_rating,758729,Sitka,,51,,,3,,,,,,,,,,,,,,,
null,,confidence_buffer,758830,confidence_buffer,,null,,,,,,,,,,,,,,,,,,
1144,,recognition_phase,759975,Sitka,,49,,,,,,old,1,0.8823529411764706,,,,,,,,,,
null,,confidence_buffer,760078,confidence_buffer,,null,,,,,,,,,,,,,,,,,,
null,,thebreak,760580,break,,null,,,,,,,,,,,,,,,,,,
1740.4000000357628,,realistic_rating,762321,Shreveport,,51,Shreveport,US,3,,,,,,,,,,,,,,,
null,,confidence_buffer,762423,confidence_buffer,,null,,,,,,,,,,,,,,,,,,
1239.699999988079,,pt2_unique_rating,763663,Shreveport,,50,,,2,,,,,,,,,,,,,,,
null,,confidence_buffer,763765,confidence_buffer,,null,,,,,,,,,,,,,,,,,,
1442.199999988079,,pt2_memorable_rating,765208,Shreveport,,50,,,2,,,,,,,,,,,,,,,
null,,confidence_buffer,765310,confidence_buffer,,null,,,,,,,,,,,,,,,,,,
1136.5,,probe_rating,766447,probe_rating,,49,,,,1,1,,,,,,,,,,,,,
null,,confidence_buffer,766548,confidence_buffer,,null,,,,,,,,,,,,,,,,,,
1107.0999999642372,,recognition_phase,767656,Shreveport,,52,,,,,,new,1,0.8846153846153846,,,,,,,,,,
null,,confidence_buffer,767758,confidence_buffer,,null,,,,,,,,,,,,,,,,,,
null,,thebreak,768259,break,,null,,,,,,,,,,,,,,,,,,
1977.1000000238419,,realistic_rating,770238,Hanover,,52,Hanover,US,4,,,,,,,,,,,,,,,
null,,confidence_buffer,770339,confidence_buffer,,null,,,,,,,,,,,,,,,,,,
1003.9000000357628,,pt2_unique_rating,771344,Hanover,,50,,,2,,,,,,,,,,,,,,,
null,,confidence_buffer,771447,confidence_buffer,,null,,,,,,,,,,,,,,,,,,
1151.0999999642372,,pt2_memorable_rating,772599,Hanover,,50,,,2,,,,,,,,,,,,,,,
null,,confidence_buffer,772701,confidence_buffer,,null,,,,,,,,,,,,,,,,,,
1899.5,,recognition_phase,774601,Hanover,,51,,,,,,new,1,0.8867924528301887,,,,,,,,,,
null,,confidence_buffer,774703,confidence_buffer,,null,,,,,,,,,,,,,,,,,,
null,,thebreak,775204,break,,null,,,,,,,,,,,,,,,,,,
1537.6000000238419,,realistic_rating,776743,Custer,,51,Custer,US,3,,,,,,,,,,,,,,,
null,,confidence_buffer,776846,confidence_buffer,,null,,,,,,,,,,,,,,,,,,
2073.699999988079,,pt2_unique_rating,778920,Custer,,51,,,3,,,,,,,,,,,,,,,
null,,confidence_buffer,779021,confidence_buffer,,null,,,,,,,,,,,,,,,,,,
1456.1000000238419,,pt2_memorable_rating,780478,Custer,,50,,,2,,,,,,,,,,,,,,,
null,,confidence_buffer,780579,confidence_buffer,,null,,,,,,,,,,,,,,,,,,
980.1999999880791,,recognition_phase,781560,Custer,,49,,,,,,old,1,0.8888888888888888,,,,,,,,,,
null,,confidence_buffer,781662,confidence_buffer,,null,,,,,,,,,,,,,,,,,,
null,,thebreak,782164,break,,null,,,,,,,,,,,,,,,,,,
5162.899999976158,,realistic_rating,787328,Juniper Creek,,51,Juniper Creek,Fictional,3,,,,,,,,,,,,,,,
null,,confidence_buffer,787431,confidence_buffer,,null,,,,,,,,,,,,,,,,,,
1078.7999999523163,,probe_rating,788511,probe_rating,,51,,,,3,1,,,,,,,,,,,,,
null,,confidence_buffer,788612,confidence_buffer,,null,,,,,,,,,,,,,,,,,,
762.1000000238419,,pt2_unique_rating,789375,Juniper Creek,,50,,,2,,,,,,,,,,,,,,,
null,,confidence_buffer,789476,confidence_buffer,,null,,,,,,,,,,,,,,,,,,
2339.899999976158,,pt2_memorable_rating,791817,Juniper Creek,,51,,,3,,,,,,,,,,,,,,,
null,,confidence_buffer,791918,confidence_buffer,,null,,,,,,,,,,,,,,,,,,
2487.899999976158,,recognition_phase,794407,Juniper Creek,,50,,,,,,old,0,0.8727272727272727,,,,,,,,,,
null,,confidence_buffer,794509,confidence_buffer,,null,,,,,,,,,,,,,,,,,,
null,,thebreak,795010,break,,null,,,,,,,,,,,,,,,,,,
2901.7999999523163,,realistic_rating,797913,North Arroya,,52,North Arroya,Fictional,4,,,,,,,,,,,,,,,
null,,confidence_buffer,798015,confidence_buffer,,null,,,,,,,,,,,,,,,,,,
1088.3999999761581,,pt2_unique_rating,799104,North Arroya,,49,,,1,,,,,,,,,,,,,,,
null,,confidence_buffer,799206,confidence_buffer,,null,,,,,,,,,,,,,,,,,,
1576.7999999523163,,pt2_memorable_rating,800784,North Arroya,,50,,,2,,,,,,,,,,,,,,,
null,,confidence_buffer,800885,confidence_buffer,,null,,,,,,,,,,,,,,,,,,
2936,,recognition_phase,803822,North Arroya,,50,,,,,,old,1,0.875,,,,,,,,,,
null,,confidence_buffer,803923,confidence_buffer,,null,,,,,,,,,,,,,,,,,,
null,,thebreak,804424,break,,null,,,,,,,,,,,,,,,,,,
1981.2999999523163,,realistic_rating,806406,New Verdan,,51,New Verdan,Fictional,3,,,,,,,,,,,,,,,
null,,confidence_buffer,806507,confidence_buffer,,null,,,,,,,,,,,,,,,,,,
761.8000000119209,,pt2_unique_rating,807269,New Verdan,,50,,,2,,,,,,,,,,,,,,,
null,,confidence_buffer,807370,confidence_buffer,,null,,,,,,,,,,,,,,,,,,
1227.699999988079,,pt2_memorable_rating,808598,New Verdan,,50,,,2,,,,,,,,,,,,,,,
null,,confidence_buffer,808701,confidence_buffer,,null,,,,,,,,,,,,,,,,,,
1305.9000000357628,,recognition_phase,810007,New Verdan,,50,,,,,,old,1,0.8771929824561403,,,,,,,,,,
null,,confidence_buffer,810108,confidence_buffer,,null,,,,,,,,,,,,,,,,,,
null,,thebreak,810610,break,,null,,,,,,,,,,,,,,,,,,
1933.300000011921,,realistic_rating,812545,East Ladera,,52,East Ladera,Fictional,4,,,,,,,,,,,,,,,
null,,confidence_buffer,812647,confidence_buffer,,null,,,,,,,,,,,,,,,,,,
1439.800000011921,,pt2_unique_rating,814087,East Ladera,,50,,,2,,,,,,,,,,,,,,,
null,,confidence_buffer,814189,confidence_buffer,,null,,,,,,,,,,,,,,,,,,
1067.4000000357628,,probe_rating,815257,probe_rating,,50,,,,2,1,,,,,,,,,,,,,
null,,confidence_buffer,815360,confidence_buffer,,null,,,,,,,,,,,,,,,,,,
1494,,pt2_memorable_rating,816855,East Ladera,,51,,,3,,,,,,,,,,,,,,,
null,,confidence_buffer,816956,confidence_buffer,,null,,,,,,,,,,,,,,,,,,
2515.199999988079,,recognition_phase,819472,East Ladera,,51,,,,,,new,1,0.8793103448275862,,,,,,,,,,
null,,confidence_buffer,819574,confidence_buffer,,null,,,,,,,,,,,,,,,,,,
null,,thebreak,820080,break,,null,,,,,,,,,,,,,,,,,,
1870.5,,realistic_rating,821952,Berkeley Springs,,51,Berkeley Springs,US,3,,,,,,,,,,,,,,,
null,,confidence_buffer,822054,confidence_buffer,,null,,,,,,,,,,,,,,,,,,
944.8000000119209,,pt2_unique_rating,823000,Berkeley Springs,,49,,,1,,,,,,,,,,,,,,,
null,,confidence_buffer,823102,confidence_buffer,,null,,,,,,,,,,,,,,,,,,
1280.5999999642372,,pt2_memorable_rating,824383,Berkeley Springs,,50,,,2,,,,,,,,,,,,,,,
null,,confidence_buffer,824485,confidence_buffer,,null,,,,,,,,,,,,,,,,,,
1066.6000000238419,,recognition_phase,825553,Berkeley Springs,,49,,,,,,old,1,0.8813559322033898,,,,,,,,,,
null,,confidence_buffer,825655,confidence_buffer,,null,,,,,,,,,,,,,,,,,,
null,,thebreak,826157,break,,null,,,,,,,,,,,,,,,,,,
2513.599999964237,,realistic_rating,828672,Highvale,,51,Highvale,Fictional,3,,,,,,,,,,,,,,,
null,,confidence_buffer,828774,confidence_buffer,,null,,,,,,,,,,,,,,,,,,
2976.800000011921,,pt2_unique_rating,831752,Highvale,,50,,,2,,,,,,,,,,,,,,,
null,,confidence_buffer,831854,confidence_buffer,,null,,,,,,,,,,,,,,,,,,
1065.5,,pt2_memorable_rating,832921,Highvale,,51,,,3,,,,,,,,,,,,,,,
null,,confidence_buffer,833023,confidence_buffer,,null,,,,,,,,,,,,,,,,,,
1136.5,,recognition_phase,834160,Highvale,,49,,,,,,old,1,0.8833333333333333,,,,,,,,,,
null,,confidence_buffer,834261,confidence_buffer,,null,,,,,,,,,,,,,,,,,,
null,,thebreak,834763,break,,null,,,,,,,,,,,,,,,,,,
,,survey,1074943,survey-questions,,,,,,,,,,,none,high,No I spent my full focus on this task,I didn't really utilize any strategies. All my choices were based off memory.,I don't recall any images nor choices for Familiar. If I was faced with images, I would focus on landscape and any nature I had seen before.,Similar to the above comment, a picture that is memorable is one that has images I have never seen before.,An image that is unique is one that I have never seen before.,Realism to me is how natural everything looks and if it could actually exist.,No I have not,The task was actually quite interesting. I also enjoy memory games so that was fun.
