rt,responses,trial_type,time_elapsed,stimulus,button_pressed,key_press,name_trial,city_type,rating,probe,probe_accuracy,response,correct,accuracy
12591.5,{worker_id:66aa8d04719b0f5ef3433e9c},id_enter,12595,,,,,,,,,,,
21885.900000035763,,fullscreen,34486,fullscreen,0,,,,,,,,,
16651.69999998808,,intro_0,51140,instruct,,32,,,,,,,,
17095,,intro_1,68235,instruct,,32,,,,,,,,
11314.100000023842,,intro_2,79550,instruct,,32,,,,,,,,
null,,instruct_dir_4,81051,instruct,,null,,,,,,,,
null,,thebreak,81553,break,,null,,,,,,,,
7785.399999976158,,familiar_rating,89339,Fairhaven,,50,Fairhaven,Fictional,2,,,,,
null,,confidence_buffer,89445,confidence_buffer,,null,,,,,,,,
9665.300000011921,,unique_rating,99112,Fairhaven,,53,,,5,,,,,
null,,confidence_buffer,99228,confidence_buffer,,null,,,,,,,,
6105.199999988079,,memorable_rating,105335,Fairhaven,,51,,,3,,,,,
null,,confidence_buffer,105436,confidence_buffer,,null,,,,,,,,
null,,thebreak,105938,break,,null,,,,,,,,
3200.899999976158,,familiar_rating,109140,Cornwall,,51,Cornwall,US,3,,,,,
null,,confidence_buffer,109243,confidence_buffer,,null,,,,,,,,
2007.300000011921,,unique_rating,111251,Cornwall,,50,,,2,,,,,
null,,confidence_buffer,111353,confidence_buffer,,null,,,,,,,,
1242.8999999761581,,memorable_rating,112597,Cornwall,,49,,,1,,,,,
null,,confidence_buffer,112699,confidence_buffer,,null,,,,,,,,
null,,thebreak,113201,break,,null,,,,,,,,
11925.100000023842,,familiar_rating,125127,East Ladera,,49,East Ladera,Fictional,1,,,,,
null,,confidence_buffer,125229,confidence_buffer,,null,,,,,,,,
2083.300000011921,,unique_rating,127313,East Ladera,,52,,,4,,,,,
null,,confidence_buffer,127416,confidence_buffer,,null,,,,,,,,
1973.8999999761581,,memorable_rating,129390,East Ladera,,50,,,2,,,,,
null,,confidence_buffer,129492,confidence_buffer,,null,,,,,,,,
null,,thebreak,129994,break,,null,,,,,,,,
2443.699999988079,,familiar_rating,132438,Albuquerque,,49,Albuquerque,US,1,,,,,
null,,confidence_buffer,132540,confidence_buffer,,null,,,,,,,,
2942.899999976158,,unique_rating,135483,Albuquerque,,53,,,5,,,,,
null,,confidence_buffer,135586,confidence_buffer,,null,,,,,,,,
2488.099999964237,,memorable_rating,138075,Albuquerque,,49,,,1,,,,,
null,,confidence_buffer,138176,confidence_buffer,,null,,,,,,,,
null,,thebreak,138678,break,,null,,,,,,,,
5429.099999964237,,familiar_rating,144108,New Verdan,,51,New Verdan,Fictional,3,,,,,
null,,confidence_buffer,144209,confidence_buffer,,null,,,,,,,,
1701.199999988079,,unique_rating,145911,New Verdan,,52,,,4,,,,,
null,,confidence_buffer,146013,confidence_buffer,,null,,,,,,,,
2208.899999976158,,memorable_rating,148223,New Verdan,,53,,,5,,,,,
null,,confidence_buffer,148325,confidence_buffer,,null,,,,,,,,
null,,thebreak,148826,break,,null,,,,,,,,
4637.899999976158,,familiar_rating,153465,Linden Trace,,49,Linden Trace,Fictional,1,,,,,
null,,confidence_buffer,153567,confidence_buffer,,null,,,,,,,,
2346.2999999523163,,unique_rating,155914,Linden Trace,,51,,,3,,,,,
null,,confidence_buffer,156015,confidence_buffer,,null,,,,,,,,
1413.3999999761581,,memorable_rating,157429,Linden Trace,,50,,,2,,,,,
null,,confidence_buffer,157531,confidence_buffer,,null,,,,,,,,
null,,thebreak,158033,break,,null,,,,,,,,
3319.399999976158,,familiar_rating,161353,Hot Springs,,52,Hot Springs,US,4,,,,,
null,,confidence_buffer,161454,confidence_buffer,,null,,,,,,,,
2768.7000000476837,,unique_rating,164224,Hot Springs,,53,,,5,,,,,
null,,confidence_buffer,164326,confidence_buffer,,null,,,,,,,,
1318.5999999642372,,memorable_rating,165645,Hot Springs,,53,,,5,,,,,
null,,confidence_buffer,165747,confidence_buffer,,null,,,,,,,,
null,,thebreak,166249,break,,null,,,,,,,,
4201.199999988079,,familiar_rating,170451,Gatlinburg,,52,Gatlinburg,US,4,,,,,
null,,confidence_buffer,170553,confidence_buffer,,null,,,,,,,,
1925.4000000357628,,unique_rating,172479,Gatlinburg,,53,,,5,,,,,
null,,confidence_buffer,172580,confidence_buffer,,null,,,,,,,,
1348.6000000238419,,memorable_rating,173929,Gatlinburg,,50,,,2,,,,,
null,,confidence_buffer,174031,confidence_buffer,,null,,,,,,,,
null,,thebreak,174532,break,,null,,,,,,,,
3526.5,,familiar_rating,178060,Elmsbury,,49,Elmsbury,Fictional,1,,,,,
null,,confidence_buffer,178161,confidence_buffer,,null,,,,,,,,
1249.5999999642372,,unique_rating,179412,Elmsbury,,50,,,2,,,,,
null,,confidence_buffer,179513,confidence_buffer,,null,,,,,,,,
1822.800000011921,,memorable_rating,181337,Elmsbury,,52,,,4,,,,,
null,,confidence_buffer,181439,confidence_buffer,,null,,,,,,,,
null,,thebreak,181954,break,,null,,,,,,,,
7548.699999988079,,familiar_rating,189504,Sammamish,,51,Sammamish,US,3,,,,,
null,,confidence_buffer,189605,confidence_buffer,,null,,,,,,,,
5889.800000011921,,probe_rating,195496,probe_rating,,49,,,,1,1,,,
null,,confidence_buffer,195598,confidence_buffer,,null,,,,,,,,
2037.3999999761581,,unique_rating,197636,Sammamish,,51,,,3,,,,,
null,,confidence_buffer,197737,confidence_buffer,,null,,,,,,,,
1511.8999999761581,,memorable_rating,199250,Sammamish,,53,,,5,,,,,
null,,confidence_buffer,199352,confidence_buffer,,null,,,,,,,,
null,,thebreak,199854,break,,null,,,,,,,,
1273.6000000238419,,familiar_rating,201129,Barnard,,49,Barnard,US,1,,,,,
null,,confidence_buffer,201230,confidence_buffer,,null,,,,,,,,
1572.199999988079,,unique_rating,202803,Barnard,,52,,,4,,,,,
null,,confidence_buffer,202904,confidence_buffer,,null,,,,,,,,
1123.2000000476837,,memorable_rating,204028,Barnard,,50,,,2,,,,,
null,,confidence_buffer,204131,confidence_buffer,,null,,,,,,,,
null,,thebreak,204633,break,,null,,,,,,,,
2707.300000011921,,familiar_rating,207341,New Hope,,53,New Hope,US,5,,,,,
null,,confidence_buffer,207456,confidence_buffer,,null,,,,,,,,
1549,,unique_rating,209006,New Hope,,52,,,4,,,,,
null,,confidence_buffer,209107,confidence_buffer,,null,,,,,,,,
1090.4000000357628,,memorable_rating,210199,New Hope,,53,,,5,,,,,
null,,confidence_buffer,210300,confidence_buffer,,null,,,,,,,,
null,,thebreak,210802,break,,null,,,,,,,,
1191.2999999523163,,familiar_rating,211994,Yukon,,50,Yukon,US,2,,,,,
null,,confidence_buffer,212095,confidence_buffer,,null,,,,,,,,
2903.199999988079,,probe_rating,214999,probe_rating,,51,,,,3,1,,,
null,,confidence_buffer,215101,confidence_buffer,,null,,,,,,,,
2071.699999988079,,unique_rating,217174,Yukon,,52,,,4,,,,,
null,,confidence_buffer,217275,confidence_buffer,,null,,,,,,,,
1221,,memorable_rating,218497,Yukon,,49,,,1,,,,,
null,,confidence_buffer,218599,confidence_buffer,,null,,,,,,,,
null,,thebreak,219099,break,,null,,,,,,,,
2253.900000035763,,familiar_rating,221354,Tamarisk Hills,,50,Tamarisk Hills,Fictional,2,,,,,
null,,confidence_buffer,221455,confidence_buffer,,null,,,,,,,,
1442.5,,unique_rating,222899,Tamarisk Hills,,53,,,5,,,,,
null,,confidence_buffer,223000,confidence_buffer,,null,,,,,,,,
807.1000000238419,,memorable_rating,223808,Tamarisk Hills,,52,,,4,,,,,
null,,confidence_buffer,223910,confidence_buffer,,null,,,,,,,,
null,,thebreak,224413,break,,null,,,,,,,,
845.2999999523163,,familiar_rating,225259,Huntsville,,49,Huntsville,US,1,,,,,
null,,confidence_buffer,225361,confidence_buffer,,null,,,,,,,,
1306.199999988079,,unique_rating,226668,Huntsville,,51,,,3,,,,,
null,,confidence_buffer,226769,confidence_buffer,,null,,,,,,,,
867.6000000238419,,memorable_rating,227637,Huntsville,,52,,,4,,,,,
null,,confidence_buffer,227739,confidence_buffer,,null,,,,,,,,
null,,thebreak,228240,break,,null,,,,,,,,
1429,,familiar_rating,229670,Coralridge,,53,Coralridge,Fictional,5,,,,,
null,,confidence_buffer,229772,confidence_buffer,,null,,,,,,,,
1079.8999999761581,,unique_rating,230853,Coralridge,,52,,,4,,,,,
null,,confidence_buffer,230955,confidence_buffer,,null,,,,,,,,
1390.9000000357628,,memorable_rating,232347,Coralridge,,53,,,5,,,,,
null,,confidence_buffer,232449,confidence_buffer,,null,,,,,,,,
null,,thebreak,232951,break,,null,,,,,,,,
1164,,familiar_rating,234115,Pine Hollow,,50,Pine Hollow,Fictional,2,,,,,
null,,confidence_buffer,234217,confidence_buffer,,null,,,,,,,,
806.8000000119209,,unique_rating,235025,Pine Hollow,,52,,,4,,,,,
null,,confidence_buffer,235126,confidence_buffer,,null,,,,,,,,
1180.5,,memorable_rating,236307,Pine Hollow,,51,,,3,,,,,
null,,confidence_buffer,236409,confidence_buffer,,null,,,,,,,,
null,,thebreak,236911,break,,null,,,,,,,,
816,,familiar_rating,237728,Riverlyn,,52,Riverlyn,Fictional,4,,,,,
null,,confidence_buffer,237829,confidence_buffer,,null,,,,,,,,
1459.3999999761581,,unique_rating,239289,Riverlyn,,50,,,2,,,,,
null,,confidence_buffer,239391,confidence_buffer,,null,,,,,,,,
969.1999999880791,,memorable_rating,240361,Riverlyn,,53,,,5,,,,,
null,,confidence_buffer,240471,confidence_buffer,,null,,,,,,,,
null,,thebreak,240974,break,,null,,,,,,,,
1013.3000000119209,,familiar_rating,241988,Duck,,52,Duck,US,4,,,,,
null,,confidence_buffer,242089,confidence_buffer,,null,,,,,,,,
1868.1000000238419,,unique_rating,243958,Duck,,51,,,3,,,,,
null,,confidence_buffer,244060,confidence_buffer,,null,,,,,,,,
671.8000000119209,,memorable_rating,244733,Duck,,52,,,4,,,,,
null,,confidence_buffer,244834,confidence_buffer,,null,,,,,,,,
null,,thebreak,245336,break,,null,,,,,,,,
1700.699999988079,,familiar_rating,247038,Northbridge,,52,Northbridge,Fictional,4,,,,,
null,,confidence_buffer,247139,confidence_buffer,,null,,,,,,,,
1128.2000000476837,,unique_rating,248268,Northbridge,,53,,,5,,,,,
null,,confidence_buffer,248369,confidence_buffer,,null,,,,,,,,
869.1000000238419,,memorable_rating,249239,Northbridge,,52,,,4,,,,,
null,,confidence_buffer,249341,confidence_buffer,,null,,,,,,,,
null,,thebreak,249842,break,,null,,,,,,,,
771.0999999642372,,familiar_rating,250614,Custer,,50,Custer,US,2,,,,,
null,,confidence_buffer,250716,confidence_buffer,,null,,,,,,,,
1256.9000000357628,,unique_rating,251974,Custer,,50,,,2,,,,,
null,,confidence_buffer,252076,confidence_buffer,,null,,,,,,,,
570.3999999761581,,memorable_rating,252647,Custer,,51,,,3,,,,,
null,,confidence_buffer,252748,confidence_buffer,,null,,,,,,,,
null,,thebreak,253249,break,,null,,,,,,,,
1388.6000000238419,,familiar_rating,254639,Highvale,,53,Highvale,Fictional,5,,,,,
null,,confidence_buffer,254741,confidence_buffer,,null,,,,,,,,
1050.5,,unique_rating,255793,Highvale,,50,,,2,,,,,
null,,confidence_buffer,255897,confidence_buffer,,null,,,,,,,,
835.3999999761581,,memorable_rating,256733,Highvale,,52,,,4,,,,,
null,,confidence_buffer,256834,confidence_buffer,,null,,,,,,,,
null,,thebreak,257335,break,,null,,,,,,,,
984.5999999642372,,familiar_rating,258320,Livingston,,50,Livingston,US,2,,,,,
null,,confidence_buffer,258422,confidence_buffer,,null,,,,,,,,
998.8000000119209,,unique_rating,259422,Livingston,,52,,,4,,,,,
null,,confidence_buffer,259524,confidence_buffer,,null,,,,,,,,
1021.9000000357628,,memorable_rating,260547,Livingston,,53,,,5,,,,,
null,,confidence_buffer,260649,confidence_buffer,,null,,,,,,,,
null,,thebreak,261150,break,,null,,,,,,,,
706.5,,familiar_rating,261858,Brookmere,,50,Brookmere,Fictional,2,,,,,
null,,confidence_buffer,261960,confidence_buffer,,null,,,,,,,,
1177.199999988079,,unique_rating,263138,Brookmere,,52,,,4,,,,,
null,,confidence_buffer,263239,confidence_buffer,,null,,,,,,,,
1097.5999999642372,,memorable_rating,264337,Brookmere,,51,,,3,,,,,
null,,confidence_buffer,264439,confidence_buffer,,null,,,,,,,,
null,,thebreak,264940,break,,null,,,,,,,,
721.6999999880791,,familiar_rating,265663,Athens,,51,Athens,US,3,,,,,
null,,confidence_buffer,265765,confidence_buffer,,null,,,,,,,,
1109,,unique_rating,266875,Athens,,51,,,3,,,,,
null,,confidence_buffer,266977,confidence_buffer,,null,,,,,,,,
919.6999999880791,,memorable_rating,267897,Athens,,52,,,4,,,,,
null,,confidence_buffer,267999,confidence_buffer,,null,,,,,,,,
null,,thebreak,268500,break,,null,,,,,,,,
953.5,,familiar_rating,269455,Golden Trace,,53,Golden Trace,Fictional,5,,,,,
null,,confidence_buffer,269557,confidence_buffer,,null,,,,,,,,
1427.3999999761581,,unique_rating,270985,Golden Trace,,53,,,5,,,,,
null,,confidence_buffer,271087,confidence_buffer,,null,,,,,,,,
1703.8999999761581,,memorable_rating,272792,Golden Trace,,53,,,5,,,,,
null,,confidence_buffer,272894,confidence_buffer,,null,,,,,,,,
null,,thebreak,273396,break,,null,,,,,,,,
2058.800000011921,,familiar_rating,275456,Maplehurst,,53,Maplehurst,Fictional,5,,,,,
null,,confidence_buffer,275558,confidence_buffer,,null,,,,,,,,
756.8000000119209,,unique_rating,276315,Maplehurst,,50,,,2,,,,,
null,,confidence_buffer,276416,confidence_buffer,,null,,,,,,,,
959.6000000238419,,memorable_rating,277376,Maplehurst,,51,,,3,,,,,
null,,confidence_buffer,277478,confidence_buffer,,null,,,,,,,,
null,,thebreak,277979,break,,null,,,,,,,,
545.4000000357628,,familiar_rating,278525,Ravenport,,52,Ravenport,Fictional,4,,,,,
null,,confidence_buffer,278627,confidence_buffer,,null,,,,,,,,
1668.6000000238419,,unique_rating,280296,Ravenport,,49,,,1,,,,,
null,,confidence_buffer,280397,confidence_buffer,,null,,,,,,,,
640.7000000476837,,memorable_rating,281039,Ravenport,,50,,,2,,,,,
null,,confidence_buffer,281141,confidence_buffer,,null,,,,,,,,
null,,thebreak,281642,break,,null,,,,,,,,
766.4000000357628,,familiar_rating,282410,Boulder,,52,Boulder,US,4,,,,,
null,,confidence_buffer,282511,confidence_buffer,,null,,,,,,,,
1956.199999988079,,unique_rating,284468,Boulder,,50,,,2,,,,,
null,,confidence_buffer,284570,confidence_buffer,,null,,,,,,,,
768.6999999880791,,memorable_rating,285339,Boulder,,51,,,3,,,,,
null,,confidence_buffer,285440,confidence_buffer,,null,,,,,,,,
null,,thebreak,285943,break,,null,,,,,,,,
2357.600000023842,,familiar_rating,288301,Healdsburg,,52,Healdsburg,US,4,,,,,
null,,confidence_buffer,288404,confidence_buffer,,null,,,,,,,,
1103.800000011921,,unique_rating,289508,Healdsburg,,53,,,5,,,,,
null,,confidence_buffer,289610,confidence_buffer,,null,,,,,,,,
733.5,,memorable_rating,290344,Healdsburg,,50,,,2,,,,,
null,,confidence_buffer,290446,confidence_buffer,,null,,,,,,,,
null,,thebreak,290948,break,,null,,,,,,,,
11703,,intro_0,302651,instruct,,32,,,,,,,,
22839,,intro_1,325491,instruct,,32,,,,,,,,
36381.30000001192,,intro_2,361873,instruct,,32,,,,,,,,
null,,instruct_dir_4,363375,instruct,,null,,,,,,,,
9999.899999976158,,realistic_rating,373376,Yukon,,52,Yukon,US,4,,,,,
null,,confidence_buffer,373478,confidence_buffer,,null,,,,,,,,
2454.399999976158,,pt2_unique_rating,375933,Yukon,,51,,,3,,,,,
null,,confidence_buffer,376035,confidence_buffer,,null,,,,,,,,
1764.699999988079,,pt2_memorable_rating,377800,Yukon,,52,,,4,,,,,
null,,confidence_buffer,377902,confidence_buffer,,null,,,,,,,,
2208.300000011921,,recognition_phase,380111,Yukon,,50,,,,,,old,1,1
null,,confidence_buffer,380213,confidence_buffer,,null,,,,,,,,
null,,thebreak,380715,break,,null,,,,,,,,
2127.800000011921,,realistic_rating,382844,Bowling Green,,52,Bowling Green,US,4,,,,,
null,,confidence_buffer,382946,confidence_buffer,,null,,,,,,,,
755.6999999880791,,pt2_unique_rating,383702,Bowling Green,,51,,,3,,,,,
null,,confidence_buffer,383803,confidence_buffer,,null,,,,,,,,
693.1999999880791,,pt2_memorable_rating,384497,Bowling Green,,52,,,4,,,,,
null,,confidence_buffer,384599,confidence_buffer,,null,,,,,,,,
1275.800000011921,,probe_rating,385876,probe_rating,,53,,,,5,0,,,
null,,confidence_buffer,385978,confidence_buffer,,null,,,,,,,,
5349.5,,recognition_phase,391328,Bowling Green,,52,,,,,,new,1,1
null,,confidence_buffer,391430,confidence_buffer,,null,,,,,,,,
null,,thebreak,391943,break,,null,,,,,,,,
1254.199999988079,,realistic_rating,393198,Cedarwyn,,49,Cedarwyn,Fictional,1,,,,,
null,,confidence_buffer,393301,confidence_buffer,,null,,,,,,,,
3287.699999988079,,probe_rating,396589,probe_rating,,49,,,,1,1,,,
null,,confidence_buffer,396691,confidence_buffer,,null,,,,,,,,
866.3999999761581,,pt2_unique_rating,397558,Cedarwyn,,52,,,4,,,,,
null,,confidence_buffer,397660,confidence_buffer,,null,,,,,,,,
651.3000000119209,,pt2_memorable_rating,398312,Cedarwyn,,51,,,3,,,,,
null,,confidence_buffer,398415,confidence_buffer,,null,,,,,,,,
584.3000000119209,,recognition_phase,399000,Cedarwyn,,52,,,,,,new,1,1
null,,confidence_buffer,399102,confidence_buffer,,null,,,,,,,,
null,,thebreak,399604,break,,null,,,,,,,,
1770.300000011921,,realistic_rating,401376,Meadowspire,,50,Meadowspire,Fictional,2,,,,,
null,,confidence_buffer,401478,confidence_buffer,,null,,,,,,,,
794,,pt2_unique_rating,402273,Meadowspire,,52,,,4,,,,,
null,,confidence_buffer,402375,confidence_buffer,,null,,,,,,,,
1053.5,,pt2_memorable_rating,403429,Meadowspire,,49,,,1,,,,,
null,,confidence_buffer,403531,confidence_buffer,,null,,,,,,,,
773.1999999880791,,recognition_phase,404305,Meadowspire,,52,,,,,,new,1,1
null,,confidence_buffer,404406,confidence_buffer,,null,,,,,,,,
null,,thebreak,404909,break,,null,,,,,,,,
872.3000000119209,,realistic_rating,405782,Shreveport,,50,Shreveport,US,2,,,,,
null,,confidence_buffer,405893,confidence_buffer,,null,,,,,,,,
1343,,pt2_unique_rating,407236,Shreveport,,53,,,5,,,,,
null,,confidence_buffer,407338,confidence_buffer,,null,,,,,,,,
591.1000000238419,,pt2_memorable_rating,407930,Shreveport,,52,,,4,,,,,
null,,confidence_buffer,408031,confidence_buffer,,null,,,,,,,,
1201.3999999761581,,recognition_phase,409233,Shreveport,,50,,,,,,old,0,0.8
null,,confidence_buffer,409335,confidence_buffer,,null,,,,,,,,
null,,thebreak,409836,break,,null,,,,,,,,
405.39999997615814,,realistic_rating,410242,Bayshore Haven,,51,Bayshore Haven,Fictional,3,,,,,
null,,confidence_buffer,410344,confidence_buffer,,null,,,,,,,,
438.10000002384186,,pt2_unique_rating,410783,Bayshore Haven,,52,,,4,,,,,
null,,confidence_buffer,410885,confidence_buffer,,null,,,,,,,,
747.5999999642372,,pt2_memorable_rating,411633,Bayshore Haven,,49,,,1,,,,,
null,,confidence_buffer,411735,confidence_buffer,,null,,,,,,,,
1289.5999999642372,,recognition_phase,413025,Bayshore Haven,,49,,,,,,old,0,0.6666666666666666
null,,confidence_buffer,413127,confidence_buffer,,null,,,,,,,,
null,,thebreak,413628,break,,null,,,,,,,,
275.19999998807907,,realistic_rating,413904,Albuquerque,,52,Albuquerque,US,4,,,,,
null,,confidence_buffer,414006,confidence_buffer,,null,,,,,,,,
786,,pt2_unique_rating,414793,Albuquerque,,51,,,3,,,,,
null,,confidence_buffer,414895,confidence_buffer,,null,,,,,,,,
836.8999999761581,,pt2_memorable_rating,415732,Albuquerque,,52,,,4,,,,,
null,,confidence_buffer,415834,confidence_buffer,,null,,,,,,,,
2162,,recognition_phase,417997,Albuquerque,,50,,,,,,old,1,0.7142857142857143
null,,confidence_buffer,418099,confidence_buffer,,null,,,,,,,,
null,,thebreak,418600,break,,null,,,,,,,,
693.6999999880791,,realistic_rating,419294,Huntsville,,51,Huntsville,US,3,,,,,
null,,confidence_buffer,419396,confidence_buffer,,null,,,,,,,,
633.3000000119209,,pt2_unique_rating,420030,Huntsville,,52,,,4,,,,,
null,,confidence_buffer,420131,confidence_buffer,,null,,,,,,,,
551.1999999880791,,pt2_memorable_rating,420683,Huntsville,,53,,,5,,,,,
null,,confidence_buffer,420785,confidence_buffer,,null,,,,,,,,
1894.300000011921,,probe_rating,422681,probe_rating,,50,,,,2,1,,,
null,,confidence_buffer,422782,confidence_buffer,,null,,,,,,,,
937.1000000238419,,recognition_phase,423720,Huntsville,,49,,,,,,old,1,0.75
null,,confidence_buffer,423823,confidence_buffer,,null,,,,,,,,
null,,thebreak,424325,break,,null,,,,,,,,
498,,realistic_rating,424824,Riverlyn,,52,Riverlyn,Fictional,4,,,,,
null,,confidence_buffer,424925,confidence_buffer,,null,,,,,,,,
621.3999999761581,,pt2_unique_rating,425548,Riverlyn,,52,,,4,,,,,
null,,confidence_buffer,425649,confidence_buffer,,null,,,,,,,,
846.3000000119209,,pt2_memorable_rating,426496,Riverlyn,,53,,,5,,,,,
null,,confidence_buffer,426597,confidence_buffer,,null,,,,,,,,
807.2999999523163,,recognition_phase,427405,Riverlyn,,50,,,,,,old,1,0.7777777777777778
null,,confidence_buffer,427507,confidence_buffer,,null,,,,,,,,
null,,thebreak,428009,break,,null,,,,,,,,
131.5999999642372,,realistic_rating,428141,Granton Ridge,,53,Granton Ridge,Fictional,5,,,,,
null,,confidence_buffer,428243,confidence_buffer,,null,,,,,,,,
675.5999999642372,,probe_rating,428919,probe_rating,,49,,,,1,0,,,
null,,confidence_buffer,429021,confidence_buffer,,null,,,,,,,,
3184.899999976158,,pt2_unique_rating,432206,Granton Ridge,,50,,,2,,,,,
null,,confidence_buffer,432308,confidence_buffer,,null,,,,,,,,
918,,pt2_memorable_rating,433227,Granton Ridge,,51,,,3,,,,,
null,,confidence_buffer,433328,confidence_buffer,,null,,,,,,,,
1520.699999988079,,recognition_phase,434850,Granton Ridge,,49,,,,,,old,0,0.7
null,,confidence_buffer,434952,confidence_buffer,,null,,,,,,,,
null,,thebreak,435454,break,,null,,,,,,,,
607.6000000238419,,realistic_rating,436062,Sisters,,52,Sisters,US,4,,,,,
null,,confidence_buffer,436164,confidence_buffer,,null,,,,,,,,
938.8999999761581,,pt2_unique_rating,437103,Sisters,,51,,,3,,,,,
null,,confidence_buffer,437205,confidence_buffer,,null,,,,,,,,
600,,pt2_memorable_rating,437806,Sisters,,52,,,4,,,,,
null,,confidence_buffer,437908,confidence_buffer,,null,,,,,,,,
1249.800000011921,,recognition_phase,439158,Sisters,,49,,,,,,old,0,0.6363636363636364
null,,confidence_buffer,439260,confidence_buffer,,null,,,,,,,,
null,,thebreak,439762,break,,null,,,,,,,,
538.9000000357628,,realistic_rating,440302,Solara Glen,,51,Solara Glen,Fictional,3,,,,,
null,,confidence_buffer,440404,confidence_buffer,,null,,,,,,,,
1286.199999988079,,pt2_unique_rating,441691,Solara Glen,,52,,,4,,,,,
null,,confidence_buffer,441793,confidence_buffer,,null,,,,,,,,
715.3000000119209,,pt2_memorable_rating,442509,Solara Glen,,50,,,2,,,,,
null,,confidence_buffer,442611,confidence_buffer,,null,,,,,,,,
2348.899999976158,,recognition_phase,444961,Solara Glen,,52,,,,,,new,1,0.6666666666666666
null,,confidence_buffer,445063,confidence_buffer,,null,,,,,,,,
null,,thebreak,445564,break,,null,,,,,,,,
856.1999999880791,,realistic_rating,446422,Delaro Park,,50,Delaro Park,Fictional,2,,,,,
null,,confidence_buffer,446529,confidence_buffer,,null,,,,,,,,
1556.199999988079,,pt2_unique_rating,448086,Delaro Park,,52,,,4,,,,,
null,,confidence_buffer,448189,confidence_buffer,,null,,,,,,,,
1038.699999988079,,pt2_memorable_rating,449228,Delaro Park,,51,,,3,,,,,
null,,confidence_buffer,449330,confidence_buffer,,null,,,,,,,,
1169.8999999761581,,recognition_phase,450501,Delaro Park,,52,,,,,,new,1,0.6923076923076923
null,,confidence_buffer,450602,confidence_buffer,,null,,,,,,,,
null,,thebreak,451104,break,,null,,,,,,,,
852.5,,realistic_rating,451958,Ironwood Heights,,51,Ironwood Heights,Fictional,3,,,,,
null,,confidence_buffer,452060,confidence_buffer,,null,,,,,,,,
786.3000000119209,,pt2_unique_rating,452847,Ironwood Heights,,50,,,2,,,,,
null,,confidence_buffer,452949,confidence_buffer,,null,,,,,,,,
847.1999999880791,,pt2_memorable_rating,453797,Ironwood Heights,,49,,,1,,,,,
null,,confidence_buffer,453898,confidence_buffer,,null,,,,,,,,
1149.8999999761581,,recognition_phase,455049,Ironwood Heights,,52,,,,,,new,1,0.7142857142857143
null,,confidence_buffer,455150,confidence_buffer,,null,,,,,,,,
null,,thebreak,455652,break,,null,,,,,,,,
1042.300000011921,,realistic_rating,456695,Peoria,,51,Peoria,US,3,,,,,
null,,confidence_buffer,456797,confidence_buffer,,null,,,,,,,,
802.5999999642372,,pt2_unique_rating,457600,Peoria,,53,,,5,,,,,
null,,confidence_buffer,457702,confidence_buffer,,null,,,,,,,,
919,,pt2_memorable_rating,458622,Peoria,,53,,,5,,,,,
null,,confidence_buffer,458724,confidence_buffer,,null,,,,,,,,
1598.300000011921,,probe_rating,460323,probe_rating,,50,,,,2,1,,,
null,,confidence_buffer,460425,confidence_buffer,,null,,,,,,,,
2712.400000035763,,recognition_phase,463138,Peoria,,52,,,,,,new,1,0.7333333333333333
null,,confidence_buffer,463241,confidence_buffer,,null,,,,,,,,
null,,thebreak,463742,break,,null,,,,,,,,
782.9000000357628,,realistic_rating,464526,Fairhaven,,52,Fairhaven,Fictional,4,,,,,
null,,confidence_buffer,464628,confidence_buffer,,null,,,,,,,,
695.5,,pt2_unique_rating,465324,Fairhaven,,51,,,3,,,,,
null,,confidence_buffer,465426,confidence_buffer,,null,,,,,,,,
959.0999999642372,,pt2_memorable_rating,466386,Fairhaven,,50,,,2,,,,,
null,,confidence_buffer,466488,confidence_buffer,,null,,,,,,,,
1131,,recognition_phase,467620,Fairhaven,,49,,,,,,old,1,0.75
null,,confidence_buffer,467722,confidence_buffer,,null,,,,,,,,
null,,thebreak,468223,break,,null,,,,,,,,
476.9000000357628,,realistic_rating,468701,Gloucester,,52,Gloucester,US,4,,,,,
null,,confidence_buffer,468803,confidence_buffer,,null,,,,,,,,
717.3000000119209,,pt2_unique_rating,469521,Gloucester,,51,,,3,,,,,
null,,confidence_buffer,469622,confidence_buffer,,null,,,,,,,,
621.1999999880791,,pt2_memorable_rating,470244,Gloucester,,52,,,4,,,,,
null,,confidence_buffer,470346,confidence_buffer,,null,,,,,,,,
1862.699999988079,,recognition_phase,472210,Gloucester,,49,,,,,,old,0,0.7058823529411765
null,,confidence_buffer,472312,confidence_buffer,,null,,,,,,,,
null,,thebreak,472814,break,,null,,,,,,,,
634.1000000238419,,realistic_rating,473448,Redgrove,,51,Redgrove,Fictional,3,,,,,
null,,confidence_buffer,473550,confidence_buffer,,null,,,,,,,,
836.1999999880791,,pt2_unique_rating,474387,Redgrove,,52,,,4,,,,,
null,,confidence_buffer,474490,confidence_buffer,,null,,,,,,,,
691.6999999880791,,pt2_memorable_rating,475182,Redgrove,,50,,,2,,,,,
null,,confidence_buffer,475284,confidence_buffer,,null,,,,,,,,
1629.6000000238419,,recognition_phase,476914,Redgrove,,51,,,,,,new,1,0.7222222222222222
null,,confidence_buffer,477016,confidence_buffer,,null,,,,,,,,
null,,thebreak,477518,break,,null,,,,,,,,
1541.5,,realistic_rating,479060,Gatlinburg,,52,Gatlinburg,US,4,,,,,
null,,confidence_buffer,479171,confidence_buffer,,null,,,,,,,,
798.3000000119209,,pt2_unique_rating,479970,Gatlinburg,,53,,,5,,,,,
null,,confidence_buffer,480073,confidence_buffer,,null,,,,,,,,
772.5999999642372,,pt2_memorable_rating,480846,Gatlinburg,,53,,,5,,,,,
null,,confidence_buffer,480949,confidence_buffer,,null,,,,,,,,
805.1999999880791,,recognition_phase,481755,Gatlinburg,,50,,,,,,old,1,0.7368421052631579
null,,confidence_buffer,481856,confidence_buffer,,null,,,,,,,,
null,,thebreak,482358,break,,null,,,,,,,,
636.4000000357628,,realistic_rating,482995,Okoboji,,49,Okoboji,US,1,,,,,
null,,confidence_buffer,483097,confidence_buffer,,null,,,,,,,,
711.4000000357628,,pt2_unique_rating,483809,Okoboji,,51,,,3,,,,,
null,,confidence_buffer,483910,confidence_buffer,,null,,,,,,,,
705.0999999642372,,pt2_memorable_rating,484616,Okoboji,,52,,,4,,,,,
null,,confidence_buffer,484720,confidence_buffer,,null,,,,,,,,
1342.699999988079,,recognition_phase,486063,Okoboji,,50,,,,,,old,0,0.7
null,,confidence_buffer,486165,confidence_buffer,,null,,,,,,,,
null,,thebreak,486666,break,,null,,,,,,,,
564.9000000357628,,realistic_rating,487232,Healdsburg,,53,Healdsburg,US,5,,,,,
null,,confidence_buffer,487334,confidence_buffer,,null,,,,,,,,
1134,,pt2_unique_rating,488468,Healdsburg,,52,,,4,,,,,
null,,confidence_buffer,488570,confidence_buffer,,null,,,,,,,,
572.1999999880791,,pt2_memorable_rating,489143,Healdsburg,,50,,,2,,,,,
null,,confidence_buffer,489245,confidence_buffer,,null,,,,,,,,
998.9000000357628,,recognition_phase,490244,Healdsburg,,51,,,,,,new,0,0.6666666666666666
null,,confidence_buffer,490346,confidence_buffer,,null,,,,,,,,
null,,thebreak,490847,break,,null,,,,,,,,
357.19999998807907,,realistic_rating,491205,Rosehollow,,49,Rosehollow,Fictional,1,,,,,
null,,confidence_buffer,491307,confidence_buffer,,null,,,,,,,,
508.5,,pt2_unique_rating,491816,Rosehollow,,50,,,2,,,,,
null,,confidence_buffer,491917,confidence_buffer,,null,,,,,,,,
622.3000000119209,,pt2_memorable_rating,492540,Rosehollow,,52,,,4,,,,,
null,,confidence_buffer,492642,confidence_buffer,,null,,,,,,,,
683.8000000119209,,recognition_phase,493327,Rosehollow,,50,,,,,,old,0,0.6363636363636364
null,,confidence_buffer,493429,confidence_buffer,,null,,,,,,,,
null,,thebreak,493930,break,,null,,,,,,,,
436.5,,realistic_rating,494367,Montelake,,49,Montelake,Fictional,1,,,,,
null,,confidence_buffer,494469,confidence_buffer,,null,,,,,,,,
674.5,,pt2_unique_rating,495145,Montelake,,51,,,3,,,,,
null,,confidence_buffer,495258,confidence_buffer,,null,,,,,,,,
639.6000000238419,,probe_rating,495898,probe_rating,,50,,,,2,0,,,
null,,confidence_buffer,496000,confidence_buffer,,null,,,,,,,,
9109.300000011921,,pt2_memorable_rating,505110,Montelake,,50,,,2,,,,,
null,,confidence_buffer,505224,confidence_buffer,,null,,,,,,,,
713.6999999880791,,recognition_phase,505938,Montelake,,51,,,,,,new,1,0.6521739130434783
null,,confidence_buffer,506039,confidence_buffer,,null,,,,,,,,
null,,thebreak,506540,break,,null,,,,,,,,
4006.100000023842,,realistic_rating,510547,New Verdan,,52,New Verdan,Fictional,4,,,,,
null,,confidence_buffer,510649,confidence_buffer,,null,,,,,,,,
716.8000000119209,,pt2_unique_rating,511366,New Verdan,,51,,,3,,,,,
null,,confidence_buffer,511469,confidence_buffer,,null,,,,,,,,
916.5,,pt2_memorable_rating,512386,New Verdan,,52,,,4,,,,,
null,,confidence_buffer,512487,confidence_buffer,,null,,,,,,,,
1092.300000011921,,recognition_phase,513580,New Verdan,,50,,,,,,old,1,0.6666666666666666
null,,confidence_buffer,513682,confidence_buffer,,null,,,,,,,,
null,,thebreak,514184,break,,null,,,,,,,,
561.6999999880791,,realistic_rating,514747,Golden Trace,,52,Golden Trace,Fictional,4,,,,,
null,,confidence_buffer,514848,confidence_buffer,,null,,,,,,,,
818.3999999761581,,pt2_unique_rating,515667,Golden Trace,,51,,,3,,,,,
null,,confidence_buffer,515769,confidence_buffer,,null,,,,,,,,
642.5,,pt2_memorable_rating,516412,Golden Trace,,52,,,4,,,,,
null,,confidence_buffer,516513,confidence_buffer,,null,,,,,,,,
775.5,,recognition_phase,517290,Golden Trace,,50,,,,,,old,1,0.68
null,,confidence_buffer,517392,confidence_buffer,,null,,,,,,,,
null,,thebreak,517894,break,,null,,,,,,,,
488.10000002384186,,realistic_rating,518383,Pine Hollow,,52,Pine Hollow,Fictional,4,,,,,
null,,confidence_buffer,518484,confidence_buffer,,null,,,,,,,,
836.6999999880791,,pt2_unique_rating,519322,Pine Hollow,,51,,,3,,,,,
null,,confidence_buffer,519425,confidence_buffer,,null,,,,,,,,
775.6000000238419,,pt2_memorable_rating,520201,Pine Hollow,,53,,,5,,,,,
null,,confidence_buffer,520303,confidence_buffer,,null,,,,,,,,
939.1000000238419,,recognition_phase,521243,Pine Hollow,,51,,,,,,new,0,0.6538461538461539
null,,confidence_buffer,521345,confidence_buffer,,null,,,,,,,,
null,,thebreak,521846,break,,null,,,,,,,,
837.3999999761581,,realistic_rating,522685,Hot Springs,,50,Hot Springs,US,2,,,,,
null,,confidence_buffer,522787,confidence_buffer,,null,,,,,,,,
710.3000000119209,,pt2_unique_rating,523498,Hot Springs,,51,,,3,,,,,
null,,confidence_buffer,523600,confidence_buffer,,null,,,,,,,,
623.2999999523163,,pt2_memorable_rating,524224,Hot Springs,,52,,,4,,,,,
null,,confidence_buffer,524327,confidence_buffer,,null,,,,,,,,
775.4000000357628,,recognition_phase,525103,Hot Springs,,50,,,,,,old,1,0.6666666666666666
null,,confidence_buffer,525204,confidence_buffer,,null,,,,,,,,
null,,thebreak,525706,break,,null,,,,,,,,
720.5,,realistic_rating,526427,East Ladera,,52,East Ladera,Fictional,4,,,,,
null,,confidence_buffer,526529,confidence_buffer,,null,,,,,,,,
939.6000000238419,,pt2_unique_rating,527470,East Ladera,,53,,,5,,,,,
null,,confidence_buffer,527572,confidence_buffer,,null,,,,,,,,
673.3000000119209,,pt2_memorable_rating,528246,East Ladera,,52,,,4,,,,,
null,,confidence_buffer,528348,confidence_buffer,,null,,,,,,,,
827,,recognition_phase,529176,East Ladera,,51,,,,,,new,0,0.6428571428571429
null,,confidence_buffer,529277,confidence_buffer,,null,,,,,,,,
null,,thebreak,529778,break,,null,,,,,,,,
632.1999999880791,,realistic_rating,530411,Maplehurst,,53,Maplehurst,Fictional,5,,,,,
null,,confidence_buffer,530515,confidence_buffer,,null,,,,,,,,
557.7000000476837,,probe_rating,531074,probe_rating,,52,,,,4,0,,,
