rt,responses,trial_type,time_elapsed,stimulus,button_pressed,key_press,name_trial,city_type,rating,probe,probe_accuracy,response,correct,accuracy,problems,smooth,distraction,strategies,familiar,memorable,unique,realistic,similar,comments
39850.39999997616,{worker_id:672fb08eff9dcbaeeb666b7e},id_enter,39851,,,,,,,,,,,,,,,,,,,,,
3578.699999988079,,fullscreen,43435,fullscreen,0,,,,,,,,,,,,,,,,,,,
9509.900000035763,,intro_0,52950,instruct,,32,,,,,,,,,,,,,,,,,,
17614.700000047684,,intro_1,70565,instruct,,32,,,,,,,,,,,,,,,,,,
5383.600000023842,,intro_2,75949,instruct,,32,,,,,,,,,,,,,,,,,,
null,,instruct_dir_4,77451,instruct,,null,,,,,,,,,,,,,,,,,,
null,,thebreak,77953,break,,null,,,,,,,,,,,,,,,,,,
6933.900000035763,,familiar_rating,84888,Briarfield,,52,Briarfield,Fictional,4,,,,,,,,,,,,,,,
null,,confidence_buffer,84990,confidence_buffer,,null,,,,,,,,,,,,,,,,,,
3359.600000023842,,unique_rating,88351,Briarfield,,51,,,3,,,,,,,,,,,,,,,
null,,confidence_buffer,88453,confidence_buffer,,null,,,,,,,,,,,,,,,,,,
4775.399999976158,,memorable_rating,93229,Briarfield,,52,,,4,,,,,,,,,,,,,,,
null,,confidence_buffer,93331,confidence_buffer,,null,,,,,,,,,,,,,,,,,,
null,,thebreak,93832,break,,null,,,,,,,,,,,,,,,,,,
1303.5,,familiar_rating,95135,Bowling Green,,51,Bowling Green,US,3,,,,,,,,,,,,,,,
null,,confidence_buffer,95237,confidence_buffer,,null,,,,,,,,,,,,,,,,,,
1412.5999999642372,,unique_rating,96651,Bowling Green,,52,,,4,,,,,,,,,,,,,,,
null,,confidence_buffer,96752,confidence_buffer,,null,,,,,,,,,,,,,,,,,,
1551.800000011921,,memorable_rating,98304,Bowling Green,,51,,,3,,,,,,,,,,,,,,,
null,,confidence_buffer,98405,confidence_buffer,,null,,,,,,,,,,,,,,,,,,
null,,thebreak,98908,break,,null,,,,,,,,,,,,,,,,,,
1265.3999999761581,,familiar_rating,100174,Ironwood Heights,,52,Ironwood Heights,Fictional,4,,,,,,,,,,,,,,,
null,,confidence_buffer,100276,confidence_buffer,,null,,,,,,,,,,,,,,,,,,
2479.400000035763,,unique_rating,102756,Ironwood Heights,,51,,,3,,,,,,,,,,,,,,,
null,,confidence_buffer,102858,confidence_buffer,,null,,,,,,,,,,,,,,,,,,
1956.300000011921,,memorable_rating,104815,Ironwood Heights,,52,,,4,,,,,,,,,,,,,,,
null,,confidence_buffer,104917,confidence_buffer,,null,,,,,,,,,,,,,,,,,,
null,,thebreak,105419,break,,null,,,,,,,,,,,,,,,,,,
2633,,familiar_rating,108053,Cleveland,,51,Cleveland,US,3,,,,,,,,,,,,,,,
null,,confidence_buffer,108155,confidence_buffer,,null,,,,,,,,,,,,,,,,,,
1078.8999999761581,,unique_rating,109235,Cleveland,,52,,,4,,,,,,,,,,,,,,,
null,,confidence_buffer,109337,confidence_buffer,,null,,,,,,,,,,,,,,,,,,
1503.5,,memorable_rating,110841,Cleveland,,51,,,3,,,,,,,,,,,,,,,
null,,confidence_buffer,110943,confidence_buffer,,null,,,,,,,,,,,,,,,,,,
null,,thebreak,111444,break,,null,,,,,,,,,,,,,,,,,,
1005.5,,familiar_rating,112450,Lake of the Ozarks,,52,Lake of the Ozarks,US,4,,,,,,,,,,,,,,,
null,,confidence_buffer,112552,confidence_buffer,,null,,,,,,,,,,,,,,,,,,
1169.0999999642372,,unique_rating,113722,Lake of the Ozarks,,51,,,3,,,,,,,,,,,,,,,
null,,confidence_buffer,113824,confidence_buffer,,null,,,,,,,,,,,,,,,,,,
1182.6000000238419,,memorable_rating,115007,Lake of the Ozarks,,52,,,4,,,,,,,,,,,,,,,
null,,confidence_buffer,115109,confidence_buffer,,null,,,,,,,,,,,,,,,,,,
null,,thebreak,115610,break,,null,,,,,,,,,,,,,,,,,,
3570.599999964237,,familiar_rating,119182,Hanover,,51,Hanover,US,3,,,,,,,,,,,,,,,
null,,confidence_buffer,119285,confidence_buffer,,null,,,,,,,,,,,,,,,,,,
1093.800000011921,,unique_rating,120379,Hanover,,52,,,4,,,,,,,,,,,,,,,
null,,confidence_buffer,120481,confidence_buffer,,null,,,,,,,,,,,,,,,,,,
1691.1000000238419,,memorable_rating,122173,Hanover,,51,,,3,,,,,,,,,,,,,,,
null,,confidence_buffer,122275,confidence_buffer,,null,,,,,,,,,,,,,,,,,,
null,,thebreak,122776,break,,null,,,,,,,,,,,,,,,,,,
971.5,,familiar_rating,123748,Summershade,,52,Summershade,Fictional,4,,,,,,,,,,,,,,,
null,,confidence_buffer,123850,confidence_buffer,,null,,,,,,,,,,,,,,,,,,
920.8999999761581,,unique_rating,124772,Summershade,,51,,,3,,,,,,,,,,,,,,,
null,,confidence_buffer,124874,confidence_buffer,,null,,,,,,,,,,,,,,,,,,
1131.300000011921,,memorable_rating,126006,Summershade,,52,,,4,,,,,,,,,,,,,,,
null,,confidence_buffer,126108,confidence_buffer,,null,,,,,,,,,,,,,,,,,,
null,,thebreak,126609,break,,null,,,,,,,,,,,,,,,,,,
781.7999999523163,,familiar_rating,127392,Alliance,,51,Alliance,US,3,,,,,,,,,,,,,,,
null,,confidence_buffer,127494,confidence_buffer,,null,,,,,,,,,,,,,,,,,,
859.8999999761581,,unique_rating,128355,Alliance,,52,,,4,,,,,,,,,,,,,,,
null,,confidence_buffer,128457,confidence_buffer,,null,,,,,,,,,,,,,,,,,,
1202.1000000238419,,memorable_rating,129660,Alliance,,51,,,3,,,,,,,,,,,,,,,
null,,confidence_buffer,129761,confidence_buffer,,null,,,,,,,,,,,,,,,,,,
null,,thebreak,130262,break,,null,,,,,,,,,,,,,,,,,,
1053.5,,familiar_rating,131317,Athens,,52,Athens,US,4,,,,,,,,,,,,,,,
null,,confidence_buffer,131420,confidence_buffer,,null,,,,,,,,,,,,,,,,,,
1390.5999999642372,,unique_rating,132811,Athens,,51,,,3,,,,,,,,,,,,,,,
null,,confidence_buffer,132913,confidence_buffer,,null,,,,,,,,,,,,,,,,,,
830.8000000119209,,memorable_rating,133745,Athens,,52,,,4,,,,,,,,,,,,,,,
null,,confidence_buffer,133846,confidence_buffer,,null,,,,,,,,,,,,,,,,,,
null,,thebreak,134349,break,,null,,,,,,,,,,,,,,,,,,
890.3999999761581,,familiar_rating,135241,Bayshore Haven,,51,Bayshore Haven,Fictional,3,,,,,,,,,,,,,,,
null,,confidence_buffer,135343,confidence_buffer,,null,,,,,,,,,,,,,,,,,,
829.5,,unique_rating,136173,Bayshore Haven,,52,,,4,,,,,,,,,,,,,,,
null,,confidence_buffer,136276,confidence_buffer,,null,,,,,,,,,,,,,,,,,,
789.8999999761581,,memorable_rating,137067,Bayshore Haven,,51,,,3,,,,,,,,,,,,,,,
null,,confidence_buffer,137169,confidence_buffer,,null,,,,,,,,,,,,,,,,,,
null,,thebreak,137669,break,,null,,,,,,,,,,,,,,,,,,
731.5999999642372,,familiar_rating,138402,Fairhaven,,52,Fairhaven,Fictional,4,,,,,,,,,,,,,,,
null,,confidence_buffer,138504,confidence_buffer,,null,,,,,,,,,,,,,,,,,,
850.4000000357628,,unique_rating,139355,Fairhaven,,51,,,3,,,,,,,,,,,,,,,
null,,confidence_buffer,139457,confidence_buffer,,null,,,,,,,,,,,,,,,,,,
1492.699999988079,,memorable_rating,140951,Fairhaven,,51,,,3,,,,,,,,,,,,,,,
null,,confidence_buffer,141053,confidence_buffer,,null,,,,,,,,,,,,,,,,,,
null,,thebreak,141555,break,,null,,,,,,,,,,,,,,,,,,
931.1999999880791,,familiar_rating,142487,Gardnerville,,52,Gardnerville,US,4,,,,,,,,,,,,,,,
null,,confidence_buffer,142589,confidence_buffer,,null,,,,,,,,,,,,,,,,,,
850.3000000119209,,unique_rating,143440,Gardnerville,,52,,,4,,,,,,,,,,,,,,,
null,,confidence_buffer,143541,confidence_buffer,,null,,,,,,,,,,,,,,,,,,
780.9000000357628,,memorable_rating,144323,Gardnerville,,51,,,3,,,,,,,,,,,,,,,
null,,confidence_buffer,144425,confidence_buffer,,null,,,,,,,,,,,,,,,,,,
null,,thebreak,144926,break,,null,,,,,,,,,,,,,,,,,,
812,,familiar_rating,145739,Albuquerque,,52,Albuquerque,US,4,,,,,,,,,,,,,,,
null,,confidence_buffer,145840,confidence_buffer,,null,,,,,,,,,,,,,,,,,,
1132.5,,unique_rating,146974,Albuquerque,,51,,,3,,,,,,,,,,,,,,,
null,,confidence_buffer,147076,confidence_buffer,,null,,,,,,,,,,,,,,,,,,
719.6999999880791,,memorable_rating,147796,Albuquerque,,52,,,4,,,,,,,,,,,,,,,
null,,confidence_buffer,147897,confidence_buffer,,null,,,,,,,,,,,,,,,,,,
null,,thebreak,148400,break,,null,,,,,,,,,,,,,,,,,,
761.1999999880791,,familiar_rating,149162,Custer,,51,Custer,US,3,,,,,,,,,,,,,,,
null,,confidence_buffer,149263,confidence_buffer,,null,,,,,,,,,,,,,,,,,,
941.7999999523163,,unique_rating,150206,Custer,,52,,,4,,,,,,,,,,,,,,,
null,,confidence_buffer,150309,confidence_buffer,,null,,,,,,,,,,,,,,,,,,
748.8000000119209,,probe_rating,151058,probe_rating,,51,,,,3,0,,,,,,,,,,,,,
null,,confidence_buffer,151161,confidence_buffer,,null,,,,,,,,,,,,,,,,,,
18273.899999976158,,memorable_rating,169434,Custer,,53,,,5,,,,,,,,,,,,,,,
null,,confidence_buffer,169536,confidence_buffer,,null,,,,,,,,,,,,,,,,,,
null,,thebreak,170038,break,,null,,,,,,,,,,,,,,,,,,
1838.5999999642372,,familiar_rating,171877,Delaro Park,,52,Delaro Park,Fictional,4,,,,,,,,,,,,,,,
null,,confidence_buffer,171979,confidence_buffer,,null,,,,,,,,,,,,,,,,,,
1208,,unique_rating,173188,Delaro Park,,53,,,5,,,,,,,,,,,,,,,
null,,confidence_buffer,173290,confidence_buffer,,null,,,,,,,,,,,,,,,,,,
972,,memorable_rating,174262,Delaro Park,,52,,,4,,,,,,,,,,,,,,,
null,,confidence_buffer,174364,confidence_buffer,,null,,,,,,,,,,,,,,,,,,
null,,thebreak,174866,break,,null,,,,,,,,,,,,,,,,,,
1015.1000000238419,,familiar_rating,175882,Bar Harbor,,53,Bar Harbor,US,5,,,,,,,,,,,,,,,
null,,confidence_buffer,175984,confidence_buffer,,null,,,,,,,,,,,,,,,,,,
1008.3000000119209,,unique_rating,176993,Bar Harbor,,52,,,4,,,,,,,,,,,,,,,
null,,confidence_buffer,177095,confidence_buffer,,null,,,,,,,,,,,,,,,,,,
970.2999999523163,,memorable_rating,178067,Bar Harbor,,53,,,5,,,,,,,,,,,,,,,
null,,confidence_buffer,178168,confidence_buffer,,null,,,,,,,,,,,,,,,,,,
null,,thebreak,178670,break,,null,,,,,,,,,,,,,,,,,,
981.4000000357628,,familiar_rating,179652,Stonebrook,,52,Stonebrook,Fictional,4,,,,,,,,,,,,,,,
null,,confidence_buffer,179755,confidence_buffer,,null,,,,,,,,,,,,,,,,,,
960.6000000238419,,unique_rating,180716,Stonebrook,,53,,,5,,,,,,,,,,,,,,,
null,,confidence_buffer,180817,confidence_buffer,,null,,,,,,,,,,,,,,,,,,
4596.800000011921,,probe_rating,185415,probe_rating,,53,,,,5,1,,,,,,,,,,,,,
null,,confidence_buffer,185517,confidence_buffer,,null,,,,,,,,,,,,,,,,,,
2926,,memorable_rating,188444,Stonebrook,,52,,,4,,,,,,,,,,,,,,,
null,,confidence_buffer,188547,confidence_buffer,,null,,,,,,,,,,,,,,,,,,
null,,thebreak,189048,break,,null,,,,,,,,,,,,,,,,,,
1392.5,,familiar_rating,190442,Cedarwyn,,53,Cedarwyn,Fictional,5,,,,,,,,,,,,,,,
null,,confidence_buffer,190545,confidence_buffer,,null,,,,,,,,,,,,,,,,,,
879.8999999761581,,unique_rating,191426,Cedarwyn,,52,,,4,,,,,,,,,,,,,,,
null,,confidence_buffer,191527,confidence_buffer,,null,,,,,,,,,,,,,,,,,,
921.1999999880791,,memorable_rating,192450,Cedarwyn,,53,,,5,,,,,,,,,,,,,,,
null,,confidence_buffer,192551,confidence_buffer,,null,,,,,,,,,,,,,,,,,,
null,,thebreak,193052,break,,null,,,,,,,,,,,,,,,,,,
1091.5,,familiar_rating,194145,Park City,,52,Park City,US,4,,,,,,,,,,,,,,,
null,,confidence_buffer,194247,confidence_buffer,,null,,,,,,,,,,,,,,,,,,
1011.3000000119209,,unique_rating,195260,Park City,,53,,,5,,,,,,,,,,,,,,,
null,,confidence_buffer,195361,confidence_buffer,,null,,,,,,,,,,,,,,,,,,
951.3000000119209,,memorable_rating,196314,Park City,,52,,,4,,,,,,,,,,,,,,,
null,,confidence_buffer,196415,confidence_buffer,,null,,,,,,,,,,,,,,,,,,
null,,thebreak,196917,break,,null,,,,,,,,,,,,,,,,,,
1293.1000000238419,,familiar_rating,198211,Baymarsh,,53,Baymarsh,Fictional,5,,,,,,,,,,,,,,,
null,,confidence_buffer,198314,confidence_buffer,,null,,,,,,,,,,,,,,,,,,
970.3000000119209,,unique_rating,199285,Baymarsh,,52,,,4,,,,,,,,,,,,,,,
null,,confidence_buffer,199386,confidence_buffer,,null,,,,,,,,,,,,,,,,,,
1031.3999999761581,,memorable_rating,200419,Baymarsh,,53,,,5,,,,,,,,,,,,,,,
null,,confidence_buffer,200520,confidence_buffer,,null,,,,,,,,,,,,,,,,,,
null,,thebreak,201022,break,,null,,,,,,,,,,,,,,,,,,
1343.4000000357628,,familiar_rating,202366,Golden Trace,,52,Golden Trace,Fictional,4,,,,,,,,,,,,,,,
null,,confidence_buffer,202468,confidence_buffer,,null,,,,,,,,,,,,,,,,,,
1131.800000011921,,unique_rating,203601,Golden Trace,,53,,,5,,,,,,,,,,,,,,,
null,,confidence_buffer,203702,confidence_buffer,,null,,,,,,,,,,,,,,,,,,
1030.8999999761581,,memorable_rating,204734,Golden Trace,,52,,,4,,,,,,,,,,,,,,,
null,,confidence_buffer,204836,confidence_buffer,,null,,,,,,,,,,,,,,,,,,
null,,thebreak,205338,break,,null,,,,,,,,,,,,,,,,,,
952,,familiar_rating,206291,Peoria,,53,Peoria,US,5,,,,,,,,,,,,,,,
null,,confidence_buffer,206393,confidence_buffer,,null,,,,,,,,,,,,,,,,,,
2144,,probe_rating,208538,probe_rating,,49,,,,1,1,,,,,,,,,,,,,
null,,confidence_buffer,208640,confidence_buffer,,null,,,,,,,,,,,,,,,,,,
2387.7999999523163,,unique_rating,211029,Peoria,,53,,,5,,,,,,,,,,,,,,,
null,,confidence_buffer,211130,confidence_buffer,,null,,,,,,,,,,,,,,,,,,
1231.5,,memorable_rating,212362,Peoria,,52,,,4,,,,,,,,,,,,,,,
null,,confidence_buffer,212465,confidence_buffer,,null,,,,,,,,,,,,,,,,,,
null,,thebreak,212967,break,,null,,,,,,,,,,,,,,,,,,
950.8999999761581,,familiar_rating,213918,Silverpine,,53,Silverpine,Fictional,5,,,,,,,,,,,,,,,
null,,confidence_buffer,214020,confidence_buffer,,null,,,,,,,,,,,,,,,,,,
859.6999999880791,,unique_rating,214881,Silverpine,,52,,,4,,,,,,,,,,,,,,,
null,,confidence_buffer,214983,confidence_buffer,,null,,,,,,,,,,,,,,,,,,
901.6999999880791,,memorable_rating,215885,Silverpine,,53,,,5,,,,,,,,,,,,,,,
null,,confidence_buffer,215988,confidence_buffer,,null,,,,,,,,,,,,,,,,,,
null,,thebreak,216490,break,,null,,,,,,,,,,,,,,,,,,
1011.7000000476837,,familiar_rating,217501,West Talora,,53,West Talora,Fictional,5,,,,,,,,,,,,,,,
null,,confidence_buffer,217603,confidence_buffer,,null,,,,,,,,,,,,,,,,,,
1270.8999999761581,,unique_rating,218875,West Talora,,52,,,4,,,,,,,,,,,,,,,
null,,confidence_buffer,218977,confidence_buffer,,null,,,,,,,,,,,,,,,,,,
1001.8999999761581,,memorable_rating,219979,West Talora,,53,,,5,,,,,,,,,,,,,,,
null,,confidence_buffer,220082,confidence_buffer,,null,,,,,,,,,,,,,,,,,,
null,,thebreak,220583,break,,null,,,,,,,,,,,,,,,,,,
961.4000000357628,,familiar_rating,221545,Abilene,,52,Abilene,US,4,,,,,,,,,,,,,,,
null,,confidence_buffer,221646,confidence_buffer,,null,,,,,,,,,,,,,,,,,,
1212.6000000238419,,unique_rating,222860,Abilene,,53,,,5,,,,,,,,,,,,,,,
null,,confidence_buffer,222962,confidence_buffer,,null,,,,,,,,,,,,,,,,,,
2587.600000023842,,memorable_rating,225550,Abilene,,52,,,4,,,,,,,,,,,,,,,
null,,confidence_buffer,225652,confidence_buffer,,null,,,,,,,,,,,,,,,,,,
1883.6000000238419,,probe_rating,227537,probe_rating,,50,,,,2,1,,,,,,,,,,,,,
null,,confidence_buffer,227640,confidence_buffer,,null,,,,,,,,,,,,,,,,,,
null,,thebreak,228142,break,,null,,,,,,,,,,,,,,,,,,
1542.6000000238419,,familiar_rating,229685,Cape May,,53,Cape May,US,5,,,,,,,,,,,,,,,
null,,confidence_buffer,229787,confidence_buffer,,null,,,,,,,,,,,,,,,,,,
881.5999999642372,,unique_rating,230670,Cape May,,52,,,4,,,,,,,,,,,,,,,
null,,confidence_buffer,230771,confidence_buffer,,null,,,,,,,,,,,,,,,,,,
880.4000000357628,,memorable_rating,231653,Cape May,,53,,,5,,,,,,,,,,,,,,,
null,,confidence_buffer,231754,confidence_buffer,,null,,,,,,,,,,,,,,,,,,
null,,thebreak,232256,break,,null,,,,,,,,,,,,,,,,,,
1041.5,,familiar_rating,233298,Clearbrook,,52,Clearbrook,Fictional,4,,,,,,,,,,,,,,,
null,,confidence_buffer,233401,confidence_buffer,,null,,,,,,,,,,,,,,,,,,
1152.0999999642372,,unique_rating,234554,Clearbrook,,53,,,5,,,,,,,,,,,,,,,
null,,confidence_buffer,234656,confidence_buffer,,null,,,,,,,,,,,,,,,,,,
2978.399999976158,,memorable_rating,237636,Clearbrook,,52,,,4,,,,,,,,,,,,,,,
null,,confidence_buffer,237738,confidence_buffer,,null,,,,,,,,,,,,,,,,,,
null,,thebreak,238240,break,,null,,,,,,,,,,,,,,,,,,
1119.9000000357628,,familiar_rating,239361,Sierra Hollow,,53,Sierra Hollow,Fictional,5,,,,,,,,,,,,,,,
null,,confidence_buffer,239464,confidence_buffer,,null,,,,,,,,,,,,,,,,,,
1041.300000011921,,unique_rating,240506,Sierra Hollow,,52,,,4,,,,,,,,,,,,,,,
null,,confidence_buffer,240608,confidence_buffer,,null,,,,,,,,,,,,,,,,,,
1864.1000000238419,,memorable_rating,242473,Sierra Hollow,,53,,,5,,,,,,,,,,,,,,,
null,,confidence_buffer,242575,confidence_buffer,,null,,,,,,,,,,,,,,,,,,
null,,thebreak,243077,break,,null,,,,,,,,,,,,,,,,,,
1151.8999999761581,,familiar_rating,244229,Cornwall,,53,Cornwall,US,5,,,,,,,,,,,,,,,
null,,confidence_buffer,244331,confidence_buffer,,null,,,,,,,,,,,,,,,,,,
1444.0999999642372,,unique_rating,245776,Cornwall,,52,,,4,,,,,,,,,,,,,,,
null,,confidence_buffer,245878,confidence_buffer,,null,,,,,,,,,,,,,,,,,,
1121.1000000238419,,memorable_rating,247000,Cornwall,,53,,,5,,,,,,,,,,,,,,,
null,,confidence_buffer,247101,confidence_buffer,,null,,,,,,,,,,,,,,,,,,
null,,thebreak,247603,break,,null,,,,,,,,,,,,,,,,,,
921.6999999880791,,familiar_rating,248525,Millstone,,52,Millstone,Fictional,4,,,,,,,,,,,,,,,
null,,confidence_buffer,248628,confidence_buffer,,null,,,,,,,,,,,,,,,,,,
1020,,unique_rating,249648,Millstone,,53,,,5,,,,,,,,,,,,,,,
null,,confidence_buffer,249749,confidence_buffer,,null,,,,,,,,,,,,,,,,,,
1816,,memorable_rating,251566,Millstone,,52,,,4,,,,,,,,,,,,,,,
null,,confidence_buffer,251668,confidence_buffer,,null,,,,,,,,,,,,,,,,,,
null,,thebreak,252170,break,,null,,,,,,,,,,,,,,,,,,
2848.399999976158,,intro_0,255019,instruct,,32,,,,,,,,,,,,,,,,,,
1846.5999999642372,,intro_1,256867,instruct,,32,,,,,,,,,,,,,,,,,,
19872.399999976158,,intro_2,276740,instruct,,32,,,,,,,,,,,,,,,,,,
null,,instruct_dir_4,278240,instruct,,null,,,,,,,,,,,,,,,,,,
14114.899999976158,,realistic_rating,292356,Cape May,,52,Cape May,US,4,,,,,,,,,,,,,,,
null,,confidence_buffer,292458,confidence_buffer,,null,,,,,,,,,,,,,,,,,,
2517,,pt2_unique_rating,294976,Cape May,,51,,,3,,,,,,,,,,,,,,,
null,,confidence_buffer,295078,confidence_buffer,,null,,,,,,,,,,,,,,,,,,
2386.399999976158,,pt2_memorable_rating,297465,Cape May,,52,,,4,,,,,,,,,,,,,,,
null,,confidence_buffer,297566,confidence_buffer,,null,,,,,,,,,,,,,,,,,,
8168.899999976158,,recognition_phase,305736,Cape May,,50,,,,,,old,1,1,,,,,,,,,,
null,,confidence_buffer,305838,confidence_buffer,,null,,,,,,,,,,,,,,,,,,
null,,thebreak,306339,break,,null,,,,,,,,,,,,,,,,,,
2898.800000011921,,realistic_rating,309239,Briarfield,,52,Briarfield,Fictional,4,,,,,,,,,,,,,,,
null,,confidence_buffer,309341,confidence_buffer,,null,,,,,,,,,,,,,,,,,,
1753.300000011921,,pt2_unique_rating,311095,Briarfield,,51,,,3,,,,,,,,,,,,,,,
null,,confidence_buffer,311197,confidence_buffer,,null,,,,,,,,,,,,,,,,,,
1232,,pt2_memorable_rating,312430,Briarfield,,52,,,4,,,,,,,,,,,,,,,
null,,confidence_buffer,312533,confidence_buffer,,null,,,,,,,,,,,,,,,,,,
2819,,recognition_phase,315353,Briarfield,,49,,,,,,old,1,1,,,,,,,,,,
null,,confidence_buffer,315455,confidence_buffer,,null,,,,,,,,,,,,,,,,,,
null,,thebreak,315957,break,,null,,,,,,,,,,,,,,,,,,
271855.59999996424,,realistic_rating,587806,Baymarsh,,52,Baymarsh,Fictional,4,,,,,,,,,,,,,,,
null,,confidence_buffer,587909,confidence_buffer,,null,,,,,,,,,,,,,,,,,,
1381.5,,pt2_unique_rating,589292,Baymarsh,,53,,,5,,,,,,,,,,,,,,,
null,,confidence_buffer,589394,confidence_buffer,,null,,,,,,,,,,,,,,,,,,
1155.300000011921,,pt2_memorable_rating,590550,Baymarsh,,52,,,4,,,,,,,,,,,,,,,
null,,confidence_buffer,590652,confidence_buffer,,null,,,,,,,,,,,,,,,,,,
2739.7000000476837,,recognition_phase,593393,Baymarsh,,50,,,,,,old,1,1,,,,,,,,,,
null,,confidence_buffer,593495,confidence_buffer,,null,,,,,,,,,,,,,,,,,,
null,,thebreak,593997,break,,null,,,,,,,,,,,,,,,,,,
1774.0999999642372,,realistic_rating,595772,Bar Harbor,,53,Bar Harbor,US,5,,,,,,,,,,,,,,,
null,,confidence_buffer,595874,confidence_buffer,,null,,,,,,,,,,,,,,,,,,
957.2999999523163,,pt2_unique_rating,596832,Bar Harbor,,52,,,4,,,,,,,,,,,,,,,
null,,confidence_buffer,596933,confidence_buffer,,null,,,,,,,,,,,,,,,,,,
2196.400000035763,,pt2_memorable_rating,599130,Bar Harbor,,53,,,5,,,,,,,,,,,,,,,
null,,confidence_buffer,599232,confidence_buffer,,null,,,,,,,,,,,,,,,,,,
2136.300000011921,,recognition_phase,601369,Bar Harbor,,49,,,,,,old,1,1,,,,,,,,,,
null,,confidence_buffer,601470,confidence_buffer,,null,,,,,,,,,,,,,,,,,,
null,,thebreak,601972,break,,null,,,,,,,,,,,,,,,,,,
1605.800000011921,,realistic_rating,603579,Clearbrook,,53,Clearbrook,Fictional,5,,,,,,,,,,,,,,,
null,,confidence_buffer,603680,confidence_buffer,,null,,,,,,,,,,,,,,,,,,
789.5,,pt2_unique_rating,604470,Clearbrook,,52,,,4,,,,,,,,,,,,,,,
null,,confidence_buffer,604572,confidence_buffer,,null,,,,,,,,,,,,,,,,,,
1198.8999999761581,,pt2_memorable_rating,605772,Clearbrook,,53,,,5,,,,,,,,,,,,,,,
null,,confidence_buffer,605873,confidence_buffer,,null,,,,,,,,,,,,,,,,,,
2222.600000023842,,recognition_phase,608097,Clearbrook,,50,,,,,,old,1,1,,,,,,,,,,
null,,confidence_buffer,608200,confidence_buffer,,null,,,,,,,,,,,,,,,,,,
null,,thebreak,608701,break,,null,,,,,,,,,,,,,,,,,,
1298.3999999761581,,realistic_rating,610001,East Ladera,,53,East Ladera,Fictional,5,,,,,,,,,,,,,,,
null,,confidence_buffer,610102,confidence_buffer,,null,,,,,,,,,,,,,,,,,,
799.3000000119209,,pt2_unique_rating,610902,East Ladera,,52,,,4,,,,,,,,,,,,,,,
null,,confidence_buffer,611003,confidence_buffer,,null,,,,,,,,,,,,,,,,,,
1593,,pt2_memorable_rating,612597,East Ladera,,52,,,4,,,,,,,,,,,,,,,
null,,confidence_buffer,612699,confidence_buffer,,null,,,,,,,,,,,,,,,,,,
1959,,recognition_phase,614659,East Ladera,,50,,,,,,old,0,0.8333333333333334,,,,,,,,,,
null,,confidence_buffer,614761,confidence_buffer,,null,,,,,,,,,,,,,,,,,,
null,,thebreak,615263,break,,null,,,,,,,,,,,,,,,,,,
1368.8999999761581,,realistic_rating,616632,Yukon,,53,Yukon,US,5,,,,,,,,,,,,,,,
null,,confidence_buffer,616734,confidence_buffer,,null,,,,,,,,,,,,,,,,,,
857.5,,pt2_unique_rating,617592,Yukon,,52,,,4,,,,,,,,,,,,,,,
null,,confidence_buffer,617693,confidence_buffer,,null,,,,,,,,,,,,,,,,,,
1373.8999999761581,,pt2_memorable_rating,619068,Yukon,,53,,,5,,,,,,,,,,,,,,,
null,,confidence_buffer,619170,confidence_buffer,,null,,,,,,,,,,,,,,,,,,
2582.399999976158,,recognition_phase,621754,Yukon,,49,,,,,,old,0,0.7142857142857143,,,,,,,,,,
null,,confidence_buffer,621857,confidence_buffer,,null,,,,,,,,,,,,,,,,,,
null,,thebreak,622358,break,,null,,,,,,,,,,,,,,,,,,
3231.399999976158,,realistic_rating,625591,Assateague Island,,53,Assateague Island,US,5,,,,,,,,,,,,,,,
null,,confidence_buffer,625693,confidence_buffer,,null,,,,,,,,,,,,,,,,,,
915.7999999523163,,probe_rating,626609,probe_rating,,52,,,,4,0,,,,,,,,,,,,,
null,,confidence_buffer,626711,confidence_buffer,,null,,,,,,,,,,,,,,,,,,
11551.100000023842,,pt2_unique_rating,638264,Assateague Island,,52,,,4,,,,,,,,,,,,,,,
null,,confidence_buffer,638366,confidence_buffer,,null,,,,,,,,,,,,,,,,,,
1848.8999999761581,,pt2_memorable_rating,640216,Assateague Island,,52,,,4,,,,,,,,,,,,,,,
null,,confidence_buffer,640318,confidence_buffer,,null,,,,,,,,,,,,,,,,,,
2076.399999976158,,recognition_phase,642394,Assateague Island,,50,,,,,,old,0,0.625,,,,,,,,,,
null,,confidence_buffer,642496,confidence_buffer,,null,,,,,,,,,,,,,,,,,,
null,,thebreak,642998,break,,null,,,,,,,,,,,,,,,,,,
2061,,realistic_rating,645060,Silverpine,,52,Silverpine,Fictional,4,,,,,,,,,,,,,,,
null,,confidence_buffer,645162,confidence_buffer,,null,,,,,,,,,,,,,,,,,,
1363.2000000476837,,pt2_unique_rating,646527,Silverpine,,51,,,3,,,,,,,,,,,,,,,
null,,confidence_buffer,646628,confidence_buffer,,null,,,,,,,,,,,,,,,,,,
1411.699999988079,,pt2_memorable_rating,648041,Silverpine,,52,,,4,,,,,,,,,,,,,,,
null,,confidence_buffer,648143,confidence_buffer,,null,,,,,,,,,,,,,,,,,,
2168.899999976158,,recognition_phase,650312,Silverpine,,50,,,,,,old,1,0.6666666666666666,,,,,,,,,,
null,,confidence_buffer,650415,confidence_buffer,,null,,,,,,,,,,,,,,,,,,
null,,thebreak,650917,break,,null,,,,,,,,,,,,,,,,,,
1177.8999999761581,,realistic_rating,652095,Delaro Park,,52,Delaro Park,Fictional,4,,,,,,,,,,,,,,,
null,,confidence_buffer,652197,confidence_buffer,,null,,,,,,,,,,,,,,,,,,
3465.100000023842,,pt2_unique_rating,655663,Delaro Park,,51,,,3,,,,,,,,,,,,,,,
null,,confidence_buffer,655765,confidence_buffer,,null,,,,,,,,,,,,,,,,,,
983.5,,pt2_memorable_rating,656750,Delaro Park,,52,,,4,,,,,,,,,,,,,,,
null,,confidence_buffer,656851,confidence_buffer,,null,,,,,,,,,,,,,,,,,,
4529.400000035763,,recognition_phase,661381,Delaro Park,,50,,,,,,old,1,0.7,,,,,,,,,,
null,,confidence_buffer,661483,confidence_buffer,,null,,,,,,,,,,,,,,,,,,
null,,thebreak,661985,break,,null,,,,,,,,,,,,,,,,,,
1902,,realistic_rating,663888,Albuquerque,,52,Albuquerque,US,4,,,,,,,,,,,,,,,
null,,confidence_buffer,663990,confidence_buffer,,null,,,,,,,,,,,,,,,,,,
1334.6000000238419,,pt2_unique_rating,665325,Albuquerque,,51,,,3,,,,,,,,,,,,,,,
null,,confidence_buffer,665428,confidence_buffer,,null,,,,,,,,,,,,,,,,,,
1184.300000011921,,pt2_memorable_rating,666613,Albuquerque,,52,,,4,,,,,,,,,,,,,,,
null,,confidence_buffer,666715,confidence_buffer,,null,,,,,,,,,,,,,,,,,,
2046.4000000357628,,recognition_phase,668763,Albuquerque,,50,,,,,,old,1,0.7272727272727273,,,,,,,,,,
null,,confidence_buffer,668865,confidence_buffer,,null,,,,,,,,,,,,,,,,,,
null,,thebreak,669366,break,,null,,,,,,,,,,,,,,,,,,
2506.800000011921,,realistic_rating,671874,Custer,,52,Custer,US,4,,,,,,,,,,,,,,,
null,,confidence_buffer,671976,confidence_buffer,,null,,,,,,,,,,,,,,,,,,
1929.1000000238419,,probe_rating,673906,probe_rating,,51,,,,3,1,,,,,,,,,,,,,
null,,confidence_buffer,674009,confidence_buffer,,null,,,,,,,,,,,,,,,,,,
3196.100000023842,,pt2_unique_rating,677205,Custer,,52,,,4,,,,,,,,,,,,,,,
null,,confidence_buffer,677308,confidence_buffer,,null,,,,,,,,,,,,,,,,,,
2782.600000023842,,pt2_memorable_rating,680092,Custer,,51,,,3,,,,,,,,,,,,,,,
null,,confidence_buffer,680194,confidence_buffer,,null,,,,,,,,,,,,,,,,,,
1796.5,,recognition_phase,681991,Custer,,49,,,,,,old,1,0.75,,,,,,,,,,
null,,confidence_buffer,682093,confidence_buffer,,null,,,,,,,,,,,,,,,,,,
null,,thebreak,682595,break,,null,,,,,,,,,,,,,,,,,,
1823.9000000357628,,realistic_rating,684420,Abilene,,52,Abilene,US,4,,,,,,,,,,,,,,,
null,,confidence_buffer,684522,confidence_buffer,,null,,,,,,,,,,,,,,,,,,
2433.100000023842,,probe_rating,686956,probe_rating,,53,,,,5,1,,,,,,,,,,,,,
null,,confidence_buffer,687059,confidence_buffer,,null,,,,,,,,,,,,,,,,,,
3562.699999988079,,pt2_unique_rating,690622,Abilene,,52,,,4,,,,,,,,,,,,,,,
null,,confidence_buffer,690724,confidence_buffer,,null,,,,,,,,,,,,,,,,,,
1611.1000000238419,,pt2_memorable_rating,692337,Abilene,,51,,,3,,,,,,,,,,,,,,,
null,,confidence_buffer,692440,confidence_buffer,,null,,,,,,,,,,,,,,,,,,
1768.7999999523163,,recognition_phase,694209,Abilene,,50,,,,,,old,1,0.7692307692307693,,,,,,,,,,
null,,confidence_buffer,694312,confidence_buffer,,null,,,,,,,,,,,,,,,,,,
null,,thebreak,694814,break,,null,,,,,,,,,,,,,,,,,,
2208.600000023842,,realistic_rating,697024,Cornwall,,52,Cornwall,US,4,,,,,,,,,,,,,,,
null,,confidence_buffer,697125,confidence_buffer,,null,,,,,,,,,,,,,,,,,,
1255.300000011921,,pt2_unique_rating,698381,Cornwall,,51,,,3,,,,,,,,,,,,,,,
null,,confidence_buffer,698484,confidence_buffer,,null,,,,,,,,,,,,,,,,,,
1243.6000000238419,,pt2_memorable_rating,699728,Cornwall,,52,,,4,,,,,,,,,,,,,,,
null,,confidence_buffer,699830,confidence_buffer,,null,,,,,,,,,,,,,,,,,,
1651.3999999761581,,recognition_phase,701483,Cornwall,,50,,,,,,old,1,0.7857142857142857,,,,,,,,,,
null,,confidence_buffer,701584,confidence_buffer,,null,,,,,,,,,,,,,,,,,,
null,,thebreak,702085,break,,null,,,,,,,,,,,,,,,,,,
2705.800000011921,,realistic_rating,704791,Cleveland,,52,Cleveland,US,4,,,,,,,,,,,,,,,
null,,confidence_buffer,704892,confidence_buffer,,null,,,,,,,,,,,,,,,,,,
1145.3999999761581,,pt2_unique_rating,706038,Cleveland,,51,,,3,,,,,,,,,,,,,,,
null,,confidence_buffer,706142,confidence_buffer,,null,,,,,,,,,,,,,,,,,,
41522.30000001192,,pt2_memorable_rating,747666,Cleveland,,51,,,3,,,,,,,,,,,,,,,
null,,confidence_buffer,747768,confidence_buffer,,null,,,,,,,,,,,,,,,,,,
2353.100000023842,,recognition_phase,750122,Cleveland,,49,,,,,,old,1,0.8,,,,,,,,,,
null,,confidence_buffer,750225,confidence_buffer,,null,,,,,,,,,,,,,,,,,,
null,,thebreak,750727,break,,null,,,,,,,,,,,,,,,,,,
1337.1000000238419,,realistic_rating,752065,Hanover,,52,Hanover,US,4,,,,,,,,,,,,,,,
null,,confidence_buffer,752167,confidence_buffer,,null,,,,,,,,,,,,,,,,,,
1770,,pt2_unique_rating,753938,Hanover,,51,,,3,,,,,,,,,,,,,,,
null,,confidence_buffer,754040,confidence_buffer,,null,,,,,,,,,,,,,,,,,,
1373.5,,pt2_memorable_rating,755414,Hanover,,52,,,4,,,,,,,,,,,,,,,
null,,confidence_buffer,755516,confidence_buffer,,null,,,,,,,,,,,,,,,,,,
1878.300000011921,,recognition_phase,757396,Hanover,,50,,,,,,old,1,0.8125,,,,,,,,,,
null,,confidence_buffer,757498,confidence_buffer,,null,,,,,,,,,,,,,,,,,,
null,,thebreak,757999,break,,null,,,,,,,,,,,,,,,,,,
1477.199999988079,,realistic_rating,759477,Redgrove,,52,Redgrove,Fictional,4,,,,,,,,,,,,,,,
null,,confidence_buffer,759580,confidence_buffer,,null,,,,,,,,,,,,,,,,,,
1234.5,,pt2_unique_rating,760815,Redgrove,,51,,,3,,,,,,,,,,,,,,,
null,,confidence_buffer,760917,confidence_buffer,,null,,,,,,,,,,,,,,,,,,
1958.5,,pt2_memorable_rating,762876,Redgrove,,52,,,4,,,,,,,,,,,,,,,
null,,confidence_buffer,762979,confidence_buffer,,null,,,,,,,,,,,,,,,,,,
1888.5,,recognition_phase,764867,Redgrove,,49,,,,,,old,0,0.7647058823529411,,,,,,,,,,
null,,confidence_buffer,764968,confidence_buffer,,null,,,,,,,,,,,,,,,,,,
null,,thebreak,765470,break,,null,,,,,,,,,,,,,,,,,,
1506.1000000238419,,realistic_rating,766977,Highvale,,52,Highvale,Fictional,4,,,,,,,,,,,,,,,
null,,confidence_buffer,767080,confidence_buffer,,null,,,,,,,,,,,,,,,,,,
1444.300000011921,,pt2_unique_rating,768527,Highvale,,51,,,3,,,,,,,,,,,,,,,
null,,confidence_buffer,768628,confidence_buffer,,null,,,,,,,,,,,,,,,,,,
1677.1000000238419,,pt2_memorable_rating,770306,Highvale,,52,,,4,,,,,,,,,,,,,,,
null,,confidence_buffer,770408,confidence_buffer,,null,,,,,,,,,,,,,,,,,,
2287.2999999523163,,recognition_phase,772696,Highvale,,49,,,,,,old,0,0.7222222222222222,,,,,,,,,,
null,,confidence_buffer,772798,confidence_buffer,,null,,,,,,,,,,,,,,,,,,
null,,thebreak,773301,break,,null,,,,,,,,,,,,,,,,,,
1305.5,,realistic_rating,774607,Willowford,,52,Willowford,Fictional,4,,,,,,,,,,,,,,,
null,,confidence_buffer,774708,confidence_buffer,,null,,,,,,,,,,,,,,,,,,
2345.699999988079,,probe_rating,777055,probe_rating,,53,,,,5,1,,,,,,,,,,,,,
null,,confidence_buffer,777157,confidence_buffer,,null,,,,,,,,,,,,,,,,,,
2185.5,,pt2_unique_rating,779344,Willowford,,51,,,3,,,,,,,,,,,,,,,
null,,confidence_buffer,779445,confidence_buffer,,null,,,,,,,,,,,,,,,,,,
2374.600000023842,,pt2_memorable_rating,781821,Willowford,,52,,,4,,,,,,,,,,,,,,,
null,,confidence_buffer,781922,confidence_buffer,,null,,,,,,,,,,,,,,,,,,
2038.1000000238419,,recognition_phase,783961,Willowford,,50,,,,,,old,0,0.6842105263157895,,,,,,,,,,
null,,confidence_buffer,784062,confidence_buffer,,null,,,,,,,,,,,,,,,,,,
null,,thebreak,784563,break,,null,,,,,,,,,,,,,,,,,,
1260,,realistic_rating,785824,Leesburg,,52,Leesburg,US,4,,,,,,,,,,,,,,,
null,,confidence_buffer,785926,confidence_buffer,,null,,,,,,,,,,,,,,,,,,
1590,,pt2_unique_rating,787518,Leesburg,,51,,,3,,,,,,,,,,,,,,,
null,,confidence_buffer,787620,confidence_buffer,,null,,,,,,,,,,,,,,,,,,
1323.3999999761581,,pt2_memorable_rating,788945,Leesburg,,52,,,4,,,,,,,,,,,,,,,
null,,confidence_buffer,789047,confidence_buffer,,null,,,,,,,,,,,,,,,,,,
1759.1000000238419,,recognition_phase,790807,Leesburg,,50,,,,,,old,0,0.65,,,,,,,,,,
null,,confidence_buffer,790909,confidence_buffer,,null,,,,,,,,,,,,,,,,,,
null,,thebreak,791411,break,,null,,,,,,,,,,,,,,,,,,
1228.3999999761581,,realistic_rating,792640,Rosehollow,,52,Rosehollow,Fictional,4,,,,,,,,,,,,,,,
null,,confidence_buffer,792742,confidence_buffer,,null,,,,,,,,,,,,,,,,,,
1226.199999988079,,pt2_unique_rating,793969,Rosehollow,,51,,,3,,,,,,,,,,,,,,,
null,,confidence_buffer,794071,confidence_buffer,,null,,,,,,,,,,,,,,,,,,
959.7000000476837,,pt2_memorable_rating,795032,Rosehollow,,52,,,4,,,,,,,,,,,,,,,
null,,confidence_buffer,795133,confidence_buffer,,null,,,,,,,,,,,,,,,,,,
1787,,recognition_phase,796921,Rosehollow,,49,,,,,,old,0,0.6190476190476191,,,,,,,,,,
null,,confidence_buffer,797023,confidence_buffer,,null,,,,,,,,,,,,,,,,,,
null,,thebreak,797525,break,,null,,,,,,,,,,,,,,,,,,
1772.199999988079,,realistic_rating,799298,Boulder,,52,Boulder,US,4,,,,,,,,,,,,,,,
null,,confidence_buffer,799400,confidence_buffer,,null,,,,,,,,,,,,,,,,,,
1144.9000000357628,,pt2_unique_rating,800546,Boulder,,51,,,3,,,,,,,,,,,,,,,
null,,confidence_buffer,800648,confidence_buffer,,null,,,,,,,,,,,,,,,,,,
1632.3999999761581,,pt2_memorable_rating,802282,Boulder,,52,,,4,,,,,,,,,,,,,,,
null,,confidence_buffer,802384,confidence_buffer,,null,,,,,,,,,,,,,,,,,,
1739.5,,recognition_phase,804125,Boulder,,50,,,,,,old,0,0.5909090909090909,,,,,,,,,,
null,,confidence_buffer,804226,confidence_buffer,,null,,,,,,,,,,,,,,,,,,
null,,thebreak,804728,break,,null,,,,,,,,,,,,,,,,,,
1139.8999999761581,,realistic_rating,805868,Claywater,,52,Claywater,Fictional,4,,,,,,,,,,,,,,,
null,,confidence_buffer,805970,confidence_buffer,,null,,,,,,,,,,,,,,,,,,
1770.2999999523163,,pt2_unique_rating,807741,Claywater,,51,,,3,,,,,,,,,,,,,,,
null,,confidence_buffer,807843,confidence_buffer,,null,,,,,,,,,,,,,,,,,,
1353.6000000238419,,pt2_memorable_rating,809198,Claywater,,52,,,4,,,,,,,,,,,,,,,
null,,confidence_buffer,809302,confidence_buffer,,null,,,,,,,,,,,,,,,,,,
1649.8999999761581,,probe_rating,810952,probe_rating,,49,,,,1,1,,,,,,,,,,,,,
null,,confidence_buffer,811056,confidence_buffer,,null,,,,,,,,,,,,,,,,,,
3016.900000035763,,recognition_phase,814073,Claywater,,50,,,,,,old,0,0.5652173913043478,,,,,,,,,,
null,,confidence_buffer,814175,confidence_buffer,,null,,,,,,,,,,,,,,,,,,
null,,thebreak,814676,break,,null,,,,,,,,,,,,,,,,,,
1724.699999988079,,realistic_rating,816402,Bowling Green,,52,Bowling Green,US,4,,,,,,,,,,,,,,,
null,,confidence_buffer,816505,confidence_buffer,,null,,,,,,,,,,,,,,,,,,
1252.7999999523163,,pt2_unique_rating,817759,Bowling Green,,51,,,3,,,,,,,,,,,,,,,
null,,confidence_buffer,817861,confidence_buffer,,null,,,,,,,,,,,,,,,,,,
1512.5,,pt2_memorable_rating,819374,Bowling Green,,52,,,4,,,,,,,,,,,,,,,
null,,confidence_buffer,819476,confidence_buffer,,null,,,,,,,,,,,,,,,,,,
1571.5999999642372,,recognition_phase,821049,Bowling Green,,50,,,,,,old,1,0.5833333333333334,,,,,,,,,,
null,,confidence_buffer,821151,confidence_buffer,,null,,,,,,,,,,,,,,,,,,
null,,thebreak,821654,break,,null,,,,,,,,,,,,,,,,,,
2457.399999976158,,realistic_rating,824112,Pine Hollow,,52,Pine Hollow,Fictional,4,,,,,,,,,,,,,,,
null,,confidence_buffer,824215,confidence_buffer,,null,,,,,,,,,,,,,,,,,,
974.5,,pt2_unique_rating,825189,Pine Hollow,,51,,,3,,,,,,,,,,,,,,,
null,,confidence_buffer,825292,confidence_buffer,,null,,,,,,,,,,,,,,,,,,
928.0999999642372,,pt2_memorable_rating,826221,Pine Hollow,,52,,,4,,,,,,,,,,,,,,,
null,,confidence_buffer,826322,confidence_buffer,,null,,,,,,,,,,,,,,,,,,
1630.4000000357628,,recognition_phase,827954,Pine Hollow,,49,,,,,,old,0,0.56,,,,,,,,,,
null,,confidence_buffer,828055,confidence_buffer,,null,,,,,,,,,,,,,,,,,,
null,,thebreak,828557,break,,null,,,,,,,,,,,,,,,,,,
912.3000000119209,,realistic_rating,829470,Millstone,,52,Millstone,Fictional,4,,,,,,,,,,,,,,,
null,,confidence_buffer,829573,confidence_buffer,,null,,,,,,,,,,,,,,,,,,
1244.300000011921,,pt2_unique_rating,830818,Millstone,,51,,,3,,,,,,,,,,,,,,,
null,,confidence_buffer,830920,confidence_buffer,,null,,,,,,,,,,,,,,,,,,
1640.9000000357628,,probe_rating,832562,probe_rating,,51,,,,3,1,,,,,,,,,,,,,
null,,confidence_buffer,832665,confidence_buffer,,null,,,,,,,,,,,,,,,,,,
1502,,pt2_memorable_rating,834168,Millstone,,52,,,4,,,,,,,,,,,,,,,
null,,confidence_buffer,834270,confidence_buffer,,null,,,,,,,,,,,,,,,,,,
1793.2000000476837,,recognition_phase,836065,Millstone,,50,,,,,,old,1,0.5769230769230769,,,,,,,,,,
null,,confidence_buffer,836167,confidence_buffer,,null,,,,,,,,,,,,,,,,,,
null,,thebreak,836670,break,,null,,,,,,,,,,,,,,,,,,
1527.300000011921,,realistic_rating,838198,Shreveport,,52,Shreveport,US,4,,,,,,,,,,,,,,,
null,,confidence_buffer,838300,confidence_buffer,,null,,,,,,,,,,,,,,,,,,
1318.5999999642372,,pt2_unique_rating,839619,Shreveport,,51,,,3,,,,,,,,,,,,,,,
null,,confidence_buffer,839721,confidence_buffer,,null,,,,,,,,,,,,,,,,,,
1073.7000000476837,,pt2_memorable_rating,840796,Shreveport,,52,,,4,,,,,,,,,,,,,,,
null,,confidence_buffer,840897,confidence_buffer,,null,,,,,,,,,,,,,,,,,,
1730.800000011921,,recognition_phase,842628,Shreveport,,49,,,,,,old,0,0.5555555555555556,,,,,,,,,,
null,,confidence_buffer,842730,confidence_buffer,,null,,,,,,,,,,,,,,,,,,
null,,thebreak,843232,break,,null,,,,,,,,,,,,,,,,,,
1010.8000000119209,,realistic_rating,844244,Summershade,,52,Summershade,Fictional,4,,,,,,,,,,,,,,,
null,,confidence_buffer,844347,confidence_buffer,,null,,,,,,,,,,,,,,,,,,
916.1999999880791,,pt2_unique_rating,845264,Summershade,,51,,,3,,,,,,,,,,,,,,,
null,,confidence_buffer,845366,confidence_buffer,,null,,,,,,,,,,,,,,,,,,
967.6999999880791,,pt2_memorable_rating,846335,Summershade,,52,,,4,,,,,,,,,,,,,,,
null,,confidence_buffer,846436,confidence_buffer,,null,,,,,,,,,,,,,,,,,,
2255.699999988079,,recognition_phase,848693,Summershade,,50,,,,,,old,1,0.5714285714285714,,,,,,,,,,
null,,confidence_buffer,848796,confidence_buffer,,null,,,,,,,,,,,,,,,,,,
null,,thebreak,849298,break,,null,,,,,,,,,,,,,,,,,,
810.8000000119209,,realistic_rating,850110,Coeur d'Alene,,52,Coeur d'Alene,US,4,,,,,,,,,,,,,,,
null,,confidence_buffer,850212,confidence_buffer,,null,,,,,,,,,,,,,,,,,,
907.4000000357628,,pt2_unique_rating,851121,Coeur d'Alene,,51,,,3,,,,,,,,,,,,,,,
null,,confidence_buffer,851223,confidence_buffer,,null,,,,,,,,,,,,,,,,,,
1155.2000000476837,,pt2_memorable_rating,852379,Coeur d'Alene,,52,,,4,,,,,,,,,,,,,,,
null,,confidence_buffer,852481,confidence_buffer,,null,,,,,,,,,,,,,,,,,,
1621.6000000238419,,probe_rating,854104,probe_rating,,50,,,,2,1,,,,,,,,,,,,,
null,,confidence_buffer,854205,confidence_buffer,,null,,,,,,,,,,,,,,,,,,
2800.5,,recognition_phase,857007,Coeur d'Alene,,49,,,,,,old,0,0.5517241379310345,,,,,,,,,,
null,,confidence_buffer,857109,confidence_buffer,,null,,,,,,,,,,,,,,,,,,
null,,thebreak,857612,break,,null,,,,,,,,,,,,,,,,,,
1058.300000011921,,realistic_rating,858672,Huntsville,,52,Huntsville,US,4,,,,,,,,,,,,,,,
null,,confidence_buffer,858774,confidence_buffer,,null,,,,,,,,,,,,,,,,,,
1729.9000000357628,,probe_rating,860505,probe_rating,,51,,,,3,1,,,,,,,,,,,,,
null,,confidence_buffer,860607,confidence_buffer,,null,,,,,,,,,,,,,,,,,,
1334.2000000476837,,pt2_unique_rating,861942,Huntsville,,52,,,4,,,,,,,,,,,,,,,
null,,confidence_buffer,862045,confidence_buffer,,null,,,,,,,,,,,,,,,,,,
1094.5,,pt2_memorable_rating,863140,Huntsville,,51,,,3,,,,,,,,,,,,,,,
null,,confidence_buffer,863242,confidence_buffer,,null,,,,,,,,,,,,,,,,,,
1652.1000000238419,,recognition_phase,864895,Huntsville,,49,,,,,,old,0,0.5333333333333333,,,,,,,,,,
null,,confidence_buffer,864997,confidence_buffer,,null,,,,,,,,,,,,,,,,,,
null,,thebreak,865500,break,,null,,,,,,,,,,,,,,,,,,
2297.400000035763,,realistic_rating,867798,Sierra Hollow,,52,Sierra Hollow,Fictional,4,,,,,,,,,,,,,,,
null,,confidence_buffer,867900,confidence_buffer,,null,,,,,,,,,,,,,,,,,,
1769.699999988079,,probe_rating,869671,probe_rating,,49,,,,1,1,,,,,,,,,,,,,
null,,confidence_buffer,869774,confidence_buffer,,null,,,,,,,,,,,,,,,,,,
1352.4000000357628,,pt2_unique_rating,871128,Sierra Hollow,,52,,,4,,,,,,,,,,,,,,,
null,,confidence_buffer,871229,confidence_buffer,,null,,,,,,,,,,,,,,,,,,
1423.699999988079,,pt2_memorable_rating,872654,Sierra Hollow,,51,,,3,,,,,,,,,,,,,,,
null,,confidence_buffer,872757,confidence_buffer,,null,,,,,,,,,,,,,,,,,,
1649.7000000476837,,recognition_phase,874408,Sierra Hollow,,50,,,,,,old,1,0.5483870967741935,,,,,,,,,,
null,,confidence_buffer,874509,confidence_buffer,,null,,,,,,,,,,,,,,,,,,
null,,thebreak,875011,break,,null,,,,,,,,,,,,,,,,,,
1061.5,,realistic_rating,876073,Cedarwyn,,52,Cedarwyn,Fictional,4,,,,,,,,,,,,,,,
null,,confidence_buffer,876175,confidence_buffer,,null,,,,,,,,,,,,,,,,,,
3167,,pt2_unique_rating,879343,Cedarwyn,,52,,,4,,,,,,,,,,,,,,,
null,,confidence_buffer,879445,confidence_buffer,,null,,,,,,,,,,,,,,,,,,
956.7000000476837,,pt2_memorable_rating,880403,Cedarwyn,,51,,,3,,,,,,,,,,,,,,,
null,,confidence_buffer,880504,confidence_buffer,,null,,,,,,,,,,,,,,,,,,
1643.800000011921,,recognition_phase,882149,Cedarwyn,,50,,,,,,old,1,0.5625,,,,,,,,,,
null,,confidence_buffer,882251,confidence_buffer,,null,,,,,,,,,,,,,,,,,,
null,,thebreak,882753,break,,null,,,,,,,,,,,,,,,,,,
742.2999999523163,,realistic_rating,883496,Okoboji,,52,Okoboji,US,4,,,,,,,,,,,,,,,
null,,confidence_buffer,883598,confidence_buffer,,null,,,,,,,,,,,,,,,,,,
936.8000000119209,,pt2_unique_rating,884536,Okoboji,,51,,,3,,,,,,,,,,,,,,,
null,,confidence_buffer,884638,confidence_buffer,,null,,,,,,,,,,,,,,,,,,
877.6000000238419,,pt2_memorable_rating,885516,Okoboji,,52,,,4,,,,,,,,,,,,,,,
null,,confidence_buffer,885617,confidence_buffer,,null,,,,,,,,,,,,,,,,,,
1661.199999988079,,recognition_phase,887279,Okoboji,,50,,,,,,old,0,0.5454545454545454,,,,,,,,,,
null,,confidence_buffer,887380,confidence_buffer,,null,,,,,,,,,,,,,,,,,,
null,,thebreak,887883,break,,null,,,,,,,,,,,,,,,,,,
998.2000000476837,,realistic_rating,888884,Stonebrook,,52,Stonebrook,Fictional,4,,,,,,,,,,,,,,,
null,,confidence_buffer,888988,confidence_buffer,,null,,,,,,,,,,,,,,,,,,
935.5,,pt2_unique_rating,889924,Stonebrook,,51,,,3,,,,,,,,,,,,,,,
null,,confidence_buffer,890026,confidence_buffer,,null,,,,,,,,,,,,,,,,,,
1046.7999999523163,,pt2_memorable_rating,891075,Stonebrook,,52,,,4,,,,,,,,,,,,,,,
null,,confidence_buffer,891176,confidence_buffer,,null,,,,,,,,,,,,,,,,,,
1888.699999988079,,recognition_phase,893066,Stonebrook,,49,,,,,,old,1,0.5588235294117647,,,,,,,,,,
null,,confidence_buffer,893168,confidence_buffer,,null,,,,,,,,,,,,,,,,,,
null,,thebreak,893670,break,,null,,,,,,,,,,,,,,,,,,
1407.0999999642372,,realistic_rating,895079,Hilo,,52,Hilo,US,4,,,,,,,,,,,,,,,
null,,confidence_buffer,895180,confidence_buffer,,null,,,,,,,,,,,,,,,,,,
1116.2000000476837,,pt2_unique_rating,896298,Hilo,,51,,,3,,,,,,,,,,,,,,,
null,,confidence_buffer,896400,confidence_buffer,,null,,,,,,,,,,,,,,,,,,
1184.7000000476837,,pt2_memorable_rating,897586,Hilo,,52,,,4,,,,,,,,,,,,,,,
null,,confidence_buffer,897688,confidence_buffer,,null,,,,,,,,,,,,,,,,,,
1590.6000000238419,,recognition_phase,899279,Hilo,,50,,,,,,old,0,0.5428571428571428,,,,,,,,,,
null,,confidence_buffer,899381,confidence_buffer,,null,,,,,,,,,,,,,,,,,,
null,,thebreak,899883,break,,null,,,,,,,,,,,,,,,,,,
696.5,,realistic_rating,900581,Natchez,,52,Natchez,US,4,,,,,,,,,,,,,,,
null,,confidence_buffer,900682,confidence_buffer,,null,,,,,,,,,,,,,,,,,,
907.4000000357628,,pt2_unique_rating,901591,Natchez,,51,,,3,,,,,,,,,,,,,,,
null,,confidence_buffer,901693,confidence_buffer,,null,,,,,,,,,,,,,,,,,,
2242.699999988079,,pt2_memorable_rating,903937,Natchez,,52,,,4,,,,,,,,,,,,,,,
null,,confidence_buffer,904040,confidence_buffer,,null,,,,,,,,,,,,,,,,,,
2005.800000011921,,recognition_phase,906048,Natchez,,50,,,,,,old,0,0.5277777777777778,,,,,,,,,,
null,,confidence_buffer,906151,confidence_buffer,,null,,,,,,,,,,,,,,,,,,
null,,thebreak,906653,break,,null,,,,,,,,,,,,,,,,,,
929.5,,realistic_rating,907584,Golden Trace,,52,Golden Trace,Fictional,4,,,,,,,,,,,,,,,
null,,confidence_buffer,907685,confidence_buffer,,null,,,,,,,,,,,,,,,,,,
2109.7000000476837,,pt2_unique_rating,909796,Golden Trace,,51,,,3,,,,,,,,,,,,,,,
null,,confidence_buffer,909900,confidence_buffer,,null,,,,,,,,,,,,,,,,,,
883.3999999761581,,pt2_memorable_rating,910785,Golden Trace,,52,,,4,,,,,,,,,,,,,,,
null,,confidence_buffer,910888,confidence_buffer,,null,,,,,,,,,,,,,,,,,,
1649.300000011921,,recognition_phase,912538,Golden Trace,,50,,,,,,old,1,0.5405405405405406,,,,,,,,,,
null,,confidence_buffer,912639,confidence_buffer,,null,,,,,,,,,,,,,,,,,,
null,,thebreak,913141,break,,null,,,,,,,,,,,,,,,,,,
1061.199999988079,,realistic_rating,914204,Cody,,52,Cody,US,4,,,,,,,,,,,,,,,
null,,confidence_buffer,914305,confidence_buffer,,null,,,,,,,,,,,,,,,,,,
1037.1000000238419,,pt2_unique_rating,915343,Cody,,51,,,3,,,,,,,,,,,,,,,
null,,confidence_buffer,915445,confidence_buffer,,null,,,,,,,,,,,,,,,,,,
917.8999999761581,,pt2_memorable_rating,916364,Cody,,52,,,4,,,,,,,,,,,,,,,
null,,confidence_buffer,916466,confidence_buffer,,null,,,,,,,,,,,,,,,,,,
1699.1000000238419,,recognition_phase,918166,Cody,,49,,,,,,old,0,0.5263157894736842,,,,,,,,,,
null,,confidence_buffer,918267,confidence_buffer,,null,,,,,,,,,,,,,,,,,,
null,,thebreak,918769,break,,null,,,,,,,,,,,,,,,,,,
962.3999999761581,,realistic_rating,919732,Ironwood Heights,,52,Ironwood Heights,Fictional,4,,,,,,,,,,,,,,,
null,,confidence_buffer,919835,confidence_buffer,,null,,,,,,,,,,,,,,,,,,
1040.300000011921,,pt2_unique_rating,920877,Ironwood Heights,,51,,,3,,,,,,,,,,,,,,,
null,,confidence_buffer,920980,confidence_buffer,,null,,,,,,,,,,,,,,,,,,
862.5999999642372,,pt2_memorable_rating,921843,Ironwood Heights,,52,,,4,,,,,,,,,,,,,,,
null,,confidence_buffer,921945,confidence_buffer,,null,,,,,,,,,,,,,,,,,,
1701.1000000238419,,recognition_phase,923647,Ironwood Heights,,50,,,,,,old,1,0.5384615384615384,,,,,,,,,,
null,,confidence_buffer,923748,confidence_buffer,,null,,,,,,,,,,,,,,,,,,
null,,thebreak,924250,break,,null,,,,,,,,,,,,,,,,,,
962,,realistic_rating,925213,Gardnerville,,52,Gardnerville,US,4,,,,,,,,,,,,,,,
null,,confidence_buffer,925315,confidence_buffer,,null,,,,,,,,,,,,,,,,,,
1343.5999999642372,,pt2_unique_rating,926660,Gardnerville,,51,,,3,,,,,,,,,,,,,,,
null,,confidence_buffer,926762,confidence_buffer,,null,,,,,,,,,,,,,,,,,,
1610.7999999523163,,pt2_memorable_rating,928374,Gardnerville,,52,,,4,,,,,,,,,,,,,,,
null,,confidence_buffer,928475,confidence_buffer,,null,,,,,,,,,,,,,,,,,,
1602.3999999761581,,recognition_phase,930079,Gardnerville,,50,,,,,,old,1,0.55,,,,,,,,,,
null,,confidence_buffer,930180,confidence_buffer,,null,,,,,,,,,,,,,,,,,,
null,,thebreak,930682,break,,null,,,,,,,,,,,,,,,,,,
822.3999999761581,,realistic_rating,931506,Sammamish,,52,Sammamish,US,4,,,,,,,,,,,,,,,
null,,confidence_buffer,931607,confidence_buffer,,null,,,,,,,,,,,,,,,,,,
921.6999999880791,,pt2_unique_rating,932530,Sammamish,,51,,,3,,,,,,,,,,,,,,,
null,,confidence_buffer,932632,confidence_buffer,,null,,,,,,,,,,,,,,,,,,
824.8000000119209,,pt2_memorable_rating,933458,Sammamish,,52,,,4,,,,,,,,,,,,,,,
null,,confidence_buffer,933560,confidence_buffer,,null,,,,,,,,,,,,,,,,,,
1650.6000000238419,,recognition_phase,935212,Sammamish,,49,,,,,,old,0,0.5365853658536586,,,,,,,,,,
null,,confidence_buffer,935314,confidence_buffer,,null,,,,,,,,,,,,,,,,,,
null,,thebreak,935816,break,,null,,,,,,,,,,,,,,,,,,
831.7000000476837,,realistic_rating,936650,Fairhaven,,52,Fairhaven,Fictional,4,,,,,,,,,,,,,,,
null,,confidence_buffer,936752,confidence_buffer,,null,,,,,,,,,,,,,,,,,,
1006,,pt2_unique_rating,937761,Fairhaven,,51,,,3,,,,,,,,,,,,,,,
null,,confidence_buffer,937865,confidence_buffer,,null,,,,,,,,,,,,,,,,,,
1032.5,,pt2_memorable_rating,938899,Fairhaven,,52,,,4,,,,,,,,,,,,,,,
null,,confidence_buffer,939000,confidence_buffer,,null,,,,,,,,,,,,,,,,,,
1521.8999999761581,,recognition_phase,940523,Fairhaven,,49,,,,,,old,1,0.5476190476190477,,,,,,,,,,
null,,confidence_buffer,940626,confidence_buffer,,null,,,,,,,,,,,,,,,,,,
null,,thebreak,941127,break,,null,,,,,,,,,,,,,,,,,,
1129.800000011921,,realistic_rating,942258,Medora,,52,Medora,US,4,,,,,,,,,,,,,,,
null,,confidence_buffer,942359,confidence_buffer,,null,,,,,,,,,,,,,,,,,,
1779.699999988079,,pt2_unique_rating,944140,Medora,,51,,,3,,,,,,,,,,,,,,,
null,,confidence_buffer,944243,confidence_buffer,,null,,,,,,,,,,,,,,,,,,
1015.8000000119209,,pt2_memorable_rating,945260,Medora,,52,,,4,,,,,,,,,,,,,,,
null,,confidence_buffer,945362,confidence_buffer,,null,,,,,,,,,,,,,,,,,,
1760.5,,recognition_phase,947123,Medora,,50,,,,,,old,0,0.5348837209302325,,,,,,,,,,
null,,confidence_buffer,947225,confidence_buffer,,null,,,,,,,,,,,,,,,,,,
null,,thebreak,947727,break,,null,,,,,,,,,,,,,,,,,,
909.2999999523163,,realistic_rating,948638,West Talora,,52,West Talora,Fictional,4,,,,,,,,,,,,,,,
null,,confidence_buffer,948740,confidence_buffer,,null,,,,,,,,,,,,,,,,,,
1374.0999999642372,,pt2_unique_rating,950115,West Talora,,51,,,3,,,,,,,,,,,,,,,
null,,confidence_buffer,950217,confidence_buffer,,null,,,,,,,,,,,,,,,,,,
1621,,pt2_memorable_rating,951839,West Talora,,52,,,4,,,,,,,,,,,,,,,
null,,confidence_buffer,951941,confidence_buffer,,null,,,,,,,,,,,,,,,,,,
1849.0999999642372,,recognition_phase,953791,West Talora,,49,,,,,,old,1,0.5454545454545454,,,,,,,,,,
null,,confidence_buffer,953894,confidence_buffer,,null,,,,,,,,,,,,,,,,,,
null,,thebreak,954396,break,,null,,,,,,,,,,,,,,,,,,
751.9000000357628,,realistic_rating,955149,Linden Trace,,52,Linden Trace,Fictional,4,,,,,,,,,,,,,,,
null,,confidence_buffer,955252,confidence_buffer,,null,,,,,,,,,,,,,,,,,,
878,,pt2_unique_rating,956131,Linden Trace,,51,,,3,,,,,,,,,,,,,,,
null,,confidence_buffer,956234,confidence_buffer,,null,,,,,,,,,,,,,,,,,,
1214,,pt2_memorable_rating,957449,Linden Trace,,52,,,4,,,,,,,,,,,,,,,
null,,confidence_buffer,957552,confidence_buffer,,null,,,,,,,,,,,,,,,,,,
1550.2000000476837,,recognition_phase,959103,Linden Trace,,50,,,,,,old,0,0.5333333333333333,,,,,,,,,,
null,,confidence_buffer,959205,confidence_buffer,,null,,,,,,,,,,,,,,,,,,
null,,thebreak,959708,break,,null,,,,,,,,,,,,,,,,,,
761.6999999880791,,realistic_rating,960471,Granton Ridge,,52,Granton Ridge,Fictional,4,,,,,,,,,,,,,,,
null,,confidence_buffer,960573,confidence_buffer,,null,,,,,,,,,,,,,,,,,,
946.5,,pt2_unique_rating,961521,Granton Ridge,,51,,,3,,,,,,,,,,,,,,,
null,,confidence_buffer,961623,confidence_buffer,,null,,,,,,,,,,,,,,,,,,
1739.3999999761581,,pt2_memorable_rating,963364,Granton Ridge,,52,,,4,,,,,,,,,,,,,,,
null,,confidence_buffer,963466,confidence_buffer,,null,,,,,,,,,,,,,,,,,,
1711,,recognition_phase,965178,Granton Ridge,,49,,,,,,old,0,0.5217391304347826,,,,,,,,,,
null,,confidence_buffer,965280,confidence_buffer,,null,,,,,,,,,,,,,,,,,,
null,,thebreak,965783,break,,null,,,,,,,,,,,,,,,,,,
870.8000000119209,,realistic_rating,966654,Tamarisk Hills,,52,Tamarisk Hills,Fictional,4,,,,,,,,,,,,,,,
null,,confidence_buffer,966757,confidence_buffer,,null,,,,,,,,,,,,,,,,,,
1283.800000011921,,pt2_unique_rating,968042,Tamarisk Hills,,51,,,3,,,,,,,,,,,,,,,
null,,confidence_buffer,968145,confidence_buffer,,null,,,,,,,,,,,,,,,,,,
1758.7999999523163,,pt2_memorable_rating,969905,Tamarisk Hills,,52,,,4,,,,,,,,,,,,,,,
null,,confidence_buffer,970008,confidence_buffer,,null,,,,,,,,,,,,,,,,,,
1817.2000000476837,,recognition_phase,971827,Tamarisk Hills,,50,,,,,,old,0,0.5106382978723404,,,,,,,,,,
null,,confidence_buffer,971933,confidence_buffer,,null,,,,,,,,,,,,,,,,,,
null,,thebreak,972435,break,,null,,,,,,,,,,,,,,,,,,
3721.599999964237,,realistic_rating,976158,Alliance,,52,Alliance,US,4,,,,,,,,,,,,,,,
null,,confidence_buffer,976260,confidence_buffer,,null,,,,,,,,,,,,,,,,,,
1255.199999988079,,pt2_unique_rating,977516,Alliance,,51,,,3,,,,,,,,,,,,,,,
null,,confidence_buffer,977619,confidence_buffer,,null,,,,,,,,,,,,,,,,,,
1074.300000011921,,pt2_memorable_rating,978694,Alliance,,52,,,4,,,,,,,,,,,,,,,
null,,confidence_buffer,978796,confidence_buffer,,null,,,,,,,,,,,,,,,,,,
5307.400000035763,,recognition_phase,984105,Alliance,,49,,,,,,old,1,0.5208333333333334,,,,,,,,,,
null,,confidence_buffer,984208,confidence_buffer,,null,,,,,,,,,,,,,,,,,,
null,,thebreak,984710,break,,null,,,,,,,,,,,,,,,,,,
1365.199999988079,,realistic_rating,986077,Solara Glen,,52,Solara Glen,Fictional,4,,,,,,,,,,,,,,,
null,,confidence_buffer,986179,confidence_buffer,,null,,,,,,,,,,,,,,,,,,
1630.5,,pt2_unique_rating,987811,Solara Glen,,51,,,3,,,,,,,,,,,,,,,
null,,confidence_buffer,987912,confidence_buffer,,null,,,,,,,,,,,,,,,,,,
1244.9000000357628,,pt2_memorable_rating,989158,Solara Glen,,52,,,4,,,,,,,,,,,,,,,
null,,confidence_buffer,989261,confidence_buffer,,null,,,,,,,,,,,,,,,,,,
2027.0999999642372,,recognition_phase,991289,Solara Glen,,50,,,,,,old,0,0.5102040816326531,,,,,,,,,,
null,,confidence_buffer,991391,confidence_buffer,,null,,,,,,,,,,,,,,,,,,
null,,thebreak,991894,break,,null,,,,,,,,,,,,,,,,,,
1166.699999988079,,realistic_rating,993062,Bayshore Haven,,52,Bayshore Haven,Fictional,4,,,,,,,,,,,,,,,
null,,confidence_buffer,993165,confidence_buffer,,null,,,,,,,,,,,,,,,,,,
1471.7999999523163,,pt2_unique_rating,994638,Bayshore Haven,,51,,,3,,,,,,,,,,,,,,,
null,,confidence_buffer,994740,confidence_buffer,,null,,,,,,,,,,,,,,,,,,
1224.8999999761581,,pt2_memorable_rating,995966,Bayshore Haven,,52,,,4,,,,,,,,,,,,,,,
null,,confidence_buffer,996068,confidence_buffer,,null,,,,,,,,,,,,,,,,,,
3493.699999988079,,recognition_phase,999563,Bayshore Haven,,50,,,,,,old,1,0.52,,,,,,,,,,
null,,confidence_buffer,999666,confidence_buffer,,null,,,,,,,,,,,,,,,,,,
null,,thebreak,1000168,break,,null,,,,,,,,,,,,,,,,,,
1552.800000011921,,realistic_rating,1001723,Ravenport,,52,Ravenport,Fictional,4,,,,,,,,,,,,,,,
null,,confidence_buffer,1001826,confidence_buffer,,null,,,,,,,,,,,,,,,,,,
1303.4000000357628,,pt2_unique_rating,1003131,Ravenport,,51,,,3,,,,,,,,,,,,,,,
null,,confidence_buffer,1003233,confidence_buffer,,null,,,,,,,,,,,,,,,,,,
1273.5,,pt2_memorable_rating,1004507,Ravenport,,52,,,4,,,,,,,,,,,,,,,
null,,confidence_buffer,1004609,confidence_buffer,,null,,,,,,,,,,,,,,,,,,
1721.0999999642372,,recognition_phase,1006331,Ravenport,,49,,,,,,old,0,0.5098039215686274,,,,,,,,,,
null,,confidence_buffer,1006433,confidence_buffer,,null,,,,,,,,,,,,,,,,,,
null,,thebreak,1006934,break,,null,,,,,,,,,,,,,,,,,,
802.1000000238419,,realistic_rating,1007736,Athens,,52,Athens,US,4,,,,,,,,,,,,,,,
null,,confidence_buffer,1007840,confidence_buffer,,null,,,,,,,,,,,,,,,,,,
1412.3999999761581,,pt2_unique_rating,1009253,Athens,,51,,,3,,,,,,,,,,,,,,,
null,,confidence_buffer,1009355,confidence_buffer,,null,,,,,,,,,,,,,,,,,,
1133.8999999761581,,pt2_memorable_rating,1010491,Athens,,52,,,4,,,,,,,,,,,,,,,
null,,confidence_buffer,1010593,confidence_buffer,,null,,,,,,,,,,,,,,,,,,
1870.300000011921,,probe_rating,1012464,probe_rating,,50,,,,2,1,,,,,,,,,,,,,
null,,confidence_buffer,1012566,confidence_buffer,,null,,,,,,,,,,,,,,,,,,
2433,,recognition_phase,1015000,Athens,,49,,,,,,old,1,0.5192307692307693,,,,,,,,,,
null,,confidence_buffer,1015103,confidence_buffer,,null,,,,,,,,,,,,,,,,,,
null,,thebreak,1015605,break,,null,,,,,,,,,,,,,,,,,,
941.3000000119209,,realistic_rating,1016548,Peoria,,52,Peoria,US,4,,,,,,,,,,,,,,,
null,,confidence_buffer,1016651,confidence_buffer,,null,,,,,,,,,,,,,,,,,,
1895.3999999761581,,pt2_unique_rating,1018548,Peoria,,51,,,3,,,,,,,,,,,,,,,
null,,confidence_buffer,1018649,confidence_buffer,,null,,,,,,,,,,,,,,,,,,
1036.800000011921,,pt2_memorable_rating,1019688,Peoria,,52,,,4,,,,,,,,,,,,,,,
null,,confidence_buffer,1019790,confidence_buffer,,null,,,,,,,,,,,,,,,,,,
1672.5,,recognition_phase,1021464,Peoria,,50,,,,,,old,1,0.5283018867924528,,,,,,,,,,
null,,confidence_buffer,1021566,confidence_buffer,,null,,,,,,,,,,,,,,,,,,
null,,thebreak,1022067,break,,null,,,,,,,,,,,,,,,,,,
859.1999999880791,,realistic_rating,1022928,North Arroya,,52,North Arroya,Fictional,4,,,,,,,,,,,,,,,
null,,confidence_buffer,1023030,confidence_buffer,,null,,,,,,,,,,,,,,,,,,
1135.699999988079,,pt2_unique_rating,1024167,North Arroya,,51,,,3,,,,,,,,,,,,,,,
null,,confidence_buffer,1024270,confidence_buffer,,null,,,,,,,,,,,,,,,,,,
1094.199999988079,,pt2_memorable_rating,1025366,North Arroya,,52,,,4,,,,,,,,,,,,,,,
null,,confidence_buffer,1025468,confidence_buffer,,null,,,,,,,,,,,,,,,,,,
1788.5,,recognition_phase,1027258,North Arroya,,50,,,,,,old,0,0.5185185185185185,,,,,,,,,,
null,,confidence_buffer,1027360,confidence_buffer,,null,,,,,,,,,,,,,,,,,,
null,,thebreak,1027861,break,,null,,,,,,,,,,,,,,,,,,
1733.5999999642372,,realistic_rating,1029596,Park City,,52,Park City,US,4,,,,,,,,,,,,,,,
null,,confidence_buffer,1029699,confidence_buffer,,null,,,,,,,,,,,,,,,,,,
4335.099999964237,,pt2_unique_rating,1034036,Park City,,51,,,3,,,,,,,,,,,,,,,
null,,confidence_buffer,1034138,confidence_buffer,,null,,,,,,,,,,,,,,,,,,
907.1000000238419,,pt2_memorable_rating,1035046,Park City,,52,,,4,,,,,,,,,,,,,,,
null,,confidence_buffer,1035148,confidence_buffer,,null,,,,,,,,,,,,,,,,,,
1889.699999988079,,recognition_phase,1037039,Park City,,50,,,,,,old,1,0.5272727272727272,,,,,,,,,,
null,,confidence_buffer,1037141,confidence_buffer,,null,,,,,,,,,,,,,,,,,,
null,,thebreak,1037644,break,,null,,,,,,,,,,,,,,,,,,
1384,,realistic_rating,1039029,Lake of the Ozarks,,52,Lake of the Ozarks,US,4,,,,,,,,,,,,,,,
null,,confidence_buffer,1039132,confidence_buffer,,null,,,,,,,,,,,,,,,,,,
1194.8999999761581,,pt2_unique_rating,1040328,Lake of the Ozarks,,51,,,3,,,,,,,,,,,,,,,
null,,confidence_buffer,1040431,confidence_buffer,,null,,,,,,,,,,,,,,,,,,
1334.3999999761581,,pt2_memorable_rating,1041767,Lake of the Ozarks,,52,,,4,,,,,,,,,,,,,,,
null,,confidence_buffer,1041869,confidence_buffer,,null,,,,,,,,,,,,,,,,,,
1638.199999988079,,recognition_phase,1043509,Lake of the Ozarks,,49,,,,,,old,1,0.5357142857142857,,,,,,,,,,
null,,confidence_buffer,1043610,confidence_buffer,,null,,,,,,,,,,,,,,,,,,
null,,thebreak,1044112,break,,null,,,,,,,,,,,,,,,,,,
920.5,,realistic_rating,1045034,Brookmere,,52,Brookmere,Fictional,4,,,,,,,,,,,,,,,
null,,confidence_buffer,1045137,confidence_buffer,,null,,,,,,,,,,,,,,,,,,
1540.300000011921,,pt2_unique_rating,1046678,Brookmere,,51,,,3,,,,,,,,,,,,,,,
null,,confidence_buffer,1046780,confidence_buffer,,null,,,,,,,,,,,,,,,,,,
1157.0999999642372,,pt2_memorable_rating,1047938,Brookmere,,52,,,4,,,,,,,,,,,,,,,
null,,confidence_buffer,1048040,confidence_buffer,,null,,,,,,,,,,,,,,,,,,
1511.800000011921,,recognition_phase,1049553,Brookmere,,50,,,,,,old,0,0.5263157894736842,,,,,,,,,,
null,,confidence_buffer,1049655,confidence_buffer,,null,,,,,,,,,,,,,,,,,,
null,,thebreak,1050156,break,,null,,,,,,,,,,,,,,,,,,
1080.300000011921,,realistic_rating,1051237,Crestwood,,52,Crestwood,Fictional,4,,,,,,,,,,,,,,,
null,,confidence_buffer,1051339,confidence_buffer,,null,,,,,,,,,,,,,,,,,,
1483.199999988079,,pt2_unique_rating,1052824,Crestwood,,51,,,3,,,,,,,,,,,,,,,
null,,confidence_buffer,1052927,confidence_buffer,,null,,,,,,,,,,,,,,,,,,
1520.3999999761581,,pt2_memorable_rating,1054448,Crestwood,,52,,,4,,,,,,,,,,,,,,,
null,,confidence_buffer,1054550,confidence_buffer,,null,,,,,,,,,,,,,,,,,,
1781.300000011921,,recognition_phase,1056333,Crestwood,,50,,,,,,old,0,0.5172413793103449,,,,,,,,,,
null,,confidence_buffer,1056436,confidence_buffer,,null,,,,,,,,,,,,,,,,,,
null,,thebreak,1056938,break,,null,,,,,,,,,,,,,,,,,,
967.5,,realistic_rating,1057907,Bisbee,,52,Bisbee,US,4,,,,,,,,,,,,,,,
null,,confidence_buffer,1058009,confidence_buffer,,null,,,,,,,,,,,,,,,,,,
1283.3999999761581,,pt2_unique_rating,1059294,Bisbee,,51,,,3,,,,,,,,,,,,,,,
null,,confidence_buffer,1059395,confidence_buffer,,null,,,,,,,,,,,,,,,,,,
878.3999999761581,,pt2_memorable_rating,1060275,Bisbee,,52,,,4,,,,,,,,,,,,,,,
null,,confidence_buffer,1060377,confidence_buffer,,null,,,,,,,,,,,,,,,,,,
1768.6000000238419,,recognition_phase,1062147,Bisbee,,49,,,,,,old,0,0.5084745762711864,,,,,,,,,,
null,,confidence_buffer,1062250,confidence_buffer,,null,,,,,,,,,,,,,,,,,,
null,,thebreak,1062751,break,,null,,,,,,,,,,,,,,,,,,
1139.300000011921,,realistic_rating,1063892,Orr,,52,Orr,US,4,,,,,,,,,,,,,,,
null,,confidence_buffer,1063994,confidence_buffer,,null,,,,,,,,,,,,,,,,,,
1322.7999999523163,,pt2_unique_rating,1065318,Orr,,51,,,3,,,,,,,,,,,,,,,
null,,confidence_buffer,1065420,confidence_buffer,,null,,,,,,,,,,,,,,,,,,
1711.300000011921,,pt2_memorable_rating,1067132,Orr,,52,,,4,,,,,,,,,,,,,,,
null,,confidence_buffer,1067235,confidence_buffer,,null,,,,,,,,,,,,,,,,,,
1741.300000011921,,recognition_phase,1068976,Orr,,50,,,,,,old,0,0.5,,,,,,,,,,
null,,confidence_buffer,1069078,confidence_buffer,,null,,,,,,,,,,,,,,,,,,
null,,thebreak,1069580,break,,null,,,,,,,,,,,,,,,,,,
,,survey,1308370,survey-questions,,,,,,,,,,,reload,high,nothing,yes,4,5,4,3,no,nothing
