rt,responses,trial_type,time_elapsed,stimulus,button_pressed,key_press,name_trial,rating,probe,probe_accuracy,response,correct,accuracy,problems,smooth,distraction,strategies,familiar,memorable,unique,realistic,similar,comments
4926.800000011921,{worker_id:670598a65450648ae2ddb83b},id_enter,4929,,,,,,,,,,,,,,,,,,,,
11988.89999999106,,fullscreen,16920,fullscreen,0,,,,,,,,,,,,,,,,,,
7200.29999999702,,intro_0,24128,instruct,,32,,,,,,,,,,,,,,,,,
14224.90000000596,,intro_1,38354,instruct,,32,,,,,,,,,,,,,,,,,
7230.100000008941,,intro_2,45585,instruct,,32,,,,,,,,,,,,,,,,,
null,,instruct_dir_4,47089,instruct,,null,,,,,,,,,,,,,,,,,
null,,thebreak,47591,break,,null,,,,,,,,,,,,,,,,,
19241.5,,familiar_rating,66833,Cambridge,,52,Cambridge,4,,,,,,,,,,,,,,,
null,,confidence_buffer,66936,confidence_buffer,,null,,,,,,,,,,,,,,,,,
15799.70000000298,,unique_rating,82738,Cambridge,,49,,1,,,,,,,,,,,,,,,
null,,confidence_buffer,82841,confidence_buffer,,null,,,,,,,,,,,,,,,,,
10966.20000000298,,memorable_rating,93807,Cambridge,,51,,3,,,,,,,,,,,,,,,
null,,confidence_buffer,93910,confidence_buffer,,null,,,,,,,,,,,,,,,,,
null,,thebreak,94412,break,,null,,,,,,,,,,,,,,,,,
5603.9000000059605,,familiar_rating,100017,Norfolk,,51,Norfolk,3,,,,,,,,,,,,,,,
null,,confidence_buffer,100120,confidence_buffer,,null,,,,,,,,,,,,,,,,,
4584.20000000298,,unique_rating,104706,Norfolk,,53,,5,,,,,,,,,,,,,,,
null,,confidence_buffer,104808,confidence_buffer,,null,,,,,,,,,,,,,,,,,
5321,,memorable_rating,110130,Norfolk,,51,,3,,,,,,,,,,,,,,,
null,,confidence_buffer,110232,confidence_buffer,,null,,,,,,,,,,,,,,,,,
null,,thebreak,110734,break,,null,,,,,,,,,,,,,,,,,
6066.0999999940395,,familiar_rating,116802,Hagerstown,,49,Hagerstown,1,,,,,,,,,,,,,,,
null,,confidence_buffer,116904,confidence_buffer,,null,,,,,,,,,,,,,,,,,
6087.29999999702,,unique_rating,122994,Hagerstown,,53,,5,,,,,,,,,,,,,,,
null,,confidence_buffer,123101,confidence_buffer,,null,,,,,,,,,,,,,,,,,
3283.7000000029802,,memorable_rating,126386,Hagerstown,,52,,4,,,,,,,,,,,,,,,
null,,confidence_buffer,126487,confidence_buffer,,null,,,,,,,,,,,,,,,,,
null,,thebreak,126990,break,,null,,,,,,,,,,,,,,,,,
9538,,familiar_rating,136530,Carson City,,53,Carson City,5,,,,,,,,,,,,,,,
null,,confidence_buffer,136631,confidence_buffer,,null,,,,,,,,,,,,,,,,,
2759.7000000029802,,unique_rating,139392,Carson City,,53,,5,,,,,,,,,,,,,,,
null,,confidence_buffer,139495,confidence_buffer,,null,,,,,,,,,,,,,,,,,
3033.0999999940395,,memorable_rating,142529,Carson City,,52,,4,,,,,,,,,,,,,,,
null,,confidence_buffer,142631,confidence_buffer,,null,,,,,,,,,,,,,,,,,
null,,thebreak,143131,break,,null,,,,,,,,,,,,,,,,,
4613.5,,familiar_rating,147746,Boise,,53,Boise,5,,,,,,,,,,,,,,,
null,,confidence_buffer,147848,confidence_buffer,,null,,,,,,,,,,,,,,,,,
2406.300000011921,,unique_rating,150255,Boise,,53,,5,,,,,,,,,,,,,,,
null,,confidence_buffer,150356,confidence_buffer,,null,,,,,,,,,,,,,,,,,
4747.9000000059605,,memorable_rating,155105,Boise,,51,,3,,,,,,,,,,,,,,,
null,,confidence_buffer,155208,confidence_buffer,,null,,,,,,,,,,,,,,,,,
null,,thebreak,155710,break,,null,,,,,,,,,,,,,,,,,
6114.199999988079,,familiar_rating,161826,Olympia,,52,Olympia,4,,,,,,,,,,,,,,,
null,,confidence_buffer,161929,confidence_buffer,,null,,,,,,,,,,,,,,,,,
6102.5999999940395,,unique_rating,168033,Olympia,,50,,2,,,,,,,,,,,,,,,
null,,confidence_buffer,168135,confidence_buffer,,null,,,,,,,,,,,,,,,,,
3830.8999999910593,,memorable_rating,171967,Olympia,,52,,4,,,,,,,,,,,,,,,
null,,confidence_buffer,172069,confidence_buffer,,null,,,,,,,,,,,,,,,,,
null,,thebreak,172570,break,,null,,,,,,,,,,,,,,,,,
8261.70000000298,,familiar_rating,180833,Palo Alto,,53,Palo Alto,5,,,,,,,,,,,,,,,
null,,confidence_buffer,180936,confidence_buffer,,null,,,,,,,,,,,,,,,,,
5193.4000000059605,,unique_rating,186131,Palo Alto,,52,,4,,,,,,,,,,,,,,,
null,,confidence_buffer,186232,confidence_buffer,,null,,,,,,,,,,,,,,,,,
2262.5,,memorable_rating,188496,Palo Alto,,51,,3,,,,,,,,,,,,,,,
null,,confidence_buffer,188599,confidence_buffer,,null,,,,,,,,,,,,,,,,,
null,,thebreak,189100,break,,null,,,,,,,,,,,,,,,,,
3729.9000000059605,,familiar_rating,192832,Toledo,,53,Toledo,5,,,,,,,,,,,,,,,
null,,confidence_buffer,192933,confidence_buffer,,null,,,,,,,,,,,,,,,,,
3274.4000000059605,,unique_rating,196209,Toledo,,50,,2,,,,,,,,,,,,,,,
null,,confidence_buffer,196311,confidence_buffer,,null,,,,,,,,,,,,,,,,,
3480.5999999940395,,memorable_rating,199793,Toledo,,52,,4,,,,,,,,,,,,,,,
null,,confidence_buffer,199895,confidence_buffer,,null,,,,,,,,,,,,,,,,,
null,,thebreak,200396,break,,null,,,,,,,,,,,,,,,,,
6692.29999999702,,familiar_rating,207090,Pueblo,,51,Pueblo,3,,,,,,,,,,,,,,,
null,,confidence_buffer,207192,confidence_buffer,,null,,,,,,,,,,,,,,,,,
6329.0999999940395,,unique_rating,213523,Pueblo,,51,,3,,,,,,,,,,,,,,,
null,,confidence_buffer,213625,confidence_buffer,,null,,,,,,,,,,,,,,,,,
2741,,memorable_rating,216367,Pueblo,,51,,3,,,,,,,,,,,,,,,
null,,confidence_buffer,216468,confidence_buffer,,null,,,,,,,,,,,,,,,,,
null,,thebreak,216970,break,,null,,,,,,,,,,,,,,,,,
4550.0999999940395,,familiar_rating,221521,Salem,,52,Salem,4,,,,,,,,,,,,,,,
null,,confidence_buffer,221623,confidence_buffer,,null,,,,,,,,,,,,,,,,,
3191.699999988079,,unique_rating,224816,Salem,,50,,2,,,,,,,,,,,,,,,
null,,confidence_buffer,224919,confidence_buffer,,null,,,,,,,,,,,,,,,,,
7912,,memorable_rating,232832,Salem,,52,,4,,,,,,,,,,,,,,,
null,,confidence_buffer,232933,confidence_buffer,,null,,,,,,,,,,,,,,,,,
null,,thebreak,233434,break,,null,,,,,,,,,,,,,,,,,
7011.79999999702,,familiar_rating,240448,Youngstown,,51,Youngstown,3,,,,,,,,,,,,,,,
null,,confidence_buffer,240550,confidence_buffer,,null,,,,,,,,,,,,,,,,,
2569.9000000059605,,unique_rating,243121,Youngstown,,50,,2,,,,,,,,,,,,,,,
null,,confidence_buffer,243223,confidence_buffer,,null,,,,,,,,,,,,,,,,,
3000.2999999970198,,memorable_rating,246225,Youngstown,,50,,2,,,,,,,,,,,,,,,
null,,confidence_buffer,246327,confidence_buffer,,null,,,,,,,,,,,,,,,,,
null,,thebreak,246828,break,,null,,,,,,,,,,,,,,,,,
4850.70000000298,,familiar_rating,251681,Syracuse,,53,Syracuse,5,,,,,,,,,,,,,,,
null,,confidence_buffer,251783,confidence_buffer,,null,,,,,,,,,,,,,,,,,
4057,,unique_rating,255841,Syracuse,,50,,2,,,,,,,,,,,,,,,
null,,confidence_buffer,255959,confidence_buffer,,null,,,,,,,,,,,,,,,,,
5480.29999999702,,memorable_rating,261441,Syracuse,,50,,2,,,,,,,,,,,,,,,
null,,confidence_buffer,261543,confidence_buffer,,null,,,,,,,,,,,,,,,,,
null,,thebreak,262060,break,,null,,,,,,,,,,,,,,,,,
4451.20000000298,,familiar_rating,266513,New Haven,,52,New Haven,4,,,,,,,,,,,,,,,
null,,confidence_buffer,266616,confidence_buffer,,null,,,,,,,,,,,,,,,,,
2710.3999999910593,,unique_rating,269327,New Haven,,50,,2,,,,,,,,,,,,,,,
null,,confidence_buffer,269429,confidence_buffer,,null,,,,,,,,,,,,,,,,,
3288.8999999910593,,memorable_rating,272719,New Haven,,49,,1,,,,,,,,,,,,,,,
null,,confidence_buffer,272820,confidence_buffer,,null,,,,,,,,,,,,,,,,,
null,,thebreak,273322,break,,null,,,,,,,,,,,,,,,,,
3240.7999999970198,,familiar_rating,276564,Concord,,53,Concord,5,,,,,,,,,,,,,,,
null,,confidence_buffer,276666,confidence_buffer,,null,,,,,,,,,,,,,,,,,
2004.9000000059605,,unique_rating,278673,Concord,,49,,1,,,,,,,,,,,,,,,
null,,confidence_buffer,278774,confidence_buffer,,null,,,,,,,,,,,,,,,,,
4024.5,,memorable_rating,282801,Concord,,50,,2,,,,,,,,,,,,,,,
null,,confidence_buffer,282903,confidence_buffer,,null,,,,,,,,,,,,,,,,,
null,,thebreak,283405,break,,null,,,,,,,,,,,,,,,,,
2771.0999999940395,,familiar_rating,286177,Fort Collins,,52,Fort Collins,4,,,,,,,,,,,,,,,
null,,confidence_buffer,286279,confidence_buffer,,null,,,,,,,,,,,,,,,,,
7128.20000000298,,unique_rating,293409,Fort Collins,,52,,4,,,,,,,,,,,,,,,
null,,confidence_buffer,293511,confidence_buffer,,null,,,,,,,,,,,,,,,,,
3447.3999999910593,,memorable_rating,296961,Fort Collins,,50,,2,,,,,,,,,,,,,,,
null,,confidence_buffer,297062,confidence_buffer,,null,,,,,,,,,,,,,,,,,
null,,thebreak,297564,break,,null,,,,,,,,,,,,,,,,,
3602.8999999910593,,familiar_rating,301169,Scottsdale,,53,Scottsdale,5,,,,,,,,,,,,,,,
null,,confidence_buffer,301270,confidence_buffer,,null,,,,,,,,,,,,,,,,,
3322,,unique_rating,304594,Scottsdale,,50,,2,,,,,,,,,,,,,,,
null,,confidence_buffer,304696,confidence_buffer,,null,,,,,,,,,,,,,,,,,
3542.5,,memorable_rating,308241,Scottsdale,,50,,2,,,,,,,,,,,,,,,
null,,confidence_buffer,308343,confidence_buffer,,null,,,,,,,,,,,,,,,,,
null,,thebreak,308846,break,,null,,,,,,,,,,,,,,,,,
5984.4000000059605,,familiar_rating,314832,Newport News,,52,Newport News,4,,,,,,,,,,,,,,,
null,,confidence_buffer,314934,confidence_buffer,,null,,,,,,,,,,,,,,,,,
2392.6000000089407,,unique_rating,317328,Newport News,,53,,5,,,,,,,,,,,,,,,
null,,confidence_buffer,317430,confidence_buffer,,null,,,,,,,,,,,,,,,,,
2600.8999999910593,,memorable_rating,320032,Newport News,,52,,4,,,,,,,,,,,,,,,
null,,confidence_buffer,320134,confidence_buffer,,null,,,,,,,,,,,,,,,,,
null,,thebreak,320636,break,,null,,,,,,,,,,,,,,,,,
3441.2999999970198,,familiar_rating,324078,Athens,,53,Athens,5,,,,,,,,,,,,,,,
null,,confidence_buffer,324180,confidence_buffer,,null,,,,,,,,,,,,,,,,,
2476.7999999970198,,unique_rating,326657,Athens,,49,,1,,,,,,,,,,,,,,,
null,,confidence_buffer,326759,confidence_buffer,,null,,,,,,,,,,,,,,,,,
5687.5,,memorable_rating,332448,Athens,,52,,4,,,,,,,,,,,,,,,
null,,confidence_buffer,332550,confidence_buffer,,null,,,,,,,,,,,,,,,,,
null,,thebreak,333051,break,,null,,,,,,,,,,,,,,,,,
3346,,familiar_rating,336399,Gainesville,,51,Gainesville,3,,,,,,,,,,,,,,,
null,,confidence_buffer,336500,confidence_buffer,,null,,,,,,,,,,,,,,,,,
3468,,unique_rating,339969,Gainesville,,50,,2,,,,,,,,,,,,,,,
null,,confidence_buffer,340071,confidence_buffer,,null,,,,,,,,,,,,,,,,,
1399.2000000029802,,memorable_rating,341472,Gainesville,,49,,1,,,,,,,,,,,,,,,
null,,confidence_buffer,341574,confidence_buffer,,null,,,,,,,,,,,,,,,,,
null,,thebreak,342077,break,,null,,,,,,,,,,,,,,,,,
4162.79999999702,,familiar_rating,346240,Bellingham,,50,Bellingham,2,,,,,,,,,,,,,,,
null,,confidence_buffer,346342,confidence_buffer,,null,,,,,,,,,,,,,,,,,
6377,,unique_rating,352721,Bellingham,,53,,5,,,,,,,,,,,,,,,
null,,confidence_buffer,352823,confidence_buffer,,null,,,,,,,,,,,,,,,,,
3303.5,,memorable_rating,356128,Bellingham,,49,,1,,,,,,,,,,,,,,,
null,,confidence_buffer,356230,confidence_buffer,,null,,,,,,,,,,,,,,,,,
null,,thebreak,356732,break,,null,,,,,,,,,,,,,,,,,
3569.8999999910593,,familiar_rating,360303,Annapolis,,53,Annapolis,5,,,,,,,,,,,,,,,
null,,confidence_buffer,360405,confidence_buffer,,null,,,,,,,,,,,,,,,,,
1899,,unique_rating,362306,Annapolis,,50,,2,,,,,,,,,,,,,,,
null,,confidence_buffer,362408,confidence_buffer,,null,,,,,,,,,,,,,,,,,
3126.6000000089407,,memorable_rating,365536,Annapolis,,51,,3,,,,,,,,,,,,,,,
null,,confidence_buffer,365639,confidence_buffer,,null,,,,,,,,,,,,,,,,,
null,,thebreak,366140,break,,null,,,,,,,,,,,,,,,,,
4705.20000000298,,familiar_rating,370847,Burlington,,50,Burlington,2,,,,,,,,,,,,,,,
null,,confidence_buffer,370949,confidence_buffer,,null,,,,,,,,,,,,,,,,,
2361.0999999940395,,probe_rating,373312,probe_rating,,50,,,2,1,,,,,,,,,,,,,
null,,confidence_buffer,373414,confidence_buffer,,null,,,,,,,,,,,,,,,,,
3481.2999999970198,,unique_rating,376897,Burlington,,49,,1,,,,,,,,,,,,,,,
null,,confidence_buffer,376999,confidence_buffer,,null,,,,,,,,,,,,,,,,,
6614.0999999940395,,memorable_rating,383614,Burlington,,50,,2,,,,,,,,,,,,,,,
null,,confidence_buffer,383716,confidence_buffer,,null,,,,,,,,,,,,,,,,,
null,,thebreak,384218,break,,null,,,,,,,,,,,,,,,,,
3589.7999999970198,,familiar_rating,387809,Peoria,,51,Peoria,3,,,,,,,,,,,,,,,
null,,confidence_buffer,387911,confidence_buffer,,null,,,,,,,,,,,,,,,,,
3224.1000000089407,,unique_rating,391136,Peoria,,52,,4,,,,,,,,,,,,,,,
null,,confidence_buffer,391238,confidence_buffer,,null,,,,,,,,,,,,,,,,,
2344.0999999940395,,probe_rating,393584,probe_rating,,51,,,3,1,,,,,,,,,,,,,
null,,confidence_buffer,393686,confidence_buffer,,null,,,,,,,,,,,,,,,,,
2552.7000000029802,,memorable_rating,396240,Peoria,,49,,1,,,,,,,,,,,,,,,
null,,confidence_buffer,396342,confidence_buffer,,null,,,,,,,,,,,,,,,,,
null,,thebreak,396843,break,,null,,,,,,,,,,,,,,,,,
3140.0999999940395,,familiar_rating,399985,Reno,,53,Reno,5,,,,,,,,,,,,,,,
null,,confidence_buffer,400088,confidence_buffer,,null,,,,,,,,,,,,,,,,,
2454.9000000059605,,unique_rating,402544,Reno,,53,,5,,,,,,,,,,,,,,,
null,,confidence_buffer,402646,confidence_buffer,,null,,,,,,,,,,,,,,,,,
1784.0999999940395,,memorable_rating,404432,Reno,,53,,5,,,,,,,,,,,,,,,
null,,confidence_buffer,404535,confidence_buffer,,null,,,,,,,,,,,,,,,,,
null,,thebreak,405045,break,,null,,,,,,,,,,,,,,,,,
7097.79999999702,,familiar_rating,412145,Cheyenne,,51,Cheyenne,3,,,,,,,,,,,,,,,
null,,confidence_buffer,412248,confidence_buffer,,null,,,,,,,,,,,,,,,,,
3445.2000000029802,,unique_rating,415695,Cheyenne,,50,,2,,,,,,,,,,,,,,,
null,,confidence_buffer,415796,confidence_buffer,,null,,,,,,,,,,,,,,,,,
2314.1000000089407,,memorable_rating,418112,Cheyenne,,51,,3,,,,,,,,,,,,,,,
null,,confidence_buffer,418213,confidence_buffer,,null,,,,,,,,,,,,,,,,,
null,,thebreak,418715,break,,null,,,,,,,,,,,,,,,,,
5859,,intro_0,424575,instruct,,32,,,,,,,,,,,,,,,,,
9646.800000011921,,intro_1,434223,instruct,,32,,,,,,,,,,,,,,,,,
17536,,intro_2,451760,instruct,,32,,,,,,,,,,,,,,,,,
null,,instruct_dir_4,453262,instruct,,null,,,,,,,,,,,,,,,,,
9313.20000000298,,realistic_rating,462577,Gainesville,,53,Gainesville,5,,,,,,,,,,,,,,,
null,,confidence_buffer,462679,confidence_buffer,,null,,,,,,,,,,,,,,,,,
3992.0999999940395,,pt2_unique_rating,466672,Gainesville,,50,,2,,,,,,,,,,,,,,,
null,,confidence_buffer,466775,confidence_buffer,,null,,,,,,,,,,,,,,,,,
7336.29999999702,,pt2_memorable_rating,474112,Gainesville,,50,,2,,,,,,,,,,,,,,,
null,,confidence_buffer,474214,confidence_buffer,,null,,,,,,,,,,,,,,,,,
4119.5,,recognition_phase,478336,Gainesville,,50,,,,,old,1,1,,,,,,,,,,
null,,confidence_buffer,478439,confidence_buffer,,null,,,,,,,,,,,,,,,,,
null,,thebreak,478940,break,,null,,,,,,,,,,,,,,,,,
9379.20000000298,,realistic_rating,488321,Reno,,53,Reno,5,,,,,,,,,,,,,,,
null,,confidence_buffer,488427,confidence_buffer,,null,,,,,,,,,,,,,,,,,
3172.5,,pt2_unique_rating,491601,Reno,,53,,5,,,,,,,,,,,,,,,
null,,confidence_buffer,491703,confidence_buffer,,null,,,,,,,,,,,,,,,,,
1735,,pt2_memorable_rating,493439,Reno,,53,,5,,,,,,,,,,,,,,,
null,,confidence_buffer,493541,confidence_buffer,,null,,,,,,,,,,,,,,,,,
3351.3999999910593,,recognition_phase,496894,Reno,,49,,,,,old,1,1,,,,,,,,,,
null,,confidence_buffer,496995,confidence_buffer,,null,,,,,,,,,,,,,,,,,
null,,thebreak,497496,break,,null,,,,,,,,,,,,,,,,,
2777.2999999970198,,realistic_rating,500274,Cambridge,,53,Cambridge,5,,,,,,,,,,,,,,,
null,,confidence_buffer,500376,confidence_buffer,,null,,,,,,,,,,,,,,,,,
2900.7000000029802,,pt2_unique_rating,503278,Cambridge,,49,,1,,,,,,,,,,,,,,,
null,,confidence_buffer,503380,confidence_buffer,,null,,,,,,,,,,,,,,,,,
3737.2999999970198,,pt2_memorable_rating,507118,Cambridge,,51,,3,,,,,,,,,,,,,,,
null,,confidence_buffer,507219,confidence_buffer,,null,,,,,,,,,,,,,,,,,
1594.7000000029802,,recognition_phase,508814,Cambridge,,49,,,,,old,1,1,,,,,,,,,,
null,,confidence_buffer,508916,confidence_buffer,,null,,,,,,,,,,,,,,,,,
null,,thebreak,509417,break,,null,,,,,,,,,,,,,,,,,
4164.79999999702,,realistic_rating,513583,Ithaca,,53,Ithaca,5,,,,,,,,,,,,,,,
null,,confidence_buffer,513684,confidence_buffer,,null,,,,,,,,,,,,,,,,,
2906,,pt2_unique_rating,516592,Ithaca,,50,,2,,,,,,,,,,,,,,,
null,,confidence_buffer,516701,confidence_buffer,,null,,,,,,,,,,,,,,,,,
1970.5,,probe_rating,518673,probe_rating,,53,,,5,1,,,,,,,,,,,,,
null,,confidence_buffer,518775,confidence_buffer,,null,,,,,,,,,,,,,,,,,
5862.5999999940395,,pt2_memorable_rating,524639,Ithaca,,52,,4,,,,,,,,,,,,,,,
null,,confidence_buffer,524740,confidence_buffer,,null,,,,,,,,,,,,,,,,,
2203.2000000029802,,recognition_phase,526945,Ithaca,,52,,,,,new,1,1,,,,,,,,,,
null,,confidence_buffer,527048,confidence_buffer,,null,,,,,,,,,,,,,,,,,
null,,thebreak,527549,break,,null,,,,,,,,,,,,,,,,,
5392.199999988079,,realistic_rating,532943,Altoona,,53,Altoona,5,,,,,,,,,,,,,,,
null,,confidence_buffer,533044,confidence_buffer,,null,,,,,,,,,,,,,,,,,
4394.399999991059,,pt2_unique_rating,537440,Altoona,,53,,5,,,,,,,,,,,,,,,
null,,confidence_buffer,537542,confidence_buffer,,null,,,,,,,,,,,,,,,,,
4279.899999991059,,pt2_memorable_rating,541824,Altoona,,51,,3,,,,,,,,,,,,,,,
null,,confidence_buffer,541926,confidence_buffer,,null,,,,,,,,,,,,,,,,,
2295.2000000029802,,recognition_phase,544223,Altoona,,52,,,,,new,1,1,,,,,,,,,,
null,,confidence_buffer,544335,confidence_buffer,,null,,,,,,,,,,,,,,,,,
null,,thebreak,544836,break,,null,,,,,,,,,,,,,,,,,
2812.7000000029802,,realistic_rating,547651,Palo Alto,,53,Palo Alto,5,,,,,,,,,,,,,,,
null,,confidence_buffer,547757,confidence_buffer,,null,,,,,,,,,,,,,,,,,
3519.2000000029802,,pt2_unique_rating,551278,Palo Alto,,53,,5,,,,,,,,,,,,,,,
null,,confidence_buffer,551379,confidence_buffer,,null,,,,,,,,,,,,,,,,,
2427.5999999940395,,pt2_memorable_rating,553808,Palo Alto,,52,,4,,,,,,,,,,,,,,,
null,,confidence_buffer,553918,confidence_buffer,,null,,,,,,,,,,,,,,,,,
2462.3999999910593,,recognition_phase,556382,Palo Alto,,49,,,,,old,1,1,,,,,,,,,,
null,,confidence_buffer,556484,confidence_buffer,,null,,,,,,,,,,,,,,,,,
null,,thebreak,556985,break,,null,,,,,,,,,,,,,,,,,
4293,,realistic_rating,561280,Fort Collins,,53,Fort Collins,5,,,,,,,,,,,,,,,
null,,confidence_buffer,561383,confidence_buffer,,null,,,,,,,,,,,,,,,,,
3093.7999999970198,,pt2_unique_rating,564478,Fort Collins,,50,,2,,,,,,,,,,,,,,,
null,,confidence_buffer,564580,confidence_buffer,,null,,,,,,,,,,,,,,,,,
2234.1000000089407,,pt2_memorable_rating,566815,Fort Collins,,51,,3,,,,,,,,,,,,,,,
null,,confidence_buffer,566918,confidence_buffer,,null,,,,,,,,,,,,,,,,,
1800.0999999940395,,recognition_phase,568720,Fort Collins,,49,,,,,old,1,1,,,,,,,,,,
null,,confidence_buffer,568829,confidence_buffer,,null,,,,,,,,,,,,,,,,,
null,,thebreak,569330,break,,null,,,,,,,,,,,,,,,,,
3162.2999999970198,,realistic_rating,572494,Las Cruces,,53,Las Cruces,5,,,,,,,,,,,,,,,
null,,confidence_buffer,572595,confidence_buffer,,null,,,,,,,,,,,,,,,,,
3835.7999999970198,,pt2_unique_rating,576432,Las Cruces,,51,,3,,,,,,,,,,,,,,,
null,,confidence_buffer,576533,confidence_buffer,,null,,,,,,,,,,,,,,,,,
3691.0999999940395,,pt2_memorable_rating,580226,Las Cruces,,52,,4,,,,,,,,,,,,,,,
null,,confidence_buffer,580328,confidence_buffer,,null,,,,,,,,,,,,,,,,,
1813.6000000089407,,recognition_phase,582143,Las Cruces,,52,,,,,new,1,1,,,,,,,,,,
null,,confidence_buffer,582246,confidence_buffer,,null,,,,,,,,,,,,,,,,,
null,,thebreak,582748,break,,null,,,,,,,,,,,,,,,,,
2451.3999999910593,,realistic_rating,585200,Toledo,,53,Toledo,5,,,,,,,,,,,,,,,
null,,confidence_buffer,585302,confidence_buffer,,null,,,,,,,,,,,,,,,,,
3255.7000000029802,,pt2_unique_rating,588560,Toledo,,50,,2,,,,,,,,,,,,,,,
null,,confidence_buffer,588662,confidence_buffer,,null,,,,,,,,,,,,,,,,,
2983.7000000029802,,pt2_memorable_rating,591647,Toledo,,52,,4,,,,,,,,,,,,,,,
null,,confidence_buffer,591749,confidence_buffer,,null,,,,,,,,,,,,,,,,,
2984.7000000029802,,recognition_phase,594736,Toledo,,49,,,,,old,1,1,,,,,,,,,,
null,,confidence_buffer,594837,confidence_buffer,,null,,,,,,,,,,,,,,,,,
null,,thebreak,595338,break,,null,,,,,,,,,,,,,,,,,
2212.7999999970198,,realistic_rating,597552,Salem,,53,Salem,5,,,,,,,,,,,,,,,
null,,confidence_buffer,597654,confidence_buffer,,null,,,,,,,,,,,,,,,,,
2231,,pt2_unique_rating,599886,Salem,,50,,2,,,,,,,,,,,,,,,
null,,confidence_buffer,599987,confidence_buffer,,null,,,,,,,,,,,,,,,,,
2250.2000000029802,,pt2_memorable_rating,602239,Salem,,51,,3,,,,,,,,,,,,,,,
null,,confidence_buffer,602342,confidence_buffer,,null,,,,,,,,,,,,,,,,,
1896.2000000029802,,recognition_phase,604240,Salem,,49,,,,,old,1,1,,,,,,,,,,
null,,confidence_buffer,604342,confidence_buffer,,null,,,,,,,,,,,,,,,,,
null,,thebreak,604844,break,,null,,,,,,,,,,,,,,,,,
2384.9000000059605,,realistic_rating,607231,Newport News,,53,Newport News,5,,,,,,,,,,,,,,,
null,,confidence_buffer,607333,confidence_buffer,,null,,,,,,,,,,,,,,,,,
2009.5999999940395,,pt2_unique_rating,609344,Newport News,,53,,5,,,,,,,,,,,,,,,
null,,confidence_buffer,609446,confidence_buffer,,null,,,,,,,,,,,,,,,,,
2087.3999999910593,,pt2_memorable_rating,611535,Newport News,,53,,5,,,,,,,,,,,,,,,
null,,confidence_buffer,611650,confidence_buffer,,null,,,,,,,,,,,,,,,,,
1532.0999999940395,,recognition_phase,613184,Newport News,,49,,,,,old,1,1,,,,,,,,,,
null,,confidence_buffer,613286,confidence_buffer,,null,,,,,,,,,,,,,,,,,
null,,thebreak,613788,break,,null,,,,,,,,,,,,,,,,,
2370.2999999970198,,realistic_rating,616159,Tallahassee,,53,Tallahassee,5,,,,,,,,,,,,,,,
null,,confidence_buffer,616271,confidence_buffer,,null,,,,,,,,,,,,,,,,,
3855.7999999970198,,pt2_unique_rating,620128,Tallahassee,,52,,4,,,,,,,,,,,,,,,
null,,confidence_buffer,620230,confidence_buffer,,null,,,,,,,,,,,,,,,,,
2071.1000000089407,,pt2_memorable_rating,622303,Tallahassee,,52,,4,,,,,,,,,,,,,,,
null,,confidence_buffer,622406,confidence_buffer,,null,,,,,,,,,,,,,,,,,
1461.9000000059605,,recognition_phase,623869,Tallahassee,,52,,,,,new,1,1,,,,,,,,,,
null,,confidence_buffer,623971,confidence_buffer,,null,,,,,,,,,,,,,,,,,
null,,thebreak,624473,break,,null,,,,,,,,,,,,,,,,,
6021.5999999940395,,realistic_rating,630496,New Haven,,53,New Haven,5,,,,,,,,,,,,,,,
null,,confidence_buffer,630597,confidence_buffer,,null,,,,,,,,,,,,,,,,,
2520.6000000089407,,pt2_unique_rating,633119,New Haven,,50,,2,,,,,,,,,,,,,,,
null,,confidence_buffer,633221,confidence_buffer,,null,,,,,,,,,,,,,,,,,
3449.5999999940395,,pt2_memorable_rating,636671,New Haven,,50,,2,,,,,,,,,,,,,,,
null,,confidence_buffer,636773,confidence_buffer,,null,,,,,,,,,,,,,,,,,
2072.0999999940395,,recognition_phase,638847,New Haven,,49,,,,,old,1,1,,,,,,,,,,
null,,confidence_buffer,638949,confidence_buffer,,null,,,,,,,,,,,,,,,,,
null,,thebreak,639451,break,,null,,,,,,,,,,,,,,,,,
2595.2999999970198,,realistic_rating,642048,Decatur,,53,Decatur,5,,,,,,,,,,,,,,,
null,,confidence_buffer,642150,confidence_buffer,,null,,,,,,,,,,,,,,,,,
2918.2000000029802,,pt2_unique_rating,645069,Decatur,,53,,5,,,,,,,,,,,,,,,
null,,confidence_buffer,645170,confidence_buffer,,null,,,,,,,,,,,,,,,,,
2076.1000000089407,,pt2_memorable_rating,647247,Decatur,,50,,2,,,,,,,,,,,,,,,
null,,confidence_buffer,647349,confidence_buffer,,null,,,,,,,,,,,,,,,,,
1640.199999988079,,recognition_phase,648991,Decatur,,52,,,,,new,1,1,,,,,,,,,,
null,,confidence_buffer,649093,confidence_buffer,,null,,,,,,,,,,,,,,,,,
null,,thebreak,649596,break,,null,,,,,,,,,,,,,,,,,
4002.699999988079,,realistic_rating,653600,Syracuse,,53,Syracuse,5,,,,,,,,,,,,,,,
null,,confidence_buffer,653701,confidence_buffer,,null,,,,,,,,,,,,,,,,,
6424.100000008941,,pt2_unique_rating,660127,Syracuse,,50,,2,,,,,,,,,,,,,,,
null,,confidence_buffer,660229,confidence_buffer,,null,,,,,,,,,,,,,,,,,
1912.2999999970198,,pt2_memorable_rating,662143,Syracuse,,50,,2,,,,,,,,,,,,,,,
null,,confidence_buffer,662245,confidence_buffer,,null,,,,,,,,,,,,,,,,,
3673.2000000029802,,recognition_phase,665920,Syracuse,,51,,,,,new,0,0.9333333333333333,,,,,,,,,,
null,,confidence_buffer,666022,confidence_buffer,,null,,,,,,,,,,,,,,,,,
null,,thebreak,666524,break,,null,,,,,,,,,,,,,,,,,
2498.1000000089407,,realistic_rating,669024,Athens,,53,Athens,5,,,,,,,,,,,,,,,
null,,confidence_buffer,669125,confidence_buffer,,null,,,,,,,,,,,,,,,,,
1975.7000000029802,,pt2_unique_rating,671103,Athens,,49,,1,,,,,,,,,,,,,,,
null,,confidence_buffer,671205,confidence_buffer,,null,,,,,,,,,,,,,,,,,
2250.8999999910593,,pt2_memorable_rating,673457,Athens,,52,,4,,,,,,,,,,,,,,,
null,,confidence_buffer,673559,confidence_buffer,,null,,,,,,,,,,,,,,,,,
1413.8999999910593,,recognition_phase,674975,Athens,,49,,,,,old,1,0.9375,,,,,,,,,,
null,,confidence_buffer,675078,confidence_buffer,,null,,,,,,,,,,,,,,,,,
null,,thebreak,675580,break,,null,,,,,,,,,,,,,,,,,
2865.8999999910593,,realistic_rating,678448,Abilene,,53,Abilene,5,,,,,,,,,,,,,,,
null,,confidence_buffer,678549,confidence_buffer,,null,,,,,,,,,,,,,,,,,
2759.5,,pt2_unique_rating,681311,Abilene,,53,,5,,,,,,,,,,,,,,,
null,,confidence_buffer,681413,confidence_buffer,,null,,,,,,,,,,,,,,,,,
4055.2000000029802,,pt2_memorable_rating,685469,Abilene,,50,,2,,,,,,,,,,,,,,,
null,,confidence_buffer,685571,confidence_buffer,,null,,,,,,,,,,,,,,,,,
2186.3999999910593,,recognition_phase,687759,Abilene,,52,,,,,new,1,0.9411764705882353,,,,,,,,,,
null,,confidence_buffer,687861,confidence_buffer,,null,,,,,,,,,,,,,,,,,
null,,thebreak,688363,break,,null,,,,,,,,,,,,,,,,,
2147.4000000059605,,realistic_rating,690512,Frankfort,,53,Frankfort,5,,,,,,,,,,,,,,,
null,,confidence_buffer,690613,confidence_buffer,,null,,,,,,,,,,,,,,,,,
1815.7999999970198,,pt2_unique_rating,692431,Frankfort,,49,,1,,,,,,,,,,,,,,,
null,,confidence_buffer,692533,confidence_buffer,,null,,,,,,,,,,,,,,,,,
4647.899999991059,,pt2_memorable_rating,697183,Frankfort,,49,,1,,,,,,,,,,,,,,,
null,,confidence_buffer,697285,confidence_buffer,,null,,,,,,,,,,,,,,,,,
1911.7999999970198,,recognition_phase,699199,Frankfort,,52,,,,,new,1,0.9444444444444444,,,,,,,,,,
null,,confidence_buffer,699301,confidence_buffer,,null,,,,,,,,,,,,,,,,,
null,,thebreak,699803,break,,null,,,,,,,,,,,,,,,,,
5571.5,,realistic_rating,705376,Hagerstown,,52,Hagerstown,4,,,,,,,,,,,,,,,
null,,confidence_buffer,705478,confidence_buffer,,null,,,,,,,,,,,,,,,,,
3127.7000000029802,,pt2_unique_rating,708608,Hagerstown,,52,,4,,,,,,,,,,,,,,,
null,,confidence_buffer,708709,confidence_buffer,,null,,,,,,,,,,,,,,,,,
2151.3999999910593,,pt2_memorable_rating,710862,Hagerstown,,49,,1,,,,,,,,,,,,,,,
null,,confidence_buffer,710965,confidence_buffer,,null,,,,,,,,,,,,,,,,,
1944.7000000029802,,recognition_phase,712911,Hagerstown,,49,,,,,old,1,0.9473684210526315,,,,,,,,,,
null,,confidence_buffer,713014,confidence_buffer,,null,,,,,,,,,,,,,,,,,
null,,thebreak,713525,break,,null,,,,,,,,,,,,,,,,,
2216.5,,realistic_rating,715743,Boise,,53,Boise,5,,,,,,,,,,,,,,,
null,,confidence_buffer,715846,confidence_buffer,,null,,,,,,,,,,,,,,,,,
2279.7999999970198,,pt2_unique_rating,718127,Boise,,52,,4,,,,,,,,,,,,,,,
null,,confidence_buffer,718230,confidence_buffer,,null,,,,,,,,,,,,,,,,,
2278.7000000029802,,pt2_memorable_rating,720511,Boise,,50,,2,,,,,,,,,,,,,,,
null,,confidence_buffer,720613,confidence_buffer,,null,,,,,,,,,,,,,,,,,
1224.8999999910593,,recognition_phase,721839,Boise,,49,,,,,old,1,0.95,,,,,,,,,,
null,,confidence_buffer,721941,confidence_buffer,,null,,,,,,,,,,,,,,,,,
null,,thebreak,722443,break,,null,,,,,,,,,,,,,,,,,
2177.8999999910593,,realistic_rating,724623,Peoria,,53,Peoria,5,,,,,,,,,,,,,,,
null,,confidence_buffer,724725,confidence_buffer,,null,,,,,,,,,,,,,,,,,
2585.2999999970198,,pt2_unique_rating,727312,Peoria,,52,,4,,,,,,,,,,,,,,,
null,,confidence_buffer,727414,confidence_buffer,,null,,,,,,,,,,,,,,,,,
3671.7000000029802,,pt2_memorable_rating,731087,Peoria,,49,,1,,,,,,,,,,,,,,,
null,,confidence_buffer,731189,confidence_buffer,,null,,,,,,,,,,,,,,,,,
1513.4000000059605,,recognition_phase,732704,Peoria,,49,,,,,old,1,0.9523809523809523,,,,,,,,,,
null,,confidence_buffer,732806,confidence_buffer,,null,,,,,,,,,,,,,,,,,
null,,thebreak,733308,break,,null,,,,,,,,,,,,,,,,,
2801.2999999970198,,realistic_rating,736111,Dover,,53,Dover,5,,,,,,,,,,,,,,,
null,,confidence_buffer,736213,confidence_buffer,,null,,,,,,,,,,,,,,,,,
2153.5,,pt2_unique_rating,738368,Dover,,50,,2,,,,,,,,,,,,,,,
null,,confidence_buffer,738470,confidence_buffer,,null,,,,,,,,,,,,,,,,,
3223.7999999970198,,pt2_memorable_rating,741695,Dover,,50,,2,,,,,,,,,,,,,,,
null,,confidence_buffer,741798,confidence_buffer,,null,,,,,,,,,,,,,,,,,
1893.300000011921,,recognition_phase,743693,Dover,,52,,,,,new,1,0.9545454545454546,,,,,,,,,,
null,,confidence_buffer,743795,confidence_buffer,,null,,,,,,,,,,,,,,,,,
null,,thebreak,744297,break,,null,,,,,,,,,,,,,,,,,
2197,,realistic_rating,746495,Yakima,,53,Yakima,5,,,,,,,,,,,,,,,
null,,confidence_buffer,746601,confidence_buffer,,null,,,,,,,,,,,,,,,,,
4260.899999991059,,pt2_unique_rating,750863,Yakima,,53,,5,,,,,,,,,,,,,,,
null,,confidence_buffer,750966,confidence_buffer,,null,,,,,,,,,,,,,,,,,
3573.7999999970198,,pt2_memorable_rating,754541,Yakima,,50,,2,,,,,,,,,,,,,,,
null,,confidence_buffer,754643,confidence_buffer,,null,,,,,,,,,,,,,,,,,
1484.5999999940395,,recognition_phase,756128,Yakima,,52,,,,,new,1,0.9565217391304348,,,,,,,,,,
null,,confidence_buffer,756230,confidence_buffer,,null,,,,,,,,,,,,,,,,,
null,,thebreak,756731,break,,null,,,,,,,,,,,,,,,,,
3810,,realistic_rating,760543,Fargo,,53,Fargo,5,,,,,,,,,,,,,,,
null,,confidence_buffer,760645,confidence_buffer,,null,,,,,,,,,,,,,,,,,
2185,,pt2_unique_rating,762831,Fargo,,53,,5,,,,,,,,,,,,,,,
null,,confidence_buffer,762933,confidence_buffer,,null,,,,,,,,,,,,,,,,,
2168.5999999940395,,pt2_memorable_rating,765103,Fargo,,53,,5,,,,,,,,,,,,,,,
null,,confidence_buffer,765205,confidence_buffer,,null,,,,,,,,,,,,,,,,,
1991.7999999970198,,probe_rating,767198,probe_rating,,51,,,3,1,,,,,,,,,,,,,
null,,confidence_buffer,767300,confidence_buffer,,null,,,,,,,,,,,,,,,,,
1911.699999988079,,recognition_phase,769213,Fargo,,52,,,,,new,1,0.9583333333333334,,,,,,,,,,
null,,confidence_buffer,769314,confidence_buffer,,null,,,,,,,,,,,,,,,,,
null,,thebreak,769816,break,,null,,,,,,,,,,,,,,,,,
2756.300000011921,,realistic_rating,772573,Dubuque,,53,Dubuque,5,,,,,,,,,,,,,,,
null,,confidence_buffer,772675,confidence_buffer,,null,,,,,,,,,,,,,,,,,
2377.4000000059605,,pt2_unique_rating,775054,Dubuque,,53,,5,,,,,,,,,,,,,,,
null,,confidence_buffer,775156,confidence_buffer,,null,,,,,,,,,,,,,,,,,
2073.0999999940395,,pt2_memorable_rating,777230,Dubuque,,50,,2,,,,,,,,,,,,,,,
null,,confidence_buffer,777331,confidence_buffer,,null,,,,,,,,,,,,,,,,,
1625.2999999970198,,recognition_phase,778958,Dubuque,,52,,,,,new,1,0.96,,,,,,,,,,
null,,confidence_buffer,779061,confidence_buffer,,null,,,,,,,,,,,,,,,,,
null,,thebreak,779562,break,,null,,,,,,,,,,,,,,,,,
7186.199999988079,,realistic_rating,786750,McKinney,,51,McKinney,3,,,,,,,,,,,,,,,
null,,confidence_buffer,786852,confidence_buffer,,null,,,,,,,,,,,,,,,,,
3129.7000000029802,,pt2_unique_rating,789983,McKinney,,49,,1,,,,,,,,,,,,,,,
null,,confidence_buffer,790085,confidence_buffer,,null,,,,,,,,,,,,,,,,,
2502.3999999910593,,probe_rating,792589,probe_rating,,50,,,2,1,,,,,,,,,,,,,
null,,confidence_buffer,792691,confidence_buffer,,null,,,,,,,,,,,,,,,,,
2441.699999988079,,pt2_memorable_rating,795135,McKinney,,49,,1,,,,,,,,,,,,,,,
null,,confidence_buffer,795238,confidence_buffer,,null,,,,,,,,,,,,,,,,,
1815.2999999970198,,recognition_phase,797055,McKinney,,52,,,,,new,1,0.9615384615384616,,,,,,,,,,
null,,confidence_buffer,797157,confidence_buffer,,null,,,,,,,,,,,,,,,,,
null,,thebreak,797659,break,,null,,,,,,,,,,,,,,,,,
7056.800000011921,,realistic_rating,804717,Rock Springs,,52,Rock Springs,4,,,,,,,,,,,,,,,
null,,confidence_buffer,804818,confidence_buffer,,null,,,,,,,,,,,,,,,,,
1915.7999999970198,,probe_rating,806735,probe_rating,,51,,,3,1,,,,,,,,,,,,,
null,,confidence_buffer,806838,confidence_buffer,,null,,,,,,,,,,,,,,,,,
3607.9000000059605,,pt2_unique_rating,810447,Rock Springs,,49,,1,,,,,,,,,,,,,,,
null,,confidence_buffer,810549,confidence_buffer,,null,,,,,,,,,,,,,,,,,
3255.5999999940395,,pt2_memorable_rating,813807,Rock Springs,,49,,1,,,,,,,,,,,,,,,
null,,confidence_buffer,813909,confidence_buffer,,null,,,,,,,,,,,,,,,,,
1735.5999999940395,,recognition_phase,815646,Rock Springs,,52,,,,,new,1,0.9629629629629629,,,,,,,,,,
null,,confidence_buffer,815748,confidence_buffer,,null,,,,,,,,,,,,,,,,,
null,,thebreak,816248,break,,null,,,,,,,,,,,,,,,,,
2437,,realistic_rating,818687,Berkeley,,53,Berkeley,5,,,,,,,,,,,,,,,
null,,confidence_buffer,818788,confidence_buffer,,null,,,,,,,,,,,,,,,,,
2921.2999999970198,,pt2_unique_rating,821711,Berkeley,,53,,5,,,,,,,,,,,,,,,
null,,confidence_buffer,821813,confidence_buffer,,null,,,,,,,,,,,,,,,,,
2166.7000000029802,,pt2_memorable_rating,823981,Berkeley,,52,,4,,,,,,,,,,,,,,,
null,,confidence_buffer,824083,confidence_buffer,,null,,,,,,,,,,,,,,,,,
1562.2999999970198,,recognition_phase,825647,Berkeley,,52,,,,,new,1,0.9642857142857143,,,,,,,,,,
null,,confidence_buffer,825748,confidence_buffer,,null,,,,,,,,,,,,,,,,,
null,,thebreak,826250,break,,null,,,,,,,,,,,,,,,,,
3091,,realistic_rating,829342,Cheyenne,,53,Cheyenne,5,,,,,,,,,,,,,,,
null,,confidence_buffer,829444,confidence_buffer,,null,,,,,,,,,,,,,,,,,
3050.6000000089407,,pt2_unique_rating,832495,Cheyenne,,50,,2,,,,,,,,,,,,,,,
null,,confidence_buffer,832598,confidence_buffer,,null,,,,,,,,,,,,,,,,,
2918.800000011921,,pt2_memorable_rating,835519,Cheyenne,,51,,3,,,,,,,,,,,,,,,
null,,confidence_buffer,835621,confidence_buffer,,null,,,,,,,,,,,,,,,,,
9351.29999999702,,recognition_phase,844973,Cheyenne,,50,,,,,old,1,0.9655172413793104,,,,,,,,,,
null,,confidence_buffer,845076,confidence_buffer,,null,,,,,,,,,,,,,,,,,
null,,thebreak,845578,break,,null,,,,,,,,,,,,,,,,,
2658.5,,realistic_rating,848239,Terre Haute,,53,Terre Haute,5,,,,,,,,,,,,,,,
null,,confidence_buffer,848341,confidence_buffer,,null,,,,,,,,,,,,,,,,,
2248.1000000089407,,pt2_unique_rating,850590,Terre Haute,,53,,5,,,,,,,,,,,,,,,
null,,confidence_buffer,850693,confidence_buffer,,null,,,,,,,,,,,,,,,,,
1591.5999999940395,,pt2_memorable_rating,852286,Terre Haute,,53,,5,,,,,,,,,,,,,,,
null,,confidence_buffer,852389,confidence_buffer,,null,,,,,,,,,,,,,,,,,
2135.8999999910593,,recognition_phase,854527,Terre Haute,,52,,,,,new,1,0.9666666666666667,,,,,,,,,,
null,,confidence_buffer,854629,confidence_buffer,,null,,,,,,,,,,,,,,,,,
null,,thebreak,855131,break,,null,,,,,,,,,,,,,,,,,
2674.3999999910593,,realistic_rating,857807,Pueblo,,53,Pueblo,5,,,,,,,,,,,,,,,
null,,confidence_buffer,857909,confidence_buffer,,null,,,,,,,,,,,,,,,,,
2567.7999999970198,,pt2_unique_rating,860478,Pueblo,,50,,2,,,,,,,,,,,,,,,
null,,confidence_buffer,860588,confidence_buffer,,null,,,,,,,,,,,,,,,,,
2630.9000000059605,,pt2_memorable_rating,863220,Pueblo,,51,,3,,,,,,,,,,,,,,,
null,,confidence_buffer,863321,confidence_buffer,,null,,,,,,,,,,,,,,,,,
1730.5,,recognition_phase,865052,Pueblo,,49,,,,,old,1,0.967741935483871,,,,,,,,,,
null,,confidence_buffer,865154,confidence_buffer,,null,,,,,,,,,,,,,,,,,
null,,thebreak,865656,break,,null,,,,,,,,,,,,,,,,,
2916,,realistic_rating,868573,Champaign,,53,Champaign,5,,,,,,,,,,,,,,,
null,,confidence_buffer,868675,confidence_buffer,,null,,,,,,,,,,,,,,,,,
3048.2999999970198,,pt2_unique_rating,871725,Champaign,,50,,2,,,,,,,,,,,,,,,
null,,confidence_buffer,871826,confidence_buffer,,null,,,,,,,,,,,,,,,,,
2729.1000000089407,,pt2_memorable_rating,874556,Champaign,,51,,3,,,,,,,,,,,,,,,
null,,confidence_buffer,874658,confidence_buffer,,null,,,,,,,,,,,,,,,,,
1979.4000000059605,,recognition_phase,876639,Champaign,,52,,,,,new,1,0.96875,,,,,,,,,,
null,,confidence_buffer,876741,confidence_buffer,,null,,,,,,,,,,,,,,,,,
null,,thebreak,877243,break,,null,,,,,,,,,,,,,,,,,
2450.2000000029802,,realistic_rating,879695,Santa Monica,,53,Santa Monica,5,,,,,,,,,,,,,,,
null,,confidence_buffer,879798,confidence_buffer,,null,,,,,,,,,,,,,,,,,
2742.9000000059605,,pt2_unique_rating,882542,Santa Monica,,50,,2,,,,,,,,,,,,,,,
null,,confidence_buffer,882644,confidence_buffer,,null,,,,,,,,,,,,,,,,,
2120.1000000089407,,pt2_memorable_rating,884765,Santa Monica,,50,,2,,,,,,,,,,,,,,,
null,,confidence_buffer,884880,confidence_buffer,,null,,,,,,,,,,,,,,,,,
1869.2000000029802,,recognition_phase,886750,Santa Monica,,52,,,,,new,1,0.9696969696969697,,,,,,,,,,
null,,confidence_buffer,886852,confidence_buffer,,null,,,,,,,,,,,,,,,,,
null,,thebreak,887354,break,,null,,,,,,,,,,,,,,,,,
1905.8999999910593,,realistic_rating,889262,Helena,,53,Helena,5,,,,,,,,,,,,,,,
null,,confidence_buffer,889374,confidence_buffer,,null,,,,,,,,,,,,,,,,,
2349.6000000089407,,pt2_unique_rating,891725,Helena,,50,,2,,,,,,,,,,,,,,,
null,,confidence_buffer,891827,confidence_buffer,,null,,,,,,,,,,,,,,,,,
1609.1000000089407,,probe_rating,893436,probe_rating,,52,,,4,1,,,,,,,,,,,,,
null,,confidence_buffer,893538,confidence_buffer,,null,,,,,,,,,,,,,,,,,
2476.3999999910593,,pt2_memorable_rating,896016,Helena,,50,,2,,,,,,,,,,,,,,,
null,,confidence_buffer,896118,confidence_buffer,,null,,,,,,,,,,,,,,,,,
1718.1000000089407,,recognition_phase,897838,Helena,,52,,,,,new,1,0.9705882352941176,,,,,,,,,,
null,,confidence_buffer,897941,confidence_buffer,,null,,,,,,,,,,,,,,,,,
null,,thebreak,898443,break,,null,,,,,,,,,,,,,,,,,
1888.9000000059605,,realistic_rating,900332,Montpelier,,53,Montpelier,5,,,,,,,,,,,,,,,
null,,confidence_buffer,900433,confidence_buffer,,null,,,,,,,,,,,,,,,,,
1418.5,,pt2_unique_rating,901852,Montpelier,,53,,5,,,,,,,,,,,,,,,
null,,confidence_buffer,901954,confidence_buffer,,null,,,,,,,,,,,,,,,,,
1899.2000000029802,,pt2_memorable_rating,903854,Montpelier,,50,,2,,,,,,,,,,,,,,,
null,,confidence_buffer,903957,confidence_buffer,,null,,,,,,,,,,,,,,,,,
2054.5999999940395,,recognition_phase,906014,Montpelier,,52,,,,,new,1,0.9714285714285714,,,,,,,,,,
null,,confidence_buffer,906116,confidence_buffer,,null,,,,,,,,,,,,,,,,,
null,,thebreak,906617,break,,null,,,,,,,,,,,,,,,,,
5524.29999999702,,realistic_rating,912143,Boulder,,53,Boulder,5,,,,,,,,,,,,,,,
null,,confidence_buffer,912244,confidence_buffer,,null,,,,,,,,,,,,,,,,,
2665.2999999970198,,pt2_unique_rating,914910,Boulder,,52,,4,,,,,,,,,,,,,,,
null,,confidence_buffer,915013,confidence_buffer,,null,,,,,,,,,,,,,,,,,
1751.6000000089407,,pt2_memorable_rating,916766,Boulder,,52,,4,,,,,,,,,,,,,,,
null,,confidence_buffer,916868,confidence_buffer,,null,,,,,,,,,,,,,,,,,
2120.2999999970198,,recognition_phase,918990,Boulder,,52,,,,,new,1,0.9722222222222222,,,,,,,,,,
null,,confidence_buffer,919092,confidence_buffer,,null,,,,,,,,,,,,,,,,,
null,,thebreak,919594,break,,null,,,,,,,,,,,,,,,,,
2530.2999999970198,,realistic_rating,922126,Concord,,53,Concord,5,,,,,,,,,,,,,,,
null,,confidence_buffer,922228,confidence_buffer,,null,,,,,,,,,,,,,,,,,
4918.600000008941,,pt2_unique_rating,927149,Concord,,50,,2,,,,,,,,,,,,,,,
null,,confidence_buffer,927250,confidence_buffer,,null,,,,,,,,,,,,,,,,,
1706.5999999940395,,pt2_memorable_rating,928958,Concord,,50,,2,,,,,,,,,,,,,,,
null,,confidence_buffer,929060,confidence_buffer,,null,,,,,,,,,,,,,,,,,
1000.1999999880791,,recognition_phase,930062,Concord,,49,,,,,old,1,0.972972972972973,,,,,,,,,,
null,,confidence_buffer,930176,confidence_buffer,,null,,,,,,,,,,,,,,,,,
null,,thebreak,930678,break,,null,,,,,,,,,,,,,,,,,
4869.9000000059605,,realistic_rating,935548,Burlington,,53,Burlington,5,,,,,,,,,,,,,,,
null,,confidence_buffer,935649,confidence_buffer,,null,,,,,,,,,,,,,,,,,
2828.4000000059605,,pt2_unique_rating,938479,Burlington,,50,,2,,,,,,,,,,,,,,,
null,,confidence_buffer,938581,confidence_buffer,,null,,,,,,,,,,,,,,,,,
2070.9000000059605,,pt2_memorable_rating,940654,Burlington,,50,,2,,,,,,,,,,,,,,,
null,,confidence_buffer,940756,confidence_buffer,,null,,,,,,,,,,,,,,,,,
921.1999999880791,,recognition_phase,941678,Burlington,,49,,,,,old,1,0.9736842105263158,,,,,,,,,,
null,,confidence_buffer,941780,confidence_buffer,,null,,,,,,,,,,,,,,,,,
null,,thebreak,942296,break,,null,,,,,,,,,,,,,,,,,
2708.6000000089407,,realistic_rating,945006,Annapolis,,53,Annapolis,5,,,,,,,,,,,,,,,
null,,confidence_buffer,945108,confidence_buffer,,null,,,,,,,,,,,,,,,,,
1704.4000000059605,,pt2_unique_rating,946814,Annapolis,,53,,5,,,,,,,,,,,,,,,
null,,confidence_buffer,946916,confidence_buffer,,null,,,,,,,,,,,,,,,,,
3222.800000011921,,pt2_memorable_rating,950140,Annapolis,,52,,4,,,,,,,,,,,,,,,
null,,confidence_buffer,950242,confidence_buffer,,null,,,,,,,,,,,,,,,,,
1001.1000000089407,,recognition_phase,951244,Annapolis,,49,,,,,old,1,0.9743589743589743,,,,,,,,,,
null,,confidence_buffer,951352,confidence_buffer,,null,,,,,,,,,,,,,,,,,
null,,thebreak,951853,break,,null,,,,,,,,,,,,,,,,,
1807.0999999940395,,realistic_rating,953662,Pasadena,,53,Pasadena,5,,,,,,,,,,,,,,,
null,,confidence_buffer,953764,confidence_buffer,,null,,,,,,,,,,,,,,,,,
2744.7000000029802,,pt2_unique_rating,956510,Pasadena,,52,,4,,,,,,,,,,,,,,,
null,,confidence_buffer,956613,confidence_buffer,,null,,,,,,,,,,,,,,,,,
2727.7999999970198,,pt2_memorable_rating,959342,Pasadena,,52,,4,,,,,,,,,,,,,,,
null,,confidence_buffer,959444,confidence_buffer,,null,,,,,,,,,,,,,,,,,
1526.7999999970198,,recognition_phase,960973,Pasadena,,52,,,,,new,1,0.975,,,,,,,,,,
null,,confidence_buffer,961074,confidence_buffer,,null,,,,,,,,,,,,,,,,,
null,,thebreak,961575,break,,null,,,,,,,,,,,,,,,,,
2643.7999999970198,,realistic_rating,964221,Marquette,,53,Marquette,5,,,,,,,,,,,,,,,
null,,confidence_buffer,964323,confidence_buffer,,null,,,,,,,,,,,,,,,,,
2505.7000000029802,,pt2_unique_rating,966830,Marquette,,53,,5,,,,,,,,,,,,,,,
null,,confidence_buffer,966932,confidence_buffer,,null,,,,,,,,,,,,,,,,,
2615.9000000059605,,pt2_memorable_rating,969550,Marquette,,50,,2,,,,,,,,,,,,,,,
null,,confidence_buffer,969652,confidence_buffer,,null,,,,,,,,,,,,,,,,,
1816.8999999910593,,recognition_phase,971471,Marquette,,52,,,,,new,1,0.975609756097561,,,,,,,,,,
null,,confidence_buffer,971573,confidence_buffer,,null,,,,,,,,,,,,,,,,,
null,,thebreak,972075,break,,null,,,,,,,,,,,,,,,,,
2770.0999999940395,,realistic_rating,974847,Youngstown,,53,Youngstown,5,,,,,,,,,,,,,,,
null,,confidence_buffer,974949,confidence_buffer,,null,,,,,,,,,,,,,,,,,
2151.7000000029802,,pt2_unique_rating,977102,Youngstown,,50,,2,,,,,,,,,,,,,,,
null,,confidence_buffer,977214,confidence_buffer,,null,,,,,,,,,,,,,,,,,
1933.7999999970198,,pt2_memorable_rating,979149,Youngstown,,50,,2,,,,,,,,,,,,,,,
null,,confidence_buffer,979251,confidence_buffer,,null,,,,,,,,,,,,,,,,,
1017,,recognition_phase,980270,Youngstown,,49,,,,,old,1,0.9761904761904762,,,,,,,,,,
null,,confidence_buffer,980372,confidence_buffer,,null,,,,,,,,,,,,,,,,,
null,,thebreak,980873,break,,null,,,,,,,,,,,,,,,,,
4625.5,,realistic_rating,985500,Scottsdale,,53,Scottsdale,5,,,,,,,,,,,,,,,
null,,confidence_buffer,985606,confidence_buffer,,null,,,,,,,,,,,,,,,,,
2374.699999988079,,pt2_unique_rating,987982,Scottsdale,,50,,2,,,,,,,,,,,,,,,
null,,confidence_buffer,988084,confidence_buffer,,null,,,,,,,,,,,,,,,,,
2328.2000000029802,,pt2_memorable_rating,990414,Scottsdale,,50,,2,,,,,,,,,,,,,,,
null,,confidence_buffer,990517,confidence_buffer,,null,,,,,,,,,,,,,,,,,
3623,,recognition_phase,994142,Scottsdale,,51,,,,,new,0,0.9534883720930233,,,,,,,,,,
null,,confidence_buffer,994244,confidence_buffer,,null,,,,,,,,,,,,,,,,,
null,,thebreak,994746,break,,null,,,,,,,,,,,,,,,,,
2146.1000000089407,,realistic_rating,996893,Ann Arbor,,53,Ann Arbor,5,,,,,,,,,,,,,,,
null,,confidence_buffer,996994,confidence_buffer,,null,,,,,,,,,,,,,,,,,
1706.2000000029802,,pt2_unique_rating,998702,Ann Arbor,,53,,5,,,,,,,,,,,,,,,
null,,confidence_buffer,998804,confidence_buffer,,null,,,,,,,,,,,,,,,,,
2552.5999999940395,,pt2_memorable_rating,1001358,Ann Arbor,,53,,5,,,,,,,,,,,,,,,
null,,confidence_buffer,1001460,confidence_buffer,,null,,,,,,,,,,,,,,,,,
2264.2999999970198,,recognition_phase,1003726,Ann Arbor,,52,,,,,new,1,0.9545454545454546,,,,,,,,,,
null,,confidence_buffer,1003828,confidence_buffer,,null,,,,,,,,,,,,,,,,,
null,,thebreak,1004330,break,,null,,,,,,,,,,,,,,,,,
1649.8999999910593,,realistic_rating,1005982,Olympia,,53,Olympia,5,,,,,,,,,,,,,,,
null,,confidence_buffer,1006084,confidence_buffer,,null,,,,,,,,,,,,,,,,,
2041.2999999970198,,pt2_unique_rating,1008126,Olympia,,50,,2,,,,,,,,,,,,,,,
null,,confidence_buffer,1008228,confidence_buffer,,null,,,,,,,,,,,,,,,,,
2503.2000000029802,,pt2_memorable_rating,1010733,Olympia,,50,,2,,,,,,,,,,,,,,,
null,,confidence_buffer,1010836,confidence_buffer,,null,,,,,,,,,,,,,,,,,
919.0999999940395,,recognition_phase,1011757,Olympia,,49,,,,,old,1,0.9555555555555556,,,,,,,,,,
null,,confidence_buffer,1011858,confidence_buffer,,null,,,,,,,,,,,,,,,,,
null,,thebreak,1012360,break,,null,,,,,,,,,,,,,,,,,
2339.7000000029802,,realistic_rating,1014701,Norfolk,,53,Norfolk,5,,,,,,,,,,,,,,,
null,,confidence_buffer,1014804,confidence_buffer,,null,,,,,,,,,,,,,,,,,
2166.5,,pt2_unique_rating,1016972,Norfolk,,52,,4,,,,,,,,,,,,,,,
null,,confidence_buffer,1017078,confidence_buffer,,null,,,,,,,,,,,,,,,,,
2903.2999999970198,,pt2_memorable_rating,1019983,Norfolk,,49,,1,,,,,,,,,,,,,,,
null,,confidence_buffer,1020085,confidence_buffer,,null,,,,,,,,,,,,,,,,,
1382.2999999970198,,recognition_phase,1021469,Norfolk,,49,,,,,old,1,0.9565217391304348,,,,,,,,,,
null,,confidence_buffer,1021574,confidence_buffer,,null,,,,,,,,,,,,,,,,,
null,,thebreak,1022076,break,,null,,,,,,,,,,,,,,,,,
3360.7999999970198,,realistic_rating,1025438,Bellingham,,53,Bellingham,5,,,,,,,,,,,,,,,
null,,confidence_buffer,1025540,confidence_buffer,,null,,,,,,,,,,,,,,,,,
4313.29999999702,,pt2_unique_rating,1029855,Bellingham,,52,,4,,,,,,,,,,,,,,,
null,,confidence_buffer,1029957,confidence_buffer,,null,,,,,,,,,,,,,,,,,
1863.8999999910593,,probe_rating,1031822,probe_rating,,49,,,1,1,,,,,,,,,,,,,
null,,confidence_buffer,1031926,confidence_buffer,,null,,,,,,,,,,,,,,,,,
2149.699999988079,,pt2_memorable_rating,1034077,Bellingham,,50,,2,,,,,,,,,,,,,,,
null,,confidence_buffer,1034180,confidence_buffer,,null,,,,,,,,,,,,,,,,,
3608.5,,recognition_phase,1037790,Bellingham,,52,,,,,new,0,0.9361702127659575,,,,,,,,,,
null,,confidence_buffer,1037892,confidence_buffer,,null,,,,,,,,,,,,,,,,,
null,,thebreak,1038394,break,,null,,,,,,,,,,,,,,,,,
2001.800000011921,,realistic_rating,1040397,Carson City,,53,Carson City,5,,,,,,,,,,,,,,,
null,,confidence_buffer,1040499,confidence_buffer,,null,,,,,,,,,,,,,,,,,
1498.5,,probe_rating,1041999,probe_rating,,52,,,4,1,,,,,,,,,,,,,
null,,confidence_buffer,1042101,confidence_buffer,,null,,,,,,,,,,,,,,,,,
2261.1000000089407,,pt2_unique_rating,1044364,Carson City,,52,,4,,,,,,,,,,,,,,,
null,,confidence_buffer,1044465,confidence_buffer,,null,,,,,,,,,,,,,,,,,
1962.4000000059605,,pt2_memorable_rating,1046428,Carson City,,50,,2,,,,,,,,,,,,,,,
null,,confidence_buffer,1046531,confidence_buffer,,null,,,,,,,,,,,,,,,,,
1561.5,,recognition_phase,1048094,Carson City,,49,,,,,old,1,0.9375,,,,,,,,,,
null,,confidence_buffer,1048197,confidence_buffer,,null,,,,,,,,,,,,,,,,,
null,,thebreak,1048698,break,,null,,,,,,,,,,,,,,,,,
3185.9000000059605,,realistic_rating,1051886,Topeka,,53,Topeka,5,,,,,,,,,,,,,,,
null,,confidence_buffer,1051989,confidence_buffer,,null,,,,,,,,,,,,,,,,,
1190,,probe_rating,1053180,probe_rating,,50,,,2,1,,,,,,,,,,,,,
null,,confidence_buffer,1053282,confidence_buffer,,null,,,,,,,,,,,,,,,,,
1032.7000000029802,,pt2_unique_rating,1054316,Topeka,,53,,5,,,,,,,,,,,,,,,
null,,confidence_buffer,1054417,confidence_buffer,,null,,,,,,,,,,,,,,,,,
2650.7999999970198,,pt2_memorable_rating,1057070,Topeka,,50,,2,,,,,,,,,,,,,,,
null,,confidence_buffer,1057172,confidence_buffer,,null,,,,,,,,,,,,,,,,,
3688.2000000029802,,recognition_phase,1060862,Topeka,,51,,,,,new,1,0.9387755102040817,,,,,,,,,,
null,,confidence_buffer,1060964,confidence_buffer,,null,,,,,,,,,,,,,,,,,
null,,thebreak,1061466,break,,null,,,,,,,,,,,,,,,,,
9842.70000000298,,realistic_rating,1071310,Dothan,,49,Dothan,1,,,,,,,,,,,,,,,
null,,confidence_buffer,1071413,confidence_buffer,,null,,,,,,,,,,,,,,,,,
2247.0999999940395,,pt2_unique_rating,1073661,Dothan,,49,,1,,,,,,,,,,,,,,,
null,,confidence_buffer,1073772,confidence_buffer,,null,,,,,,,,,,,,,,,,,
2144.5,,pt2_memorable_rating,1075918,Dothan,,49,,1,,,,,,,,,,,,,,,
null,,confidence_buffer,1076020,confidence_buffer,,null,,,,,,,,,,,,,,,,,
1751.8999999910593,,recognition_phase,1077773,Dothan,,52,,,,,new,1,0.94,,,,,,,,,,
null,,confidence_buffer,1077877,confidence_buffer,,null,,,,,,,,,,,,,,,,,
null,,thebreak,1078378,break,,null,,,,,,,,,,,,,,,,,
,,survey,1521898,survey-questions,,,,,,,,,,none,high,No; I was not doing anything else while participating in this study.  I was paying very close attention and concentrating.,Strategies?  I wasn't using any strategies that I was aware of. ,I have definitely heard of most of them; but how often; or how top of mind they might be; was more the sort of thing I thought of with regard to the Familiar metric.,If a name was more top of mind for me; I rated it as memorable.  sort of vaguely; I guess; I thought some names are more bland; so to speak; not very catchy or something.,There might be different interpretations of Unique.  I started with the idea of how many other cities might have the same name; because some of those names are shared by a greater or lesser amount of other cities in the US and around the world.  But sometime later in the study I began to think of unique as maybe having to do with the way a place is named; like  cities named for people; or cities with American Indian names; or cities with names that mean something that might mean the same as a different word that is the name of another city.,If I never heard of a name before; then I was less sure about how realistic it was.  I know for sure most of them are certainly real cities.  But there were a couple I wasn't sure about; so I had to try to think if it sounded like it MIGHT be the name of a city.,I have never participated in a study like this one.,it wasn't too boring; kind of interesting; It was a bit long.
