rt,responses,trial_type,time_elapsed,stimulus,button_pressed,key_press,name_trial,city_type,rating,probe,probe_accuracy,response,correct,accuracy,problems,smooth,distraction,strategies,familiar,memorable,unique,realistic,similar,comments
6510.5,{worker_id:67917e58d806392f78de047b},id_enter,6519,,,,,,,,,,,,,,,,,,,,,
17479.39999985695,,fullscreen,24016,fullscreen,0,,,,,,,,,,,,,,,,,,,
8832.100000143051,,intro_0,32859,instruct,,32,,,,,,,,,,,,,,,,,,
14513.200000047684,,intro_1,47376,instruct,,32,,,,,,,,,,,,,,,,,,
12556.099999904633,,intro_2,59937,instruct,,32,,,,,,,,,,,,,,,,,,
null,,instruct_dir_4,61440,instruct,,null,,,,,,,,,,,,,,,,,,
null,,thebreak,61943,break,,null,,,,,,,,,,,,,,,,,,
13464.5,,familiar_rating,75411,Watkins Glen,,49,Watkins Glen,US,1,,,,,,,,,,,,,,,
null,,confidence_buffer,75519,confidence_buffer,,null,,,,,,,,,,,,,,,,,,
7058.700000047684,,unique_rating,82581,Watkins Glen,,52,,,4,,,,,,,,,,,,,,,
null,,confidence_buffer,82696,confidence_buffer,,null,,,,,,,,,,,,,,,,,,
5918,,memorable_rating,88618,Watkins Glen,,50,,,2,,,,,,,,,,,,,,,
null,,confidence_buffer,88723,confidence_buffer,,null,,,,,,,,,,,,,,,,,,
null,,thebreak,89227,break,,null,,,,,,,,,,,,,,,,,,
26280.099999904633,,familiar_rating,115511,Sitka,,51,Sitka,US,3,,,,,,,,,,,,,,,
null,,confidence_buffer,115616,confidence_buffer,,null,,,,,,,,,,,,,,,,,,
3880.5999999046326,,unique_rating,119500,Sitka,,51,,,3,,,,,,,,,,,,,,,
null,,confidence_buffer,119604,confidence_buffer,,null,,,,,,,,,,,,,,,,,,
5868.399999856949,,memorable_rating,125477,Sitka,,52,,,4,,,,,,,,,,,,,,,
null,,confidence_buffer,125582,confidence_buffer,,null,,,,,,,,,,,,,,,,,,
null,,thebreak,126085,break,,null,,,,,,,,,,,,,,,,,,
24298.299999952316,,familiar_rating,150388,Bowling Green,,50,Bowling Green,US,2,,,,,,,,,,,,,,,
null,,confidence_buffer,150495,confidence_buffer,,null,,,,,,,,,,,,,,,,,,
4235.299999952316,,unique_rating,154734,Bowling Green,,50,,,2,,,,,,,,,,,,,,,
null,,confidence_buffer,154838,confidence_buffer,,null,,,,,,,,,,,,,,,,,,
2310.100000143051,,memorable_rating,157152,Bowling Green,,50,,,2,,,,,,,,,,,,,,,
null,,confidence_buffer,157256,confidence_buffer,,null,,,,,,,,,,,,,,,,,,
null,,thebreak,157759,break,,null,,,,,,,,,,,,,,,,,,
16727.299999952316,,familiar_rating,174492,Duck,,49,Duck,US,1,,,,,,,,,,,,,,,
null,,confidence_buffer,174598,confidence_buffer,,null,,,,,,,,,,,,,,,,,,
1889,,unique_rating,176491,Duck,,49,,,1,,,,,,,,,,,,,,,
null,,confidence_buffer,176598,confidence_buffer,,null,,,,,,,,,,,,,,,,,,
1679.5999999046326,,memorable_rating,178281,Duck,,49,,,1,,,,,,,,,,,,,,,
null,,confidence_buffer,178387,confidence_buffer,,null,,,,,,,,,,,,,,,,,,
null,,thebreak,178890,break,,null,,,,,,,,,,,,,,,,,,
18943.400000095367,,familiar_rating,197837,North Arroya,,51,North Arroya,Fictional,3,,,,,,,,,,,,,,,
null,,confidence_buffer,197943,confidence_buffer,,null,,,,,,,,,,,,,,,,,,
4494.399999856949,,probe_rating,202441,probe_rating,,53,,,,5,1,,,,,,,,,,,,,
null,,confidence_buffer,202549,confidence_buffer,,null,,,,,,,,,,,,,,,,,,
4792.5,,unique_rating,207345,North Arroya,,52,,,4,,,,,,,,,,,,,,,
null,,confidence_buffer,207450,confidence_buffer,,null,,,,,,,,,,,,,,,,,,
2553.100000143051,,memorable_rating,210006,North Arroya,,51,,,3,,,,,,,,,,,,,,,
null,,confidence_buffer,210113,confidence_buffer,,null,,,,,,,,,,,,,,,,,,
null,,thebreak,210616,break,,null,,,,,,,,,,,,,,,,,,
21330.200000047684,,familiar_rating,231950,Elmsbury,,49,Elmsbury,Fictional,1,,,,,,,,,,,,,,,
null,,confidence_buffer,232055,confidence_buffer,,null,,,,,,,,,,,,,,,,,,
2962.2999999523163,,probe_rating,235022,probe_rating,,49,,,,1,1,,,,,,,,,,,,,
null,,confidence_buffer,235127,confidence_buffer,,null,,,,,,,,,,,,,,,,,,
3695.7999999523163,,unique_rating,238827,Elmsbury,,49,,,1,,,,,,,,,,,,,,,
null,,confidence_buffer,238938,confidence_buffer,,null,,,,,,,,,,,,,,,,,,
1689,,memorable_rating,240632,Elmsbury,,49,,,1,,,,,,,,,,,,,,,
null,,confidence_buffer,240737,confidence_buffer,,null,,,,,,,,,,,,,,,,,,
null,,thebreak,241240,break,,null,,,,,,,,,,,,,,,,,,
13034.100000143051,,familiar_rating,254279,Healdsburg,,51,Healdsburg,US,3,,,,,,,,,,,,,,,
null,,confidence_buffer,254384,confidence_buffer,,null,,,,,,,,,,,,,,,,,,
6018.399999856949,,unique_rating,260407,Healdsburg,,52,,,4,,,,,,,,,,,,,,,
null,,confidence_buffer,260512,confidence_buffer,,null,,,,,,,,,,,,,,,,,,
2690.2000000476837,,memorable_rating,263206,Healdsburg,,50,,,2,,,,,,,,,,,,,,,
null,,confidence_buffer,263311,confidence_buffer,,null,,,,,,,,,,,,,,,,,,
null,,thebreak,263814,break,,null,,,,,,,,,,,,,,,,,,
12153.099999904633,,familiar_rating,275972,Claywater,,49,Claywater,Fictional,1,,,,,,,,,,,,,,,
null,,confidence_buffer,276077,confidence_buffer,,null,,,,,,,,,,,,,,,,,,
2427.0999999046326,,unique_rating,278508,Claywater,,49,,,1,,,,,,,,,,,,,,,
null,,confidence_buffer,278610,confidence_buffer,,null,,,,,,,,,,,,,,,,,,
4187.5,,memorable_rating,282800,Claywater,,49,,,1,,,,,,,,,,,,,,,
null,,confidence_buffer,282904,confidence_buffer,,null,,,,,,,,,,,,,,,,,,
4503.299999952316,,probe_rating,287411,probe_rating,,53,,,,5,1,,,,,,,,,,,,,
null,,confidence_buffer,287517,confidence_buffer,,null,,,,,,,,,,,,,,,,,,
null,,thebreak,288020,break,,null,,,,,,,,,,,,,,,,,,
16716.700000047684,,familiar_rating,304742,Montelake,,50,Montelake,Fictional,2,,,,,,,,,,,,,,,
null,,confidence_buffer,304848,confidence_buffer,,null,,,,,,,,,,,,,,,,,,
3869.699999809265,,unique_rating,308721,Montelake,,51,,,3,,,,,,,,,,,,,,,
null,,confidence_buffer,308826,confidence_buffer,,null,,,,,,,,,,,,,,,,,,
2162.2999999523163,,memorable_rating,310993,Montelake,,50,,,2,,,,,,,,,,,,,,,
null,,confidence_buffer,311098,confidence_buffer,,null,,,,,,,,,,,,,,,,,,
null,,thebreak,311601,break,,null,,,,,,,,,,,,,,,,,,
22692,,familiar_rating,334297,Gloucester,,50,Gloucester,US,2,,,,,,,,,,,,,,,
null,,confidence_buffer,334404,confidence_buffer,,null,,,,,,,,,,,,,,,,,,
3624.7999999523163,,unique_rating,338032,Gloucester,,50,,,2,,,,,,,,,,,,,,,
null,,confidence_buffer,338137,confidence_buffer,,null,,,,,,,,,,,,,,,,,,
5133.700000047684,,memorable_rating,343275,Gloucester,,50,,,2,,,,,,,,,,,,,,,
null,,confidence_buffer,343380,confidence_buffer,,null,,,,,,,,,,,,,,,,,,
null,,thebreak,343884,break,,null,,,,,,,,,,,,,,,,,,
18730.200000047684,,familiar_rating,362619,Ashford Hills,,49,Ashford Hills,Fictional,1,,,,,,,,,,,,,,,
null,,confidence_buffer,362725,confidence_buffer,,null,,,,,,,,,,,,,,,,,,
2201.2999999523163,,unique_rating,364931,Ashford Hills,,50,,,2,,,,,,,,,,,,,,,
null,,confidence_buffer,365036,confidence_buffer,,null,,,,,,,,,,,,,,,,,,
1119.5999999046326,,memorable_rating,366160,Ashford Hills,,49,,,1,,,,,,,,,,,,,,,
null,,confidence_buffer,366264,confidence_buffer,,null,,,,,,,,,,,,,,,,,,
2858.899999856949,,probe_rating,369128,probe_rating,,50,,,,2,1,,,,,,,,,,,,,
null,,confidence_buffer,369234,confidence_buffer,,null,,,,,,,,,,,,,,,,,,
null,,thebreak,369738,break,,null,,,,,,,,,,,,,,,,,,
2765.2999999523163,,familiar_rating,372508,Tamarisk Hills,,49,Tamarisk Hills,Fictional,1,,,,,,,,,,,,,,,
null,,confidence_buffer,372612,confidence_buffer,,null,,,,,,,,,,,,,,,,,,
1381.1000001430511,,probe_rating,373997,probe_rating,,50,,,,2,0,,,,,,,,,,,,,
null,,confidence_buffer,374103,confidence_buffer,,null,,,,,,,,,,,,,,,,,,
1510.7999999523163,,unique_rating,375618,Tamarisk Hills,,50,,,2,,,,,,,,,,,,,,,
null,,confidence_buffer,375723,confidence_buffer,,null,,,,,,,,,,,,,,,,,,
2172.5,,memorable_rating,377900,Tamarisk Hills,,49,,,1,,,,,,,,,,,,,,,
null,,confidence_buffer,378005,confidence_buffer,,null,,,,,,,,,,,,,,,,,,
null,,thebreak,378525,break,,null,,,,,,,,,,,,,,,,,,
15753,,familiar_rating,394282,Hilo,,50,Hilo,US,2,,,,,,,,,,,,,,,
null,,confidence_buffer,394388,confidence_buffer,,null,,,,,,,,,,,,,,,,,,
3207.7000000476837,,unique_rating,397600,Hilo,,50,,,2,,,,,,,,,,,,,,,
null,,confidence_buffer,397704,confidence_buffer,,null,,,,,,,,,,,,,,,,,,
2549.399999856949,,memorable_rating,400259,Hilo,,50,,,2,,,,,,,,,,,,,,,
null,,confidence_buffer,400364,confidence_buffer,,null,,,,,,,,,,,,,,,,,,
null,,thebreak,400868,break,,null,,,,,,,,,,,,,,,,,,
25428.10000014305,,familiar_rating,426300,Ironwood Heights,,49,Ironwood Heights,Fictional,1,,,,,,,,,,,,,,,
null,,confidence_buffer,426406,confidence_buffer,,null,,,,,,,,,,,,,,,,,,
3827.5999999046326,,probe_rating,430238,probe_rating,,51,,,,3,1,,,,,,,,,,,,,
null,,confidence_buffer,430343,confidence_buffer,,null,,,,,,,,,,,,,,,,,,
4706.399999856949,,unique_rating,435055,Ironwood Heights,,49,,,1,,,,,,,,,,,,,,,
null,,confidence_buffer,435161,confidence_buffer,,null,,,,,,,,,,,,,,,,,,
1226.2999999523163,,memorable_rating,436391,Ironwood Heights,,49,,,1,,,,,,,,,,,,,,,
null,,confidence_buffer,436495,confidence_buffer,,null,,,,,,,,,,,,,,,,,,
null,,thebreak,436999,break,,null,,,,,,,,,,,,,,,,,,
23224.099999904633,,familiar_rating,460228,Racine,,50,Racine,US,2,,,,,,,,,,,,,,,
null,,confidence_buffer,460334,confidence_buffer,,null,,,,,,,,,,,,,,,,,,
1394.8000001907349,,unique_rating,461733,Racine,,50,,,2,,,,,,,,,,,,,,,
null,,confidence_buffer,461839,confidence_buffer,,null,,,,,,,,,,,,,,,,,,
3089.9000000953674,,memorable_rating,464934,Racine,,49,,,1,,,,,,,,,,,,,,,
null,,confidence_buffer,465039,confidence_buffer,,null,,,,,,,,,,,,,,,,,,
null,,thebreak,465542,break,,null,,,,,,,,,,,,,,,,,,
22494.89999985695,,familiar_rating,488042,New Verdan,,49,New Verdan,Fictional,1,,,,,,,,,,,,,,,
null,,confidence_buffer,488148,confidence_buffer,,null,,,,,,,,,,,,,,,,,,
2936.7999999523163,,unique_rating,491089,New Verdan,,49,,,1,,,,,,,,,,,,,,,
null,,confidence_buffer,491193,confidence_buffer,,null,,,,,,,,,,,,,,,,,,
2336.199999809265,,memorable_rating,493533,New Verdan,,49,,,1,,,,,,,,,,,,,,,
null,,confidence_buffer,493636,confidence_buffer,,null,,,,,,,,,,,,,,,,,,
null,,thebreak,494138,break,,null,,,,,,,,,,,,,,,,,,
19485.799999952316,,familiar_rating,513628,Cape May,,52,Cape May,US,4,,,,,,,,,,,,,,,
null,,confidence_buffer,513734,confidence_buffer,,null,,,,,,,,,,,,,,,,,,
5012.399999856949,,unique_rating,518751,Cape May,,52,,,4,,,,,,,,,,,,,,,
null,,confidence_buffer,518856,confidence_buffer,,null,,,,,,,,,,,,,,,,,,
1685.5,,memorable_rating,520547,Cape May,,51,,,3,,,,,,,,,,,,,,,
null,,confidence_buffer,520653,confidence_buffer,,null,,,,,,,,,,,,,,,,,,
null,,thebreak,521157,break,,null,,,,,,,,,,,,,,,,,,
18870.60000014305,,familiar_rating,540032,Riverlyn,,49,Riverlyn,Fictional,1,,,,,,,,,,,,,,,
null,,confidence_buffer,540138,confidence_buffer,,null,,,,,,,,,,,,,,,,,,
2027.8999998569489,,unique_rating,542170,Riverlyn,,49,,,1,,,,,,,,,,,,,,,
null,,confidence_buffer,542275,confidence_buffer,,null,,,,,,,,,,,,,,,,,,
3729.2000000476837,,memorable_rating,546008,Riverlyn,,49,,,1,,,,,,,,,,,,,,,
null,,confidence_buffer,546113,confidence_buffer,,null,,,,,,,,,,,,,,,,,,
null,,thebreak,546617,break,,null,,,,,,,,,,,,,,,,,,
28344.400000095367,,familiar_rating,574968,Stonebrook,,50,Stonebrook,Fictional,2,,,,,,,,,,,,,,,
null,,confidence_buffer,575075,confidence_buffer,,null,,,,,,,,,,,,,,,,,,
821.5999999046326,,unique_rating,575900,Stonebrook,,50,,,2,,,,,,,,,,,,,,,
null,,confidence_buffer,576006,confidence_buffer,,null,,,,,,,,,,,,,,,,,,
2496.5,,memorable_rating,578508,Stonebrook,,49,,,1,,,,,,,,,,,,,,,
null,,confidence_buffer,578614,confidence_buffer,,null,,,,,,,,,,,,,,,,,,
3105.7000000476837,,probe_rating,581723,probe_rating,,51,,,,3,1,,,,,,,,,,,,,
null,,confidence_buffer,581827,confidence_buffer,,null,,,,,,,,,,,,,,,,,,
null,,thebreak,582330,break,,null,,,,,,,,,,,,,,,,,,
19302.799999952316,,familiar_rating,601637,Pine Hollow,,51,Pine Hollow,Fictional,3,,,,,,,,,,,,,,,
null,,confidence_buffer,601743,confidence_buffer,,null,,,,,,,,,,,,,,,,,,
5377.5,,unique_rating,607125,Pine Hollow,,50,,,2,,,,,,,,,,,,,,,
null,,confidence_buffer,607230,confidence_buffer,,null,,,,,,,,,,,,,,,,,,
3808.4000000953674,,memorable_rating,611043,Pine Hollow,,51,,,3,,,,,,,,,,,,,,,
null,,confidence_buffer,611148,confidence_buffer,,null,,,,,,,,,,,,,,,,,,
null,,thebreak,611651,break,,null,,,,,,,,,,,,,,,,,,
14840.299999952316,,familiar_rating,626496,Peoria,,51,Peoria,US,3,,,,,,,,,,,,,,,
null,,confidence_buffer,626609,confidence_buffer,,null,,,,,,,,,,,,,,,,,,
1587.0999999046326,,unique_rating,628201,Peoria,,51,,,3,,,,,,,,,,,,,,,
null,,confidence_buffer,628307,confidence_buffer,,null,,,,,,,,,,,,,,,,,,
2668.300000190735,,memorable_rating,630979,Peoria,,50,,,2,,,,,,,,,,,,,,,
null,,confidence_buffer,631086,confidence_buffer,,null,,,,,,,,,,,,,,,,,,
null,,thebreak,631590,break,,null,,,,,,,,,,,,,,,,,,
22969.900000095367,,familiar_rating,654563,Willowford,,51,Willowford,Fictional,3,,,,,,,,,,,,,,,
null,,confidence_buffer,654669,confidence_buffer,,null,,,,,,,,,,,,,,,,,,
3778.5,,unique_rating,658452,Willowford,,51,,,3,,,,,,,,,,,,,,,
null,,confidence_buffer,658558,confidence_buffer,,null,,,,,,,,,,,,,,,,,,
4826.700000047684,,memorable_rating,663390,Willowford,,52,,,4,,,,,,,,,,,,,,,
null,,confidence_buffer,663496,confidence_buffer,,null,,,,,,,,,,,,,,,,,,
null,,thebreak,663999,break,,null,,,,,,,,,,,,,,,,,,
18693.700000047684,,familiar_rating,682700,Hot Springs,,52,Hot Springs,US,4,,,,,,,,,,,,,,,
null,,confidence_buffer,682804,confidence_buffer,,null,,,,,,,,,,,,,,,,,,
1707.0999999046326,,unique_rating,684516,Hot Springs,,52,,,4,,,,,,,,,,,,,,,
null,,confidence_buffer,684632,confidence_buffer,,null,,,,,,,,,,,,,,,,,,
4437.100000143051,,memorable_rating,689073,Hot Springs,,51,,,3,,,,,,,,,,,,,,,
null,,confidence_buffer,689180,confidence_buffer,,null,,,,,,,,,,,,,,,,,,
null,,thebreak,689683,break,,null,,,,,,,,,,,,,,,,,,
15637.400000095367,,familiar_rating,705325,Livingston,,50,Livingston,US,2,,,,,,,,,,,,,,,
null,,confidence_buffer,705431,confidence_buffer,,null,,,,,,,,,,,,,,,,,,
2198.5,,unique_rating,707634,Livingston,,49,,,1,,,,,,,,,,,,,,,
null,,confidence_buffer,707740,confidence_buffer,,null,,,,,,,,,,,,,,,,,,
1889.4000000953674,,memorable_rating,709634,Livingston,,49,,,1,,,,,,,,,,,,,,,
null,,confidence_buffer,709739,confidence_buffer,,null,,,,,,,,,,,,,,,,,,
null,,thebreak,710241,break,,null,,,,,,,,,,,,,,,,,,
15361,,familiar_rating,725608,Shreveport,,49,Shreveport,US,1,,,,,,,,,,,,,,,
null,,confidence_buffer,725713,confidence_buffer,,null,,,,,,,,,,,,,,,,,,
3604.5,,unique_rating,729323,Shreveport,,51,,,3,,,,,,,,,,,,,,,
null,,confidence_buffer,729429,confidence_buffer,,null,,,,,,,,,,,,,,,,,,
4485.299999952316,,probe_rating,733919,probe_rating,,53,,,,5,1,,,,,,,,,,,,,
null,,confidence_buffer,734025,confidence_buffer,,null,,,,,,,,,,,,,,,,,,
5253.799999952316,,memorable_rating,739283,Shreveport,,52,,,4,,,,,,,,,,,,,,,
null,,confidence_buffer,739388,confidence_buffer,,null,,,,,,,,,,,,,,,,,,
null,,thebreak,739891,break,,null,,,,,,,,,,,,,,,,,,
15407.699999809265,,familiar_rating,755302,Clearbrook,,49,Clearbrook,Fictional,1,,,,,,,,,,,,,,,
null,,confidence_buffer,755410,confidence_buffer,,null,,,,,,,,,,,,,,,,,,
1036.7999999523163,,unique_rating,756451,Clearbrook,,49,,,1,,,,,,,,,,,,,,,
null,,confidence_buffer,756559,confidence_buffer,,null,,,,,,,,,,,,,,,,,,
2838.4000000953674,,memorable_rating,759402,Clearbrook,,50,,,2,,,,,,,,,,,,,,,
null,,confidence_buffer,759507,confidence_buffer,,null,,,,,,,,,,,,,,,,,,
null,,thebreak,760011,break,,null,,,,,,,,,,,,,,,,,,
19465.299999952316,,familiar_rating,779482,Oakridge,,51,Oakridge,Fictional,3,,,,,,,,,,,,,,,
null,,confidence_buffer,779587,confidence_buffer,,null,,,,,,,,,,,,,,,,,,
2336.5,,unique_rating,781928,Oakridge,,51,,,3,,,,,,,,,,,,,,,
null,,confidence_buffer,782034,confidence_buffer,,null,,,,,,,,,,,,,,,,,,
3141,,memorable_rating,785179,Oakridge,,52,,,4,,,,,,,,,,,,,,,
null,,confidence_buffer,785294,confidence_buffer,,null,,,,,,,,,,,,,,,,,,
3131.399999856949,,probe_rating,788431,probe_rating,,52,,,,4,1,,,,,,,,,,,,,
null,,confidence_buffer,788538,confidence_buffer,,null,,,,,,,,,,,,,,,,,,
null,,thebreak,789042,break,,null,,,,,,,,,,,,,,,,,,
16521.099999904633,,familiar_rating,805568,San Antonio,,52,San Antonio,US,4,,,,,,,,,,,,,,,
null,,confidence_buffer,805675,confidence_buffer,,null,,,,,,,,,,,,,,,,,,
2228.2999999523163,,unique_rating,807907,San Antonio,,52,,,4,,,,,,,,,,,,,,,
null,,confidence_buffer,808009,confidence_buffer,,null,,,,,,,,,,,,,,,,,,
3716.2000000476837,,memorable_rating,811727,San Antonio,,52,,,4,,,,,,,,,,,,,,,
null,,confidence_buffer,811830,confidence_buffer,,null,,,,,,,,,,,,,,,,,,
3165.7000000476837,,probe_rating,814999,probe_rating,,50,,,,2,1,,,,,,,,,,,,,
null,,confidence_buffer,815104,confidence_buffer,,null,,,,,,,,,,,,,,,,,,
null,,thebreak,815607,break,,null,,,,,,,,,,,,,,,,,,
24263.599999904633,,familiar_rating,839875,Sunmere,,50,Sunmere,Fictional,2,,,,,,,,,,,,,,,
null,,confidence_buffer,839981,confidence_buffer,,null,,,,,,,,,,,,,,,,,,
2151.4000000953674,,unique_rating,842137,Sunmere,,50,,,2,,,,,,,,,,,,,,,
null,,confidence_buffer,842242,confidence_buffer,,null,,,,,,,,,,,,,,,,,,
2064.5,,memorable_rating,844312,Sunmere,,50,,,2,,,,,,,,,,,,,,,
null,,confidence_buffer,844418,confidence_buffer,,null,,,,,,,,,,,,,,,,,,
2895.399999856949,,probe_rating,847318,probe_rating,,52,,,,4,1,,,,,,,,,,,,,
null,,confidence_buffer,847424,confidence_buffer,,null,,,,,,,,,,,,,,,,,,
null,,thebreak,847928,break,,null,,,,,,,,,,,,,,,,,,
19118.400000095367,,familiar_rating,867051,West Palm Beach,,52,West Palm Beach,US,4,,,,,,,,,,,,,,,
null,,confidence_buffer,867158,confidence_buffer,,null,,,,,,,,,,,,,,,,,,
2464.5999999046326,,unique_rating,869627,West Palm Beach,,51,,,3,,,,,,,,,,,,,,,
null,,confidence_buffer,869733,confidence_buffer,,null,,,,,,,,,,,,,,,,,,
4014.100000143051,,memorable_rating,873751,West Palm Beach,,52,,,4,,,,,,,,,,,,,,,
null,,confidence_buffer,873857,confidence_buffer,,null,,,,,,,,,,,,,,,,,,
null,,thebreak,874361,break,,null,,,,,,,,,,,,,,,,,,
7290.5,,intro_0,881655,instruct,,32,,,,,,,,,,,,,,,,,,
12047.700000047684,,intro_1,893707,instruct,,32,,,,,,,,,,,,,,,,,,
28223.5,,intro_2,921934,instruct,,32,,,,,,,,,,,,,,,,,,
null,,instruct_dir_4,923441,instruct,,null,,,,,,,,,,,,,,,,,,
49333.10000014305,,realistic_rating,972780,Maplehurst,,52,Maplehurst,Fictional,4,,,,,,,,,,,,,,,
null,,confidence_buffer,972887,confidence_buffer,,null,,,,,,,,,,,,,,,,,,
5040,,pt2_unique_rating,977932,Maplehurst,,51,,,3,,,,,,,,,,,,,,,
null,,confidence_buffer,978037,confidence_buffer,,null,,,,,,,,,,,,,,,,,,
4367.399999856949,,pt2_memorable_rating,982409,Maplehurst,,51,,,3,,,,,,,,,,,,,,,
null,,confidence_buffer,982515,confidence_buffer,,null,,,,,,,,,,,,,,,,,,
8915.5,,recognition_phase,991436,Maplehurst,,52,,,,,,new,1,1,,,,,,,,,,
null,,confidence_buffer,991543,confidence_buffer,,null,,,,,,,,,,,,,,,,,,
null,,thebreak,992047,break,,null,,,,,,,,,,,,,,,,,,
38489.89999985695,,realistic_rating,1030542,Bayshore Haven,,49,Bayshore Haven,Fictional,1,,,,,,,,,,,,,,,
null,,confidence_buffer,1030649,confidence_buffer,,null,,,,,,,,,,,,,,,,,,
2056.5,,pt2_unique_rating,1032711,Bayshore Haven,,50,,,2,,,,,,,,,,,,,,,
null,,confidence_buffer,1032816,confidence_buffer,,null,,,,,,,,,,,,,,,,,,
2235.0999999046326,,pt2_memorable_rating,1035056,Bayshore Haven,,50,,,2,,,,,,,,,,,,,,,
null,,confidence_buffer,1035162,confidence_buffer,,null,,,,,,,,,,,,,,,,,,
3404.4000000953674,,recognition_phase,1038572,Bayshore Haven,,52,,,,,,new,1,1,,,,,,,,,,
null,,confidence_buffer,1038677,confidence_buffer,,null,,,,,,,,,,,,,,,,,,
null,,thebreak,1039181,break,,null,,,,,,,,,,,,,,,,,,
5115.100000143051,,realistic_rating,1044302,Boulder,,49,Boulder,US,1,,,,,,,,,,,,,,,
null,,confidence_buffer,1044408,confidence_buffer,,null,,,,,,,,,,,,,,,,,,
2024.7000000476837,,pt2_unique_rating,1046437,Boulder,,49,,,1,,,,,,,,,,,,,,,
null,,confidence_buffer,1046543,confidence_buffer,,null,,,,,,,,,,,,,,,,,,
1933.0999999046326,,pt2_memorable_rating,1048481,Boulder,,49,,,1,,,,,,,,,,,,,,,
null,,confidence_buffer,1048587,confidence_buffer,,null,,,,,,,,,,,,,,,,,,
3048.5999999046326,,recognition_phase,1051641,Boulder,,52,,,,,,new,1,1,,,,,,,,,,
null,,confidence_buffer,1051760,confidence_buffer,,null,,,,,,,,,,,,,,,,,,
null,,thebreak,1052265,break,,null,,,,,,,,,,,,,,,,,,
6812.299999952316,,realistic_rating,1059083,New Verdan,,52,New Verdan,Fictional,4,,,,,,,,,,,,,,,
null,,confidence_buffer,1059189,confidence_buffer,,null,,,,,,,,,,,,,,,,,,
2613.399999856949,,probe_rating,1061806,probe_rating,,50,,,,2,1,,,,,,,,,,,,,
null,,confidence_buffer,1061913,confidence_buffer,,null,,,,,,,,,,,,,,,,,,
2334.899999856949,,pt2_unique_rating,1064253,New Verdan,,51,,,3,,,,,,,,,,,,,,,
null,,confidence_buffer,1064359,confidence_buffer,,null,,,,,,,,,,,,,,,,,,
6372.800000190735,,pt2_memorable_rating,1070737,New Verdan,,52,,,4,,,,,,,,,,,,,,,
null,,confidence_buffer,1070842,confidence_buffer,,null,,,,,,,,,,,,,,,,,,
3747.5,,recognition_phase,1074595,New Verdan,,52,,,,,,new,0,0.75,,,,,,,,,,
null,,confidence_buffer,1074701,confidence_buffer,,null,,,,,,,,,,,,,,,,,,
null,,thebreak,1075205,break,,null,,,,,,,,,,,,,,,,,,
86337.79999995232,,realistic_rating,1161548,Cleveland,,52,Cleveland,US,4,,,,,,,,,,,,,,,
null,,confidence_buffer,1161654,confidence_buffer,,null,,,,,,,,,,,,,,,,,,
2024.2000000476837,,pt2_unique_rating,1163683,Cleveland,,52,,,4,,,,,,,,,,,,,,,
null,,confidence_buffer,1163789,confidence_buffer,,null,,,,,,,,,,,,,,,,,,
2313.699999809265,,pt2_memorable_rating,1166107,Cleveland,,51,,,3,,,,,,,,,,,,,,,
null,,confidence_buffer,1166214,confidence_buffer,,null,,,,,,,,,,,,,,,,,,
6122.200000047684,,recognition_phase,1172341,Cleveland,,52,,,,,,new,1,0.8,,,,,,,,,,
null,,confidence_buffer,1172446,confidence_buffer,,null,,,,,,,,,,,,,,,,,,
null,,thebreak,1172967,break,,null,,,,,,,,,,,,,,,,,,
6279.700000047684,,realistic_rating,1179251,Barnard,,49,Barnard,US,1,,,,,,,,,,,,,,,
null,,confidence_buffer,1179359,confidence_buffer,,null,,,,,,,,,,,,,,,,,,
2247,,pt2_unique_rating,1181610,Barnard,,50,,,2,,,,,,,,,,,,,,,
null,,confidence_buffer,1181716,confidence_buffer,,null,,,,,,,,,,,,,,,,,,
2069.7000000476837,,pt2_memorable_rating,1183790,Barnard,,49,,,1,,,,,,,,,,,,,,,
null,,confidence_buffer,1183894,confidence_buffer,,null,,,,,,,,,,,,,,,,,,
2575.2999999523163,,probe_rating,1186474,probe_rating,,49,,,,1,1,,,,,,,,,,,,,
null,,confidence_buffer,1186581,confidence_buffer,,null,,,,,,,,,,,,,,,,,,
2982.7000000476837,,recognition_phase,1189570,Barnard,,52,,,,,,new,1,0.8333333333333334,,,,,,,,,,
null,,confidence_buffer,1189676,confidence_buffer,,null,,,,,,,,,,,,,,,,,,
null,,thebreak,1190182,break,,null,,,,,,,,,,,,,,,,,,
6384.299999952316,,realistic_rating,1196571,Oakridge,,52,Oakridge,Fictional,4,,,,,,,,,,,,,,,
null,,confidence_buffer,1196677,confidence_buffer,,null,,,,,,,,,,,,,,,,,,
2860.4000000953674,,pt2_unique_rating,1199543,Oakridge,,51,,,3,,,,,,,,,,,,,,,
null,,confidence_buffer,1199648,confidence_buffer,,null,,,,,,,,,,,,,,,,,,
2650.9000000953674,,pt2_memorable_rating,1202304,Oakridge,,51,,,3,,,,,,,,,,,,,,,
null,,confidence_buffer,1202409,confidence_buffer,,null,,,,,,,,,,,,,,,,,,
2242.2999999523163,,recognition_phase,1204657,Oakridge,,49,,,,,,old,1,0.8571428571428571,,,,,,,,,,
null,,confidence_buffer,1204762,confidence_buffer,,null,,,,,,,,,,,,,,,,,,
null,,thebreak,1205266,break,,null,,,,,,,,,,,,,,,,,,
17573.699999809265,,realistic_rating,1222846,Montelake,,51,Montelake,Fictional,3,,,,,,,,,,,,,,,
null,,confidence_buffer,1222960,confidence_buffer,,null,,,,,,,,,,,,,,,,,,
4973.900000095367,,pt2_unique_rating,1227939,Montelake,,49,,,1,,,,,,,,,,,,,,,
null,,confidence_buffer,1228045,confidence_buffer,,null,,,,,,,,,,,,,,,,,,
8540.700000047684,,pt2_memorable_rating,1236592,Montelake,,50,,,2,,,,,,,,,,,,,,,
null,,confidence_buffer,1236698,confidence_buffer,,null,,,,,,,,,,,,,,,,,,
3207.2000000476837,,recognition_phase,1239910,Montelake,,49,,,,,,old,1,0.875,,,,,,,,,,
null,,confidence_buffer,1240033,confidence_buffer,,null,,,,,,,,,,,,,,,,,,
null,,thebreak,1240538,break,,null,,,,,,,,,,,,,,,,,,
26751.200000047684,,realistic_rating,1267294,Bar Harbor,,51,Bar Harbor,US,3,,,,,,,,,,,,,,,
null,,confidence_buffer,1267401,confidence_buffer,,null,,,,,,,,,,,,,,,,,,
1554.7999999523163,,pt2_unique_rating,1268961,Bar Harbor,,51,,,3,,,,,,,,,,,,,,,
null,,confidence_buffer,1269066,confidence_buffer,,null,,,,,,,,,,,,,,,,,,
1990.2999999523163,,pt2_memorable_rating,1271062,Bar Harbor,,50,,,2,,,,,,,,,,,,,,,
null,,confidence_buffer,1271168,confidence_buffer,,null,,,,,,,,,,,,,,,,,,
5271.900000095367,,recognition_phase,1276446,Bar Harbor,,51,,,,,,new,1,0.8888888888888888,,,,,,,,,,
null,,confidence_buffer,1276551,confidence_buffer,,null,,,,,,,,,,,,,,,,,,
null,,thebreak,1277056,break,,null,,,,,,,,,,,,,,,,,,
6741.800000190735,,realistic_rating,1283804,North Arroya,,52,North Arroya,Fictional,4,,,,,,,,,,,,,,,
null,,confidence_buffer,1283913,confidence_buffer,,null,,,,,,,,,,,,,,,,,,
3126.2000000476837,,pt2_unique_rating,1287044,North Arroya,,51,,,3,,,,,,,,,,,,,,,
null,,confidence_buffer,1287150,confidence_buffer,,null,,,,,,,,,,,,,,,,,,
3057.100000143051,,probe_rating,1290212,probe_rating,,49,,,,1,1,,,,,,,,,,,,,
null,,confidence_buffer,1290319,confidence_buffer,,null,,,,,,,,,,,,,,,,,,
2854.899999856949,,pt2_memorable_rating,1293178,North Arroya,,51,,,3,,,,,,,,,,,,,,,
null,,confidence_buffer,1293282,confidence_buffer,,null,,,,,,,,,,,,,,,,,,
4607.799999952316,,recognition_phase,1297893,North Arroya,,49,,,,,,old,1,0.9,,,,,,,,,,
null,,confidence_buffer,1297999,confidence_buffer,,null,,,,,,,,,,,,,,,,,,
null,,thebreak,1298503,break,,null,,,,,,,,,,,,,,,,,,
22137.799999952316,,realistic_rating,1320645,Stonebrook,,49,Stonebrook,Fictional,1,,,,,,,,,,,,,,,
null,,confidence_buffer,1320765,confidence_buffer,,null,,,,,,,,,,,,,,,,,,
3109.7000000476837,,pt2_unique_rating,1323877,Stonebrook,,50,,,2,,,,,,,,,,,,,,,
null,,confidence_buffer,1323981,confidence_buffer,,null,,,,,,,,,,,,,,,,,,
2315.800000190735,,pt2_memorable_rating,1326301,Stonebrook,,50,,,2,,,,,,,,,,,,,,,
null,,confidence_buffer,1326406,confidence_buffer,,null,,,,,,,,,,,,,,,,,,
5466.299999952316,,recognition_phase,1331878,Stonebrook,,49,,,,,,old,1,0.9090909090909091,,,,,,,,,,
null,,confidence_buffer,1331984,confidence_buffer,,null,,,,,,,,,,,,,,,,,,
null,,thebreak,1332487,break,,null,,,,,,,,,,,,,,,,,,
33568.40000009537,,realistic_rating,1366061,Delaro Park,,50,Delaro Park,Fictional,2,,,,,,,,,,,,,,,
null,,confidence_buffer,1366170,confidence_buffer,,null,,,,,,,,,,,,,,,,,,
1613.4000000953674,,pt2_unique_rating,1367788,Delaro Park,,50,,,2,,,,,,,,,,,,,,,
null,,confidence_buffer,1367894,confidence_buffer,,null,,,,,,,,,,,,,,,,,,
2059.7000000476837,,pt2_memorable_rating,1369960,Delaro Park,,50,,,2,,,,,,,,,,,,,,,
null,,confidence_buffer,1370066,confidence_buffer,,null,,,,,,,,,,,,,,,,,,
6065.299999952316,,recognition_phase,1376137,Delaro Park,,52,,,,,,new,1,0.9166666666666666,,,,,,,,,,
null,,confidence_buffer,1376242,confidence_buffer,,null,,,,,,,,,,,,,,,,,,
null,,thebreak,1376757,break,,null,,,,,,,,,,,,,,,,,,
2939.7999999523163,,realistic_rating,1379701,San Antonio,,52,San Antonio,US,4,,,,,,,,,,,,,,,
null,,confidence_buffer,1379809,confidence_buffer,,null,,,,,,,,,,,,,,,,,,
2156.5,,pt2_unique_rating,1381970,San Antonio,,52,,,4,,,,,,,,,,,,,,,
null,,confidence_buffer,1382077,confidence_buffer,,null,,,,,,,,,,,,,,,,,,
2539.4000000953674,,probe_rating,1384622,probe_rating,,49,,,,1,1,,,,,,,,,,,,,
null,,confidence_buffer,1384729,confidence_buffer,,null,,,,,,,,,,,,,,,,,,
3503.5999999046326,,pt2_memorable_rating,1388238,San Antonio,,52,,,4,,,,,,,,,,,,,,,
null,,confidence_buffer,1388343,confidence_buffer,,null,,,,,,,,,,,,,,,,,,
3202.600000143051,,recognition_phase,1391551,San Antonio,,49,,,,,,old,1,0.9230769230769231,,,,,,,,,,
null,,confidence_buffer,1391659,confidence_buffer,,null,,,,,,,,,,,,,,,,,,
null,,thebreak,1392164,break,,null,,,,,,,,,,,,,,,,,,
20200.700000047684,,realistic_rating,1412371,New Hope,,51,New Hope,US,3,,,,,,,,,,,,,,,
null,,confidence_buffer,1412489,confidence_buffer,,null,,,,,,,,,,,,,,,,,,
2211.2000000476837,,pt2_unique_rating,1414707,New Hope,,51,,,3,,,,,,,,,,,,,,,
null,,confidence_buffer,1414813,confidence_buffer,,null,,,,,,,,,,,,,,,,,,
1748.0999999046326,,pt2_memorable_rating,1416565,New Hope,,50,,,2,,,,,,,,,,,,,,,
null,,confidence_buffer,1416669,confidence_buffer,,null,,,,,,,,,,,,,,,,,,
3193.5,,recognition_phase,1419867,New Hope,,52,,,,,,new,1,0.9285714285714286,,,,,,,,,,
null,,confidence_buffer,1419974,confidence_buffer,,null,,,,,,,,,,,,,,,,,,
null,,thebreak,1420481,break,,null,,,,,,,,,,,,,,,,,,
5105.100000143051,,realistic_rating,1425591,Livingston,,50,Livingston,US,2,,,,,,,,,,,,,,,
null,,confidence_buffer,1425698,confidence_buffer,,null,,,,,,,,,,,,,,,,,,
1707.6999998092651,,pt2_unique_rating,1427411,Livingston,,50,,,2,,,,,,,,,,,,,,,
null,,confidence_buffer,1427518,confidence_buffer,,null,,,,,,,,,,,,,,,,,,
2314.399999856949,,pt2_memorable_rating,1429837,Livingston,,51,,,3,,,,,,,,,,,,,,,
null,,confidence_buffer,1429939,confidence_buffer,,null,,,,,,,,,,,,,,,,,,
3051.5999999046326,,recognition_phase,1432994,Livingston,,49,,,,,,old,1,0.9333333333333333,,,,,,,,,,
null,,confidence_buffer,1433102,confidence_buffer,,null,,,,,,,,,,,,,,,,,,
null,,thebreak,1433606,break,,null,,,,,,,,,,,,,,,,,,
33638.59999990463,,realistic_rating,1467251,Manistee,,51,Manistee,US,3,,,,,,,,,,,,,,,
null,,confidence_buffer,1467367,confidence_buffer,,null,,,,,,,,,,,,,,,,,,
2108.5,,pt2_unique_rating,1469481,Manistee,,50,,,2,,,,,,,,,,,,,,,
null,,confidence_buffer,1469587,confidence_buffer,,null,,,,,,,,,,,,,,,,,,
359,,pt2_memorable_rating,1469952,Manistee,,50,,,2,,,,,,,,,,,,,,,
null,,confidence_buffer,1470058,confidence_buffer,,null,,,,,,,,,,,,,,,,,,
5131.200000047684,,recognition_phase,1475195,Manistee,,52,,,,,,new,1,0.9375,,,,,,,,,,
null,,confidence_buffer,1475302,confidence_buffer,,null,,,,,,,,,,,,,,,,,,
null,,thebreak,1475808,break,,null,,,,,,,,,,,,,,,,,,
4836.799999952316,,realistic_rating,1480651,Brookmere,,50,Brookmere,Fictional,2,,,,,,,,,,,,,,,
null,,confidence_buffer,1480757,confidence_buffer,,null,,,,,,,,,,,,,,,,,,
1283.4000000953674,,pt2_unique_rating,1482046,Brookmere,,50,,,2,,,,,,,,,,,,,,,
null,,confidence_buffer,1482153,confidence_buffer,,null,,,,,,,,,,,,,,,,,,
691.7000000476837,,pt2_memorable_rating,1482851,Brookmere,,51,,,3,,,,,,,,,,,,,,,
null,,confidence_buffer,1482957,confidence_buffer,,null,,,,,,,,,,,,,,,,,,
2888.600000143051,,recognition_phase,1485851,Brookmere,,49,,,,,,old,0,0.8823529411764706,,,,,,,,,,
null,,confidence_buffer,1485957,confidence_buffer,,null,,,,,,,,,,,,,,,,,,
null,,thebreak,1486463,break,,null,,,,,,,,,,,,,,,,,,
23112.299999952316,,realistic_rating,1509579,Yukon,,50,Yukon,US,2,,,,,,,,,,,,,,,
null,,confidence_buffer,1509682,confidence_buffer,,null,,,,,,,,,,,,,,,,,,
1117.7999999523163,,pt2_unique_rating,1510803,Yukon,,50,,,2,,,,,,,,,,,,,,,
null,,confidence_buffer,1510906,confidence_buffer,,null,,,,,,,,,,,,,,,,,,
1797.1000001430511,,pt2_memorable_rating,1512705,Yukon,,50,,,2,,,,,,,,,,,,,,,
null,,confidence_buffer,1512808,confidence_buffer,,null,,,,,,,,,,,,,,,,,,
3619.4000000953674,,recognition_phase,1516430,Yukon,,52,,,,,,new,1,0.8888888888888888,,,,,,,,,,
null,,confidence_buffer,1516538,confidence_buffer,,null,,,,,,,,,,,,,,,,,,
null,,thebreak,1517044,break,,null,,,,,,,,,,,,,,,,,,
5320.400000095367,,realistic_rating,1522368,Shreveport,,49,Shreveport,US,1,,,,,,,,,,,,,,,
null,,confidence_buffer,1522475,confidence_buffer,,null,,,,,,,,,,,,,,,,,,
3449.4000000953674,,pt2_unique_rating,1525930,Shreveport,,49,,,1,,,,,,,,,,,,,,,
null,,confidence_buffer,1526038,confidence_buffer,,null,,,,,,,,,,,,,,,,,,
2223,,pt2_memorable_rating,1528266,Shreveport,,49,,,1,,,,,,,,,,,,,,,
null,,confidence_buffer,1528373,confidence_buffer,,null,,,,,,,,,,,,,,,,,,
2647,,recognition_phase,1531026,Shreveport,,52,,,,,,new,0,0.8421052631578947,,,,,,,,,,
null,,confidence_buffer,1531132,confidence_buffer,,null,,,,,,,,,,,,,,,,,,
null,,thebreak,1531637,break,,null,,,,,,,,,,,,,,,,,,
9752,,realistic_rating,1541395,Briarfield,,49,Briarfield,Fictional,1,,,,,,,,,,,,,,,
null,,confidence_buffer,1541502,confidence_buffer,,null,,,,,,,,,,,,,,,,,,
3063.2999999523163,,pt2_unique_rating,1544571,Briarfield,,50,,,2,,,,,,,,,,,,,,,
null,,confidence_buffer,1544675,confidence_buffer,,null,,,,,,,,,,,,,,,,,,
470.5,,pt2_memorable_rating,1545150,Briarfield,,49,,,1,,,,,,,,,,,,,,,
null,,confidence_buffer,1545255,confidence_buffer,,null,,,,,,,,,,,,,,,,,,
3432.399999856949,,recognition_phase,1548693,Briarfield,,52,,,,,,new,1,0.85,,,,,,,,,,
null,,confidence_buffer,1548799,confidence_buffer,,null,,,,,,,,,,,,,,,,,,
null,,thebreak,1549305,break,,null,,,,,,,,,,,,,,,,,,
18070.400000095367,,realistic_rating,1567381,Golden Trace,,49,Golden Trace,Fictional,1,,,,,,,,,,,,,,,
null,,confidence_buffer,1567488,confidence_buffer,,null,,,,,,,,,,,,,,,,,,
1747.3999998569489,,pt2_unique_rating,1569240,Golden Trace,,49,,,1,,,,,,,,,,,,,,,
null,,confidence_buffer,1569347,confidence_buffer,,null,,,,,,,,,,,,,,,,,,
1417.2999999523163,,pt2_memorable_rating,1570769,Golden Trace,,49,,,1,,,,,,,,,,,,,,,
null,,confidence_buffer,1570876,confidence_buffer,,null,,,,,,,,,,,,,,,,,,
3429.9000000953674,,recognition_phase,1574310,Golden Trace,,52,,,,,,new,1,0.8571428571428571,,,,,,,,,,
null,,confidence_buffer,1574417,confidence_buffer,,null,,,,,,,,,,,,,,,,,,
null,,thebreak,1574922,break,,null,,,,,,,,,,,,,,,,,,
6601.899999856949,,realistic_rating,1581529,Gloucester,,49,Gloucester,US,1,,,,,,,,,,,,,,,
null,,confidence_buffer,1581635,confidence_buffer,,null,,,,,,,,,,,,,,,,,,
4285.299999952316,,pt2_unique_rating,1585925,Gloucester,,50,,,2,,,,,,,,,,,,,,,
null,,confidence_buffer,1586040,confidence_buffer,,null,,,,,,,,,,,,,,,,,,
2840.2000000476837,,pt2_memorable_rating,1588885,Gloucester,,50,,,2,,,,,,,,,,,,,,,
null,,confidence_buffer,1588992,confidence_buffer,,null,,,,,,,,,,,,,,,,,,
2777.600000143051,,recognition_phase,1591776,Gloucester,,52,,,,,,new,0,0.8181818181818182,,,,,,,,,,
null,,confidence_buffer,1591883,confidence_buffer,,null,,,,,,,,,,,,,,,,,,
null,,thebreak,1592388,break,,null,,,,,,,,,,,,,,,,,,
7036.099999904633,,realistic_rating,1599430,Northbridge,,52,Northbridge,Fictional,4,,,,,,,,,,,,,,,
null,,confidence_buffer,1599537,confidence_buffer,,null,,,,,,,,,,,,,,,,,,
2723.7000000476837,,pt2_unique_rating,1602266,Northbridge,,51,,,3,,,,,,,,,,,,,,,
null,,confidence_buffer,1602373,confidence_buffer,,null,,,,,,,,,,,,,,,,,,
2181.5,,pt2_memorable_rating,1604560,Northbridge,,51,,,3,,,,,,,,,,,,,,,
null,,confidence_buffer,1604667,confidence_buffer,,null,,,,,,,,,,,,,,,,,,
2858.4000000953674,,recognition_phase,1607531,Northbridge,,49,,,,,,old,0,0.782608695652174,,,,,,,,,,
null,,confidence_buffer,1607637,confidence_buffer,,null,,,,,,,,,,,,,,,,,,
null,,thebreak,1608142,break,,null,,,,,,,,,,,,,,,,,,
5255.299999952316,,realistic_rating,1613404,Meadowspire,,49,Meadowspire,Fictional,1,,,,,,,,,,,,,,,
null,,confidence_buffer,1613525,confidence_buffer,,null,,,,,,,,,,,,,,,,,,
4592.799999952316,,pt2_unique_rating,1618124,Meadowspire,,50,,,2,,,,,,,,,,,,,,,
null,,confidence_buffer,1618231,confidence_buffer,,null,,,,,,,,,,,,,,,,,,
2844.7000000476837,,probe_rating,1621081,probe_rating,,52,,,,4,1,,,,,,,,,,,,,
null,,confidence_buffer,1621188,confidence_buffer,,null,,,,,,,,,,,,,,,,,,
3147.7000000476837,,pt2_memorable_rating,1624341,Meadowspire,,50,,,2,,,,,,,,,,,,,,,
null,,confidence_buffer,1624449,confidence_buffer,,null,,,,,,,,,,,,,,,,,,
6222,,recognition_phase,1630677,Meadowspire,,51,,,,,,new,1,0.7916666666666666,,,,,,,,,,
null,,confidence_buffer,1630786,confidence_buffer,,null,,,,,,,,,,,,,,,,,,
null,,thebreak,1631305,break,,null,,,,,,,,,,,,,,,,,,
6020.799999952316,,realistic_rating,1637329,Elmsbury,,50,Elmsbury,Fictional,2,,,,,,,,,,,,,,,
null,,confidence_buffer,1637436,confidence_buffer,,null,,,,,,,,,,,,,,,,,,
2018.8999998569489,,pt2_unique_rating,1639460,Elmsbury,,51,,,3,,,,,,,,,,,,,,,
null,,confidence_buffer,1639567,confidence_buffer,,null,,,,,,,,,,,,,,,,,,
2230.5,,probe_rating,1641803,probe_rating,,52,,,,4,1,,,,,,,,,,,,,
null,,confidence_buffer,1641911,confidence_buffer,,null,,,,,,,,,,,,,,,,,,
3123.5,,pt2_memorable_rating,1645041,Elmsbury,,50,,,2,,,,,,,,,,,,,,,
null,,confidence_buffer,1645150,confidence_buffer,,null,,,,,,,,,,,,,,,,,,
3577.5,,recognition_phase,1648734,Elmsbury,,52,,,,,,new,0,0.76,,,,,,,,,,
null,,confidence_buffer,1648841,confidence_buffer,,null,,,,,,,,,,,,,,,,,,
null,,thebreak,1649346,break,,null,,,,,,,,,,,,,,,,,,
2548.2000000476837,,realistic_rating,1651901,Duck,,49,Duck,US,1,,,,,,,,,,,,,,,
null,,confidence_buffer,1652008,confidence_buffer,,null,,,,,,,,,,,,,,,,,,
2067,,pt2_unique_rating,1654081,Duck,,49,,,1,,,,,,,,,,,,,,,
null,,confidence_buffer,1654187,confidence_buffer,,null,,,,,,,,,,,,,,,,,,
887.2999999523163,,pt2_memorable_rating,1655080,Duck,,49,,,1,,,,,,,,,,,,,,,
null,,confidence_buffer,1655186,confidence_buffer,,null,,,,,,,,,,,,,,,,,,
4530.300000190735,,recognition_phase,1659722,Duck,,49,,,,,,old,1,0.7692307692307693,,,,,,,,,,
null,,confidence_buffer,1659830,confidence_buffer,,null,,,,,,,,,,,,,,,,,,
null,,thebreak,1660336,break,,null,,,,,,,,,,,,,,,,,,
5248.600000143051,,realistic_rating,1665590,Sunmere,,49,Sunmere,Fictional,1,,,,,,,,,,,,,,,
null,,confidence_buffer,1665697,confidence_buffer,,null,,,,,,,,,,,,,,,,,,
3725.2999999523163,,pt2_unique_rating,1669429,Sunmere,,51,,,3,,,,,,,,,,,,,,,
null,,confidence_buffer,1669536,confidence_buffer,,null,,,,,,,,,,,,,,,,,,
4325.400000095367,,pt2_memorable_rating,1673867,Sunmere,,50,,,2,,,,,,,,,,,,,,,
null,,confidence_buffer,1673975,confidence_buffer,,null,,,,,,,,,,,,,,,,,,
2202.2000000476837,,recognition_phase,1676183,Sunmere,,49,,,,,,old,1,0.7777777777777778,,,,,,,,,,
null,,confidence_buffer,1676290,confidence_buffer,,null,,,,,,,,,,,,,,,,,,
null,,thebreak,1676796,break,,null,,,,,,,,,,,,,,,,,,
20463.099999904633,,realistic_rating,1697265,Silverpine,,51,Silverpine,Fictional,3,,,,,,,,,,,,,,,
null,,confidence_buffer,1697374,confidence_buffer,,null,,,,,,,,,,,,,,,,,,
4085.5,,pt2_unique_rating,1701465,Silverpine,,51,,,3,,,,,,,,,,,,,,,
null,,confidence_buffer,1701572,confidence_buffer,,null,,,,,,,,,,,,,,,,,,
1361.8999998569489,,pt2_memorable_rating,1702940,Silverpine,,50,,,2,,,,,,,,,,,,,,,
null,,confidence_buffer,1703048,confidence_buffer,,null,,,,,,,,,,,,,,,,,,
3035.5,,recognition_phase,1706090,Silverpine,,52,,,,,,new,1,0.7857142857142857,,,,,,,,,,
null,,confidence_buffer,1706197,confidence_buffer,,null,,,,,,,,,,,,,,,,,,
null,,thebreak,1706702,break,,null,,,,,,,,,,,,,,,,,,
24019.799999952316,,realistic_rating,1730728,Park City,,51,Park City,US,3,,,,,,,,,,,,,,,
null,,confidence_buffer,1730844,confidence_buffer,,null,,,,,,,,,,,,,,,,,,
2720.7000000476837,,pt2_unique_rating,1733571,Park City,,50,,,2,,,,,,,,,,,,,,,
null,,confidence_buffer,1733678,confidence_buffer,,null,,,,,,,,,,,,,,,,,,
2522.7999999523163,,probe_rating,1736207,probe_rating,,51,,,,3,1,,,,,,,,,,,,,
null,,confidence_buffer,1736316,confidence_buffer,,null,,,,,,,,,,,,,,,,,,
2530.5999999046326,,pt2_memorable_rating,1738853,Park City,,50,,,2,,,,,,,,,,,,,,,
null,,confidence_buffer,1738961,confidence_buffer,,null,,,,,,,,,,,,,,,,,,
5485,,recognition_phase,1744452,Park City,,49,,,,,,old,0,0.7586206896551724,,,,,,,,,,
null,,confidence_buffer,1744559,confidence_buffer,,null,,,,,,,,,,,,,,,,,,
null,,thebreak,1745064,break,,null,,,,,,,,,,,,,,,,,,
5903.699999809265,,realistic_rating,1750973,Juniper Creek,,49,Juniper Creek,Fictional,1,,,,,,,,,,,,,,,
null,,confidence_buffer,1751081,confidence_buffer,,null,,,,,,,,,,,,,,,,,,
2100.199999809265,,pt2_unique_rating,1753187,Juniper Creek,,50,,,2,,,,,,,,,,,,,,,
null,,confidence_buffer,1753296,confidence_buffer,,null,,,,,,,,,,,,,,,,,,
1966.2999999523163,,pt2_memorable_rating,1755268,Juniper Creek,,50,,,2,,,,,,,,,,,,,,,
null,,confidence_buffer,1755375,confidence_buffer,,null,,,,,,,,,,,,,,,,,,
2605.7999999523163,,recognition_phase,1757988,Juniper Creek,,52,,,,,,new,1,0.7666666666666667,,,,,,,,,,
null,,confidence_buffer,1758095,confidence_buffer,,null,,,,,,,,,,,,,,,,,,
null,,thebreak,1758601,break,,null,,,,,,,,,,,,,,,,,,
32045,,realistic_rating,1790653,Assateague Island,,50,Assateague Island,US,2,,,,,,,,,,,,,,,
null,,confidence_buffer,1790758,confidence_buffer,,null,,,,,,,,,,,,,,,,,,
2403.399999856949,,pt2_unique_rating,1793167,Assateague Island,,50,,,2,,,,,,,,,,,,,,,
null,,confidence_buffer,1793274,confidence_buffer,,null,,,,,,,,,,,,,,,,,,
3869.899999856949,,pt2_memorable_rating,1797150,Assateague Island,,49,,,1,,,,,,,,,,,,,,,
null,,confidence_buffer,1797257,confidence_buffer,,null,,,,,,,,,,,,,,,,,,
3147.100000143051,,recognition_phase,1800410,Assateague Island,,52,,,,,,new,1,0.7741935483870968,,,,,,,,,,
null,,confidence_buffer,1800519,confidence_buffer,,null,,,,,,,,,,,,,,,,,,
null,,thebreak,1801023,break,,null,,,,,,,,,,,,,,,,,,
7512.599999904633,,realistic_rating,1808542,Fairhaven,,50,Fairhaven,Fictional,2,,,,,,,,,,,,,,,
null,,confidence_buffer,1808650,confidence_buffer,,null,,,,,,,,,,,,,,,,,,
1265.8999998569489,,pt2_unique_rating,1809921,Fairhaven,,50,,,2,,,,,,,,,,,,,,,
null,,confidence_buffer,1810028,confidence_buffer,,null,,,,,,,,,,,,,,,,,,
6.799999952316284,,pt2_memorable_rating,1810040,Fairhaven,,50,,,2,,,,,,,,,,,,,,,
null,,confidence_buffer,1810147,confidence_buffer,,null,,,,,,,,,,,,,,,,,,
7404.700000047684,,recognition_phase,1817558,Fairhaven,,49,,,,,,old,0,0.75,,,,,,,,,,
null,,confidence_buffer,1817664,confidence_buffer,,null,,,,,,,,,,,,,,,,,,
null,,thebreak,1818169,break,,null,,,,,,,,,,,,,,,,,,
23612.599999904633,,realistic_rating,1841788,Clearbrook,,51,Clearbrook,Fictional,3,,,,,,,,,,,,,,,
null,,confidence_buffer,1841896,confidence_buffer,,null,,,,,,,,,,,,,,,,,,
1469,,pt2_unique_rating,1843372,Clearbrook,,51,,,3,,,,,,,,,,,,,,,
null,,confidence_buffer,1843479,confidence_buffer,,null,,,,,,,,,,,,,,,,,,
1206.1999998092651,,pt2_memorable_rating,1844691,Clearbrook,,50,,,2,,,,,,,,,,,,,,,
null,,confidence_buffer,1844798,confidence_buffer,,null,,,,,,,,,,,,,,,,,,
3346.0999999046326,,recognition_phase,1848151,Clearbrook,,49,,,,,,old,1,0.7575757575757576,,,,,,,,,,
null,,confidence_buffer,1848259,confidence_buffer,,null,,,,,,,,,,,,,,,,,,
null,,thebreak,1848765,break,,null,,,,,,,,,,,,,,,,,,
4552.700000047684,,realistic_rating,1853324,Claywater,,50,Claywater,Fictional,2,,,,,,,,,,,,,,,
null,,confidence_buffer,1853428,confidence_buffer,,null,,,,,,,,,,,,,,,,,,
5048.900000095367,,pt2_unique_rating,1858480,Claywater,,51,,,3,,,,,,,,,,,,,,,
null,,confidence_buffer,1858587,confidence_buffer,,null,,,,,,,,,,,,,,,,,,
2083.5999999046326,,pt2_memorable_rating,1860677,Claywater,,51,,,3,,,,,,,,,,,,,,,
null,,confidence_buffer,1860785,confidence_buffer,,null,,,,,,,,,,,,,,,,,,
2013.1000001430511,,recognition_phase,1862805,Claywater,,49,,,,,,old,1,0.7647058823529411,,,,,,,,,,
null,,confidence_buffer,1862913,confidence_buffer,,null,,,,,,,,,,,,,,,,,,
null,,thebreak,1863417,break,,null,,,,,,,,,,,,,,,,,,
12859.399999856949,,realistic_rating,1876283,Folly Beach,,52,Folly Beach,US,4,,,,,,,,,,,,,,,
null,,confidence_buffer,1876391,confidence_buffer,,null,,,,,,,,,,,,,,,,,,
1656.2999999523163,,pt2_unique_rating,1878053,Folly Beach,,51,,,3,,,,,,,,,,,,,,,
null,,confidence_buffer,1878159,confidence_buffer,,null,,,,,,,,,,,,,,,,,,
982,,pt2_memorable_rating,1879147,Folly Beach,,51,,,3,,,,,,,,,,,,,,,
null,,confidence_buffer,1879254,confidence_buffer,,null,,,,,,,,,,,,,,,,,,
3722.2999999523163,,recognition_phase,1882984,Folly Beach,,52,,,,,,new,1,0.7714285714285715,,,,,,,,,,
null,,confidence_buffer,1883095,confidence_buffer,,null,,,,,,,,,,,,,,,,,,
null,,thebreak,1883600,break,,null,,,,,,,,,,,,,,,,,,
14893.200000047684,,realistic_rating,1898500,Orr,,49,Orr,US,1,,,,,,,,,,,,,,,
null,,confidence_buffer,1898608,confidence_buffer,,null,,,,,,,,,,,,,,,,,,
1492.5999999046326,,pt2_unique_rating,1900109,Orr,,50,,,2,,,,,,,,,,,,,,,
null,,confidence_buffer,1900216,confidence_buffer,,null,,,,,,,,,,,,,,,,,,
1234.8999998569489,,pt2_memorable_rating,1901457,Orr,,50,,,2,,,,,,,,,,,,,,,
null,,confidence_buffer,1901564,confidence_buffer,,null,,,,,,,,,,,,,,,,,,
3045.100000143051,,recognition_phase,1904615,Orr,,52,,,,,,new,1,0.7777777777777778,,,,,,,,,,
null,,confidence_buffer,1904722,confidence_buffer,,null,,,,,,,,,,,,,,,,,,
null,,thebreak,1905229,break,,null,,,,,,,,,,,,,,,,,,
17085.799999952316,,realistic_rating,1922322,Abilene,,51,Abilene,US,3,,,,,,,,,,,,,,,
null,,confidence_buffer,1922430,confidence_buffer,,null,,,,,,,,,,,,,,,,,,
1213,,pt2_unique_rating,1923650,Abilene,,51,,,3,,,,,,,,,,,,,,,
null,,confidence_buffer,1923757,confidence_buffer,,null,,,,,,,,,,,,,,,,,,
819.3000001907349,,pt2_memorable_rating,1924583,Abilene,,50,,,2,,,,,,,,,,,,,,,
null,,confidence_buffer,1924690,confidence_buffer,,null,,,,,,,,,,,,,,,,,,
2563.4000000953674,,recognition_phase,1927259,Abilene,,52,,,,,,new,1,0.7837837837837838,,,,,,,,,,
null,,confidence_buffer,1927367,confidence_buffer,,null,,,,,,,,,,,,,,,,,,
null,,thebreak,1927871,break,,null,,,,,,,,,,,,,,,,,,
13279,,realistic_rating,1941158,Willowford,,50,Willowford,Fictional,2,,,,,,,,,,,,,,,
null,,confidence_buffer,1941264,confidence_buffer,,null,,,,,,,,,,,,,,,,,,
821,,pt2_unique_rating,1942091,Willowford,,50,,,2,,,,,,,,,,,,,,,
null,,confidence_buffer,1942199,confidence_buffer,,null,,,,,,,,,,,,,,,,,,
826.7000000476837,,pt2_memorable_rating,1943032,Willowford,,50,,,2,,,,,,,,,,,,,,,
null,,confidence_buffer,1943139,confidence_buffer,,null,,,,,,,,,,,,,,,,,,
2935.7999999523163,,recognition_phase,1946082,Willowford,,49,,,,,,old,1,0.7894736842105263,,,,,,,,,,
null,,confidence_buffer,1946190,confidence_buffer,,null,,,,,,,,,,,,,,,,,,
null,,thebreak,1946696,break,,null,,,,,,,,,,,,,,,,,,
5086.100000143051,,realistic_rating,1951789,West Palm Beach,,50,West Palm Beach,US,2,,,,,,,,,,,,,,,
null,,confidence_buffer,1951898,confidence_buffer,,null,,,,,,,,,,,,,,,,,,
3176.7999999523163,,pt2_unique_rating,1955081,West Palm Beach,,50,,,2,,,,,,,,,,,,,,,
null,,confidence_buffer,1955189,confidence_buffer,,null,,,,,,,,,,,,,,,,,,
1227.2000000476837,,pt2_memorable_rating,1956421,West Palm Beach,,50,,,2,,,,,,,,,,,,,,,
null,,confidence_buffer,1956534,confidence_buffer,,null,,,,,,,,,,,,,,,,,,
2232.2000000476837,,recognition_phase,1958779,West Palm Beach,,49,,,,,,old,1,0.7948717948717948,,,,,,,,,,
null,,confidence_buffer,1958887,confidence_buffer,,null,,,,,,,,,,,,,,,,,,
null,,thebreak,1959393,break,,null,,,,,,,,,,,,,,,,,,
13547.5,,realistic_rating,1972948,Healdsburg,,51,Healdsburg,US,3,,,,,,,,,,,,,,,
null,,confidence_buffer,1973055,confidence_buffer,,null,,,,,,,,,,,,,,,,,,
4563.200000047684,,pt2_unique_rating,1977626,Healdsburg,,51,,,3,,,,,,,,,,,,,,,
null,,confidence_buffer,1977733,confidence_buffer,,null,,,,,,,,,,,,,,,,,,
934,,pt2_memorable_rating,1978673,Healdsburg,,50,,,2,,,,,,,,,,,,,,,
null,,confidence_buffer,1978780,confidence_buffer,,null,,,,,,,,,,,,,,,,,,
2400.2999999523163,,recognition_phase,1981187,Healdsburg,,49,,,,,,old,1,0.8,,,,,,,,,,
null,,confidence_buffer,1981295,confidence_buffer,,null,,,,,,,,,,,,,,,,,,
null,,thebreak,1981802,break,,null,,,,,,,,,,,,,,,,,,
4314.700000047684,,realistic_rating,1986123,Ironwood Heights,,49,Ironwood Heights,Fictional,1,,,,,,,,,,,,,,,
null,,confidence_buffer,1986243,confidence_buffer,,null,,,,,,,,,,,,,,,,,,
1739.2999999523163,,pt2_unique_rating,1987989,Ironwood Heights,,50,,,2,,,,,,,,,,,,,,,
null,,confidence_buffer,1988096,confidence_buffer,,null,,,,,,,,,,,,,,,,,,
416.59999990463257,,pt2_memorable_rating,1988520,Ironwood Heights,,49,,,1,,,,,,,,,,,,,,,
null,,confidence_buffer,1988629,confidence_buffer,,null,,,,,,,,,,,,,,,,,,
1662.7999999523163,,recognition_phase,1990298,Ironwood Heights,,49,,,,,,old,1,0.8048780487804879,,,,,,,,,,
null,,confidence_buffer,1990406,confidence_buffer,,null,,,,,,,,,,,,,,,,,,
null,,thebreak,1990912,break,,null,,,,,,,,,,,,,,,,,,
3207.5999999046326,,realistic_rating,1994127,Driftwood Bay,,50,Driftwood Bay,Fictional,2,,,,,,,,,,,,,,,
null,,confidence_buffer,1994235,confidence_buffer,,null,,,,,,,,,,,,,,,,,,
2708,,probe_rating,1996950,probe_rating,,53,,,,5,1,,,,,,,,,,,,,
null,,confidence_buffer,1997058,confidence_buffer,,null,,,,,,,,,,,,,,,,,,
6293.199999809265,,pt2_unique_rating,2003358,Driftwood Bay,,51,,,3,,,,,,,,,,,,,,,
null,,confidence_buffer,2003466,confidence_buffer,,null,,,,,,,,,,,,,,,,,,
1436.2999999523163,,pt2_memorable_rating,2004912,Driftwood Bay,,50,,,2,,,,,,,,,,,,,,,
null,,confidence_buffer,2005019,confidence_buffer,,null,,,,,,,,,,,,,,,,,,
11495,,recognition_phase,2016521,Driftwood Bay,,51,,,,,,new,1,0.8095238095238095,,,,,,,,,,
null,,confidence_buffer,2016629,confidence_buffer,,null,,,,,,,,,,,,,,,,,,
null,,thebreak,2017135,break,,null,,,,,,,,,,,,,,,,,,
7536.400000095367,,realistic_rating,2024680,Watkins Glen,,49,Watkins Glen,US,1,,,,,,,,,,,,,,,
null,,confidence_buffer,2024788,confidence_buffer,,null,,,,,,,,,,,,,,,,,,
1311.2000000476837,,pt2_unique_rating,2026105,Watkins Glen,,50,,,2,,,,,,,,,,,,,,,
null,,confidence_buffer,2026213,confidence_buffer,,null,,,,,,,,,,,,,,,,,,
2203.7999999523163,,pt2_memorable_rating,2028424,Watkins Glen,,50,,,2,,,,,,,,,,,,,,,
null,,confidence_buffer,2028534,confidence_buffer,,null,,,,,,,,,,,,,,,,,,
2996.2000000476837,,recognition_phase,2031536,Watkins Glen,,50,,,,,,old,1,0.813953488372093,,,,,,,,,,
null,,confidence_buffer,2031641,confidence_buffer,,null,,,,,,,,,,,,,,,,,,
null,,thebreak,2032144,break,,null,,,,,,,,,,,,,,,,,,
13969.099999904633,,realistic_rating,2046117,Peoria,,52,Peoria,US,4,,,,,,,,,,,,,,,
null,,confidence_buffer,2046227,confidence_buffer,,null,,,,,,,,,,,,,,,,,,
1564.6000001430511,,pt2_unique_rating,2047798,Peoria,,51,,,3,,,,,,,,,,,,,,,
null,,confidence_buffer,2047905,confidence_buffer,,null,,,,,,,,,,,,,,,,,,
1436.5,,pt2_memorable_rating,2049344,Peoria,,50,,,2,,,,,,,,,,,,,,,
null,,confidence_buffer,2049452,confidence_buffer,,null,,,,,,,,,,,,,,,,,,
2005.7999999523163,,recognition_phase,2051465,Peoria,,49,,,,,,old,1,0.8181818181818182,,,,,,,,,,
null,,confidence_buffer,2051573,confidence_buffer,,null,,,,,,,,,,,,,,,,,,
null,,thebreak,2052079,break,,null,,,,,,,,,,,,,,,,,,
30753.200000047684,,realistic_rating,2082839,Tamarisk Hills,,50,Tamarisk Hills,Fictional,2,,,,,,,,,,,,,,,
null,,confidence_buffer,2082949,confidence_buffer,,null,,,,,,,,,,,,,,,,,,
4315,,pt2_unique_rating,2087271,Tamarisk Hills,,50,,,2,,,,,,,,,,,,,,,
null,,confidence_buffer,2087379,confidence_buffer,,null,,,,,,,,,,,,,,,,,,
988.4000000953674,,pt2_memorable_rating,2088375,Tamarisk Hills,,50,,,2,,,,,,,,,,,,,,,
null,,confidence_buffer,2088483,confidence_buffer,,null,,,,,,,,,,,,,,,,,,
5098,,recognition_phase,2093587,Tamarisk Hills,,52,,,,,,new,0,0.8,,,,,,,,,,
null,,confidence_buffer,2093692,confidence_buffer,,null,,,,,,,,,,,,,,,,,,
null,,thebreak,2094195,break,,null,,,,,,,,,,,,,,,,,,
28050.39999985695,,realistic_rating,2122253,Sitka,,51,Sitka,US,3,,,,,,,,,,,,,,,
null,,confidence_buffer,2122362,confidence_buffer,,null,,,,,,,,,,,,,,,,,,
3191.800000190735,,pt2_unique_rating,2125560,Sitka,,51,,,3,,,,,,,,,,,,,,,
null,,confidence_buffer,2125667,confidence_buffer,,null,,,,,,,,,,,,,,,,,,
6451.900000095367,,pt2_memorable_rating,2132124,Sitka,,51,,,3,,,,,,,,,,,,,,,
null,,confidence_buffer,2132231,confidence_buffer,,null,,,,,,,,,,,,,,,,,,
12017.599999904633,,recognition_phase,2144257,Sitka,,49,,,,,,old,1,0.8043478260869565,,,,,,,,,,
null,,confidence_buffer,2144364,confidence_buffer,,null,,,,,,,,,,,,,,,,,,
null,,thebreak,2144870,break,,null,,,,,,,,,,,,,,,,,,
16853.39999985695,,realistic_rating,2161731,Hilo,,52,Hilo,US,4,,,,,,,,,,,,,,,
null,,confidence_buffer,2161838,confidence_buffer,,null,,,,,,,,,,,,,,,,,,
2408.4000000953674,,pt2_unique_rating,2164253,Hilo,,51,,,3,,,,,,,,,,,,,,,
null,,confidence_buffer,2164359,confidence_buffer,,null,,,,,,,,,,,,,,,,,,
1459.3999998569489,,pt2_memorable_rating,2165825,Hilo,,51,,,3,,,,,,,,,,,,,,,
null,,confidence_buffer,2165933,confidence_buffer,,null,,,,,,,,,,,,,,,,,,
6420.400000095367,,recognition_phase,2172361,Hilo,,49,,,,,,old,1,0.8085106382978723,,,,,,,,,,
null,,confidence_buffer,2172468,confidence_buffer,,null,,,,,,,,,,,,,,,,,,
null,,thebreak,2172974,break,,null,,,,,,,,,,,,,,,,,,
18585.5,,realistic_rating,2191567,Pine Hollow,,50,Pine Hollow,Fictional,2,,,,,,,,,,,,,,,
null,,confidence_buffer,2191675,confidence_buffer,,null,,,,,,,,,,,,,,,,,,
911.5,,pt2_unique_rating,2192594,Pine Hollow,,50,,,2,,,,,,,,,,,,,,,
null,,confidence_buffer,2192707,confidence_buffer,,null,,,,,,,,,,,,,,,,,,
1181.5,,pt2_memorable_rating,2193895,Pine Hollow,,50,,,2,,,,,,,,,,,,,,,
null,,confidence_buffer,2194003,confidence_buffer,,null,,,,,,,,,,,,,,,,,,
2662.0999999046326,,recognition_phase,2196672,Pine Hollow,,50,,,,,,old,1,0.8125,,,,,,,,,,
null,,confidence_buffer,2196778,confidence_buffer,,null,,,,,,,,,,,,,,,,,,
null,,thebreak,2197284,break,,null,,,,,,,,,,,,,,,,,,
11603.800000190735,,realistic_rating,2208895,Hot Springs,,52,Hot Springs,US,4,,,,,,,,,,,,,,,
null,,confidence_buffer,2209004,confidence_buffer,,null,,,,,,,,,,,,,,,,,,
2003.5999999046326,,pt2_unique_rating,2211013,Hot Springs,,51,,,3,,,,,,,,,,,,,,,
null,,confidence_buffer,2211122,confidence_buffer,,null,,,,,,,,,,,,,,,,,,
452.2000000476837,,pt2_memorable_rating,2211581,Hot Springs,,50,,,2,,,,,,,,,,,,,,,
null,,confidence_buffer,2211689,confidence_buffer,,null,,,,,,,,,,,,,,,,,,
4124.700000047684,,recognition_phase,2215820,Hot Springs,,49,,,,,,old,1,0.8163265306122449,,,,,,,,,,
null,,confidence_buffer,2215925,confidence_buffer,,null,,,,,,,,,,,,,,,,,,
null,,thebreak,2216430,break,,null,,,,,,,,,,,,,,,,,,
12560.599999904633,,realistic_rating,2228994,Cornwall,,51,Cornwall,US,3,,,,,,,,,,,,,,,
null,,confidence_buffer,2229106,confidence_buffer,,null,,,,,,,,,,,,,,,,,,
3029.5,,pt2_unique_rating,2232142,Cornwall,,51,,,3,,,,,,,,,,,,,,,
null,,confidence_buffer,2232250,confidence_buffer,,null,,,,,,,,,,,,,,,,,,
3313.2000000476837,,pt2_memorable_rating,2235570,Cornwall,,50,,,2,,,,,,,,,,,,,,,
null,,confidence_buffer,2235678,confidence_buffer,,null,,,,,,,,,,,,,,,,,,
2664.399999856949,,recognition_phase,2238349,Cornwall,,52,,,,,,new,1,0.82,,,,,,,,,,
null,,confidence_buffer,2238456,confidence_buffer,,null,,,,,,,,,,,,,,,,,,
null,,thebreak,2238963,break,,null,,,,,,,,,,,,,,,,,,
11636.100000143051,,realistic_rating,2250607,Cody,,49,Cody,US,1,,,,,,,,,,,,,,,
null,,confidence_buffer,2250716,confidence_buffer,,null,,,,,,,,,,,,,,,,,,
3530.2999999523163,,pt2_unique_rating,2254253,Cody,,49,,,1,,,,,,,,,,,,,,,
null,,confidence_buffer,2254361,confidence_buffer,,null,,,,,,,,,,,,,,,,,,
1235.5999999046326,,pt2_memorable_rating,2255604,Cody,,49,,,1,,,,,,,,,,,,,,,
null,,confidence_buffer,2255712,confidence_buffer,,null,,,,,,,,,,,,,,,,,,
4541.099999904633,,recognition_phase,2260260,Cody,,52,,,,,,new,1,0.8235294117647058,,,,,,,,,,
null,,confidence_buffer,2260369,confidence_buffer,,null,,,,,,,,,,,,,,,,,,
null,,thebreak,2260875,break,,null,,,,,,,,,,,,,,,,,,
14429.5,,realistic_rating,2275312,Ashford Hills,,51,Ashford Hills,Fictional,3,,,,,,,,,,,,,,,
null,,confidence_buffer,2275421,confidence_buffer,,null,,,,,,,,,,,,,,,,,,
1772.0999999046326,,pt2_unique_rating,2277200,Ashford Hills,,50,,,2,,,,,,,,,,,,,,,
null,,confidence_buffer,2277308,confidence_buffer,,null,,,,,,,,,,,,,,,,,,
932,,pt2_memorable_rating,2278247,Ashford Hills,,51,,,3,,,,,,,,,,,,,,,
null,,confidence_buffer,2278351,confidence_buffer,,null,,,,,,,,,,,,,,,,,,
8107.5,,recognition_phase,2286463,Ashford Hills,,51,,,,,,new,0,0.8076923076923077,,,,,,,,,,
null,,confidence_buffer,2286574,confidence_buffer,,null,,,,,,,,,,,,,,,,,,
null,,thebreak,2287080,break,,null,,,,,,,,,,,,,,,,,,
23014.599999904633,,realistic_rating,2310102,Baymarsh,,49,Baymarsh,Fictional,1,,,,,,,,,,,,,,,
null,,confidence_buffer,2310212,confidence_buffer,,null,,,,,,,,,,,,,,,,,,
2412.2999999523163,,pt2_unique_rating,2312631,Baymarsh,,49,,,1,,,,,,,,,,,,,,,
null,,confidence_buffer,2312739,confidence_buffer,,null,,,,,,,,,,,,,,,,,,
2007.5,,pt2_memorable_rating,2314754,Baymarsh,,49,,,1,,,,,,,,,,,,,,,
null,,confidence_buffer,2314862,confidence_buffer,,null,,,,,,,,,,,,,,,,,,
3806.300000190735,,recognition_phase,2318676,Baymarsh,,51,,,,,,new,1,0.8113207547169812,,,,,,,,,,
null,,confidence_buffer,2318783,confidence_buffer,,null,,,,,,,,,,,,,,,,,,
null,,thebreak,2319289,break,,null,,,,,,,,,,,,,,,,,,
25723.799999952316,,realistic_rating,2345020,Falconridge,,49,Falconridge,Fictional,1,,,,,,,,,,,,,,,
null,,confidence_buffer,2345131,confidence_buffer,,null,,,,,,,,,,,,,,,,,,
2198.800000190735,,pt2_unique_rating,2347337,Falconridge,,50,,,2,,,,,,,,,,,,,,,
null,,confidence_buffer,2347445,confidence_buffer,,null,,,,,,,,,,,,,,,,,,
885.5,,pt2_memorable_rating,2348337,Falconridge,,51,,,3,,,,,,,,,,,,,,,
null,,confidence_buffer,2348445,confidence_buffer,,null,,,,,,,,,,,,,,,,,,
1885,,probe_rating,2350338,probe_rating,,49,,,,1,1,,,,,,,,,,,,,
null,,confidence_buffer,2350449,confidence_buffer,,null,,,,,,,,,,,,,,,,,,
5739.400000095367,,recognition_phase,2356197,Falconridge,,52,,,,,,new,1,0.8148148148148148,,,,,,,,,,
null,,confidence_buffer,2356305,confidence_buffer,,null,,,,,,,,,,,,,,,,,,
null,,thebreak,2356813,break,,null,,,,,,,,,,,,,,,,,,
68891.20000004768,,realistic_rating,2425712,Highvale,,51,Highvale,Fictional,3,,,,,,,,,,,,,,,
null,,confidence_buffer,2425823,confidence_buffer,,null,,,,,,,,,,,,,,,,,,
4666.5,,probe_rating,2430495,probe_rating,,49,,,,1,1,,,,,,,,,,,,,
null,,confidence_buffer,2430600,confidence_buffer,,null,,,,,,,,,,,,,,,,,,
2751.2999999523163,,pt2_unique_rating,2433354,Highvale,,50,,,2,,,,,,,,,,,,,,,
null,,confidence_buffer,2433458,confidence_buffer,,null,,,,,,,,,,,,,,,,,,
1830.4000000953674,,pt2_memorable_rating,2435292,Highvale,,50,,,2,,,,,,,,,,,,,,,
null,,confidence_buffer,2435397,confidence_buffer,,null,,,,,,,,,,,,,,,,,,
3259.100000143051,,recognition_phase,2438661,Highvale,,52,,,,,,new,1,0.8181818181818182,,,,,,,,,,
null,,confidence_buffer,2438767,confidence_buffer,,null,,,,,,,,,,,,,,,,,,
null,,thebreak,2439273,break,,null,,,,,,,,,,,,,,,,,,
15628.600000143051,,realistic_rating,2454909,Riverlyn,,51,Riverlyn,Fictional,3,,,,,,,,,,,,,,,
null,,confidence_buffer,2455019,confidence_buffer,,null,,,,,,,,,,,,,,,,,,
1668.7000000476837,,pt2_unique_rating,2456696,Riverlyn,,51,,,3,,,,,,,,,,,,,,,
null,,confidence_buffer,2456803,confidence_buffer,,null,,,,,,,,,,,,,,,,,,
579.7000000476837,,pt2_memorable_rating,2457390,Riverlyn,,50,,,2,,,,,,,,,,,,,,,
null,,confidence_buffer,2457498,confidence_buffer,,null,,,,,,,,,,,,,,,,,,
4352.5,,recognition_phase,2461859,Riverlyn,,49,,,,,,old,1,0.8214285714285714,,,,,,,,,,
null,,confidence_buffer,2461968,confidence_buffer,,null,,,,,,,,,,,,,,,,,,
null,,thebreak,2462476,break,,null,,,,,,,,,,,,,,,,,,
4622.799999952316,,realistic_rating,2467105,Bowling Green,,49,Bowling Green,US,1,,,,,,,,,,,,,,,
null,,confidence_buffer,2467212,confidence_buffer,,null,,,,,,,,,,,,,,,,,,
1648.7999999523163,,pt2_unique_rating,2468866,Bowling Green,,50,,,2,,,,,,,,,,,,,,,
null,,confidence_buffer,2468973,confidence_buffer,,null,,,,,,,,,,,,,,,,,,
535,,pt2_memorable_rating,2469515,Bowling Green,,50,,,2,,,,,,,,,,,,,,,
null,,confidence_buffer,2469622,confidence_buffer,,null,,,,,,,,,,,,,,,,,,
2486,,recognition_phase,2472115,Bowling Green,,49,,,,,,old,1,0.8245614035087719,,,,,,,,,,
null,,confidence_buffer,2472223,confidence_buffer,,null,,,,,,,,,,,,,,,,,,
null,,thebreak,2472729,break,,null,,,,,,,,,,,,,,,,,,
14731.899999856949,,realistic_rating,2487471,Racine,,50,Racine,US,2,,,,,,,,,,,,,,,
null,,confidence_buffer,2487579,confidence_buffer,,null,,,,,,,,,,,,,,,,,,
1818.7000000476837,,pt2_unique_rating,2489406,Racine,,51,,,3,,,,,,,,,,,,,,,
null,,confidence_buffer,2489515,confidence_buffer,,null,,,,,,,,,,,,,,,,,,
294.2999999523163,,pt2_memorable_rating,2489816,Racine,,50,,,2,,,,,,,,,,,,,,,
null,,confidence_buffer,2489923,confidence_buffer,,null,,,,,,,,,,,,,,,,,,
2130.100000143051,,probe_rating,2492061,probe_rating,,51,,,,3,1,,,,,,,,,,,,,
null,,confidence_buffer,2492176,confidence_buffer,,null,,,,,,,,,,,,,,,,,,
2732.2999999523163,,recognition_phase,2494914,Racine,,49,,,,,,old,1,0.8275862068965517,,,,,,,,,,
null,,confidence_buffer,2495021,confidence_buffer,,null,,,,,,,,,,,,,,,,,,
null,,thebreak,2495526,break,,null,,,,,,,,,,,,,,,,,,
15372.900000095367,,realistic_rating,2510905,Medora,,50,Medora,US,2,,,,,,,,,,,,,,,
null,,confidence_buffer,2511010,confidence_buffer,,null,,,,,,,,,,,,,,,,,,
1224.6000001430511,,pt2_unique_rating,2512242,Medora,,50,,,2,,,,,,,,,,,,,,,
null,,confidence_buffer,2512349,confidence_buffer,,null,,,,,,,,,,,,,,,,,,
1200.5,,pt2_memorable_rating,2513558,Medora,,51,,,3,,,,,,,,,,,,,,,
null,,confidence_buffer,2513668,confidence_buffer,,null,,,,,,,,,,,,,,,,,,
3157.399999856949,,recognition_phase,2516833,Medora,,51,,,,,,new,1,0.8305084745762712,,,,,,,,,,
null,,confidence_buffer,2516944,confidence_buffer,,null,,,,,,,,,,,,,,,,,,
null,,thebreak,2517449,break,,null,,,,,,,,,,,,,,,,,,
11757.400000095367,,realistic_rating,2529214,Cape May,,51,Cape May,US,3,,,,,,,,,,,,,,,
null,,confidence_buffer,2529322,confidence_buffer,,null,,,,,,,,,,,,,,,,,,
622.7000000476837,,pt2_unique_rating,2529951,Cape May,,51,,,3,,,,,,,,,,,,,,,
null,,confidence_buffer,2530059,confidence_buffer,,null,,,,,,,,,,,,,,,,,,
1256,,pt2_memorable_rating,2531319,Cape May,,51,,,3,,,,,,,,,,,,,,,
null,,confidence_buffer,2531427,confidence_buffer,,null,,,,,,,,,,,,,,,,,,
2016.5,,recognition_phase,2533452,Cape May,,49,,,,,,old,1,0.8333333333333334,,,,,,,,,,
null,,confidence_buffer,2533562,confidence_buffer,,null,,,,,,,,,,,,,,,,,,
null,,thebreak,2534068,break,,null,,,,,,,,,,,,,,,,,,
,,survey,2783122,survey-questions,,,,,,,,,,,none,high,no,concentration,easy to remember or known,popularity,it difference from others,possibility of been real,no,nothing
