rt,responses,trial_type,time_elapsed,stimulus,button_pressed,key_press,name_trial,city_type,rating,probe,probe_accuracy,response,correct,accuracy,problems,smooth,distraction,strategies,familiar,memorable,unique,realistic,similar,comments
206177.69999998808,{worker_id:6733b7864021053026668d7e},id_enter,206181,,,,,,,,,,,,,,,,,,,,,
6804.200000047684,,fullscreen,212990,fullscreen,0,,,,,,,,,,,,,,,,,,,
4400.5,,intro_0,217392,instruct,,32,,,,,,,,,,,,,,,,,,
6254.199999988079,,intro_1,223648,instruct,,32,,,,,,,,,,,,,,,,,,
5751.199999988079,,intro_2,229400,instruct,,32,,,,,,,,,,,,,,,,,,
null,,instruct_dir_4,230901,instruct,,null,,,,,,,,,,,,,,,,,,
null,,thebreak,231402,break,,null,,,,,,,,,,,,,,,,,,
25284.099999964237,,familiar_rating,256688,West Talora,,49,West Talora,Fictional,1,,,,,,,,,,,,,,,
null,,confidence_buffer,256792,confidence_buffer,,null,,,,,,,,,,,,,,,,,,
3358.5,,unique_rating,260152,West Talora,,50,,,2,,,,,,,,,,,,,,,
null,,confidence_buffer,260253,confidence_buffer,,null,,,,,,,,,,,,,,,,,,
2329,,memorable_rating,262583,West Talora,,50,,,2,,,,,,,,,,,,,,,
null,,confidence_buffer,262685,confidence_buffer,,null,,,,,,,,,,,,,,,,,,
null,,thebreak,263187,break,,null,,,,,,,,,,,,,,,,,,
4067.5,,familiar_rating,267256,Willowford,,50,Willowford,Fictional,2,,,,,,,,,,,,,,,
null,,confidence_buffer,267357,confidence_buffer,,null,,,,,,,,,,,,,,,,,,
1017.3999999761581,,unique_rating,268375,Willowford,,50,,,2,,,,,,,,,,,,,,,
null,,confidence_buffer,268477,confidence_buffer,,null,,,,,,,,,,,,,,,,,,
897.6000000238419,,memorable_rating,269375,Willowford,,50,,,2,,,,,,,,,,,,,,,
null,,confidence_buffer,269477,confidence_buffer,,null,,,,,,,,,,,,,,,,,,
null,,thebreak,269978,break,,null,,,,,,,,,,,,,,,,,,
3107.699999988079,,familiar_rating,273087,Gardnerville,,52,Gardnerville,US,4,,,,,,,,,,,,,,,
null,,confidence_buffer,273203,confidence_buffer,,null,,,,,,,,,,,,,,,,,,
1675.5999999642372,,unique_rating,274879,Gardnerville,,52,,,4,,,,,,,,,,,,,,,
null,,confidence_buffer,274981,confidence_buffer,,null,,,,,,,,,,,,,,,,,,
1145.800000011921,,memorable_rating,276127,Gardnerville,,52,,,4,,,,,,,,,,,,,,,
null,,confidence_buffer,276236,confidence_buffer,,null,,,,,,,,,,,,,,,,,,
null,,thebreak,276738,break,,null,,,,,,,,,,,,,,,,,,
1989,,familiar_rating,278728,Westridge,,50,Westridge,Fictional,2,,,,,,,,,,,,,,,
null,,confidence_buffer,278829,confidence_buffer,,null,,,,,,,,,,,,,,,,,,
985.3000000119209,,unique_rating,279815,Westridge,,50,,,2,,,,,,,,,,,,,,,
null,,confidence_buffer,279918,confidence_buffer,,null,,,,,,,,,,,,,,,,,,
824.6000000238419,,memorable_rating,280743,Westridge,,50,,,2,,,,,,,,,,,,,,,
null,,confidence_buffer,280845,confidence_buffer,,null,,,,,,,,,,,,,,,,,,
null,,thebreak,281347,break,,null,,,,,,,,,,,,,,,,,,
3747.900000035763,,familiar_rating,285095,Sunmere,,49,Sunmere,Fictional,1,,,,,,,,,,,,,,,
null,,confidence_buffer,285197,confidence_buffer,,null,,,,,,,,,,,,,,,,,,
801.2000000476837,,unique_rating,285999,Sunmere,,49,,,1,,,,,,,,,,,,,,,
null,,confidence_buffer,286101,confidence_buffer,,null,,,,,,,,,,,,,,,,,,
1009.6000000238419,,memorable_rating,287111,Sunmere,,49,,,1,,,,,,,,,,,,,,,
null,,confidence_buffer,287213,confidence_buffer,,null,,,,,,,,,,,,,,,,,,
null,,thebreak,287717,break,,null,,,,,,,,,,,,,,,,,,
3169.600000023842,,familiar_rating,290887,Lake of the Ozarks,,49,Lake of the Ozarks,US,1,,,,,,,,,,,,,,,
null,,confidence_buffer,290989,confidence_buffer,,null,,,,,,,,,,,,,,,,,,
1313.8999999761581,,unique_rating,292304,Lake of the Ozarks,,49,,,1,,,,,,,,,,,,,,,
null,,confidence_buffer,292406,confidence_buffer,,null,,,,,,,,,,,,,,,,,,
1064.800000011921,,memorable_rating,293471,Lake of the Ozarks,,49,,,1,,,,,,,,,,,,,,,
null,,confidence_buffer,293573,confidence_buffer,,null,,,,,,,,,,,,,,,,,,
7697.699999988079,,probe_rating,301272,probe_rating,,51,,,,3,1,,,,,,,,,,,,,
null,,confidence_buffer,301373,confidence_buffer,,null,,,,,,,,,,,,,,,,,,
null,,thebreak,301875,break,,null,,,,,,,,,,,,,,,,,,
2859.600000023842,,familiar_rating,304736,Duck,,49,Duck,US,1,,,,,,,,,,,,,,,
null,,confidence_buffer,304838,confidence_buffer,,null,,,,,,,,,,,,,,,,,,
1512.5,,unique_rating,306351,Duck,,49,,,1,,,,,,,,,,,,,,,
null,,confidence_buffer,306453,confidence_buffer,,null,,,,,,,,,,,,,,,,,,
1153.7000000476837,,memorable_rating,307607,Duck,,49,,,1,,,,,,,,,,,,,,,
null,,confidence_buffer,307709,confidence_buffer,,null,,,,,,,,,,,,,,,,,,
null,,thebreak,308211,break,,null,,,,,,,,,,,,,,,,,,
3067.699999988079,,familiar_rating,311280,Claywater,,53,Claywater,Fictional,5,,,,,,,,,,,,,,,
null,,confidence_buffer,311382,confidence_buffer,,null,,,,,,,,,,,,,,,,,,
1185,,unique_rating,312567,Claywater,,53,,,5,,,,,,,,,,,,,,,
null,,confidence_buffer,312669,confidence_buffer,,null,,,,,,,,,,,,,,,,,,
4186.100000023842,,probe_rating,316856,probe_rating,,51,,,,3,1,,,,,,,,,,,,,
null,,confidence_buffer,316958,confidence_buffer,,null,,,,,,,,,,,,,,,,,,
1840.8999999761581,,memorable_rating,318800,Claywater,,53,,,5,,,,,,,,,,,,,,,
null,,confidence_buffer,318901,confidence_buffer,,null,,,,,,,,,,,,,,,,,,
null,,thebreak,319403,break,,null,,,,,,,,,,,,,,,,,,
1700.3999999761581,,familiar_rating,321104,Okoboji,,49,Okoboji,US,1,,,,,,,,,,,,,,,
null,,confidence_buffer,321207,confidence_buffer,,null,,,,,,,,,,,,,,,,,,
799.6000000238419,,unique_rating,322008,Okoboji,,50,,,2,,,,,,,,,,,,,,,
null,,confidence_buffer,322109,confidence_buffer,,null,,,,,,,,,,,,,,,,,,
1170.199999988079,,memorable_rating,323280,Okoboji,,50,,,2,,,,,,,,,,,,,,,
null,,confidence_buffer,323381,confidence_buffer,,null,,,,,,,,,,,,,,,,,,
null,,thebreak,323883,break,,null,,,,,,,,,,,,,,,,,,
3115.699999988079,,familiar_rating,327000,Fairhaven,,51,Fairhaven,Fictional,3,,,,,,,,,,,,,,,
null,,confidence_buffer,327102,confidence_buffer,,null,,,,,,,,,,,,,,,,,,
1288.699999988079,,unique_rating,328391,Fairhaven,,51,,,3,,,,,,,,,,,,,,,
null,,confidence_buffer,328493,confidence_buffer,,null,,,,,,,,,,,,,,,,,,
1217.300000011921,,memorable_rating,329712,Fairhaven,,51,,,3,,,,,,,,,,,,,,,
null,,confidence_buffer,329813,confidence_buffer,,null,,,,,,,,,,,,,,,,,,
null,,thebreak,330315,break,,null,,,,,,,,,,,,,,,,,,
3316.100000023842,,familiar_rating,333632,Delaware City,,53,Delaware City,US,5,,,,,,,,,,,,,,,
null,,confidence_buffer,333734,confidence_buffer,,null,,,,,,,,,,,,,,,,,,
1289,,unique_rating,335024,Delaware City,,53,,,5,,,,,,,,,,,,,,,
null,,confidence_buffer,335125,confidence_buffer,,null,,,,,,,,,,,,,,,,,,
1665.9000000357628,,memorable_rating,336792,Delaware City,,53,,,5,,,,,,,,,,,,,,,
null,,confidence_buffer,336893,confidence_buffer,,null,,,,,,,,,,,,,,,,,,
null,,thebreak,337395,break,,null,,,,,,,,,,,,,,,,,,
2163.599999964237,,familiar_rating,339559,Riverlyn,,50,Riverlyn,Fictional,2,,,,,,,,,,,,,,,
null,,confidence_buffer,339662,confidence_buffer,,null,,,,,,,,,,,,,,,,,,
1057.2999999523163,,unique_rating,340720,Riverlyn,,50,,,2,,,,,,,,,,,,,,,
null,,confidence_buffer,340822,confidence_buffer,,null,,,,,,,,,,,,,,,,,,
937.2999999523163,,memorable_rating,341760,Riverlyn,,50,,,2,,,,,,,,,,,,,,,
null,,confidence_buffer,341862,confidence_buffer,,null,,,,,,,,,,,,,,,,,,
null,,thebreak,342363,break,,null,,,,,,,,,,,,,,,,,,
3955.5,,familiar_rating,346320,Healdsburg,,52,Healdsburg,US,4,,,,,,,,,,,,,,,
null,,confidence_buffer,346421,confidence_buffer,,null,,,,,,,,,,,,,,,,,,
985.5,,unique_rating,347408,Healdsburg,,52,,,4,,,,,,,,,,,,,,,
null,,confidence_buffer,347509,confidence_buffer,,null,,,,,,,,,,,,,,,,,,
834.0999999642372,,memorable_rating,348344,Healdsburg,,52,,,4,,,,,,,,,,,,,,,
null,,confidence_buffer,348446,confidence_buffer,,null,,,,,,,,,,,,,,,,,,
null,,thebreak,348947,break,,null,,,,,,,,,,,,,,,,,,
1715.5,,familiar_rating,350664,Cedarwyn,,50,Cedarwyn,Fictional,2,,,,,,,,,,,,,,,
null,,confidence_buffer,350765,confidence_buffer,,null,,,,,,,,,,,,,,,,,,
985.8000000119209,,unique_rating,351752,Cedarwyn,,50,,,2,,,,,,,,,,,,,,,
null,,confidence_buffer,351854,confidence_buffer,,null,,,,,,,,,,,,,,,,,,
832.8000000119209,,memorable_rating,352687,Cedarwyn,,50,,,2,,,,,,,,,,,,,,,
null,,confidence_buffer,352789,confidence_buffer,,null,,,,,,,,,,,,,,,,,,
2657.100000023842,,probe_rating,355447,probe_rating,,50,,,,2,1,,,,,,,,,,,,,
null,,confidence_buffer,355549,confidence_buffer,,null,,,,,,,,,,,,,,,,,,
null,,thebreak,356051,break,,null,,,,,,,,,,,,,,,,,,
4019.5,,familiar_rating,360071,Racine,,53,Racine,US,5,,,,,,,,,,,,,,,
null,,confidence_buffer,360173,confidence_buffer,,null,,,,,,,,,,,,,,,,,,
1281.300000011921,,unique_rating,361455,Racine,,53,,,5,,,,,,,,,,,,,,,
null,,confidence_buffer,361557,confidence_buffer,,null,,,,,,,,,,,,,,,,,,
961.7000000476837,,memorable_rating,362519,Racine,,53,,,5,,,,,,,,,,,,,,,
null,,confidence_buffer,362621,confidence_buffer,,null,,,,,,,,,,,,,,,,,,
null,,thebreak,363122,break,,null,,,,,,,,,,,,,,,,,,
3060.699999988079,,familiar_rating,366183,Linden Trace,,50,Linden Trace,Fictional,2,,,,,,,,,,,,,,,
null,,confidence_buffer,366285,confidence_buffer,,null,,,,,,,,,,,,,,,,,,
897.8000000119209,,unique_rating,367184,Linden Trace,,50,,,2,,,,,,,,,,,,,,,
null,,confidence_buffer,367286,confidence_buffer,,null,,,,,,,,,,,,,,,,,,
641,,memorable_rating,367928,Linden Trace,,50,,,2,,,,,,,,,,,,,,,
null,,confidence_buffer,368034,confidence_buffer,,null,,,,,,,,,,,,,,,,,,
2548.800000011921,,probe_rating,370584,probe_rating,,49,,,,1,1,,,,,,,,,,,,,
null,,confidence_buffer,370686,confidence_buffer,,null,,,,,,,,,,,,,,,,,,
null,,thebreak,371188,break,,null,,,,,,,,,,,,,,,,,,
4363,,familiar_rating,375552,Sammamish,,49,Sammamish,US,1,,,,,,,,,,,,,,,
null,,confidence_buffer,375654,confidence_buffer,,null,,,,,,,,,,,,,,,,,,
1528.9000000357628,,unique_rating,377184,Sammamish,,49,,,1,,,,,,,,,,,,,,,
null,,confidence_buffer,377286,confidence_buffer,,null,,,,,,,,,,,,,,,,,,
873.1999999880791,,memorable_rating,378160,Sammamish,,49,,,1,,,,,,,,,,,,,,,
null,,confidence_buffer,378262,confidence_buffer,,null,,,,,,,,,,,,,,,,,,
null,,thebreak,378763,break,,null,,,,,,,,,,,,,,,,,,
1875.8999999761581,,familiar_rating,380640,Tamarisk Hills,,50,Tamarisk Hills,Fictional,2,,,,,,,,,,,,,,,
null,,confidence_buffer,380741,confidence_buffer,,null,,,,,,,,,,,,,,,,,,
753.6000000238419,,unique_rating,381496,Tamarisk Hills,,50,,,2,,,,,,,,,,,,,,,
null,,confidence_buffer,381597,confidence_buffer,,null,,,,,,,,,,,,,,,,,,
898.1000000238419,,memorable_rating,382496,Tamarisk Hills,,50,,,2,,,,,,,,,,,,,,,
null,,confidence_buffer,382597,confidence_buffer,,null,,,,,,,,,,,,,,,,,,
null,,thebreak,383098,break,,null,,,,,,,,,,,,,,,,,,
2004.8999999761581,,familiar_rating,385104,Oakridge,,50,Oakridge,Fictional,2,,,,,,,,,,,,,,,
null,,confidence_buffer,385206,confidence_buffer,,null,,,,,,,,,,,,,,,,,,
944.8999999761581,,unique_rating,386151,Oakridge,,50,,,2,,,,,,,,,,,,,,,
null,,confidence_buffer,386253,confidence_buffer,,null,,,,,,,,,,,,,,,,,,
745.4000000357628,,memorable_rating,386999,Oakridge,,50,,,2,,,,,,,,,,,,,,,
null,,confidence_buffer,387105,confidence_buffer,,null,,,,,,,,,,,,,,,,,,
null,,thebreak,387606,break,,null,,,,,,,,,,,,,,,,,,
1968.0999999642372,,familiar_rating,389576,Carmel,,52,Carmel,US,4,,,,,,,,,,,,,,,
null,,confidence_buffer,389677,confidence_buffer,,null,,,,,,,,,,,,,,,,,,
833.5,,unique_rating,390511,Carmel,,52,,,4,,,,,,,,,,,,,,,
null,,confidence_buffer,390613,confidence_buffer,,null,,,,,,,,,,,,,,,,,,
690.0999999642372,,memorable_rating,391304,Carmel,,52,,,4,,,,,,,,,,,,,,,
null,,confidence_buffer,391404,confidence_buffer,,null,,,,,,,,,,,,,,,,,,
null,,thebreak,391906,break,,null,,,,,,,,,,,,,,,,,,
2061.199999988079,,familiar_rating,393968,Athens,,53,Athens,US,5,,,,,,,,,,,,,,,
null,,confidence_buffer,394076,confidence_buffer,,null,,,,,,,,,,,,,,,,,,
1050.4000000357628,,unique_rating,395128,Athens,,53,,,5,,,,,,,,,,,,,,,
null,,confidence_buffer,395229,confidence_buffer,,null,,,,,,,,,,,,,,,,,,
922,,memorable_rating,396152,Athens,,53,,,5,,,,,,,,,,,,,,,
null,,confidence_buffer,396253,confidence_buffer,,null,,,,,,,,,,,,,,,,,,
null,,thebreak,396756,break,,null,,,,,,,,,,,,,,,,,,
2818.7999999523163,,familiar_rating,399576,Orchard Bend,,50,Orchard Bend,Fictional,2,,,,,,,,,,,,,,,
null,,confidence_buffer,399679,confidence_buffer,,null,,,,,,,,,,,,,,,,,,
871.6999999880791,,unique_rating,400552,Orchard Bend,,50,,,2,,,,,,,,,,,,,,,
null,,confidence_buffer,400653,confidence_buffer,,null,,,,,,,,,,,,,,,,,,
913.6999999880791,,memorable_rating,401568,Orchard Bend,,50,,,2,,,,,,,,,,,,,,,
null,,confidence_buffer,401669,confidence_buffer,,null,,,,,,,,,,,,,,,,,,
null,,thebreak,402172,break,,null,,,,,,,,,,,,,,,,,,
1867,,familiar_rating,404040,Rosehollow,,52,Rosehollow,Fictional,4,,,,,,,,,,,,,,,
null,,confidence_buffer,404141,confidence_buffer,,null,,,,,,,,,,,,,,,,,,
873.5,,unique_rating,405016,Rosehollow,,52,,,4,,,,,,,,,,,,,,,
null,,confidence_buffer,405117,confidence_buffer,,null,,,,,,,,,,,,,,,,,,
1001.6000000238419,,memorable_rating,406120,Rosehollow,,52,,,4,,,,,,,,,,,,,,,
null,,confidence_buffer,406221,confidence_buffer,,null,,,,,,,,,,,,,,,,,,
null,,thebreak,406723,break,,null,,,,,,,,,,,,,,,,,,
964.0999999642372,,familiar_rating,407688,Hilo,,50,Hilo,US,2,,,,,,,,,,,,,,,
null,,confidence_buffer,407789,confidence_buffer,,null,,,,,,,,,,,,,,,,,,
1281.5,,unique_rating,409072,Hilo,,50,,,2,,,,,,,,,,,,,,,
null,,confidence_buffer,409173,confidence_buffer,,null,,,,,,,,,,,,,,,,,,
961.4000000357628,,memorable_rating,410136,Hilo,,50,,,2,,,,,,,,,,,,,,,
null,,confidence_buffer,410237,confidence_buffer,,null,,,,,,,,,,,,,,,,,,
null,,thebreak,410739,break,,null,,,,,,,,,,,,,,,,,,
3324.099999964237,,familiar_rating,414064,Yukon,,50,Yukon,US,2,,,,,,,,,,,,,,,
null,,confidence_buffer,414165,confidence_buffer,,null,,,,,,,,,,,,,,,,,,
1041.6000000238419,,unique_rating,415208,Yukon,,50,,,2,,,,,,,,,,,,,,,
null,,confidence_buffer,415318,confidence_buffer,,null,,,,,,,,,,,,,,,,,,
1248.5,,memorable_rating,416568,Yukon,,50,,,2,,,,,,,,,,,,,,,
null,,confidence_buffer,416684,confidence_buffer,,null,,,,,,,,,,,,,,,,,,
null,,thebreak,417186,break,,null,,,,,,,,,,,,,,,,,,
3316.899999976158,,familiar_rating,420504,Ironwood Heights,,52,Ironwood Heights,Fictional,4,,,,,,,,,,,,,,,
null,,confidence_buffer,420605,confidence_buffer,,null,,,,,,,,,,,,,,,,,,
921.5,,unique_rating,421528,Ironwood Heights,,52,,,4,,,,,,,,,,,,,,,
null,,confidence_buffer,421630,confidence_buffer,,null,,,,,,,,,,,,,,,,,,
776.8000000119209,,memorable_rating,422408,Ironwood Heights,,52,,,4,,,,,,,,,,,,,,,
null,,confidence_buffer,422509,confidence_buffer,,null,,,,,,,,,,,,,,,,,,
null,,thebreak,423010,break,,null,,,,,,,,,,,,,,,,,,
3405.100000023842,,familiar_rating,426416,Shreveport,,52,Shreveport,US,4,,,,,,,,,,,,,,,
null,,confidence_buffer,426517,confidence_buffer,,null,,,,,,,,,,,,,,,,,,
665.9000000357628,,unique_rating,427183,Shreveport,,52,,,4,,,,,,,,,,,,,,,
null,,confidence_buffer,427285,confidence_buffer,,null,,,,,,,,,,,,,,,,,,
809.5,,memorable_rating,428096,Shreveport,,52,,,4,,,,,,,,,,,,,,,
null,,confidence_buffer,428197,confidence_buffer,,null,,,,,,,,,,,,,,,,,,
null,,thebreak,428698,break,,null,,,,,,,,,,,,,,,,,,
1828.5,,familiar_rating,430528,Newport,,53,Newport,US,5,,,,,,,,,,,,,,,
null,,confidence_buffer,430629,confidence_buffer,,null,,,,,,,,,,,,,,,,,,
809.3000000119209,,unique_rating,431440,Newport,,53,,,5,,,,,,,,,,,,,,,
null,,confidence_buffer,431541,confidence_buffer,,null,,,,,,,,,,,,,,,,,,
3153.5,,probe_rating,434696,probe_rating,,49,,,,1,1,,,,,,,,,,,,,
null,,confidence_buffer,434798,confidence_buffer,,null,,,,,,,,,,,,,,,,,,
3001.2000000476837,,memorable_rating,437800,Newport,,52,,,4,,,,,,,,,,,,,,,
null,,confidence_buffer,437901,confidence_buffer,,null,,,,,,,,,,,,,,,,,,
null,,thebreak,438403,break,,null,,,,,,,,,,,,,,,,,,
3404.099999964237,,familiar_rating,441808,East Ladera,,52,East Ladera,Fictional,4,,,,,,,,,,,,,,,
null,,confidence_buffer,441909,confidence_buffer,,null,,,,,,,,,,,,,,,,,,
777.6999999880791,,unique_rating,442688,East Ladera,,52,,,4,,,,,,,,,,,,,,,
null,,confidence_buffer,442789,confidence_buffer,,null,,,,,,,,,,,,,,,,,,
889.5,,memorable_rating,443679,East Ladera,,52,,,4,,,,,,,,,,,,,,,
null,,confidence_buffer,443782,confidence_buffer,,null,,,,,,,,,,,,,,,,,,
null,,thebreak,444284,break,,null,,,,,,,,,,,,,,,,,,
3058.800000011921,,familiar_rating,447344,Huntsville,,53,Huntsville,US,5,,,,,,,,,,,,,,,
null,,confidence_buffer,447445,confidence_buffer,,null,,,,,,,,,,,,,,,,,,
825.8999999761581,,unique_rating,448272,Huntsville,,53,,,5,,,,,,,,,,,,,,,
null,,confidence_buffer,448374,confidence_buffer,,null,,,,,,,,,,,,,,,,,,
936.8999999761581,,memorable_rating,449311,Huntsville,,53,,,5,,,,,,,,,,,,,,,
null,,confidence_buffer,449414,confidence_buffer,,null,,,,,,,,,,,,,,,,,,
null,,thebreak,449916,break,,null,,,,,,,,,,,,,,,,,,
3691,,intro_0,453608,instruct,,32,,,,,,,,,,,,,,,,,,
7599.400000035763,,intro_1,461208,instruct,,32,,,,,,,,,,,,,,,,,,
5871,,intro_2,467080,instruct,,32,,,,,,,,,,,,,,,,,,
null,,instruct_dir_4,468581,instruct,,null,,,,,,,,,,,,,,,,,,
6193.899999976158,,realistic_rating,474776,Silverpine,,49,Silverpine,Fictional,1,,,,,,,,,,,,,,,
null,,confidence_buffer,474877,confidence_buffer,,null,,,,,,,,,,,,,,,,,,
1129.3999999761581,,pt2_unique_rating,476008,Silverpine,,49,,,1,,,,,,,,,,,,,,,
null,,confidence_buffer,476109,confidence_buffer,,null,,,,,,,,,,,,,,,,,,
818.1000000238419,,pt2_memorable_rating,476928,Silverpine,,49,,,1,,,,,,,,,,,,,,,
null,,confidence_buffer,477029,confidence_buffer,,null,,,,,,,,,,,,,,,,,,
7568.799999952316,,recognition_phase,484600,Silverpine,,52,,,,,,new,1,1,,,,,,,,,,
null,,confidence_buffer,484701,confidence_buffer,,null,,,,,,,,,,,,,,,,,,
null,,thebreak,485203,break,,null,,,,,,,,,,,,,,,,,,
2940,,realistic_rating,488143,Duck,,50,Duck,US,2,,,,,,,,,,,,,,,
null,,confidence_buffer,488245,confidence_buffer,,null,,,,,,,,,,,,,,,,,,
1441.5,,pt2_unique_rating,489688,Duck,,50,,,2,,,,,,,,,,,,,,,
null,,confidence_buffer,489789,confidence_buffer,,null,,,,,,,,,,,,,,,,,,
1129.9000000357628,,pt2_memorable_rating,490920,Duck,,50,,,2,,,,,,,,,,,,,,,
null,,confidence_buffer,491022,confidence_buffer,,null,,,,,,,,,,,,,,,,,,
2761,,recognition_phase,493784,Duck,,49,,,,,,old,1,1,,,,,,,,,,
null,,confidence_buffer,493885,confidence_buffer,,null,,,,,,,,,,,,,,,,,,
null,,thebreak,494387,break,,null,,,,,,,,,,,,,,,,,,
4651.5,,realistic_rating,499040,Fairhaven,,52,Fairhaven,Fictional,4,,,,,,,,,,,,,,,
null,,confidence_buffer,499142,confidence_buffer,,null,,,,,,,,,,,,,,,,,,
944.8000000119209,,pt2_unique_rating,500088,Fairhaven,,52,,,4,,,,,,,,,,,,,,,
null,,confidence_buffer,500189,confidence_buffer,,null,,,,,,,,,,,,,,,,,,
1914.1000000238419,,pt2_memorable_rating,502104,Fairhaven,,52,,,4,,,,,,,,,,,,,,,
null,,confidence_buffer,502206,confidence_buffer,,null,,,,,,,,,,,,,,,,,,
2737.199999988079,,recognition_phase,504944,Fairhaven,,49,,,,,,old,1,1,,,,,,,,,,
null,,confidence_buffer,505045,confidence_buffer,,null,,,,,,,,,,,,,,,,,,
null,,thebreak,505547,break,,null,,,,,,,,,,,,,,,,,,
3499.800000011921,,realistic_rating,509048,Highvale,,50,Highvale,Fictional,2,,,,,,,,,,,,,,,
null,,confidence_buffer,509154,confidence_buffer,,null,,,,,,,,,,,,,,,,,,
821.3000000119209,,pt2_unique_rating,509976,Highvale,,50,,,2,,,,,,,,,,,,,,,
null,,confidence_buffer,510084,confidence_buffer,,null,,,,,,,,,,,,,,,,,,
858.5999999642372,,pt2_memorable_rating,510944,Highvale,,50,,,2,,,,,,,,,,,,,,,
null,,confidence_buffer,511045,confidence_buffer,,null,,,,,,,,,,,,,,,,,,
2665.599999964237,,recognition_phase,513711,Highvale,,52,,,,,,new,1,1,,,,,,,,,,
null,,confidence_buffer,513813,confidence_buffer,,null,,,,,,,,,,,,,,,,,,
null,,thebreak,514314,break,,null,,,,,,,,,,,,,,,,,,
2756.399999976158,,realistic_rating,517072,Orchard Bend,,50,Orchard Bend,Fictional,2,,,,,,,,,,,,,,,
null,,confidence_buffer,517173,confidence_buffer,,null,,,,,,,,,,,,,,,,,,
1209.8999999761581,,pt2_unique_rating,518384,Orchard Bend,,50,,,2,,,,,,,,,,,,,,,
null,,confidence_buffer,518485,confidence_buffer,,null,,,,,,,,,,,,,,,,,,
1042,,pt2_memorable_rating,519528,Orchard Bend,,50,,,2,,,,,,,,,,,,,,,
null,,confidence_buffer,519629,confidence_buffer,,null,,,,,,,,,,,,,,,,,,
2466,,recognition_phase,522096,Orchard Bend,,49,,,,,,old,1,1,,,,,,,,,,
null,,confidence_buffer,522198,confidence_buffer,,null,,,,,,,,,,,,,,,,,,
null,,thebreak,522699,break,,null,,,,,,,,,,,,,,,,,,
2955.699999988079,,realistic_rating,525656,Hilo,,49,Hilo,US,1,,,,,,,,,,,,,,,
null,,confidence_buffer,525757,confidence_buffer,,null,,,,,,,,,,,,,,,,,,
905.4000000357628,,pt2_unique_rating,526663,Hilo,,49,,,1,,,,,,,,,,,,,,,
null,,confidence_buffer,526765,confidence_buffer,,null,,,,,,,,,,,,,,,,,,
810,,pt2_memorable_rating,527576,Hilo,,49,,,1,,,,,,,,,,,,,,,
null,,confidence_buffer,527678,confidence_buffer,,null,,,,,,,,,,,,,,,,,,
2480.800000011921,,probe_rating,530160,probe_rating,,52,,,,4,1,,,,,,,,,,,,,
null,,confidence_buffer,530263,confidence_buffer,,null,,,,,,,,,,,,,,,,,,
2008.1000000238419,,recognition_phase,532272,Hilo,,49,,,,,,old,1,1,,,,,,,,,,
null,,confidence_buffer,532373,confidence_buffer,,null,,,,,,,,,,,,,,,,,,
null,,thebreak,532875,break,,null,,,,,,,,,,,,,,,,,,
3124,,realistic_rating,535999,Albuquerque,,53,Albuquerque,US,5,,,,,,,,,,,,,,,
null,,confidence_buffer,536101,confidence_buffer,,null,,,,,,,,,,,,,,,,,,
1162,,pt2_unique_rating,537264,Albuquerque,,53,,,5,,,,,,,,,,,,,,,
null,,confidence_buffer,537365,confidence_buffer,,null,,,,,,,,,,,,,,,,,,
969.3999999761581,,pt2_memorable_rating,538336,Albuquerque,,53,,,5,,,,,,,,,,,,,,,
null,,confidence_buffer,538437,confidence_buffer,,null,,,,,,,,,,,,,,,,,,
3834.099999964237,,recognition_phase,542272,Albuquerque,,52,,,,,,new,1,1,,,,,,,,,,
null,,confidence_buffer,542374,confidence_buffer,,null,,,,,,,,,,,,,,,,,,
null,,thebreak,542875,break,,null,,,,,,,,,,,,,,,,,,
3163.599999964237,,realistic_rating,546040,Newport,,53,Newport,US,5,,,,,,,,,,,,,,,
null,,confidence_buffer,546142,confidence_buffer,,null,,,,,,,,,,,,,,,,,,
929.1999999880791,,pt2_unique_rating,547072,Newport,,53,,,5,,,,,,,,,,,,,,,
null,,confidence_buffer,547174,confidence_buffer,,null,,,,,,,,,,,,,,,,,,
1560.5,,pt2_memorable_rating,548736,Newport,,53,,,5,,,,,,,,,,,,,,,
null,,confidence_buffer,548838,confidence_buffer,,null,,,,,,,,,,,,,,,,,,
2096.800000011921,,recognition_phase,550936,Newport,,49,,,,,,old,1,1,,,,,,,,,,
null,,confidence_buffer,551037,confidence_buffer,,null,,,,,,,,,,,,,,,,,,
null,,thebreak,551539,break,,null,,,,,,,,,,,,,,,,,,
4003.699999988079,,realistic_rating,555544,New Verdan,,50,New Verdan,Fictional,2,,,,,,,,,,,,,,,
null,,confidence_buffer,555645,confidence_buffer,,null,,,,,,,,,,,,,,,,,,
1321.300000011921,,pt2_unique_rating,556968,New Verdan,,50,,,2,,,,,,,,,,,,,,,
null,,confidence_buffer,557069,confidence_buffer,,null,,,,,,,,,,,,,,,,,,
897.3000000119209,,pt2_memorable_rating,557968,New Verdan,,50,,,2,,,,,,,,,,,,,,,
null,,confidence_buffer,558075,confidence_buffer,,null,,,,,,,,,,,,,,,,,,
2524.199999988079,,probe_rating,560600,probe_rating,,49,,,,1,1,,,,,,,,,,,,,
null,,confidence_buffer,560701,confidence_buffer,,null,,,,,,,,,,,,,,,,,,
5737.800000011921,,recognition_phase,566440,New Verdan,,49,,,,,,old,0,0.8888888888888888,,,,,,,,,,
null,,confidence_buffer,566542,confidence_buffer,,null,,,,,,,,,,,,,,,,,,
null,,thebreak,567043,break,,null,,,,,,,,,,,,,,,,,,
4236,,realistic_rating,571280,Willowford,,49,Willowford,Fictional,1,,,,,,,,,,,,,,,
null,,confidence_buffer,571382,confidence_buffer,,null,,,,,,,,,,,,,,,,,,
1680.699999988079,,pt2_unique_rating,573064,Willowford,,49,,,1,,,,,,,,,,,,,,,
null,,confidence_buffer,573165,confidence_buffer,,null,,,,,,,,,,,,,,,,,,
1057.8999999761581,,pt2_memorable_rating,574224,Willowford,,49,,,1,,,,,,,,,,,,,,,
null,,confidence_buffer,574326,confidence_buffer,,null,,,,,,,,,,,,,,,,,,
2536.199999988079,,recognition_phase,576864,Willowford,,52,,,,,,new,0,0.8,,,,,,,,,,
null,,confidence_buffer,576965,confidence_buffer,,null,,,,,,,,,,,,,,,,,,
null,,thebreak,577466,break,,null,,,,,,,,,,,,,,,,,,
1852.2000000476837,,realistic_rating,579319,Shreveport,,50,Shreveport,US,2,,,,,,,,,,,,,,,
null,,confidence_buffer,579421,confidence_buffer,,null,,,,,,,,,,,,,,,,,,
601.6000000238419,,pt2_unique_rating,580024,Shreveport,,50,,,2,,,,,,,,,,,,,,,
null,,confidence_buffer,580125,confidence_buffer,,null,,,,,,,,,,,,,,,,,,
1169.7000000476837,,pt2_memorable_rating,581296,Shreveport,,50,,,2,,,,,,,,,,,,,,,
null,,confidence_buffer,581398,confidence_buffer,,null,,,,,,,,,,,,,,,,,,
2769,,recognition_phase,584168,Shreveport,,50,,,,,,old,1,0.8181818181818182,,,,,,,,,,
null,,confidence_buffer,584269,confidence_buffer,,null,,,,,,,,,,,,,,,,,,
null,,thebreak,584771,break,,null,,,,,,,,,,,,,,,,,,
2651.699999988079,,realistic_rating,587423,Leesburg,,50,Leesburg,US,2,,,,,,,,,,,,,,,
null,,confidence_buffer,587525,confidence_buffer,,null,,,,,,,,,,,,,,,,,,
1314,,pt2_unique_rating,588840,Leesburg,,50,,,2,,,,,,,,,,,,,,,
null,,confidence_buffer,588941,confidence_buffer,,null,,,,,,,,,,,,,,,,,,
794,,pt2_memorable_rating,589736,Leesburg,,50,,,2,,,,,,,,,,,,,,,
null,,confidence_buffer,589837,confidence_buffer,,null,,,,,,,,,,,,,,,,,,
2129.900000035763,,recognition_phase,591968,Leesburg,,52,,,,,,new,1,0.8333333333333334,,,,,,,,,,
null,,confidence_buffer,592069,confidence_buffer,,null,,,,,,,,,,,,,,,,,,
null,,thebreak,592571,break,,null,,,,,,,,,,,,,,,,,,
1956.4000000357628,,realistic_rating,594528,Hollendale,,49,Hollendale,Fictional,1,,,,,,,,,,,,,,,
null,,confidence_buffer,594639,confidence_buffer,,null,,,,,,,,,,,,,,,,,,
920.1000000238419,,pt2_unique_rating,595560,Hollendale,,49,,,1,,,,,,,,,,,,,,,
null,,confidence_buffer,595661,confidence_buffer,,null,,,,,,,,,,,,,,,,,,
705.6999999880791,,pt2_memorable_rating,596368,Hollendale,,49,,,1,,,,,,,,,,,,,,,
null,,confidence_buffer,596470,confidence_buffer,,null,,,,,,,,,,,,,,,,,,
2369.199999988079,,recognition_phase,598840,Hollendale,,52,,,,,,new,1,0.8461538461538461,,,,,,,,,,
null,,confidence_buffer,598941,confidence_buffer,,null,,,,,,,,,,,,,,,,,,
null,,thebreak,599442,break,,null,,,,,,,,,,,,,,,,,,
2420.5,,realistic_rating,601864,Sammamish,,49,Sammamish,US,1,,,,,,,,,,,,,,,
null,,confidence_buffer,601966,confidence_buffer,,null,,,,,,,,,,,,,,,,,,
881.1000000238419,,pt2_unique_rating,602848,Sammamish,,49,,,1,,,,,,,,,,,,,,,
null,,confidence_buffer,602950,confidence_buffer,,null,,,,,,,,,,,,,,,,,,
825.3000000119209,,pt2_memorable_rating,603776,Sammamish,,49,,,1,,,,,,,,,,,,,,,
null,,confidence_buffer,603877,confidence_buffer,,null,,,,,,,,,,,,,,,,,,
1849.7999999523163,,recognition_phase,605728,Sammamish,,49,,,,,,old,1,0.8571428571428571,,,,,,,,,,
null,,confidence_buffer,605829,confidence_buffer,,null,,,,,,,,,,,,,,,,,,
null,,thebreak,606331,break,,null,,,,,,,,,,,,,,,,,,
2428.199999988079,,realistic_rating,608760,Pine Hollow,,49,Pine Hollow,Fictional,1,,,,,,,,,,,,,,,
null,,confidence_buffer,608862,confidence_buffer,,null,,,,,,,,,,,,,,,,,,
1568.8999999761581,,pt2_unique_rating,610431,Pine Hollow,,49,,,1,,,,,,,,,,,,,,,
null,,confidence_buffer,610533,confidence_buffer,,null,,,,,,,,,,,,,,,,,,
922,,pt2_memorable_rating,611456,Pine Hollow,,49,,,1,,,,,,,,,,,,,,,
null,,confidence_buffer,611558,confidence_buffer,,null,,,,,,,,,,,,,,,,,,
1497.5,,recognition_phase,613056,Pine Hollow,,52,,,,,,new,1,0.8666666666666667,,,,,,,,,,
null,,confidence_buffer,613158,confidence_buffer,,null,,,,,,,,,,,,,,,,,,
null,,thebreak,613659,break,,null,,,,,,,,,,,,,,,,,,
2787.800000011921,,realistic_rating,616448,Athens,,53,Athens,US,5,,,,,,,,,,,,,,,
null,,confidence_buffer,616550,confidence_buffer,,null,,,,,,,,,,,,,,,,,,
1033.699999988079,,pt2_unique_rating,617584,Athens,,53,,,5,,,,,,,,,,,,,,,
null,,confidence_buffer,617686,confidence_buffer,,null,,,,,,,,,,,,,,,,,,
1137.0999999642372,,pt2_memorable_rating,618824,Athens,,53,,,5,,,,,,,,,,,,,,,
null,,confidence_buffer,618926,confidence_buffer,,null,,,,,,,,,,,,,,,,,,
3024.5,,recognition_phase,621952,Athens,,49,,,,,,old,1,0.875,,,,,,,,,,
null,,confidence_buffer,622053,confidence_buffer,,null,,,,,,,,,,,,,,,,,,
null,,thebreak,622555,break,,null,,,,,,,,,,,,,,,,,,
2732.300000011921,,realistic_rating,625288,Racine,,53,Racine,US,5,,,,,,,,,,,,,,,
null,,confidence_buffer,625396,confidence_buffer,,null,,,,,,,,,,,,,,,,,,
955.1000000238419,,pt2_unique_rating,626352,Racine,,53,,,5,,,,,,,,,,,,,,,
null,,confidence_buffer,626453,confidence_buffer,,null,,,,,,,,,,,,,,,,,,
785.6000000238419,,pt2_memorable_rating,627240,Racine,,53,,,5,,,,,,,,,,,,,,,
null,,confidence_buffer,627341,confidence_buffer,,null,,,,,,,,,,,,,,,,,,
1481.5,,recognition_phase,628824,Racine,,49,,,,,,old,1,0.8823529411764706,,,,,,,,,,
null,,confidence_buffer,628925,confidence_buffer,,null,,,,,,,,,,,,,,,,,,
null,,thebreak,629427,break,,null,,,,,,,,,,,,,,,,,,
1715.9000000357628,,realistic_rating,631144,Gloucester,,49,Gloucester,US,1,,,,,,,,,,,,,,,
null,,confidence_buffer,631246,confidence_buffer,,null,,,,,,,,,,,,,,,,,,
865.5,,pt2_unique_rating,632112,Gloucester,,49,,,1,,,,,,,,,,,,,,,
null,,confidence_buffer,632214,confidence_buffer,,null,,,,,,,,,,,,,,,,,,
937.1000000238419,,pt2_memorable_rating,633152,Gloucester,,49,,,1,,,,,,,,,,,,,,,
null,,confidence_buffer,633254,confidence_buffer,,null,,,,,,,,,,,,,,,,,,
2241.5,,recognition_phase,635496,Gloucester,,52,,,,,,new,1,0.8888888888888888,,,,,,,,,,
null,,confidence_buffer,635599,confidence_buffer,,null,,,,,,,,,,,,,,,,,,
null,,thebreak,636100,break,,null,,,,,,,,,,,,,,,,,,
4819.400000035763,,realistic_rating,640920,East Ladera,,49,East Ladera,Fictional,1,,,,,,,,,,,,,,,
null,,confidence_buffer,641021,confidence_buffer,,null,,,,,,,,,,,,,,,,,,
945.9000000357628,,pt2_unique_rating,641968,East Ladera,,49,,,1,,,,,,,,,,,,,,,
null,,confidence_buffer,642075,confidence_buffer,,null,,,,,,,,,,,,,,,,,,
748.4000000357628,,pt2_memorable_rating,642824,East Ladera,,49,,,1,,,,,,,,,,,,,,,
null,,confidence_buffer,642926,confidence_buffer,,null,,,,,,,,,,,,,,,,,,
1921.2999999523163,,recognition_phase,644848,East Ladera,,49,,,,,,old,1,0.8947368421052632,,,,,,,,,,
null,,confidence_buffer,644950,confidence_buffer,,null,,,,,,,,,,,,,,,,,,
null,,thebreak,645452,break,,null,,,,,,,,,,,,,,,,,,
1507.5999999642372,,realistic_rating,646960,Natchez,,49,Natchez,US,1,,,,,,,,,,,,,,,
null,,confidence_buffer,647061,confidence_buffer,,null,,,,,,,,,,,,,,,,,,
905.7000000476837,,pt2_unique_rating,647968,Natchez,,49,,,1,,,,,,,,,,,,,,,
null,,confidence_buffer,648077,confidence_buffer,,null,,,,,,,,,,,,,,,,,,
819,,pt2_memorable_rating,648897,Natchez,,49,,,1,,,,,,,,,,,,,,,
null,,confidence_buffer,648999,confidence_buffer,,null,,,,,,,,,,,,,,,,,,
1184.300000011921,,recognition_phase,650184,Natchez,,52,,,,,,new,1,0.9,,,,,,,,,,
null,,confidence_buffer,650285,confidence_buffer,,null,,,,,,,,,,,,,,,,,,
null,,thebreak,650786,break,,null,,,,,,,,,,,,,,,,,,
1317,,realistic_rating,652104,Crestwood,,49,Crestwood,Fictional,1,,,,,,,,,,,,,,,
null,,confidence_buffer,652205,confidence_buffer,,null,,,,,,,,,,,,,,,,,,
1081.6000000238419,,pt2_unique_rating,653288,Crestwood,,49,,,1,,,,,,,,,,,,,,,
null,,confidence_buffer,653403,confidence_buffer,,null,,,,,,,,,,,,,,,,,,
756.3000000119209,,pt2_memorable_rating,654160,Crestwood,,49,,,1,,,,,,,,,,,,,,,
null,,confidence_buffer,654262,confidence_buffer,,null,,,,,,,,,,,,,,,,,,
1249.199999988079,,recognition_phase,655512,Crestwood,,52,,,,,,new,1,0.9047619047619048,,,,,,,,,,
null,,confidence_buffer,655614,confidence_buffer,,null,,,,,,,,,,,,,,,,,,
null,,thebreak,656115,break,,null,,,,,,,,,,,,,,,,,,
2932.099999964237,,realistic_rating,659048,Lake of the Ozarks,,49,Lake of the Ozarks,US,1,,,,,,,,,,,,,,,
null,,confidence_buffer,659150,confidence_buffer,,null,,,,,,,,,,,,,,,,,,
945.5999999642372,,pt2_unique_rating,660096,Lake of the Ozarks,,49,,,1,,,,,,,,,,,,,,,
null,,confidence_buffer,660197,confidence_buffer,,null,,,,,,,,,,,,,,,,,,
2561.5,,probe_rating,662760,probe_rating,,51,,,,3,1,,,,,,,,,,,,,
null,,confidence_buffer,662861,confidence_buffer,,null,,,,,,,,,,,,,,,,,,
2169.899999976158,,pt2_memorable_rating,665032,Lake of the Ozarks,,49,,,1,,,,,,,,,,,,,,,
null,,confidence_buffer,665135,confidence_buffer,,null,,,,,,,,,,,,,,,,,,
2312.2000000476837,,recognition_phase,667448,Lake of the Ozarks,,52,,,,,,new,0,0.8636363636363636,,,,,,,,,,
null,,confidence_buffer,667552,confidence_buffer,,null,,,,,,,,,,,,,,,,,,
null,,thebreak,668053,break,,null,,,,,,,,,,,,,,,,,,
3074.2999999523163,,realistic_rating,671128,Gardnerville,,51,Gardnerville,US,3,,,,,,,,,,,,,,,
null,,confidence_buffer,671230,confidence_buffer,,null,,,,,,,,,,,,,,,,,,
1361.2999999523163,,pt2_unique_rating,672592,Gardnerville,,51,,,3,,,,,,,,,,,,,,,
null,,confidence_buffer,672693,confidence_buffer,,null,,,,,,,,,,,,,,,,,,
754.4000000357628,,pt2_memorable_rating,673448,Gardnerville,,51,,,3,,,,,,,,,,,,,,,
null,,confidence_buffer,673557,confidence_buffer,,null,,,,,,,,,,,,,,,,,,
2577.899999976158,,probe_rating,676136,probe_rating,,52,,,,4,1,,,,,,,,,,,,,
null,,confidence_buffer,676238,confidence_buffer,,null,,,,,,,,,,,,,,,,,,
1697,,recognition_phase,677936,Gardnerville,,49,,,,,,old,1,0.8695652173913043,,,,,,,,,,
null,,confidence_buffer,678038,confidence_buffer,,null,,,,,,,,,,,,,,,,,,
null,,thebreak,678540,break,,null,,,,,,,,,,,,,,,,,,
2451.600000023842,,realistic_rating,680992,Cedarwyn,,49,Cedarwyn,Fictional,1,,,,,,,,,,,,,,,
null,,confidence_buffer,681094,confidence_buffer,,null,,,,,,,,,,,,,,,,,,
793.3999999761581,,pt2_unique_rating,681888,Cedarwyn,,49,,,1,,,,,,,,,,,,,,,
null,,confidence_buffer,681990,confidence_buffer,,null,,,,,,,,,,,,,,,,,,
801.3000000119209,,pt2_memorable_rating,682792,Cedarwyn,,49,,,1,,,,,,,,,,,,,,,
null,,confidence_buffer,682894,confidence_buffer,,null,,,,,,,,,,,,,,,,,,
1217.199999988079,,recognition_phase,684112,Cedarwyn,,49,,,,,,old,1,0.875,,,,,,,,,,
null,,confidence_buffer,684214,confidence_buffer,,null,,,,,,,,,,,,,,,,,,
null,,thebreak,684715,break,,null,,,,,,,,,,,,,,,,,,
2372,,realistic_rating,687088,Rosehollow,,51,Rosehollow,Fictional,3,,,,,,,,,,,,,,,
null,,confidence_buffer,687190,confidence_buffer,,null,,,,,,,,,,,,,,,,,,
848.8000000119209,,pt2_unique_rating,688040,Rosehollow,,51,,,3,,,,,,,,,,,,,,,
null,,confidence_buffer,688142,confidence_buffer,,null,,,,,,,,,,,,,,,,,,
921,,pt2_memorable_rating,689064,Rosehollow,,51,,,3,,,,,,,,,,,,,,,
null,,confidence_buffer,689166,confidence_buffer,,null,,,,,,,,,,,,,,,,,,
1393.3999999761581,,recognition_phase,690560,Rosehollow,,49,,,,,,old,1,0.88,,,,,,,,,,
null,,confidence_buffer,690662,confidence_buffer,,null,,,,,,,,,,,,,,,,,,
null,,thebreak,691163,break,,null,,,,,,,,,,,,,,,,,,
2924.100000023842,,realistic_rating,694088,Carmel,,50,Carmel,US,2,,,,,,,,,,,,,,,
null,,confidence_buffer,694204,confidence_buffer,,null,,,,,,,,,,,,,,,,,,
907.5,,pt2_unique_rating,695112,Carmel,,50,,,2,,,,,,,,,,,,,,,
null,,confidence_buffer,695213,confidence_buffer,,null,,,,,,,,,,,,,,,,,,
873.6000000238419,,pt2_memorable_rating,696088,Carmel,,50,,,2,,,,,,,,,,,,,,,
null,,confidence_buffer,696190,confidence_buffer,,null,,,,,,,,,,,,,,,,,,
993,,recognition_phase,697184,Carmel,,49,,,,,,old,1,0.8846153846153846,,,,,,,,,,
null,,confidence_buffer,697286,confidence_buffer,,null,,,,,,,,,,,,,,,,,,
null,,thebreak,697787,break,,null,,,,,,,,,,,,,,,,,,
2172.199999988079,,realistic_rating,699960,Medora,,49,Medora,US,1,,,,,,,,,,,,,,,
null,,confidence_buffer,700062,confidence_buffer,,null,,,,,,,,,,,,,,,,,,
1193.7999999523163,,pt2_unique_rating,701257,Medora,,49,,,1,,,,,,,,,,,,,,,
null,,confidence_buffer,701365,confidence_buffer,,null,,,,,,,,,,,,,,,,,,
2274.300000011921,,probe_rating,703640,probe_rating,,50,,,,2,1,,,,,,,,,,,,,
null,,confidence_buffer,703742,confidence_buffer,,null,,,,,,,,,,,,,,,,,,
3121.199999988079,,pt2_memorable_rating,706864,Medora,,49,,,1,,,,,,,,,,,,,,,
null,,confidence_buffer,706966,confidence_buffer,,null,,,,,,,,,,,,,,,,,,
1792.800000011921,,recognition_phase,708760,Medora,,52,,,,,,new,1,0.8888888888888888,,,,,,,,,,
null,,confidence_buffer,708862,confidence_buffer,,null,,,,,,,,,,,,,,,,,,
null,,thebreak,709363,break,,null,,,,,,,,,,,,,,,,,,
2956,,realistic_rating,712320,San Antonio,,53,San Antonio,US,5,,,,,,,,,,,,,,,
null,,confidence_buffer,712422,confidence_buffer,,null,,,,,,,,,,,,,,,,,,
1177,,pt2_unique_rating,713600,San Antonio,,53,,,5,,,,,,,,,,,,,,,
null,,confidence_buffer,713702,confidence_buffer,,null,,,,,,,,,,,,,,,,,,
1169.5999999642372,,pt2_memorable_rating,714872,San Antonio,,53,,,5,,,,,,,,,,,,,,,
null,,confidence_buffer,714974,confidence_buffer,,null,,,,,,,,,,,,,,,,,,
2569.399999976158,,recognition_phase,717544,San Antonio,,52,,,,,,new,1,0.8928571428571429,,,,,,,,,,
null,,confidence_buffer,717645,confidence_buffer,,null,,,,,,,,,,,,,,,,,,
null,,thebreak,718155,break,,null,,,,,,,,,,,,,,,,,,
3892.600000023842,,realistic_rating,722048,Bowling Green,,50,Bowling Green,US,2,,,,,,,,,,,,,,,
null,,confidence_buffer,722149,confidence_buffer,,null,,,,,,,,,,,,,,,,,,
737.6000000238419,,pt2_unique_rating,722888,Bowling Green,,50,,,2,,,,,,,,,,,,,,,
null,,confidence_buffer,722990,confidence_buffer,,null,,,,,,,,,,,,,,,,,,
753.0999999642372,,pt2_memorable_rating,723744,Bowling Green,,50,,,2,,,,,,,,,,,,,,,
null,,confidence_buffer,723845,confidence_buffer,,null,,,,,,,,,,,,,,,,,,
2033.800000011921,,recognition_phase,725880,Bowling Green,,52,,,,,,new,1,0.896551724137931,,,,,,,,,,
null,,confidence_buffer,725981,confidence_buffer,,null,,,,,,,,,,,,,,,,,,
null,,thebreak,726483,break,,null,,,,,,,,,,,,,,,,,,
2868.600000023842,,realistic_rating,729352,Ashford Hills,,50,Ashford Hills,Fictional,2,,,,,,,,,,,,,,,
null,,confidence_buffer,729454,confidence_buffer,,null,,,,,,,,,,,,,,,,,,
841.1999999880791,,pt2_unique_rating,730296,Ashford Hills,,50,,,2,,,,,,,,,,,,,,,
null,,confidence_buffer,730398,confidence_buffer,,null,,,,,,,,,,,,,,,,,,
688.9000000357628,,pt2_memorable_rating,731088,Ashford Hills,,50,,,2,,,,,,,,,,,,,,,
null,,confidence_buffer,731193,confidence_buffer,,null,,,,,,,,,,,,,,,,,,
1734.5,,recognition_phase,732928,Ashford Hills,,52,,,,,,new,1,0.9,,,,,,,,,,
null,,confidence_buffer,733031,confidence_buffer,,null,,,,,,,,,,,,,,,,,,
null,,thebreak,733532,break,,null,,,,,,,,,,,,,,,,,,
2570.800000011921,,realistic_rating,736104,Driftwood Bay,,50,Driftwood Bay,Fictional,2,,,,,,,,,,,,,,,
null,,confidence_buffer,736206,confidence_buffer,,null,,,,,,,,,,,,,,,,,,
832.8999999761581,,pt2_unique_rating,737040,Driftwood Bay,,50,,,2,,,,,,,,,,,,,,,
null,,confidence_buffer,737141,confidence_buffer,,null,,,,,,,,,,,,,,,,,,
818.1000000238419,,pt2_memorable_rating,737960,Driftwood Bay,,50,,,2,,,,,,,,,,,,,,,
null,,confidence_buffer,738062,confidence_buffer,,null,,,,,,,,,,,,,,,,,,
1697.5999999642372,,recognition_phase,739760,Driftwood Bay,,52,,,,,,new,1,0.9032258064516129,,,,,,,,,,
null,,confidence_buffer,739861,confidence_buffer,,null,,,,,,,,,,,,,,,,,,
null,,thebreak,740362,break,,null,,,,,,,,,,,,,,,,,,
2084.699999988079,,realistic_rating,742448,Oakridge,,50,Oakridge,Fictional,2,,,,,,,,,,,,,,,
null,,confidence_buffer,742549,confidence_buffer,,null,,,,,,,,,,,,,,,,,,
986,,pt2_unique_rating,743536,Oakridge,,50,,,2,,,,,,,,,,,,,,,
null,,confidence_buffer,743638,confidence_buffer,,null,,,,,,,,,,,,,,,,,,
825.0999999642372,,pt2_memorable_rating,744464,Oakridge,,50,,,2,,,,,,,,,,,,,,,
null,,confidence_buffer,744566,confidence_buffer,,null,,,,,,,,,,,,,,,,,,
969.5,,recognition_phase,745536,Oakridge,,52,,,,,,new,0,0.875,,,,,,,,,,
null,,confidence_buffer,745637,confidence_buffer,,null,,,,,,,,,,,,,,,,,,
null,,thebreak,746139,break,,null,,,,,,,,,,,,,,,,,,
2316.800000011921,,realistic_rating,748456,Cleveland,,53,Cleveland,US,5,,,,,,,,,,,,,,,
null,,confidence_buffer,748558,confidence_buffer,,null,,,,,,,,,,,,,,,,,,
976.5999999642372,,pt2_unique_rating,749536,Cleveland,,53,,,5,,,,,,,,,,,,,,,
null,,confidence_buffer,749637,confidence_buffer,,null,,,,,,,,,,,,,,,,,,
1017.7999999523163,,pt2_memorable_rating,750656,Cleveland,,53,,,5,,,,,,,,,,,,,,,
null,,confidence_buffer,750758,confidence_buffer,,null,,,,,,,,,,,,,,,,,,
2664.699999988079,,recognition_phase,753424,Cleveland,,52,,,,,,new,1,0.8787878787878788,,,,,,,,,,
null,,confidence_buffer,753526,confidence_buffer,,null,,,,,,,,,,,,,,,,,,
null,,thebreak,754028,break,,null,,,,,,,,,,,,,,,,,,
2459.400000035763,,realistic_rating,756488,Sunmere,,49,Sunmere,Fictional,1,,,,,,,,,,,,,,,
null,,confidence_buffer,756598,confidence_buffer,,null,,,,,,,,,,,,,,,,,,
761.6000000238419,,pt2_unique_rating,757360,Sunmere,,49,,,1,,,,,,,,,,,,,,,
null,,confidence_buffer,757461,confidence_buffer,,null,,,,,,,,,,,,,,,,,,
874,,pt2_memorable_rating,758336,Sunmere,,49,,,1,,,,,,,,,,,,,,,
null,,confidence_buffer,758437,confidence_buffer,,null,,,,,,,,,,,,,,,,,,
1713.800000011921,,recognition_phase,760152,Sunmere,,49,,,,,,old,1,0.8823529411764706,,,,,,,,,,
null,,confidence_buffer,760254,confidence_buffer,,null,,,,,,,,,,,,,,,,,,
null,,thebreak,760756,break,,null,,,,,,,,,,,,,,,,,,
1883.8999999761581,,realistic_rating,762640,Cody,,49,Cody,US,1,,,,,,,,,,,,,,,
null,,confidence_buffer,762743,confidence_buffer,,null,,,,,,,,,,,,,,,,,,
887.8000000119209,,pt2_unique_rating,763632,Cody,,49,,,1,,,,,,,,,,,,,,,
null,,confidence_buffer,763733,confidence_buffer,,null,,,,,,,,,,,,,,,,,,
737.6999999880791,,pt2_memorable_rating,764472,Cody,,49,,,1,,,,,,,,,,,,,,,
null,,confidence_buffer,764573,confidence_buffer,,null,,,,,,,,,,,,,,,,,,
1354.2999999523163,,recognition_phase,765928,Cody,,52,,,,,,new,1,0.8857142857142857,,,,,,,,,,
null,,confidence_buffer,766029,confidence_buffer,,null,,,,,,,,,,,,,,,,,,
null,,thebreak,766530,break,,null,,,,,,,,,,,,,,,,,,
2068.899999976158,,realistic_rating,768600,Orr,,49,Orr,US,1,,,,,,,,,,,,,,,
null,,confidence_buffer,768702,confidence_buffer,,null,,,,,,,,,,,,,,,,,,
1009.4000000357628,,pt2_unique_rating,769712,Orr,,49,,,1,,,,,,,,,,,,,,,
null,,confidence_buffer,769814,confidence_buffer,,null,,,,,,,,,,,,,,,,,,
1009.6000000238419,,pt2_memorable_rating,770824,Orr,,49,,,1,,,,,,,,,,,,,,,
null,,confidence_buffer,770926,confidence_buffer,,null,,,,,,,,,,,,,,,,,,
3001.199999988079,,recognition_phase,773928,Orr,,52,,,,,,new,1,0.8888888888888888,,,,,,,,,,
null,,confidence_buffer,774030,confidence_buffer,,null,,,,,,,,,,,,,,,,,,
null,,thebreak,774532,break,,null,,,,,,,,,,,,,,,,,,
3258.899999976158,,realistic_rating,777792,Assateague Island,,50,Assateague Island,US,2,,,,,,,,,,,,,,,
null,,confidence_buffer,777894,confidence_buffer,,null,,,,,,,,,,,,,,,,,,
713.5999999642372,,pt2_unique_rating,778608,Assateague Island,,50,,,2,,,,,,,,,,,,,,,
null,,confidence_buffer,778720,confidence_buffer,,null,,,,,,,,,,,,,,,,,,
934.6999999880791,,pt2_memorable_rating,779656,Assateague Island,,50,,,2,,,,,,,,,,,,,,,
null,,confidence_buffer,779758,confidence_buffer,,null,,,,,,,,,,,,,,,,,,
1361.300000011921,,recognition_phase,781120,Assateague Island,,52,,,,,,new,1,0.8918918918918919,,,,,,,,,,
null,,confidence_buffer,781221,confidence_buffer,,null,,,,,,,,,,,,,,,,,,
null,,thebreak,781723,break,,null,,,,,,,,,,,,,,,,,,
2516.599999964237,,realistic_rating,784240,Bayshore Haven,,50,Bayshore Haven,Fictional,2,,,,,,,,,,,,,,,
null,,confidence_buffer,784342,confidence_buffer,,null,,,,,,,,,,,,,,,,,,
888.8999999761581,,pt2_unique_rating,785232,Bayshore Haven,,50,,,2,,,,,,,,,,,,,,,
null,,confidence_buffer,785334,confidence_buffer,,null,,,,,,,,,,,,,,,,,,
769.5999999642372,,pt2_memorable_rating,786104,Bayshore Haven,,50,,,2,,,,,,,,,,,,,,,
null,,confidence_buffer,786206,confidence_buffer,,null,,,,,,,,,,,,,,,,,,
1729.4000000357628,,recognition_phase,787936,Bayshore Haven,,52,,,,,,new,1,0.8947368421052632,,,,,,,,,,
null,,confidence_buffer,788037,confidence_buffer,,null,,,,,,,,,,,,,,,,,,
null,,thebreak,788540,break,,null,,,,,,,,,,,,,,,,,,
3307.399999976158,,realistic_rating,791848,Maravilla Springs,,50,Maravilla Springs,Fictional,2,,,,,,,,,,,,,,,
null,,confidence_buffer,791950,confidence_buffer,,null,,,,,,,,,,,,,,,,,,
1137.5,,pt2_unique_rating,793088,Maravilla Springs,,50,,,2,,,,,,,,,,,,,,,
null,,confidence_buffer,793190,confidence_buffer,,null,,,,,,,,,,,,,,,,,,
937,,pt2_memorable_rating,794128,Maravilla Springs,,50,,,2,,,,,,,,,,,,,,,
null,,confidence_buffer,794230,confidence_buffer,,null,,,,,,,,,,,,,,,,,,
2851,,recognition_phase,797082,Maravilla Springs,,52,,,,,,new,1,0.8974358974358975,,,,,,,,,,
null,,confidence_buffer,797184,confidence_buffer,,null,,,,,,,,,,,,,,,,,,
null,,thebreak,797686,break,,null,,,,,,,,,,,,,,,,,,
7137.699999988079,,realistic_rating,804824,Montelake,,52,Montelake,Fictional,4,,,,,,,,,,,,,,,
null,,confidence_buffer,804926,confidence_buffer,,null,,,,,,,,,,,,,,,,,,
673.1000000238419,,pt2_unique_rating,805600,Montelake,,52,,,4,,,,,,,,,,,,,,,
null,,confidence_buffer,805702,confidence_buffer,,null,,,,,,,,,,,,,,,,,,
2321.699999988079,,pt2_memorable_rating,808024,Montelake,,52,,,4,,,,,,,,,,,,,,,
null,,confidence_buffer,808126,confidence_buffer,,null,,,,,,,,,,,,,,,,,,
1857.199999988079,,recognition_phase,809984,Montelake,,52,,,,,,new,1,0.9,,,,,,,,,,
null,,confidence_buffer,810087,confidence_buffer,,null,,,,,,,,,,,,,,,,,,
null,,thebreak,810588,break,,null,,,,,,,,,,,,,,,,,,
3307.199999988079,,realistic_rating,813896,Sierra Hollow,,50,Sierra Hollow,Fictional,2,,,,,,,,,,,,,,,
null,,confidence_buffer,813998,confidence_buffer,,null,,,,,,,,,,,,,,,,,,
2121,,probe_rating,816120,probe_rating,,52,,,,4,1,,,,,,,,,,,,,
null,,confidence_buffer,816222,confidence_buffer,,null,,,,,,,,,,,,,,,,,,
1457.699999988079,,pt2_unique_rating,817680,Sierra Hollow,,50,,,2,,,,,,,,,,,,,,,
null,,confidence_buffer,817782,confidence_buffer,,null,,,,,,,,,,,,,,,,,,
1241,,pt2_memorable_rating,819024,Sierra Hollow,,50,,,2,,,,,,,,,,,,,,,
null,,confidence_buffer,819125,confidence_buffer,,null,,,,,,,,,,,,,,,,,,
1281.9000000357628,,recognition_phase,820408,Sierra Hollow,,49,,,,,,old,0,0.8780487804878049,,,,,,,,,,
null,,confidence_buffer,820511,confidence_buffer,,null,,,,,,,,,,,,,,,,,,
null,,thebreak,821013,break,,null,,,,,,,,,,,,,,,,,,
6106.199999988079,,realistic_rating,827120,Delaware City,,53,Delaware City,US,5,,,,,,,,,,,,,,,
null,,confidence_buffer,827222,confidence_buffer,,null,,,,,,,,,,,,,,,,,,
760.8000000119209,,pt2_unique_rating,827984,Delaware City,,53,,,5,,,,,,,,,,,,,,,
null,,confidence_buffer,828085,confidence_buffer,,null,,,,,,,,,,,,,,,,,,
562.3000000119209,,pt2_memorable_rating,828648,Delaware City,,53,,,5,,,,,,,,,,,,,,,
null,,confidence_buffer,828750,confidence_buffer,,null,,,,,,,,,,,,,,,,,,
2784.800000011921,,recognition_phase,831536,Delaware City,,52,,,,,,new,0,0.8571428571428571,,,,,,,,,,
null,,confidence_buffer,831637,confidence_buffer,,null,,,,,,,,,,,,,,,,,,
null,,thebreak,832139,break,,null,,,,,,,,,,,,,,,,,,
2116.599999964237,,realistic_rating,834256,Granton Ridge,,50,Granton Ridge,Fictional,2,,,,,,,,,,,,,,,
null,,confidence_buffer,834358,confidence_buffer,,null,,,,,,,,,,,,,,,,,,
713.1999999880791,,pt2_unique_rating,835072,Granton Ridge,,50,,,2,,,,,,,,,,,,,,,
null,,confidence_buffer,835174,confidence_buffer,,null,,,,,,,,,,,,,,,,,,
1449.300000011921,,pt2_memorable_rating,836624,Granton Ridge,,50,,,2,,,,,,,,,,,,,,,
null,,confidence_buffer,836726,confidence_buffer,,null,,,,,,,,,,,,,,,,,,
1033.300000011921,,recognition_phase,837760,Granton Ridge,,50,,,,,,old,0,0.8372093023255814,,,,,,,,,,
null,,confidence_buffer,837862,confidence_buffer,,null,,,,,,,,,,,,,,,,,,
null,,thebreak,838363,break,,null,,,,,,,,,,,,,,,,,,
5716.299999952316,,realistic_rating,844080,Lakehaven,,51,Lakehaven,Fictional,3,,,,,,,,,,,,,,,
null,,confidence_buffer,844182,confidence_buffer,,null,,,,,,,,,,,,,,,,,,
784.6999999880791,,pt2_unique_rating,844968,Lakehaven,,51,,,3,,,,,,,,,,,,,,,
null,,confidence_buffer,845070,confidence_buffer,,null,,,,,,,,,,,,,,,,,,
553.7000000476837,,pt2_memorable_rating,845624,Lakehaven,,51,,,3,,,,,,,,,,,,,,,
null,,confidence_buffer,845726,confidence_buffer,,null,,,,,,,,,,,,,,,,,,
1865.2999999523163,,recognition_phase,847592,Lakehaven,,49,,,,,,old,0,0.8181818181818182,,,,,,,,,,
null,,confidence_buffer,847695,confidence_buffer,,null,,,,,,,,,,,,,,,,,,
null,,thebreak,848199,break,,null,,,,,,,,,,,,,,,,,,
2696.199999988079,,realistic_rating,850896,Ironwood Heights,,50,Ironwood Heights,Fictional,2,,,,,,,,,,,,,,,
null,,confidence_buffer,850998,confidence_buffer,,null,,,,,,,,,,,,,,,,,,
865.1000000238419,,pt2_unique_rating,851864,Ironwood Heights,,50,,,2,,,,,,,,,,,,,,,
null,,confidence_buffer,851966,confidence_buffer,,null,,,,,,,,,,,,,,,,,,
929.3999999761581,,pt2_memorable_rating,852896,Ironwood Heights,,50,,,2,,,,,,,,,,,,,,,
null,,confidence_buffer,852998,confidence_buffer,,null,,,,,,,,,,,,,,,,,,
1657.1000000238419,,recognition_phase,854656,Ironwood Heights,,52,,,,,,new,0,0.8,,,,,,,,,,
null,,confidence_buffer,854758,confidence_buffer,,null,,,,,,,,,,,,,,,,,,
null,,thebreak,855260,break,,null,,,,,,,,,,,,,,,,,,
3211.400000035763,,realistic_rating,858472,Bisbee,,49,Bisbee,US,1,,,,,,,,,,,,,,,
null,,confidence_buffer,858574,confidence_buffer,,null,,,,,,,,,,,,,,,,,,
785.5999999642372,,pt2_unique_rating,859360,Bisbee,,49,,,1,,,,,,,,,,,,,,,
null,,confidence_buffer,859462,confidence_buffer,,null,,,,,,,,,,,,,,,,,,
617.1999999880791,,pt2_memorable_rating,860080,Bisbee,,49,,,1,,,,,,,,,,,,,,,
null,,confidence_buffer,860182,confidence_buffer,,null,,,,,,,,,,,,,,,,,,
1121.300000011921,,recognition_phase,861304,Bisbee,,52,,,,,,new,1,0.8043478260869565,,,,,,,,,,
null,,confidence_buffer,861405,confidence_buffer,,null,,,,,,,,,,,,,,,,,,
null,,thebreak,861906,break,,null,,,,,,,,,,,,,,,,,,
2333.100000023842,,realistic_rating,864240,West Talora,,50,West Talora,Fictional,2,,,,,,,,,,,,,,,
null,,confidence_buffer,864342,confidence_buffer,,null,,,,,,,,,,,,,,,,,,
1385.199999988079,,pt2_unique_rating,865728,West Talora,,50,,,2,,,,,,,,,,,,,,,
null,,confidence_buffer,865830,confidence_buffer,,null,,,,,,,,,,,,,,,,,,
920.6999999880791,,pt2_memorable_rating,866752,West Talora,,50,,,2,,,,,,,,,,,,,,,
null,,confidence_buffer,866854,confidence_buffer,,null,,,,,,,,,,,,,,,,,,
2329.600000023842,,recognition_phase,869184,West Talora,,49,,,,,,old,1,0.8085106382978723,,,,,,,,,,
null,,confidence_buffer,869286,confidence_buffer,,null,,,,,,,,,,,,,,,,,,
null,,thebreak,869787,break,,null,,,,,,,,,,,,,,,,,,
1875.5,,realistic_rating,871664,Yukon,,49,Yukon,US,1,,,,,,,,,,,,,,,
null,,confidence_buffer,871765,confidence_buffer,,null,,,,,,,,,,,,,,,,,,
1657.6000000238419,,pt2_unique_rating,873424,Yukon,,49,,,1,,,,,,,,,,,,,,,
null,,confidence_buffer,873525,confidence_buffer,,null,,,,,,,,,,,,,,,,,,
1482,,pt2_memorable_rating,875008,Yukon,,49,,,1,,,,,,,,,,,,,,,
null,,confidence_buffer,875111,confidence_buffer,,null,,,,,,,,,,,,,,,,,,
2071.800000011921,,recognition_phase,877184,Yukon,,49,,,,,,old,1,0.8125,,,,,,,,,,
null,,confidence_buffer,877285,confidence_buffer,,null,,,,,,,,,,,,,,,,,,
null,,thebreak,877787,break,,null,,,,,,,,,,,,,,,,,,
2884,,realistic_rating,880672,Healdsburg,,52,Healdsburg,US,4,,,,,,,,,,,,,,,
null,,confidence_buffer,880773,confidence_buffer,,null,,,,,,,,,,,,,,,,,,
2498,,probe_rating,883272,probe_rating,,49,,,,1,1,,,,,,,,,,,,,
null,,confidence_buffer,883374,confidence_buffer,,null,,,,,,,,,,,,,,,,,,
2162,,pt2_unique_rating,885537,Healdsburg,,52,,,4,,,,,,,,,,,,,,,
null,,confidence_buffer,885639,confidence_buffer,,null,,,,,,,,,,,,,,,,,,
1912.9000000357628,,pt2_memorable_rating,887552,Healdsburg,,52,,,4,,,,,,,,,,,,,,,
null,,confidence_buffer,887654,confidence_buffer,,null,,,,,,,,,,,,,,,,,,
2337,,recognition_phase,889992,Healdsburg,,49,,,,,,old,1,0.8163265306122449,,,,,,,,,,
null,,confidence_buffer,890093,confidence_buffer,,null,,,,,,,,,,,,,,,,,,
null,,thebreak,890595,break,,null,,,,,,,,,,,,,,,,,,
2069.199999988079,,realistic_rating,892665,Okoboji,,49,Okoboji,US,1,,,,,,,,,,,,,,,
null,,confidence_buffer,892767,confidence_buffer,,null,,,,,,,,,,,,,,,,,,
920.3999999761581,,pt2_unique_rating,893688,Okoboji,,49,,,1,,,,,,,,,,,,,,,
null,,confidence_buffer,893792,confidence_buffer,,null,,,,,,,,,,,,,,,,,,
951.4000000357628,,pt2_memorable_rating,894744,Okoboji,,49,,,1,,,,,,,,,,,,,,,
null,,confidence_buffer,894846,confidence_buffer,,null,,,,,,,,,,,,,,,,,,
1761.699999988079,,recognition_phase,896608,Okoboji,,49,,,,,,old,1,0.82,,,,,,,,,,
null,,confidence_buffer,896709,confidence_buffer,,null,,,,,,,,,,,,,,,,,,
null,,thebreak,897211,break,,null,,,,,,,,,,,,,,,,,,
2188.600000023842,,realistic_rating,899400,Tamarisk Hills,,50,Tamarisk Hills,Fictional,2,,,,,,,,,,,,,,,
null,,confidence_buffer,899501,confidence_buffer,,null,,,,,,,,,,,,,,,,,,
769.8999999761581,,pt2_unique_rating,900272,Tamarisk Hills,,50,,,2,,,,,,,,,,,,,,,
null,,confidence_buffer,900374,confidence_buffer,,null,,,,,,,,,,,,,,,,,,
617.5,,pt2_memorable_rating,900992,Tamarisk Hills,,50,,,2,,,,,,,,,,,,,,,
null,,confidence_buffer,901094,confidence_buffer,,null,,,,,,,,,,,,,,,,,,
689.6000000238419,,recognition_phase,901784,Tamarisk Hills,,49,,,,,,old,1,0.8235294117647058,,,,,,,,,,
null,,confidence_buffer,901886,confidence_buffer,,null,,,,,,,,,,,,,,,,,,
null,,thebreak,902388,break,,null,,,,,,,,,,,,,,,,,,
4259.600000023842,,realistic_rating,906648,Linden Trace,,52,Linden Trace,Fictional,4,,,,,,,,,,,,,,,
null,,confidence_buffer,906749,confidence_buffer,,null,,,,,,,,,,,,,,,,,,
897.7999999523163,,pt2_unique_rating,907648,Linden Trace,,52,,,4,,,,,,,,,,,,,,,
null,,confidence_buffer,907749,confidence_buffer,,null,,,,,,,,,,,,,,,,,,
857.9000000357628,,pt2_memorable_rating,908608,Linden Trace,,52,,,4,,,,,,,,,,,,,,,
null,,confidence_buffer,908713,confidence_buffer,,null,,,,,,,,,,,,,,,,,,
830.5,,recognition_phase,909544,Linden Trace,,49,,,,,,old,1,0.8269230769230769,,,,,,,,,,
null,,confidence_buffer,909647,confidence_buffer,,null,,,,,,,,,,,,,,,,,,
null,,thebreak,910148,break,,null,,,,,,,,,,,,,,,,,,
3243.300000011921,,realistic_rating,913392,Riverlyn,,49,Riverlyn,Fictional,1,,,,,,,,,,,,,,,
null,,confidence_buffer,913494,confidence_buffer,,null,,,,,,,,,,,,,,,,,,
736.8000000119209,,pt2_unique_rating,914232,Riverlyn,,49,,,1,,,,,,,,,,,,,,,
null,,confidence_buffer,914334,confidence_buffer,,null,,,,,,,,,,,,,,,,,,
873,,pt2_memorable_rating,915208,Riverlyn,,49,,,1,,,,,,,,,,,,,,,
null,,confidence_buffer,915309,confidence_buffer,,null,,,,,,,,,,,,,,,,,,
1242.0999999642372,,recognition_phase,916553,Riverlyn,,52,,,,,,new,0,0.8113207547169812,,,,,,,,,,
null,,confidence_buffer,916655,confidence_buffer,,null,,,,,,,,,,,,,,,,,,
null,,thebreak,917156,break,,null,,,,,,,,,,,,,,,,,,
1579.3999999761581,,realistic_rating,918736,Peoria,,49,Peoria,US,1,,,,,,,,,,,,,,,
null,,confidence_buffer,918838,confidence_buffer,,null,,,,,,,,,,,,,,,,,,
2337.699999988079,,probe_rating,921176,probe_rating,,50,,,,2,1,,,,,,,,,,,,,
null,,confidence_buffer,921279,confidence_buffer,,null,,,,,,,,,,,,,,,,,,
2600.699999988079,,pt2_unique_rating,923880,Peoria,,50,,,2,,,,,,,,,,,,,,,
null,,confidence_buffer,923982,confidence_buffer,,null,,,,,,,,,,,,,,,,,,
1225.300000011921,,pt2_memorable_rating,925208,Peoria,,50,,,2,,,,,,,,,,,,,,,
null,,confidence_buffer,925316,confidence_buffer,,null,,,,,,,,,,,,,,,,,,
1947.3999999761581,,recognition_phase,927264,Peoria,,52,,,,,,new,1,0.8148148148148148,,,,,,,,,,
null,,confidence_buffer,927366,confidence_buffer,,null,,,,,,,,,,,,,,,,,,
null,,thebreak,927867,break,,null,,,,,,,,,,,,,,,,,,
2268.199999988079,,realistic_rating,930136,Westridge,,50,Westridge,Fictional,2,,,,,,,,,,,,,,,
null,,confidence_buffer,930238,confidence_buffer,,null,,,,,,,,,,,,,,,,,,
800.4000000357628,,pt2_unique_rating,931040,Westridge,,50,,,2,,,,,,,,,,,,,,,
null,,confidence_buffer,931142,confidence_buffer,,null,,,,,,,,,,,,,,,,,,
1001.3000000119209,,pt2_memorable_rating,932144,Westridge,,50,,,2,,,,,,,,,,,,,,,
null,,confidence_buffer,932248,confidence_buffer,,null,,,,,,,,,,,,,,,,,,
1895.5,,recognition_phase,934144,Westridge,,52,,,,,,new,0,0.8,,,,,,,,,,
null,,confidence_buffer,934246,confidence_buffer,,null,,,,,,,,,,,,,,,,,,
null,,thebreak,934752,break,,null,,,,,,,,,,,,,,,,,,
3990.899999976158,,realistic_rating,938744,Baymarsh,,49,Baymarsh,Fictional,1,,,,,,,,,,,,,,,
null,,confidence_buffer,938847,confidence_buffer,,null,,,,,,,,,,,,,,,,,,
752.8000000119209,,pt2_unique_rating,939600,Baymarsh,,49,,,1,,,,,,,,,,,,,,,
null,,confidence_buffer,939701,confidence_buffer,,null,,,,,,,,,,,,,,,,,,
698.1000000238419,,pt2_memorable_rating,940400,Baymarsh,,49,,,1,,,,,,,,,,,,,,,
null,,confidence_buffer,940502,confidence_buffer,,null,,,,,,,,,,,,,,,,,,
2553.699999988079,,probe_rating,943056,probe_rating,,53,,,,5,1,,,,,,,,,,,,,
null,,confidence_buffer,943158,confidence_buffer,,null,,,,,,,,,,,,,,,,,,
3281,,recognition_phase,946440,Baymarsh,,52,,,,,,new,1,0.8035714285714286,,,,,,,,,,
null,,confidence_buffer,946542,confidence_buffer,,null,,,,,,,,,,,,,,,,,,
null,,thebreak,947043,break,,null,,,,,,,,,,,,,,,,,,
3180.399999976158,,realistic_rating,950224,Huntsville,,52,Huntsville,US,4,,,,,,,,,,,,,,,
null,,confidence_buffer,950326,confidence_buffer,,null,,,,,,,,,,,,,,,,,,
824.7999999523163,,pt2_unique_rating,951152,Huntsville,,52,,,4,,,,,,,,,,,,,,,
null,,confidence_buffer,951254,confidence_buffer,,null,,,,,,,,,,,,,,,,,,
745.1999999880791,,pt2_memorable_rating,952000,Huntsville,,52,,,4,,,,,,,,,,,,,,,
null,,confidence_buffer,952102,confidence_buffer,,null,,,,,,,,,,,,,,,,,,
1617.800000011921,,recognition_phase,953720,Huntsville,,49,,,,,,old,1,0.8070175438596491,,,,,,,,,,
null,,confidence_buffer,953822,confidence_buffer,,null,,,,,,,,,,,,,,,,,,
null,,thebreak,954323,break,,null,,,,,,,,,,,,,,,,,,
4291.799999952316,,realistic_rating,958616,Coeur d'Alene,,49,Coeur d'Alene,US,1,,,,,,,,,,,,,,,
null,,confidence_buffer,958718,confidence_buffer,,null,,,,,,,,,,,,,,,,,,
1057.300000011921,,pt2_unique_rating,959776,Coeur d'Alene,,49,,,1,,,,,,,,,,,,,,,
null,,confidence_buffer,959878,confidence_buffer,,null,,,,,,,,,,,,,,,,,,
778.1000000238419,,pt2_memorable_rating,960657,Coeur d'Alene,,49,,,1,,,,,,,,,,,,,,,
null,,confidence_buffer,960758,confidence_buffer,,null,,,,,,,,,,,,,,,,,,
2497.2999999523163,,recognition_phase,963256,Coeur d'Alene,,52,,,,,,new,1,0.8103448275862069,,,,,,,,,,
null,,confidence_buffer,963357,confidence_buffer,,null,,,,,,,,,,,,,,,,,,
null,,thebreak,963859,break,,null,,,,,,,,,,,,,,,,,,
2628.400000035763,,realistic_rating,966488,Claywater,,53,Claywater,Fictional,5,,,,,,,,,,,,,,,
null,,confidence_buffer,966590,confidence_buffer,,null,,,,,,,,,,,,,,,,,,
2065.399999976158,,probe_rating,968656,probe_rating,,51,,,,3,1,,,,,,,,,,,,,
null,,confidence_buffer,968759,confidence_buffer,,null,,,,,,,,,,,,,,,,,,
3784,,pt2_unique_rating,972544,Claywater,,53,,,5,,,,,,,,,,,,,,,
null,,confidence_buffer,972647,confidence_buffer,,null,,,,,,,,,,,,,,,,,,
1080.6000000238419,,pt2_memorable_rating,973729,Claywater,,53,,,5,,,,,,,,,,,,,,,
null,,confidence_buffer,973831,confidence_buffer,,null,,,,,,,,,,,,,,,,,,
1672.5999999642372,,recognition_phase,975504,Claywater,,49,,,,,,old,1,0.8135593220338984,,,,,,,,,,
null,,confidence_buffer,975606,confidence_buffer,,null,,,,,,,,,,,,,,,,,,
null,,thebreak,976107,break,,null,,,,,,,,,,,,,,,,,,
2372.300000011921,,realistic_rating,978480,Hanover,,50,Hanover,US,2,,,,,,,,,,,,,,,
null,,confidence_buffer,978582,confidence_buffer,,null,,,,,,,,,,,,,,,,,,
865.6000000238419,,pt2_unique_rating,979448,Hanover,,50,,,2,,,,,,,,,,,,,,,
null,,confidence_buffer,979562,confidence_buffer,,null,,,,,,,,,,,,,,,,,,
813.7000000476837,,pt2_memorable_rating,980376,Hanover,,50,,,2,,,,,,,,,,,,,,,
null,,confidence_buffer,980479,confidence_buffer,,null,,,,,,,,,,,,,,,,,,
2697,,recognition_phase,983176,Hanover,,52,,,,,,new,1,0.8166666666666667,,,,,,,,,,
null,,confidence_buffer,983278,confidence_buffer,,null,,,,,,,,,,,,,,,,,,
null,,thebreak,983780,break,,null,,,,,,,,,,,,,,,,,,
,,survey,1104570,survey-questions,,,,,,,,,,,none,0,good study,none,none,none,none,none,no,no
