rt,responses,trial_type,time_elapsed,stimulus,button_pressed,key_press,name_trial,city_type,rating,probe,probe_accuracy,response,correct,accuracy,problems,smooth,distraction,strategies,familiar,memorable,unique,realistic,similar,comments
3501.5,{worker_id:6766ddcb03bbfa66fafb36a8},id_enter,3504,,,,,,,,,,,,,,,,,,,,,
9569.800000071526,,fullscreen,13087,fullscreen,0,,,,,,,,,,,,,,,,,,,
11173.399999976158,,intro_0,24265,instruct,,32,,,,,,,,,,,,,,,,,,
8640.200000047684,,intro_1,32917,instruct,,32,,,,,,,,,,,,,,,,,,
7707.100000023842,,intro_2,40626,instruct,,32,,,,,,,,,,,,,,,,,,
null,,instruct_dir_4,42128,instruct,,null,,,,,,,,,,,,,,,,,,
null,,thebreak,42630,break,,null,,,,,,,,,,,,,,,,,,
7006.299999952316,,familiar_rating,49638,Assateague Island,,53,Assateague Island,US,5,,,,,,,,,,,,,,,
null,,confidence_buffer,49741,confidence_buffer,,null,,,,,,,,,,,,,,,,,,
9283.200000047684,,unique_rating,59026,Assateague Island,,53,,,5,,,,,,,,,,,,,,,
null,,confidence_buffer,59134,confidence_buffer,,null,,,,,,,,,,,,,,,,,,
4798.5,,memorable_rating,63934,Assateague Island,,53,,,5,,,,,,,,,,,,,,,
null,,confidence_buffer,64037,confidence_buffer,,null,,,,,,,,,,,,,,,,,,
null,,thebreak,64538,break,,null,,,,,,,,,,,,,,,,,,
4965.5,,familiar_rating,69506,Barnard,,51,Barnard,US,3,,,,,,,,,,,,,,,
null,,confidence_buffer,69608,confidence_buffer,,null,,,,,,,,,,,,,,,,,,
6892.200000047684,,unique_rating,76501,Barnard,,50,,,2,,,,,,,,,,,,,,,
null,,confidence_buffer,76604,confidence_buffer,,null,,,,,,,,,,,,,,,,,,
2910.1999999284744,,memorable_rating,79516,Barnard,,50,,,2,,,,,,,,,,,,,,,
null,,confidence_buffer,79631,confidence_buffer,,null,,,,,,,,,,,,,,,,,,
null,,thebreak,80133,break,,null,,,,,,,,,,,,,,,,,,
3287.3000000715256,,familiar_rating,83421,Claywater,,49,Claywater,Fictional,1,,,,,,,,,,,,,,,
null,,confidence_buffer,83524,confidence_buffer,,null,,,,,,,,,,,,,,,,,,
3837.8000000715256,,unique_rating,87373,Claywater,,51,,,3,,,,,,,,,,,,,,,
null,,confidence_buffer,87475,confidence_buffer,,null,,,,,,,,,,,,,,,,,,
2605.2999999523163,,memorable_rating,90082,Claywater,,50,,,2,,,,,,,,,,,,,,,
null,,confidence_buffer,90184,confidence_buffer,,null,,,,,,,,,,,,,,,,,,
null,,thebreak,90686,break,,null,,,,,,,,,,,,,,,,,,
6038.199999928474,,familiar_rating,96725,East Ladera,,50,East Ladera,Fictional,2,,,,,,,,,,,,,,,
null,,confidence_buffer,96827,confidence_buffer,,null,,,,,,,,,,,,,,,,,,
3436.7999999523163,,probe_rating,100266,probe_rating,,52,,,,4,1,,,,,,,,,,,,,
null,,confidence_buffer,100377,confidence_buffer,,null,,,,,,,,,,,,,,,,,,
8786.700000047684,,unique_rating,109165,East Ladera,,51,,,3,,,,,,,,,,,,,,,
null,,confidence_buffer,109267,confidence_buffer,,null,,,,,,,,,,,,,,,,,,
2981,,memorable_rating,112250,East Ladera,,50,,,2,,,,,,,,,,,,,,,
null,,confidence_buffer,112351,confidence_buffer,,null,,,,,,,,,,,,,,,,,,
null,,thebreak,112853,break,,null,,,,,,,,,,,,,,,,,,
3286.6999999284744,,familiar_rating,116141,Gatlinburg,,53,Gatlinburg,US,5,,,,,,,,,,,,,,,
null,,confidence_buffer,116243,confidence_buffer,,null,,,,,,,,,,,,,,,,,,
4056.5,,unique_rating,120301,Gatlinburg,,52,,,4,,,,,,,,,,,,,,,
null,,confidence_buffer,120403,confidence_buffer,,null,,,,,,,,,,,,,,,,,,
3325.600000023842,,memorable_rating,123730,Gatlinburg,,53,,,5,,,,,,,,,,,,,,,
null,,confidence_buffer,123833,confidence_buffer,,null,,,,,,,,,,,,,,,,,,
null,,thebreak,124340,break,,null,,,,,,,,,,,,,,,,,,
1904.4000000953674,,familiar_rating,126245,Willowford,,50,Willowford,Fictional,2,,,,,,,,,,,,,,,
null,,confidence_buffer,126348,confidence_buffer,,null,,,,,,,,,,,,,,,,,,
2762.5,,unique_rating,129112,Willowford,,50,,,2,,,,,,,,,,,,,,,
null,,confidence_buffer,129214,confidence_buffer,,null,,,,,,,,,,,,,,,,,,
3429.5,,memorable_rating,132645,Willowford,,50,,,2,,,,,,,,,,,,,,,
null,,confidence_buffer,132747,confidence_buffer,,null,,,,,,,,,,,,,,,,,,
null,,thebreak,133249,break,,null,,,,,,,,,,,,,,,,,,
2711.1999999284744,,familiar_rating,135962,Juniper Creek,,49,Juniper Creek,Fictional,1,,,,,,,,,,,,,,,
null,,confidence_buffer,136065,confidence_buffer,,null,,,,,,,,,,,,,,,,,,
2083.5,,unique_rating,138149,Juniper Creek,,50,,,2,,,,,,,,,,,,,,,
null,,confidence_buffer,138251,confidence_buffer,,null,,,,,,,,,,,,,,,,,,
1423.2000000476837,,memorable_rating,139676,Juniper Creek,,50,,,2,,,,,,,,,,,,,,,
null,,confidence_buffer,139790,confidence_buffer,,null,,,,,,,,,,,,,,,,,,
null,,thebreak,140292,break,,null,,,,,,,,,,,,,,,,,,
2705.600000023842,,familiar_rating,142999,Elmsbury,,49,Elmsbury,Fictional,1,,,,,,,,,,,,,,,
null,,confidence_buffer,143102,confidence_buffer,,null,,,,,,,,,,,,,,,,,,
4067,,unique_rating,147170,Elmsbury,,50,,,2,,,,,,,,,,,,,,,
null,,confidence_buffer,147272,confidence_buffer,,null,,,,,,,,,,,,,,,,,,
2171.899999976158,,memorable_rating,149445,Elmsbury,,50,,,2,,,,,,,,,,,,,,,
null,,confidence_buffer,149547,confidence_buffer,,null,,,,,,,,,,,,,,,,,,
null,,thebreak,150049,break,,null,,,,,,,,,,,,,,,,,,
4619,,familiar_rating,154669,Oakridge,,52,Oakridge,Fictional,4,,,,,,,,,,,,,,,
null,,confidence_buffer,154785,confidence_buffer,,null,,,,,,,,,,,,,,,,,,
3647.2000000476837,,unique_rating,158434,Oakridge,,49,,,1,,,,,,,,,,,,,,,
null,,confidence_buffer,158536,confidence_buffer,,null,,,,,,,,,,,,,,,,,,
3219.7000000476837,,memorable_rating,161757,Oakridge,,52,,,4,,,,,,,,,,,,,,,
null,,confidence_buffer,161859,confidence_buffer,,null,,,,,,,,,,,,,,,,,,
null,,thebreak,162361,break,,null,,,,,,,,,,,,,,,,,,
5138.099999904633,,familiar_rating,167501,Lake of the Ozarks,,53,Lake of the Ozarks,US,5,,,,,,,,,,,,,,,
null,,confidence_buffer,167603,confidence_buffer,,null,,,,,,,,,,,,,,,,,,
4320.700000047684,,unique_rating,171925,Lake of the Ozarks,,53,,,5,,,,,,,,,,,,,,,
null,,confidence_buffer,172027,confidence_buffer,,null,,,,,,,,,,,,,,,,,,
1967.8000000715256,,memorable_rating,173996,Lake of the Ozarks,,53,,,5,,,,,,,,,,,,,,,
null,,confidence_buffer,174097,confidence_buffer,,null,,,,,,,,,,,,,,,,,,
null,,thebreak,174598,break,,null,,,,,,,,,,,,,,,,,,
5372.799999952316,,familiar_rating,179972,Huntsville,,53,Huntsville,US,5,,,,,,,,,,,,,,,
null,,confidence_buffer,180074,confidence_buffer,,null,,,,,,,,,,,,,,,,,,
2974.600000023842,,unique_rating,183050,Huntsville,,49,,,1,,,,,,,,,,,,,,,
null,,confidence_buffer,183153,confidence_buffer,,null,,,,,,,,,,,,,,,,,,
1803.3999999761581,,memorable_rating,184957,Huntsville,,50,,,2,,,,,,,,,,,,,,,
null,,confidence_buffer,185060,confidence_buffer,,null,,,,,,,,,,,,,,,,,,
null,,thebreak,185562,break,,null,,,,,,,,,,,,,,,,,,
3690.2000000476837,,familiar_rating,189253,Orchard Bend,,50,Orchard Bend,Fictional,2,,,,,,,,,,,,,,,
null,,confidence_buffer,189355,confidence_buffer,,null,,,,,,,,,,,,,,,,,,
2346.7999999523163,,unique_rating,191703,Orchard Bend,,51,,,3,,,,,,,,,,,,,,,
null,,confidence_buffer,191806,confidence_buffer,,null,,,,,,,,,,,,,,,,,,
1931,,probe_rating,193738,probe_rating,,51,,,,3,1,,,,,,,,,,,,,
null,,confidence_buffer,193841,confidence_buffer,,null,,,,,,,,,,,,,,,,,,
6197.700000047684,,memorable_rating,200039,Orchard Bend,,51,,,3,,,,,,,,,,,,,,,
null,,confidence_buffer,200141,confidence_buffer,,null,,,,,,,,,,,,,,,,,,
null,,thebreak,200642,break,,null,,,,,,,,,,,,,,,,,,
3198.100000023842,,familiar_rating,203842,Millstone,,51,Millstone,Fictional,3,,,,,,,,,,,,,,,
null,,confidence_buffer,203944,confidence_buffer,,null,,,,,,,,,,,,,,,,,,
933.3999999761581,,unique_rating,204879,Millstone,,50,,,2,,,,,,,,,,,,,,,
null,,confidence_buffer,204981,confidence_buffer,,null,,,,,,,,,,,,,,,,,,
1439.1000000238419,,memorable_rating,206421,Millstone,,50,,,2,,,,,,,,,,,,,,,
null,,confidence_buffer,206523,confidence_buffer,,null,,,,,,,,,,,,,,,,,,
null,,thebreak,207024,break,,null,,,,,,,,,,,,,,,,,,
5026.699999928474,,familiar_rating,212052,Hilo,,49,Hilo,US,1,,,,,,,,,,,,,,,
null,,confidence_buffer,212154,confidence_buffer,,null,,,,,,,,,,,,,,,,,,
6230.100000023842,,unique_rating,218386,Hilo,,52,,,4,,,,,,,,,,,,,,,
null,,confidence_buffer,218489,confidence_buffer,,null,,,,,,,,,,,,,,,,,,
2165.7000000476837,,memorable_rating,220656,Hilo,,51,,,3,,,,,,,,,,,,,,,
null,,confidence_buffer,220757,confidence_buffer,,null,,,,,,,,,,,,,,,,,,
null,,thebreak,221259,break,,null,,,,,,,,,,,,,,,,,,
2473.100000023842,,familiar_rating,223733,Park City,,53,Park City,US,5,,,,,,,,,,,,,,,
null,,confidence_buffer,223843,confidence_buffer,,null,,,,,,,,,,,,,,,,,,
5988.899999976158,,unique_rating,229834,Park City,,50,,,2,,,,,,,,,,,,,,,
null,,confidence_buffer,229936,confidence_buffer,,null,,,,,,,,,,,,,,,,,,
1524,,memorable_rating,231461,Park City,,53,,,5,,,,,,,,,,,,,,,
null,,confidence_buffer,231563,confidence_buffer,,null,,,,,,,,,,,,,,,,,,
null,,thebreak,232065,break,,null,,,,,,,,,,,,,,,,,,
2989.2999999523163,,familiar_rating,235055,Bowling Green,,53,Bowling Green,US,5,,,,,,,,,,,,,,,
null,,confidence_buffer,235161,confidence_buffer,,null,,,,,,,,,,,,,,,,,,
2842.7000000476837,,unique_rating,238006,Bowling Green,,52,,,4,,,,,,,,,,,,,,,
null,,confidence_buffer,238123,confidence_buffer,,null,,,,,,,,,,,,,,,,,,
3173.100000023842,,probe_rating,241298,probe_rating,,53,,,,5,1,,,,,,,,,,,,,
null,,confidence_buffer,241401,confidence_buffer,,null,,,,,,,,,,,,,,,,,,
3306.5,,memorable_rating,244709,Bowling Green,,51,,,3,,,,,,,,,,,,,,,
null,,confidence_buffer,244811,confidence_buffer,,null,,,,,,,,,,,,,,,,,,
null,,thebreak,245313,break,,null,,,,,,,,,,,,,,,,,,
2770.8000000715256,,familiar_rating,248085,Westridge,,50,Westridge,Fictional,2,,,,,,,,,,,,,,,
null,,confidence_buffer,248188,confidence_buffer,,null,,,,,,,,,,,,,,,,,,
2688.3000000715256,,unique_rating,250878,Westridge,,49,,,1,,,,,,,,,,,,,,,
null,,confidence_buffer,250979,confidence_buffer,,null,,,,,,,,,,,,,,,,,,
1522.5,,memorable_rating,252503,Westridge,,50,,,2,,,,,,,,,,,,,,,
null,,confidence_buffer,252605,confidence_buffer,,null,,,,,,,,,,,,,,,,,,
null,,thebreak,253107,break,,null,,,,,,,,,,,,,,,,,,
3960.899999976158,,familiar_rating,257069,Falconridge,,52,Falconridge,Fictional,4,,,,,,,,,,,,,,,
null,,confidence_buffer,257171,confidence_buffer,,null,,,,,,,,,,,,,,,,,,
4988,,unique_rating,262160,Falconridge,,49,,,1,,,,,,,,,,,,,,,
null,,confidence_buffer,262263,confidence_buffer,,null,,,,,,,,,,,,,,,,,,
1481.6000000238419,,memorable_rating,263746,Falconridge,,50,,,2,,,,,,,,,,,,,,,
null,,confidence_buffer,263848,confidence_buffer,,null,,,,,,,,,,,,,,,,,,
null,,thebreak,264351,break,,null,,,,,,,,,,,,,,,,,,
6301.399999976158,,familiar_rating,270653,Highvale,,50,Highvale,Fictional,2,,,,,,,,,,,,,,,
null,,confidence_buffer,270756,confidence_buffer,,null,,,,,,,,,,,,,,,,,,
2824.1999999284744,,unique_rating,273581,Highvale,,50,,,2,,,,,,,,,,,,,,,
null,,confidence_buffer,273683,confidence_buffer,,null,,,,,,,,,,,,,,,,,,
1606,,memorable_rating,275290,Highvale,,50,,,2,,,,,,,,,,,,,,,
null,,confidence_buffer,275392,confidence_buffer,,null,,,,,,,,,,,,,,,,,,
null,,thebreak,275894,break,,null,,,,,,,,,,,,,,,,,,
4189.899999976158,,familiar_rating,280085,Natchez,,49,Natchez,US,1,,,,,,,,,,,,,,,
null,,confidence_buffer,280188,confidence_buffer,,null,,,,,,,,,,,,,,,,,,
4760.5,,unique_rating,284949,Natchez,,52,,,4,,,,,,,,,,,,,,,
null,,confidence_buffer,285051,confidence_buffer,,null,,,,,,,,,,,,,,,,,,
2904.5,,memorable_rating,287957,Natchez,,50,,,2,,,,,,,,,,,,,,,
null,,confidence_buffer,288060,confidence_buffer,,null,,,,,,,,,,,,,,,,,,
null,,thebreak,288561,break,,null,,,,,,,,,,,,,,,,,,
3523.399999976158,,familiar_rating,292086,Berkeley Springs,,51,Berkeley Springs,US,3,,,,,,,,,,,,,,,
null,,confidence_buffer,292199,confidence_buffer,,null,,,,,,,,,,,,,,,,,,
2693,,unique_rating,294893,Berkeley Springs,,49,,,1,,,,,,,,,,,,,,,
null,,confidence_buffer,294996,confidence_buffer,,null,,,,,,,,,,,,,,,,,,
2327.5,,memorable_rating,297325,Berkeley Springs,,51,,,3,,,,,,,,,,,,,,,
null,,confidence_buffer,297441,confidence_buffer,,null,,,,,,,,,,,,,,,,,,
null,,thebreak,297943,break,,null,,,,,,,,,,,,,,,,,,
3066,,familiar_rating,301010,New Hope,,53,New Hope,US,5,,,,,,,,,,,,,,,
null,,confidence_buffer,301113,confidence_buffer,,null,,,,,,,,,,,,,,,,,,
1515.5,,probe_rating,302630,probe_rating,,49,,,,1,1,,,,,,,,,,,,,
null,,confidence_buffer,302733,confidence_buffer,,null,,,,,,,,,,,,,,,,,,
2807.4000000953674,,unique_rating,305541,New Hope,,49,,,1,,,,,,,,,,,,,,,
null,,confidence_buffer,305643,confidence_buffer,,null,,,,,,,,,,,,,,,,,,
2889.899999976158,,memorable_rating,308534,New Hope,,53,,,5,,,,,,,,,,,,,,,
null,,confidence_buffer,308635,confidence_buffer,,null,,,,,,,,,,,,,,,,,,
null,,thebreak,309137,break,,null,,,,,,,,,,,,,,,,,,
5591.899999976158,,familiar_rating,314730,Carmel,,53,Carmel,US,5,,,,,,,,,,,,,,,
null,,confidence_buffer,314833,confidence_buffer,,null,,,,,,,,,,,,,,,,,,
3013.600000023842,,unique_rating,317848,Carmel,,49,,,1,,,,,,,,,,,,,,,
null,,confidence_buffer,317949,confidence_buffer,,null,,,,,,,,,,,,,,,,,,
1398.9000000953674,,memorable_rating,319349,Carmel,,53,,,5,,,,,,,,,,,,,,,
null,,confidence_buffer,319451,confidence_buffer,,null,,,,,,,,,,,,,,,,,,
null,,thebreak,319953,break,,null,,,,,,,,,,,,,,,,,,
3011,,familiar_rating,322966,Hawthorne Bluffs,,50,Hawthorne Bluffs,Fictional,2,,,,,,,,,,,,,,,
null,,confidence_buffer,323068,confidence_buffer,,null,,,,,,,,,,,,,,,,,,
3315.100000023842,,unique_rating,326384,Hawthorne Bluffs,,51,,,3,,,,,,,,,,,,,,,
null,,confidence_buffer,326487,confidence_buffer,,null,,,,,,,,,,,,,,,,,,
1868.1000000238419,,memorable_rating,328356,Hawthorne Bluffs,,51,,,3,,,,,,,,,,,,,,,
null,,confidence_buffer,328458,confidence_buffer,,null,,,,,,,,,,,,,,,,,,
null,,thebreak,328961,break,,null,,,,,,,,,,,,,,,,,,
7824.100000023842,,familiar_rating,336786,Sitka,,50,Sitka,US,2,,,,,,,,,,,,,,,
null,,confidence_buffer,336889,confidence_buffer,,null,,,,,,,,,,,,,,,,,,
1970.9000000953674,,probe_rating,338861,probe_rating,,52,,,,4,1,,,,,,,,,,,,,
null,,confidence_buffer,338964,confidence_buffer,,null,,,,,,,,,,,,,,,,,,
7665.299999952316,,unique_rating,346631,Sitka,,52,,,4,,,,,,,,,,,,,,,
null,,confidence_buffer,346732,confidence_buffer,,null,,,,,,,,,,,,,,,,,,
2611.899999976158,,memorable_rating,349346,Sitka,,50,,,2,,,,,,,,,,,,,,,
null,,confidence_buffer,349447,confidence_buffer,,null,,,,,,,,,,,,,,,,,,
null,,thebreak,349949,break,,null,,,,,,,,,,,,,,,,,,
2319.2000000476837,,familiar_rating,352269,Sunmere,,49,Sunmere,Fictional,1,,,,,,,,,,,,,,,
null,,confidence_buffer,352371,confidence_buffer,,null,,,,,,,,,,,,,,,,,,
2113.899999976158,,unique_rating,354487,Sunmere,,51,,,3,,,,,,,,,,,,,,,
null,,confidence_buffer,354588,confidence_buffer,,null,,,,,,,,,,,,,,,,,,
1928.1000000238419,,memorable_rating,356518,Sunmere,,50,,,2,,,,,,,,,,,,,,,
null,,confidence_buffer,356619,confidence_buffer,,null,,,,,,,,,,,,,,,,,,
null,,thebreak,357121,break,,null,,,,,,,,,,,,,,,,,,
3247.2000000476837,,familiar_rating,360370,Baymarsh,,49,Baymarsh,Fictional,1,,,,,,,,,,,,,,,
null,,confidence_buffer,360472,confidence_buffer,,null,,,,,,,,,,,,,,,,,,
4387.899999976158,,unique_rating,364861,Baymarsh,,51,,,3,,,,,,,,,,,,,,,
null,,confidence_buffer,364964,confidence_buffer,,null,,,,,,,,,,,,,,,,,,
2615.2000000476837,,memorable_rating,367580,Baymarsh,,50,,,2,,,,,,,,,,,,,,,
null,,confidence_buffer,367682,confidence_buffer,,null,,,,,,,,,,,,,,,,,,
null,,thebreak,368183,break,,null,,,,,,,,,,,,,,,,,,
4770,,familiar_rating,372954,Riverlyn,,49,Riverlyn,Fictional,1,,,,,,,,,,,,,,,
null,,confidence_buffer,373056,confidence_buffer,,null,,,,,,,,,,,,,,,,,,
2532.2999999523163,,unique_rating,375590,Riverlyn,,51,,,3,,,,,,,,,,,,,,,
null,,confidence_buffer,375692,confidence_buffer,,null,,,,,,,,,,,,,,,,,,
1304.2999999523163,,probe_rating,376997,probe_rating,,51,,,,3,1,,,,,,,,,,,,,
null,,confidence_buffer,377099,confidence_buffer,,null,,,,,,,,,,,,,,,,,,
4344.900000095367,,memorable_rating,381446,Riverlyn,,50,,,2,,,,,,,,,,,,,,,
null,,confidence_buffer,381549,confidence_buffer,,null,,,,,,,,,,,,,,,,,,
null,,thebreak,382051,break,,null,,,,,,,,,,,,,,,,,,
2461.8000000715256,,familiar_rating,384514,Albuquerque,,53,Albuquerque,US,5,,,,,,,,,,,,,,,
null,,confidence_buffer,384617,confidence_buffer,,null,,,,,,,,,,,,,,,,,,
2267,,unique_rating,386885,Albuquerque,,52,,,4,,,,,,,,,,,,,,,
null,,confidence_buffer,386988,confidence_buffer,,null,,,,,,,,,,,,,,,,,,
1417,,probe_rating,388406,probe_rating,,50,,,,2,1,,,,,,,,,,,,,
null,,confidence_buffer,388509,confidence_buffer,,null,,,,,,,,,,,,,,,,,,
2183.3000000715256,,memorable_rating,390693,Albuquerque,,53,,,5,,,,,,,,,,,,,,,
null,,confidence_buffer,390794,confidence_buffer,,null,,,,,,,,,,,,,,,,,,
null,,thebreak,391296,break,,null,,,,,,,,,,,,,,,,,,
3692.899999976158,,familiar_rating,394990,Sammamish,,51,Sammamish,US,3,,,,,,,,,,,,,,,
null,,confidence_buffer,395091,confidence_buffer,,null,,,,,,,,,,,,,,,,,,
3984.100000023842,,unique_rating,399076,Sammamish,,53,,,5,,,,,,,,,,,,,,,
null,,confidence_buffer,399177,confidence_buffer,,null,,,,,,,,,,,,,,,,,,
2745.7000000476837,,memorable_rating,401924,Sammamish,,52,,,4,,,,,,,,,,,,,,,
null,,confidence_buffer,402025,confidence_buffer,,null,,,,,,,,,,,,,,,,,,
null,,thebreak,402526,break,,null,,,,,,,,,,,,,,,,,,
5883.200000047684,,intro_0,408410,instruct,,32,,,,,,,,,,,,,,,,,,
9266.299999952316,,intro_1,417678,instruct,,32,,,,,,,,,,,,,,,,,,
45988.10000002384,,intro_2,463667,instruct,,32,,,,,,,,,,,,,,,,,,
null,,instruct_dir_4,465169,instruct,,null,,,,,,,,,,,,,,,,,,
16254.699999928474,,realistic_rating,481425,Sunmere,,52,Sunmere,Fictional,4,,,,,,,,,,,,,,,
null,,confidence_buffer,481527,confidence_buffer,,null,,,,,,,,,,,,,,,,,,
6485.399999976158,,pt2_unique_rating,488014,Sunmere,,50,,,2,,,,,,,,,,,,,,,
null,,confidence_buffer,488130,confidence_buffer,,null,,,,,,,,,,,,,,,,,,
3226.399999976158,,pt2_memorable_rating,491357,Sunmere,,50,,,2,,,,,,,,,,,,,,,
null,,confidence_buffer,491460,confidence_buffer,,null,,,,,,,,,,,,,,,,,,
2772.100000023842,,recognition_phase,494234,Sunmere,,50,,,,,,old,1,1,,,,,,,,,,
null,,confidence_buffer,494344,confidence_buffer,,null,,,,,,,,,,,,,,,,,,
null,,thebreak,494845,break,,null,,,,,,,,,,,,,,,,,,
3855,,realistic_rating,498701,Park City,,53,Park City,US,5,,,,,,,,,,,,,,,
null,,confidence_buffer,498813,confidence_buffer,,null,,,,,,,,,,,,,,,,,,
4607,,pt2_unique_rating,503421,Park City,,51,,,3,,,,,,,,,,,,,,,
null,,confidence_buffer,503524,confidence_buffer,,null,,,,,,,,,,,,,,,,,,
2068.5,,pt2_memorable_rating,505594,Park City,,53,,,5,,,,,,,,,,,,,,,
null,,confidence_buffer,505711,confidence_buffer,,null,,,,,,,,,,,,,,,,,,
2053,,recognition_phase,507766,Park City,,49,,,,,,old,1,1,,,,,,,,,,
null,,confidence_buffer,507868,confidence_buffer,,null,,,,,,,,,,,,,,,,,,
null,,thebreak,508370,break,,null,,,,,,,,,,,,,,,,,,
3531.7999999523163,,realistic_rating,511903,Hanover,,53,Hanover,US,5,,,,,,,,,,,,,,,
null,,confidence_buffer,512006,confidence_buffer,,null,,,,,,,,,,,,,,,,,,
1566.5,,probe_rating,513574,probe_rating,,50,,,,2,1,,,,,,,,,,,,,
null,,confidence_buffer,513676,confidence_buffer,,null,,,,,,,,,,,,,,,,,,
3460.3000000715256,,pt2_unique_rating,517138,Hanover,,49,,,1,,,,,,,,,,,,,,,
null,,confidence_buffer,517241,confidence_buffer,,null,,,,,,,,,,,,,,,,,,
3002.8000000715256,,pt2_memorable_rating,520245,Hanover,,52,,,4,,,,,,,,,,,,,,,
null,,confidence_buffer,520358,confidence_buffer,,null,,,,,,,,,,,,,,,,,,
3175.600000023842,,recognition_phase,523535,Hanover,,52,,,,,,new,1,1,,,,,,,,,,
null,,confidence_buffer,523640,confidence_buffer,,null,,,,,,,,,,,,,,,,,,
null,,thebreak,524142,break,,null,,,,,,,,,,,,,,,,,,
4650.899999976158,,realistic_rating,528794,Orchard Bend,,52,Orchard Bend,Fictional,4,,,,,,,,,,,,,,,
null,,confidence_buffer,528896,confidence_buffer,,null,,,,,,,,,,,,,,,,,,
2780.100000023842,,pt2_unique_rating,531678,Orchard Bend,,50,,,2,,,,,,,,,,,,,,,
null,,confidence_buffer,531779,confidence_buffer,,null,,,,,,,,,,,,,,,,,,
1153.1000000238419,,pt2_memorable_rating,532934,Orchard Bend,,50,,,2,,,,,,,,,,,,,,,
null,,confidence_buffer,533036,confidence_buffer,,null,,,,,,,,,,,,,,,,,,
2048.3000000715256,,recognition_phase,535086,Orchard Bend,,49,,,,,,old,1,1,,,,,,,,,,
null,,confidence_buffer,535188,confidence_buffer,,null,,,,,,,,,,,,,,,,,,
null,,thebreak,535690,break,,null,,,,,,,,,,,,,,,,,,
3066.3000000715256,,realistic_rating,538757,Cape May,,53,Cape May,US,5,,,,,,,,,,,,,,,
null,,confidence_buffer,538860,confidence_buffer,,null,,,,,,,,,,,,,,,,,,
4500.899999976158,,pt2_unique_rating,543362,Cape May,,52,,,4,,,,,,,,,,,,,,,
null,,confidence_buffer,543464,confidence_buffer,,null,,,,,,,,,,,,,,,,,,
2141.899999976158,,pt2_memorable_rating,545607,Cape May,,53,,,5,,,,,,,,,,,,,,,
null,,confidence_buffer,545710,confidence_buffer,,null,,,,,,,,,,,,,,,,,,
3014.2000000476837,,recognition_phase,548725,Cape May,,52,,,,,,new,1,1,,,,,,,,,,
null,,confidence_buffer,548827,confidence_buffer,,null,,,,,,,,,,,,,,,,,,
null,,thebreak,549329,break,,null,,,,,,,,,,,,,,,,,,
4047.8000000715256,,realistic_rating,553378,Sierra Hollow,,52,Sierra Hollow,Fictional,4,,,,,,,,,,,,,,,
null,,confidence_buffer,553480,confidence_buffer,,null,,,,,,,,,,,,,,,,,,
1860.3999999761581,,pt2_unique_rating,555341,Sierra Hollow,,51,,,3,,,,,,,,,,,,,,,
null,,confidence_buffer,555443,confidence_buffer,,null,,,,,,,,,,,,,,,,,,
2008.7999999523163,,probe_rating,557454,probe_rating,,49,,,,1,1,,,,,,,,,,,,,
null,,confidence_buffer,557556,confidence_buffer,,null,,,,,,,,,,,,,,,,,,
3848.5999999046326,,pt2_memorable_rating,561406,Sierra Hollow,,51,,,3,,,,,,,,,,,,,,,
null,,confidence_buffer,561509,confidence_buffer,,null,,,,,,,,,,,,,,,,,,
1972,,recognition_phase,563483,Sierra Hollow,,52,,,,,,new,1,1,,,,,,,,,,
null,,confidence_buffer,563585,confidence_buffer,,null,,,,,,,,,,,,,,,,,,
null,,thebreak,564087,break,,null,,,,,,,,,,,,,,,,,,
3700.7999999523163,,realistic_rating,567790,Millstone,,52,Millstone,Fictional,4,,,,,,,,,,,,,,,
null,,confidence_buffer,567892,confidence_buffer,,null,,,,,,,,,,,,,,,,,,
2864.2999999523163,,pt2_unique_rating,570758,Millstone,,50,,,2,,,,,,,,,,,,,,,
null,,confidence_buffer,570860,confidence_buffer,,null,,,,,,,,,,,,,,,,,,
1096.5,,pt2_memorable_rating,571958,Millstone,,50,,,2,,,,,,,,,,,,,,,
null,,confidence_buffer,572061,confidence_buffer,,null,,,,,,,,,,,,,,,,,,
2490.7000000476837,,recognition_phase,574553,Millstone,,50,,,,,,old,1,1,,,,,,,,,,
null,,confidence_buffer,574655,confidence_buffer,,null,,,,,,,,,,,,,,,,,,
null,,thebreak,575158,break,,null,,,,,,,,,,,,,,,,,,
4086.3000000715256,,realistic_rating,579245,Gardnerville,,52,Gardnerville,US,4,,,,,,,,,,,,,,,
null,,confidence_buffer,579348,confidence_buffer,,null,,,,,,,,,,,,,,,,,,
1928.6000000238419,,pt2_unique_rating,581277,Gardnerville,,50,,,2,,,,,,,,,,,,,,,
null,,confidence_buffer,581379,confidence_buffer,,null,,,,,,,,,,,,,,,,,,
2000.5,,pt2_memorable_rating,583381,Gardnerville,,51,,,3,,,,,,,,,,,,,,,
null,,confidence_buffer,583484,confidence_buffer,,null,,,,,,,,,,,,,,,,,,
2821.600000023842,,recognition_phase,586306,Gardnerville,,52,,,,,,new,1,1,,,,,,,,,,
null,,confidence_buffer,586415,confidence_buffer,,null,,,,,,,,,,,,,,,,,,
null,,thebreak,586917,break,,null,,,,,,,,,,,,,,,,,,
3166.8000000715256,,realistic_rating,590086,Hawthorne Bluffs,,52,Hawthorne Bluffs,Fictional,4,,,,,,,,,,,,,,,
null,,confidence_buffer,590188,confidence_buffer,,null,,,,,,,,,,,,,,,,,,
2760.3000000715256,,pt2_unique_rating,592949,Hawthorne Bluffs,,51,,,3,,,,,,,,,,,,,,,
null,,confidence_buffer,593053,confidence_buffer,,null,,,,,,,,,,,,,,,,,,
1432.5,,pt2_memorable_rating,594486,Hawthorne Bluffs,,50,,,2,,,,,,,,,,,,,,,
null,,confidence_buffer,594588,confidence_buffer,,null,,,,,,,,,,,,,,,,,,
1705.7999999523163,,recognition_phase,596295,Hawthorne Bluffs,,49,,,,,,old,1,1,,,,,,,,,,
null,,confidence_buffer,596401,confidence_buffer,,null,,,,,,,,,,,,,,,,,,
null,,thebreak,596903,break,,null,,,,,,,,,,,,,,,,,,
3554.1999999284744,,realistic_rating,600458,Bowling Green,,53,Bowling Green,US,5,,,,,,,,,,,,,,,
null,,confidence_buffer,600561,confidence_buffer,,null,,,,,,,,,,,,,,,,,,
3163.7000000476837,,pt2_unique_rating,603726,Bowling Green,,51,,,3,,,,,,,,,,,,,,,
null,,confidence_buffer,603827,confidence_buffer,,null,,,,,,,,,,,,,,,,,,
3775.399999976158,,pt2_memorable_rating,607604,Bowling Green,,52,,,4,,,,,,,,,,,,,,,
null,,confidence_buffer,607706,confidence_buffer,,null,,,,,,,,,,,,,,,,,,
1634.7999999523163,,recognition_phase,609342,Bowling Green,,49,,,,,,old,1,1,,,,,,,,,,
null,,confidence_buffer,609444,confidence_buffer,,null,,,,,,,,,,,,,,,,,,
null,,thebreak,609946,break,,null,,,,,,,,,,,,,,,,,,
2633,,realistic_rating,612580,Albuquerque,,53,Albuquerque,US,5,,,,,,,,,,,,,,,
null,,confidence_buffer,612682,confidence_buffer,,null,,,,,,,,,,,,,,,,,,
1618.1000000238419,,pt2_unique_rating,614302,Albuquerque,,53,,,5,,,,,,,,,,,,,,,
null,,confidence_buffer,614404,confidence_buffer,,null,,,,,,,,,,,,,,,,,,
1088.6000000238419,,pt2_memorable_rating,615494,Albuquerque,,53,,,5,,,,,,,,,,,,,,,
null,,confidence_buffer,615596,confidence_buffer,,null,,,,,,,,,,,,,,,,,,
1320.3999999761581,,recognition_phase,616917,Albuquerque,,49,,,,,,old,1,1,,,,,,,,,,
null,,confidence_buffer,617020,confidence_buffer,,null,,,,,,,,,,,,,,,,,,
null,,thebreak,617522,break,,null,,,,,,,,,,,,,,,,,,
3875.7000000476837,,realistic_rating,621399,Maplehurst,,52,Maplehurst,Fictional,4,,,,,,,,,,,,,,,
null,,confidence_buffer,621501,confidence_buffer,,null,,,,,,,,,,,,,,,,,,
2403.7000000476837,,pt2_unique_rating,623906,Maplehurst,,51,,,3,,,,,,,,,,,,,,,
null,,confidence_buffer,624008,confidence_buffer,,null,,,,,,,,,,,,,,,,,,
1572.6000000238419,,pt2_memorable_rating,625582,Maplehurst,,51,,,3,,,,,,,,,,,,,,,
null,,confidence_buffer,625684,confidence_buffer,,null,,,,,,,,,,,,,,,,,,
2150.100000023842,,recognition_phase,627836,Maplehurst,,52,,,,,,new,1,1,,,,,,,,,,
null,,confidence_buffer,627937,confidence_buffer,,null,,,,,,,,,,,,,,,,,,
null,,thebreak,628438,break,,null,,,,,,,,,,,,,,,,,,
4134.199999928474,,realistic_rating,632574,Maravilla Springs,,52,Maravilla Springs,Fictional,4,,,,,,,,,,,,,,,
null,,confidence_buffer,632676,confidence_buffer,,null,,,,,,,,,,,,,,,,,,
1292.7000000476837,,probe_rating,633970,probe_rating,,49,,,,1,1,,,,,,,,,,,,,
null,,confidence_buffer,634073,confidence_buffer,,null,,,,,,,,,,,,,,,,,,
3043.399999976158,,pt2_unique_rating,637118,Maravilla Springs,,51,,,3,,,,,,,,,,,,,,,
null,,confidence_buffer,637219,confidence_buffer,,null,,,,,,,,,,,,,,,,,,
1512.8000000715256,,pt2_memorable_rating,638734,Maravilla Springs,,51,,,3,,,,,,,,,,,,,,,
null,,confidence_buffer,638836,confidence_buffer,,null,,,,,,,,,,,,,,,,,,
2127.7999999523163,,recognition_phase,640966,Maravilla Springs,,52,,,,,,new,1,1,,,,,,,,,,
null,,confidence_buffer,641081,confidence_buffer,,null,,,,,,,,,,,,,,,,,,
null,,thebreak,641583,break,,null,,,,,,,,,,,,,,,,,,
2261,,realistic_rating,643846,New Hope,,53,New Hope,US,5,,,,,,,,,,,,,,,
null,,confidence_buffer,643948,confidence_buffer,,null,,,,,,,,,,,,,,,,,,
2484.7999999523163,,pt2_unique_rating,646434,New Hope,,51,,,3,,,,,,,,,,,,,,,
null,,confidence_buffer,646537,confidence_buffer,,null,,,,,,,,,,,,,,,,,,
2083.100000023842,,pt2_memorable_rating,648621,New Hope,,52,,,4,,,,,,,,,,,,,,,
null,,confidence_buffer,648724,confidence_buffer,,null,,,,,,,,,,,,,,,,,,
943.2000000476837,,recognition_phase,649669,New Hope,,49,,,,,,old,1,1,,,,,,,,,,
null,,confidence_buffer,649770,confidence_buffer,,null,,,,,,,,,,,,,,,,,,
null,,thebreak,650272,break,,null,,,,,,,,,,,,,,,,,,
3276.6999999284744,,realistic_rating,653550,Ravenport,,52,Ravenport,Fictional,4,,,,,,,,,,,,,,,
null,,confidence_buffer,653652,confidence_buffer,,null,,,,,,,,,,,,,,,,,,
1560,,pt2_unique_rating,655214,Ravenport,,51,,,3,,,,,,,,,,,,,,,
null,,confidence_buffer,655315,confidence_buffer,,null,,,,,,,,,,,,,,,,,,
1263.2000000476837,,pt2_memorable_rating,656580,Ravenport,,51,,,3,,,,,,,,,,,,,,,
null,,confidence_buffer,656683,confidence_buffer,,null,,,,,,,,,,,,,,,,,,
1305.4000000953674,,recognition_phase,657989,Ravenport,,52,,,,,,new,1,1,,,,,,,,,,
null,,confidence_buffer,658092,confidence_buffer,,null,,,,,,,,,,,,,,,,,,
null,,thebreak,658593,break,,null,,,,,,,,,,,,,,,,,,
2722.6999999284744,,realistic_rating,661318,Folly Beach,,53,Folly Beach,US,5,,,,,,,,,,,,,,,
null,,confidence_buffer,661420,confidence_buffer,,null,,,,,,,,,,,,,,,,,,
1984.3999999761581,,pt2_unique_rating,663406,Folly Beach,,51,,,3,,,,,,,,,,,,,,,
null,,confidence_buffer,663509,confidence_buffer,,null,,,,,,,,,,,,,,,,,,
1863.5999999046326,,pt2_memorable_rating,665374,Folly Beach,,52,,,4,,,,,,,,,,,,,,,
null,,confidence_buffer,665475,confidence_buffer,,null,,,,,,,,,,,,,,,,,,
1909.3999999761581,,recognition_phase,667386,Folly Beach,,52,,,,,,new,1,1,,,,,,,,,,
null,,confidence_buffer,667488,confidence_buffer,,null,,,,,,,,,,,,,,,,,,
null,,thebreak,667991,break,,null,,,,,,,,,,,,,,,,,,
2797.600000023842,,realistic_rating,670790,Newport,,53,Newport,US,5,,,,,,,,,,,,,,,
null,,confidence_buffer,670892,confidence_buffer,,null,,,,,,,,,,,,,,,,,,
3621,,pt2_unique_rating,674514,Newport,,49,,,1,,,,,,,,,,,,,,,
null,,confidence_buffer,674616,confidence_buffer,,null,,,,,,,,,,,,,,,,,,
1764,,pt2_memorable_rating,676382,Newport,,53,,,5,,,,,,,,,,,,,,,
null,,confidence_buffer,676484,confidence_buffer,,null,,,,,,,,,,,,,,,,,,
2012.6999999284744,,recognition_phase,678498,Newport,,52,,,,,,new,1,1,,,,,,,,,,
null,,confidence_buffer,678600,confidence_buffer,,null,,,,,,,,,,,,,,,,,,
null,,thebreak,679102,break,,null,,,,,,,,,,,,,,,,,,
2982.7000000476837,,realistic_rating,682086,Carmel,,52,Carmel,US,4,,,,,,,,,,,,,,,
null,,confidence_buffer,682198,confidence_buffer,,null,,,,,,,,,,,,,,,,,,
1998.5,,pt2_unique_rating,684198,Carmel,,50,,,2,,,,,,,,,,,,,,,
null,,confidence_buffer,684301,confidence_buffer,,null,,,,,,,,,,,,,,,,,,
1471.5,,pt2_memorable_rating,685774,Carmel,,50,,,2,,,,,,,,,,,,,,,
null,,confidence_buffer,685876,confidence_buffer,,null,,,,,,,,,,,,,,,,,,
2376.2999999523163,,recognition_phase,688254,Carmel,,49,,,,,,old,1,1,,,,,,,,,,
null,,confidence_buffer,688371,confidence_buffer,,null,,,,,,,,,,,,,,,,,,
null,,thebreak,688874,break,,null,,,,,,,,,,,,,,,,,,
5255.099999904633,,realistic_rating,694130,Sammamish,,51,Sammamish,US,3,,,,,,,,,,,,,,,
null,,confidence_buffer,694233,confidence_buffer,,null,,,,,,,,,,,,,,,,,,
3259.399999976158,,pt2_unique_rating,697494,Sammamish,,53,,,5,,,,,,,,,,,,,,,
null,,confidence_buffer,697595,confidence_buffer,,null,,,,,,,,,,,,,,,,,,
2328.7999999523163,,pt2_memorable_rating,699926,Sammamish,,51,,,3,,,,,,,,,,,,,,,
null,,confidence_buffer,700027,confidence_buffer,,null,,,,,,,,,,,,,,,,,,
2032.8000000715256,,recognition_phase,702061,Sammamish,,49,,,,,,old,1,1,,,,,,,,,,
null,,confidence_buffer,702164,confidence_buffer,,null,,,,,,,,,,,,,,,,,,
null,,thebreak,702666,break,,null,,,,,,,,,,,,,,,,,,
3030.2999999523163,,realistic_rating,705698,Oakridge,,53,Oakridge,Fictional,5,,,,,,,,,,,,,,,
null,,confidence_buffer,705801,confidence_buffer,,null,,,,,,,,,,,,,,,,,,
2650.7999999523163,,pt2_unique_rating,708454,Oakridge,,49,,,1,,,,,,,,,,,,,,,
null,,confidence_buffer,708556,confidence_buffer,,null,,,,,,,,,,,,,,,,,,
1056.1000000238419,,probe_rating,709614,probe_rating,,49,,,,1,1,,,,,,,,,,,,,
null,,confidence_buffer,709715,confidence_buffer,,null,,,,,,,,,,,,,,,,,,
1816.6999999284744,,pt2_memorable_rating,711534,Oakridge,,53,,,5,,,,,,,,,,,,,,,
null,,confidence_buffer,711636,confidence_buffer,,null,,,,,,,,,,,,,,,,,,
1424,,recognition_phase,713061,Oakridge,,49,,,,,,old,1,1,,,,,,,,,,
null,,confidence_buffer,713163,confidence_buffer,,null,,,,,,,,,,,,,,,,,,
null,,thebreak,713665,break,,null,,,,,,,,,,,,,,,,,,
2584.8000000715256,,realistic_rating,716251,Cleveland,,53,Cleveland,US,5,,,,,,,,,,,,,,,
null,,confidence_buffer,716353,confidence_buffer,,null,,,,,,,,,,,,,,,,,,
3461.7000000476837,,pt2_unique_rating,719816,Cleveland,,50,,,2,,,,,,,,,,,,,,,
null,,confidence_buffer,719918,confidence_buffer,,null,,,,,,,,,,,,,,,,,,
1461.8000000715256,,pt2_memorable_rating,721381,Cleveland,,53,,,5,,,,,,,,,,,,,,,
null,,confidence_buffer,721484,confidence_buffer,,null,,,,,,,,,,,,,,,,,,
1648.5,,recognition_phase,723134,Cleveland,,52,,,,,,new,1,1,,,,,,,,,,
null,,confidence_buffer,723237,confidence_buffer,,null,,,,,,,,,,,,,,,,,,
null,,thebreak,723739,break,,null,,,,,,,,,,,,,,,,,,
3485.9000000953674,,realistic_rating,727226,Berkeley Springs,,53,Berkeley Springs,US,5,,,,,,,,,,,,,,,
null,,confidence_buffer,727328,confidence_buffer,,null,,,,,,,,,,,,,,,,,,
2155.6999999284744,,pt2_unique_rating,729486,Berkeley Springs,,50,,,2,,,,,,,,,,,,,,,
null,,confidence_buffer,729591,confidence_buffer,,null,,,,,,,,,,,,,,,,,,
1517.3999999761581,,pt2_memorable_rating,731110,Berkeley Springs,,51,,,3,,,,,,,,,,,,,,,
null,,confidence_buffer,731212,confidence_buffer,,null,,,,,,,,,,,,,,,,,,
2687.899999976158,,recognition_phase,733901,Berkeley Springs,,50,,,,,,old,1,1,,,,,,,,,,
null,,confidence_buffer,734003,confidence_buffer,,null,,,,,,,,,,,,,,,,,,
null,,thebreak,734520,break,,null,,,,,,,,,,,,,,,,,,
4745.199999928474,,realistic_rating,739266,Healdsburg,,52,Healdsburg,US,4,,,,,,,,,,,,,,,
null,,confidence_buffer,739368,confidence_buffer,,null,,,,,,,,,,,,,,,,,,
2628.399999976158,,pt2_unique_rating,741998,Healdsburg,,52,,,4,,,,,,,,,,,,,,,
null,,confidence_buffer,742101,confidence_buffer,,null,,,,,,,,,,,,,,,,,,
2415.5999999046326,,pt2_memorable_rating,744518,Healdsburg,,51,,,3,,,,,,,,,,,,,,,
null,,confidence_buffer,744620,confidence_buffer,,null,,,,,,,,,,,,,,,,,,
1649,,probe_rating,746270,probe_rating,,50,,,,2,1,,,,,,,,,,,,,
null,,confidence_buffer,746373,confidence_buffer,,null,,,,,,,,,,,,,,,,,,
1959.1000000238419,,recognition_phase,748334,Healdsburg,,52,,,,,,new,1,1,,,,,,,,,,
null,,confidence_buffer,748436,confidence_buffer,,null,,,,,,,,,,,,,,,,,,
null,,thebreak,748938,break,,null,,,,,,,,,,,,,,,,,,
3014.6999999284744,,realistic_rating,751954,Watkins Glen,,53,Watkins Glen,US,5,,,,,,,,,,,,,,,
null,,confidence_buffer,752057,confidence_buffer,,null,,,,,,,,,,,,,,,,,,
3371.399999976158,,pt2_unique_rating,755430,Watkins Glen,,51,,,3,,,,,,,,,,,,,,,
null,,confidence_buffer,755532,confidence_buffer,,null,,,,,,,,,,,,,,,,,,
1824.1000000238419,,pt2_memorable_rating,757358,Watkins Glen,,53,,,5,,,,,,,,,,,,,,,
null,,confidence_buffer,757460,confidence_buffer,,null,,,,,,,,,,,,,,,,,,
3856.2999999523163,,recognition_phase,761318,Watkins Glen,,52,,,,,,new,1,1,,,,,,,,,,
null,,confidence_buffer,761421,confidence_buffer,,null,,,,,,,,,,,,,,,,,,
null,,thebreak,761922,break,,null,,,,,,,,,,,,,,,,,,
3670.7000000476837,,realistic_rating,765594,Riverlyn,,51,Riverlyn,Fictional,3,,,,,,,,,,,,,,,
null,,confidence_buffer,765697,confidence_buffer,,null,,,,,,,,,,,,,,,,,,
2667.5,,pt2_unique_rating,768366,Riverlyn,,52,,,4,,,,,,,,,,,,,,,
null,,confidence_buffer,768468,confidence_buffer,,null,,,,,,,,,,,,,,,,,,
1682,,pt2_memorable_rating,770151,Riverlyn,,51,,,3,,,,,,,,,,,,,,,
null,,confidence_buffer,770253,confidence_buffer,,null,,,,,,,,,,,,,,,,,,
1846.7999999523163,,recognition_phase,772102,Riverlyn,,49,,,,,,old,1,1,,,,,,,,,,
null,,confidence_buffer,772204,confidence_buffer,,null,,,,,,,,,,,,,,,,,,
null,,thebreak,772716,break,,null,,,,,,,,,,,,,,,,,,
2901.2000000476837,,realistic_rating,775618,Westridge,,53,Westridge,Fictional,5,,,,,,,,,,,,,,,
null,,confidence_buffer,775721,confidence_buffer,,null,,,,,,,,,,,,,,,,,,
2276.5,,pt2_unique_rating,777999,Westridge,,49,,,1,,,,,,,,,,,,,,,
null,,confidence_buffer,778101,confidence_buffer,,null,,,,,,,,,,,,,,,,,,
1886.7000000476837,,pt2_memorable_rating,779989,Westridge,,51,,,3,,,,,,,,,,,,,,,
null,,confidence_buffer,780091,confidence_buffer,,null,,,,,,,,,,,,,,,,,,
7672.200000047684,,recognition_phase,787765,Westridge,,51,,,,,,new,0,0.9615384615384616,,,,,,,,,,
null,,confidence_buffer,787866,confidence_buffer,,null,,,,,,,,,,,,,,,,,,
null,,thebreak,788367,break,,null,,,,,,,,,,,,,,,,,,
6325,,realistic_rating,794694,Sisters,,49,Sisters,US,1,,,,,,,,,,,,,,,
null,,confidence_buffer,794798,confidence_buffer,,null,,,,,,,,,,,,,,,,,,
3050,,pt2_unique_rating,797850,Sisters,,53,,,5,,,,,,,,,,,,,,,
null,,confidence_buffer,797952,confidence_buffer,,null,,,,,,,,,,,,,,,,,,
2204,,pt2_memorable_rating,800158,Sisters,,53,,,5,,,,,,,,,,,,,,,
null,,confidence_buffer,800259,confidence_buffer,,null,,,,,,,,,,,,,,,,,,
1425.5,,recognition_phase,801686,Sisters,,52,,,,,,new,1,0.9629629629629629,,,,,,,,,,
null,,confidence_buffer,801797,confidence_buffer,,null,,,,,,,,,,,,,,,,,,
null,,thebreak,802300,break,,null,,,,,,,,,,,,,,,,,,
2640.399999976158,,realistic_rating,804942,Barnard,,52,Barnard,US,4,,,,,,,,,,,,,,,
null,,confidence_buffer,805044,confidence_buffer,,null,,,,,,,,,,,,,,,,,,
1840.6999999284744,,pt2_unique_rating,806886,Barnard,,50,,,2,,,,,,,,,,,,,,,
null,,confidence_buffer,806988,confidence_buffer,,null,,,,,,,,,,,,,,,,,,
1396.5,,pt2_memorable_rating,808386,Barnard,,51,,,3,,,,,,,,,,,,,,,
null,,confidence_buffer,808487,confidence_buffer,,null,,,,,,,,,,,,,,,,,,
1804.6000000238419,,recognition_phase,810293,Barnard,,49,,,,,,old,1,0.9642857142857143,,,,,,,,,,
null,,confidence_buffer,810396,confidence_buffer,,null,,,,,,,,,,,,,,,,,,
null,,thebreak,810898,break,,null,,,,,,,,,,,,,,,,,,
4018.2999999523163,,realistic_rating,814918,Baymarsh,,52,Baymarsh,Fictional,4,,,,,,,,,,,,,,,
null,,confidence_buffer,815020,confidence_buffer,,null,,,,,,,,,,,,,,,,,,
1502.8000000715256,,pt2_unique_rating,816524,Baymarsh,,51,,,3,,,,,,,,,,,,,,,
null,,confidence_buffer,816627,confidence_buffer,,null,,,,,,,,,,,,,,,,,,
1265.7000000476837,,pt2_memorable_rating,817894,Baymarsh,,51,,,3,,,,,,,,,,,,,,,
null,,confidence_buffer,817996,confidence_buffer,,null,,,,,,,,,,,,,,,,,,
1308.3999999761581,,recognition_phase,819306,Baymarsh,,49,,,,,,old,1,0.9655172413793104,,,,,,,,,,
null,,confidence_buffer,819408,confidence_buffer,,null,,,,,,,,,,,,,,,,,,
null,,thebreak,819910,break,,null,,,,,,,,,,,,,,,,,,
2638.7999999523163,,realistic_rating,822550,Leesburg,,53,Leesburg,US,5,,,,,,,,,,,,,,,
null,,confidence_buffer,822652,confidence_buffer,,null,,,,,,,,,,,,,,,,,,
1784.7000000476837,,pt2_unique_rating,824438,Leesburg,,53,,,5,,,,,,,,,,,,,,,
null,,confidence_buffer,824540,confidence_buffer,,null,,,,,,,,,,,,,,,,,,
5069,,pt2_memorable_rating,829610,Leesburg,,52,,,4,,,,,,,,,,,,,,,
null,,confidence_buffer,829713,confidence_buffer,,null,,,,,,,,,,,,,,,,,,
2043.2999999523163,,recognition_phase,831758,Leesburg,,52,,,,,,new,1,0.9666666666666667,,,,,,,,,,
null,,confidence_buffer,831859,confidence_buffer,,null,,,,,,,,,,,,,,,,,,
null,,thebreak,832361,break,,null,,,,,,,,,,,,,,,,,,
20087.799999952316,,realistic_rating,852450,Elmsbury,,53,Elmsbury,Fictional,5,,,,,,,,,,,,,,,
null,,confidence_buffer,852552,confidence_buffer,,null,,,,,,,,,,,,,,,,,,
3035.899999976158,,pt2_unique_rating,855590,Elmsbury,,50,,,2,,,,,,,,,,,,,,,
null,,confidence_buffer,855691,confidence_buffer,,null,,,,,,,,,,,,,,,,,,
1273.1000000238419,,pt2_memorable_rating,856966,Elmsbury,,50,,,2,,,,,,,,,,,,,,,
null,,confidence_buffer,857067,confidence_buffer,,null,,,,,,,,,,,,,,,,,,
5685.5,,recognition_phase,862754,Elmsbury,,50,,,,,,old,1,0.967741935483871,,,,,,,,,,
null,,confidence_buffer,862864,confidence_buffer,,null,,,,,,,,,,,,,,,,,,
null,,thebreak,863366,break,,null,,,,,,,,,,,,,,,,,,
4166.899999976158,,realistic_rating,867534,Orr,,50,Orr,US,2,,,,,,,,,,,,,,,
null,,confidence_buffer,867636,confidence_buffer,,null,,,,,,,,,,,,,,,,,,
3912.5,,pt2_unique_rating,871550,Orr,,52,,,4,,,,,,,,,,,,,,,
null,,confidence_buffer,871651,confidence_buffer,,null,,,,,,,,,,,,,,,,,,
2677.600000023842,,pt2_memorable_rating,874330,Orr,,51,,,3,,,,,,,,,,,,,,,
null,,confidence_buffer,874432,confidence_buffer,,null,,,,,,,,,,,,,,,,,,
1379.5999999046326,,recognition_phase,875814,Orr,,52,,,,,,new,1,0.96875,,,,,,,,,,
null,,confidence_buffer,875915,confidence_buffer,,null,,,,,,,,,,,,,,,,,,
null,,thebreak,876418,break,,null,,,,,,,,,,,,,,,,,,
3066.5,,realistic_rating,879486,Highvale,,52,Highvale,Fictional,4,,,,,,,,,,,,,,,
null,,confidence_buffer,879588,confidence_buffer,,null,,,,,,,,,,,,,,,,,,
2800.100000023842,,pt2_unique_rating,882390,Highvale,,49,,,1,,,,,,,,,,,,,,,
null,,confidence_buffer,882492,confidence_buffer,,null,,,,,,,,,,,,,,,,,,
1800.1000000238419,,pt2_memorable_rating,884294,Highvale,,51,,,3,,,,,,,,,,,,,,,
null,,confidence_buffer,884395,confidence_buffer,,null,,,,,,,,,,,,,,,,,,
1607.6000000238419,,probe_rating,886004,probe_rating,,53,,,,5,1,,,,,,,,,,,,,
null,,confidence_buffer,886106,confidence_buffer,,null,,,,,,,,,,,,,,,,,,
3690,,recognition_phase,889798,Highvale,,51,,,,,,new,0,0.9393939393939394,,,,,,,,,,
null,,confidence_buffer,889900,confidence_buffer,,null,,,,,,,,,,,,,,,,,,
null,,thebreak,890402,break,,null,,,,,,,,,,,,,,,,,,
3914.399999976158,,realistic_rating,894318,Delaro Park,,52,Delaro Park,Fictional,4,,,,,,,,,,,,,,,
null,,confidence_buffer,894421,confidence_buffer,,null,,,,,,,,,,,,,,,,,,
2179.899999976158,,pt2_unique_rating,896602,Delaro Park,,51,,,3,,,,,,,,,,,,,,,
null,,confidence_buffer,896704,confidence_buffer,,null,,,,,,,,,,,,,,,,,,
1755.6999999284744,,pt2_memorable_rating,898462,Delaro Park,,50,,,2,,,,,,,,,,,,,,,
null,,confidence_buffer,898563,confidence_buffer,,null,,,,,,,,,,,,,,,,,,
2321.100000023842,,recognition_phase,900886,Delaro Park,,52,,,,,,new,1,0.9411764705882353,,,,,,,,,,
null,,confidence_buffer,900989,confidence_buffer,,null,,,,,,,,,,,,,,,,,,
null,,thebreak,901490,break,,null,,,,,,,,,,,,,,,,,,
3329.8000000715256,,realistic_rating,904822,Yukon,,53,Yukon,US,5,,,,,,,,,,,,,,,
null,,confidence_buffer,904923,confidence_buffer,,null,,,,,,,,,,,,,,,,,,
2785.5,,pt2_unique_rating,907710,Yukon,,49,,,1,,,,,,,,,,,,,,,
null,,confidence_buffer,907812,confidence_buffer,,null,,,,,,,,,,,,,,,,,,
1881.1000000238419,,pt2_memorable_rating,909694,Yukon,,51,,,3,,,,,,,,,,,,,,,
null,,confidence_buffer,909796,confidence_buffer,,null,,,,,,,,,,,,,,,,,,
1415.6999999284744,,recognition_phase,911214,Yukon,,52,,,,,,new,1,0.9428571428571428,,,,,,,,,,
null,,confidence_buffer,911316,confidence_buffer,,null,,,,,,,,,,,,,,,,,,
null,,thebreak,911818,break,,null,,,,,,,,,,,,,,,,,,
3314.100000023842,,realistic_rating,915134,East Ladera,,52,East Ladera,Fictional,4,,,,,,,,,,,,,,,
null,,confidence_buffer,915236,confidence_buffer,,null,,,,,,,,,,,,,,,,,,
1954.1000000238419,,pt2_unique_rating,917192,East Ladera,,51,,,3,,,,,,,,,,,,,,,
null,,confidence_buffer,917294,confidence_buffer,,null,,,,,,,,,,,,,,,,,,
1330.6999999284744,,pt2_memorable_rating,918626,East Ladera,,50,,,2,,,,,,,,,,,,,,,
null,,confidence_buffer,918728,confidence_buffer,,null,,,,,,,,,,,,,,,,,,
2029,,recognition_phase,920759,East Ladera,,49,,,,,,old,1,0.9444444444444444,,,,,,,,,,
null,,confidence_buffer,920860,confidence_buffer,,null,,,,,,,,,,,,,,,,,,
null,,thebreak,921362,break,,null,,,,,,,,,,,,,,,,,,
2410.2999999523163,,realistic_rating,923774,Huntsville,,53,Huntsville,US,5,,,,,,,,,,,,,,,
null,,confidence_buffer,923876,confidence_buffer,,null,,,,,,,,,,,,,,,,,,
2104,,pt2_unique_rating,925982,Huntsville,,49,,,1,,,,,,,,,,,,,,,
null,,confidence_buffer,926084,confidence_buffer,,null,,,,,,,,,,,,,,,,,,
2256.600000023842,,pt2_memorable_rating,928342,Huntsville,,53,,,5,,,,,,,,,,,,,,,
null,,confidence_buffer,928444,confidence_buffer,,null,,,,,,,,,,,,,,,,,,
1612.6999999284744,,recognition_phase,930058,Huntsville,,49,,,,,,old,1,0.9459459459459459,,,,,,,,,,
null,,confidence_buffer,930161,confidence_buffer,,null,,,,,,,,,,,,,,,,,,
null,,thebreak,930663,break,,null,,,,,,,,,,,,,,,,,,
2885.4000000953674,,realistic_rating,933550,Falconridge,,53,Falconridge,Fictional,5,,,,,,,,,,,,,,,
null,,confidence_buffer,933654,confidence_buffer,,null,,,,,,,,,,,,,,,,,,
3013.2999999523163,,pt2_unique_rating,936668,Falconridge,,50,,,2,,,,,,,,,,,,,,,
null,,confidence_buffer,936770,confidence_buffer,,null,,,,,,,,,,,,,,,,,,
1972.1000000238419,,pt2_memorable_rating,938743,Falconridge,,53,,,5,,,,,,,,,,,,,,,
null,,confidence_buffer,938845,confidence_buffer,,null,,,,,,,,,,,,,,,,,,
1167.7000000476837,,recognition_phase,940014,Falconridge,,49,,,,,,old,1,0.9473684210526315,,,,,,,,,,
null,,confidence_buffer,940117,confidence_buffer,,null,,,,,,,,,,,,,,,,,,
null,,thebreak,940619,break,,null,,,,,,,,,,,,,,,,,,
2918.2999999523163,,realistic_rating,943538,Juniper Creek,,53,Juniper Creek,Fictional,5,,,,,,,,,,,,,,,
null,,confidence_buffer,943641,confidence_buffer,,null,,,,,,,,,,,,,,,,,,
1507.5,,probe_rating,945150,probe_rating,,52,,,,4,1,,,,,,,,,,,,,
null,,confidence_buffer,945252,confidence_buffer,,null,,,,,,,,,,,,,,,,,,
3752.6999999284744,,pt2_unique_rating,949006,Juniper Creek,,51,,,3,,,,,,,,,,,,,,,
null,,confidence_buffer,949108,confidence_buffer,,null,,,,,,,,,,,,,,,,,,
2534.7000000476837,,pt2_memorable_rating,951644,Juniper Creek,,52,,,4,,,,,,,,,,,,,,,
null,,confidence_buffer,951754,confidence_buffer,,null,,,,,,,,,,,,,,,,,,
1871,,recognition_phase,953626,Juniper Creek,,49,,,,,,old,1,0.9487179487179487,,,,,,,,,,
null,,confidence_buffer,953728,confidence_buffer,,null,,,,,,,,,,,,,,,,,,
null,,thebreak,954230,break,,null,,,,,,,,,,,,,,,,,,
2342.2999999523163,,realistic_rating,956574,Ashford Hills,,53,Ashford Hills,Fictional,5,,,,,,,,,,,,,,,
null,,confidence_buffer,956676,confidence_buffer,,null,,,,,,,,,,,,,,,,,,
2248.7999999523163,,pt2_unique_rating,958926,Ashford Hills,,50,,,2,,,,,,,,,,,,,,,
null,,confidence_buffer,959028,confidence_buffer,,null,,,,,,,,,,,,,,,,,,
1944.3999999761581,,pt2_memorable_rating,960974,Ashford Hills,,50,,,2,,,,,,,,,,,,,,,
null,,confidence_buffer,961076,confidence_buffer,,null,,,,,,,,,,,,,,,,,,
2440.1999999284744,,recognition_phase,963518,Ashford Hills,,51,,,,,,new,1,0.95,,,,,,,,,,
null,,confidence_buffer,963619,confidence_buffer,,null,,,,,,,,,,,,,,,,,,
null,,thebreak,964122,break,,null,,,,,,,,,,,,,,,,,,
5535,,realistic_rating,969658,Tamarisk Hills,,51,Tamarisk Hills,Fictional,3,,,,,,,,,,,,,,,
null,,confidence_buffer,969769,confidence_buffer,,null,,,,,,,,,,,,,,,,,,
2691.100000023842,,pt2_unique_rating,972462,Tamarisk Hills,,52,,,4,,,,,,,,,,,,,,,
null,,confidence_buffer,972565,confidence_buffer,,null,,,,,,,,,,,,,,,,,,
2255.2000000476837,,pt2_memorable_rating,974822,Tamarisk Hills,,50,,,2,,,,,,,,,,,,,,,
null,,confidence_buffer,974923,confidence_buffer,,null,,,,,,,,,,,,,,,,,,
2232.7000000476837,,recognition_phase,977158,Tamarisk Hills,,52,,,,,,new,1,0.9512195121951219,,,,,,,,,,
null,,confidence_buffer,977261,confidence_buffer,,null,,,,,,,,,,,,,,,,,,
null,,thebreak,977762,break,,null,,,,,,,,,,,,,,,,,,
2831.2000000476837,,realistic_rating,980594,Claywater,,51,Claywater,Fictional,3,,,,,,,,,,,,,,,
null,,confidence_buffer,980711,confidence_buffer,,null,,,,,,,,,,,,,,,,,,
2741.5,,pt2_unique_rating,983454,Claywater,,50,,,2,,,,,,,,,,,,,,,
null,,confidence_buffer,983556,confidence_buffer,,null,,,,,,,,,,,,,,,,,,
1496.3999999761581,,pt2_memorable_rating,985054,Claywater,,50,,,2,,,,,,,,,,,,,,,
null,,confidence_buffer,985165,confidence_buffer,,null,,,,,,,,,,,,,,,,,,
2502.6999999284744,,recognition_phase,987670,Claywater,,49,,,,,,old,1,0.9523809523809523,,,,,,,,,,
null,,confidence_buffer,987787,confidence_buffer,,null,,,,,,,,,,,,,,,,,,
null,,thebreak,988289,break,,null,,,,,,,,,,,,,,,,,,
2959.6999999284744,,realistic_rating,991251,Sitka,,52,Sitka,US,4,,,,,,,,,,,,,,,
null,,confidence_buffer,991353,confidence_buffer,,null,,,,,,,,,,,,,,,,,,
3243,,pt2_unique_rating,994598,Sitka,,52,,,4,,,,,,,,,,,,,,,
null,,confidence_buffer,994700,confidence_buffer,,null,,,,,,,,,,,,,,,,,,
4648.799999952316,,pt2_memorable_rating,999350,Sitka,,52,,,4,,,,,,,,,,,,,,,
null,,confidence_buffer,999452,confidence_buffer,,null,,,,,,,,,,,,,,,,,,
1608.3000000715256,,recognition_phase,1001062,Sitka,,49,,,,,,old,1,0.9534883720930233,,,,,,,,,,
null,,confidence_buffer,1001164,confidence_buffer,,null,,,,,,,,,,,,,,,,,,
null,,thebreak,1001665,break,,null,,,,,,,,,,,,,,,,,,
2517.600000023842,,realistic_rating,1004184,Crestwood,,53,Crestwood,Fictional,5,,,,,,,,,,,,,,,
null,,confidence_buffer,1004286,confidence_buffer,,null,,,,,,,,,,,,,,,,,,
2054.9000000953674,,pt2_unique_rating,1006342,Crestwood,,49,,,1,,,,,,,,,,,,,,,
null,,confidence_buffer,1006444,confidence_buffer,,null,,,,,,,,,,,,,,,,,,
1768.7999999523163,,pt2_memorable_rating,1008214,Crestwood,,53,,,5,,,,,,,,,,,,,,,
null,,confidence_buffer,1008316,confidence_buffer,,null,,,,,,,,,,,,,,,,,,
3680,,recognition_phase,1011998,Crestwood,,51,,,,,,new,1,0.9545454545454546,,,,,,,,,,
null,,confidence_buffer,1012100,confidence_buffer,,null,,,,,,,,,,,,,,,,,,
null,,thebreak,1012602,break,,null,,,,,,,,,,,,,,,,,,
2583.600000023842,,realistic_rating,1015187,Brookmere,,53,Brookmere,Fictional,5,,,,,,,,,,,,,,,
null,,confidence_buffer,1015288,confidence_buffer,,null,,,,,,,,,,,,,,,,,,
2595.899999976158,,pt2_unique_rating,1017886,Brookmere,,51,,,3,,,,,,,,,,,,,,,
null,,confidence_buffer,1017995,confidence_buffer,,null,,,,,,,,,,,,,,,,,,
2217.2000000476837,,pt2_memorable_rating,1020214,Brookmere,,51,,,3,,,,,,,,,,,,,,,
null,,confidence_buffer,1020316,confidence_buffer,,null,,,,,,,,,,,,,,,,,,
1855.8999999761581,,recognition_phase,1022174,Brookmere,,52,,,,,,new,1,0.9555555555555556,,,,,,,,,,
null,,confidence_buffer,1022285,confidence_buffer,,null,,,,,,,,,,,,,,,,,,
null,,thebreak,1022787,break,,null,,,,,,,,,,,,,,,,,,
2590.1999999284744,,realistic_rating,1025378,Northbridge,,53,Northbridge,Fictional,5,,,,,,,,,,,,,,,
null,,confidence_buffer,1025481,confidence_buffer,,null,,,,,,,,,,,,,,,,,,
2755.4000000953674,,pt2_unique_rating,1028238,Northbridge,,49,,,1,,,,,,,,,,,,,,,
null,,confidence_buffer,1028341,confidence_buffer,,null,,,,,,,,,,,,,,,,,,
2208,,pt2_memorable_rating,1030550,Northbridge,,52,,,4,,,,,,,,,,,,,,,
null,,confidence_buffer,1030652,confidence_buffer,,null,,,,,,,,,,,,,,,,,,
1888.0999999046326,,probe_rating,1032542,probe_rating,,53,,,,5,1,,,,,,,,,,,,,
null,,confidence_buffer,1032644,confidence_buffer,,null,,,,,,,,,,,,,,,,,,
5436.600000023842,,recognition_phase,1038082,Northbridge,,52,,,,,,new,1,0.9565217391304348,,,,,,,,,,
null,,confidence_buffer,1038185,confidence_buffer,,null,,,,,,,,,,,,,,,,,,
null,,thebreak,1038686,break,,null,,,,,,,,,,,,,,,,,,
5342,,realistic_rating,1044030,Clearbrook,,53,Clearbrook,Fictional,5,,,,,,,,,,,,,,,
null,,confidence_buffer,1044132,confidence_buffer,,null,,,,,,,,,,,,,,,,,,
2505.100000023842,,pt2_unique_rating,1046639,Clearbrook,,49,,,1,,,,,,,,,,,,,,,
null,,confidence_buffer,1046741,confidence_buffer,,null,,,,,,,,,,,,,,,,,,
2067.2999999523163,,pt2_memorable_rating,1048810,Clearbrook,,52,,,4,,,,,,,,,,,,,,,
null,,confidence_buffer,1048912,confidence_buffer,,null,,,,,,,,,,,,,,,,,,
5012.200000047684,,recognition_phase,1053926,Clearbrook,,50,,,,,,old,0,0.9361702127659575,,,,,,,,,,
null,,confidence_buffer,1054028,confidence_buffer,,null,,,,,,,,,,,,,,,,,,
null,,thebreak,1054529,break,,null,,,,,,,,,,,,,,,,,,
3954.6999999284744,,realistic_rating,1058486,Linden Trace,,52,Linden Trace,Fictional,4,,,,,,,,,,,,,,,
null,,confidence_buffer,1058588,confidence_buffer,,null,,,,,,,,,,,,,,,,,,
3851.399999976158,,pt2_unique_rating,1062440,Linden Trace,,52,,,4,,,,,,,,,,,,,,,
null,,confidence_buffer,1062542,confidence_buffer,,null,,,,,,,,,,,,,,,,,,
1702.3999999761581,,pt2_memorable_rating,1064246,Linden Trace,,51,,,3,,,,,,,,,,,,,,,
null,,confidence_buffer,1064351,confidence_buffer,,null,,,,,,,,,,,,,,,,,,
1469.1000000238419,,recognition_phase,1065822,Linden Trace,,52,,,,,,new,1,0.9375,,,,,,,,,,
null,,confidence_buffer,1065925,confidence_buffer,,null,,,,,,,,,,,,,,,,,,
null,,thebreak,1066427,break,,null,,,,,,,,,,,,,,,,,,
2785.3000000715256,,realistic_rating,1069214,Lake of the Ozarks,,53,Lake of the Ozarks,US,5,,,,,,,,,,,,,,,
null,,confidence_buffer,1069325,confidence_buffer,,null,,,,,,,,,,,,,,,,,,
3054.7999999523163,,pt2_unique_rating,1072382,Lake of the Ozarks,,53,,,5,,,,,,,,,,,,,,,
null,,confidence_buffer,1072484,confidence_buffer,,null,,,,,,,,,,,,,,,,,,
2116.9000000953674,,probe_rating,1074603,probe_rating,,51,,,,3,1,,,,,,,,,,,,,
null,,confidence_buffer,1074705,confidence_buffer,,null,,,,,,,,,,,,,,,,,,
1451.4000000953674,,pt2_memorable_rating,1076158,Lake of the Ozarks,,53,,,5,,,,,,,,,,,,,,,
null,,confidence_buffer,1076261,confidence_buffer,,null,,,,,,,,,,,,,,,,,,
1582.8999999761581,,recognition_phase,1077846,Lake of the Ozarks,,49,,,,,,old,1,0.9387755102040817,,,,,,,,,,
null,,confidence_buffer,1077948,confidence_buffer,,null,,,,,,,,,,,,,,,,,,
null,,thebreak,1078450,break,,null,,,,,,,,,,,,,,,,,,
3322.600000023842,,realistic_rating,1081774,Hilo,,51,Hilo,US,3,,,,,,,,,,,,,,,
null,,confidence_buffer,1081876,confidence_buffer,,null,,,,,,,,,,,,,,,,,,
2376,,pt2_unique_rating,1084254,Hilo,,51,,,3,,,,,,,,,,,,,,,
null,,confidence_buffer,1084356,confidence_buffer,,null,,,,,,,,,,,,,,,,,,
1677.1000000238419,,pt2_memorable_rating,1086035,Hilo,,50,,,2,,,,,,,,,,,,,,,
null,,confidence_buffer,1086136,confidence_buffer,,null,,,,,,,,,,,,,,,,,,
1435.5,,recognition_phase,1087574,Hilo,,49,,,,,,old,1,0.94,,,,,,,,,,
null,,confidence_buffer,1087675,confidence_buffer,,null,,,,,,,,,,,,,,,,,,
null,,thebreak,1088177,break,,null,,,,,,,,,,,,,,,,,,
3113.5,,realistic_rating,1091292,Natchez,,51,Natchez,US,3,,,,,,,,,,,,,,,
null,,confidence_buffer,1091393,confidence_buffer,,null,,,,,,,,,,,,,,,,,,
2731.2000000476837,,pt2_unique_rating,1094126,Natchez,,52,,,4,,,,,,,,,,,,,,,
null,,confidence_buffer,1094228,confidence_buffer,,null,,,,,,,,,,,,,,,,,,
3005.100000023842,,pt2_memorable_rating,1097235,Natchez,,51,,,3,,,,,,,,,,,,,,,
null,,confidence_buffer,1097345,confidence_buffer,,null,,,,,,,,,,,,,,,,,,
1195,,recognition_phase,1098542,Natchez,,49,,,,,,old,1,0.9411764705882353,,,,,,,,,,
null,,confidence_buffer,1098645,confidence_buffer,,null,,,,,,,,,,,,,,,,,,
null,,thebreak,1099147,break,,null,,,,,,,,,,,,,,,,,,
3761.899999976158,,realistic_rating,1102910,Redgrove,,53,Redgrove,Fictional,5,,,,,,,,,,,,,,,
null,,confidence_buffer,1103013,confidence_buffer,,null,,,,,,,,,,,,,,,,,,
2599.7999999523163,,pt2_unique_rating,1105614,Redgrove,,49,,,1,,,,,,,,,,,,,,,
null,,confidence_buffer,1105716,confidence_buffer,,null,,,,,,,,,,,,,,,,,,
4797,,pt2_memorable_rating,1110514,Redgrove,,52,,,4,,,,,,,,,,,,,,,
null,,confidence_buffer,1110616,confidence_buffer,,null,,,,,,,,,,,,,,,,,,
1940.5,,recognition_phase,1112558,Redgrove,,52,,,,,,new,1,0.9423076923076923,,,,,,,,,,
null,,confidence_buffer,1112661,confidence_buffer,,null,,,,,,,,,,,,,,,,,,
null,,thebreak,1113163,break,,null,,,,,,,,,,,,,,,,,,
1801.2999999523163,,realistic_rating,1114966,Racine,,52,Racine,US,4,,,,,,,,,,,,,,,
null,,confidence_buffer,1115068,confidence_buffer,,null,,,,,,,,,,,,,,,,,,
3048.7000000476837,,pt2_unique_rating,1118118,Racine,,52,,,4,,,,,,,,,,,,,,,
null,,confidence_buffer,1118220,confidence_buffer,,null,,,,,,,,,,,,,,,,,,
2128.7000000476837,,pt2_memorable_rating,1120350,Racine,,51,,,3,,,,,,,,,,,,,,,
null,,confidence_buffer,1120452,confidence_buffer,,null,,,,,,,,,,,,,,,,,,
3020.5999999046326,,recognition_phase,1123475,Racine,,52,,,,,,new,1,0.9433962264150944,,,,,,,,,,
null,,confidence_buffer,1123584,confidence_buffer,,null,,,,,,,,,,,,,,,,,,
null,,thebreak,1124087,break,,null,,,,,,,,,,,,,,,,,,
2015,,realistic_rating,1126103,North Arroya,,52,North Arroya,Fictional,4,,,,,,,,,,,,,,,
null,,confidence_buffer,1126205,confidence_buffer,,null,,,,,,,,,,,,,,,,,,
4343.100000023842,,pt2_unique_rating,1130550,North Arroya,,52,,,4,,,,,,,,,,,,,,,
null,,confidence_buffer,1130652,confidence_buffer,,null,,,,,,,,,,,,,,,,,,
3213.100000023842,,pt2_memorable_rating,1133867,North Arroya,,52,,,4,,,,,,,,,,,,,,,
null,,confidence_buffer,1133970,confidence_buffer,,null,,,,,,,,,,,,,,,,,,
2186.899999976158,,recognition_phase,1136158,North Arroya,,52,,,,,,new,1,0.9444444444444444,,,,,,,,,,
null,,confidence_buffer,1136260,confidence_buffer,,null,,,,,,,,,,,,,,,,,,
null,,thebreak,1136763,break,,null,,,,,,,,,,,,,,,,,,
1753.8000000715256,,realistic_rating,1138518,Gatlinburg,,52,Gatlinburg,US,4,,,,,,,,,,,,,,,
null,,confidence_buffer,1138620,confidence_buffer,,null,,,,,,,,,,,,,,,,,,
3000.5,,pt2_unique_rating,1141622,Gatlinburg,,50,,,2,,,,,,,,,,,,,,,
null,,confidence_buffer,1141725,confidence_buffer,,null,,,,,,,,,,,,,,,,,,
1441.3999999761581,,pt2_memorable_rating,1143167,Gatlinburg,,52,,,4,,,,,,,,,,,,,,,
null,,confidence_buffer,1143269,confidence_buffer,,null,,,,,,,,,,,,,,,,,,
1460.1000000238419,,recognition_phase,1144731,Gatlinburg,,49,,,,,,old,1,0.9454545454545454,,,,,,,,,,
null,,confidence_buffer,1144833,confidence_buffer,,null,,,,,,,,,,,,,,,,,,
null,,thebreak,1145335,break,,null,,,,,,,,,,,,,,,,,,
4493.199999928474,,realistic_rating,1149830,Willowford,,53,Willowford,Fictional,5,,,,,,,,,,,,,,,
null,,confidence_buffer,1149931,confidence_buffer,,null,,,,,,,,,,,,,,,,,,
2233,,pt2_unique_rating,1152166,Willowford,,50,,,2,,,,,,,,,,,,,,,
null,,confidence_buffer,1152268,confidence_buffer,,null,,,,,,,,,,,,,,,,,,
1704.3999999761581,,pt2_memorable_rating,1153974,Willowford,,50,,,2,,,,,,,,,,,,,,,
null,,confidence_buffer,1154078,confidence_buffer,,null,,,,,,,,,,,,,,,,,,
1202.5,,recognition_phase,1155282,Willowford,,49,,,,,,old,1,0.9464285714285714,,,,,,,,,,
null,,confidence_buffer,1155384,confidence_buffer,,null,,,,,,,,,,,,,,,,,,
null,,thebreak,1155886,break,,null,,,,,,,,,,,,,,,,,,
3255.7999999523163,,realistic_rating,1159143,Delaware City,,53,Delaware City,US,5,,,,,,,,,,,,,,,
null,,confidence_buffer,1159245,confidence_buffer,,null,,,,,,,,,,,,,,,,,,
2102.899999976158,,pt2_unique_rating,1161350,Delaware City,,49,,,1,,,,,,,,,,,,,,,
null,,confidence_buffer,1161452,confidence_buffer,,null,,,,,,,,,,,,,,,,,,
1847.8999999761581,,pt2_memorable_rating,1163302,Delaware City,,51,,,3,,,,,,,,,,,,,,,
null,,confidence_buffer,1163403,confidence_buffer,,null,,,,,,,,,,,,,,,,,,
1401.1000000238419,,recognition_phase,1164806,Delaware City,,52,,,,,,new,1,0.9473684210526315,,,,,,,,,,
null,,confidence_buffer,1164908,confidence_buffer,,null,,,,,,,,,,,,,,,,,,
null,,thebreak,1165425,break,,null,,,,,,,,,,,,,,,,,,
3312.6999999284744,,realistic_rating,1168739,Assateague Island,,53,Assateague Island,US,5,,,,,,,,,,,,,,,
null,,confidence_buffer,1168841,confidence_buffer,,null,,,,,,,,,,,,,,,,,,
1739,,pt2_unique_rating,1170582,Assateague Island,,53,,,5,,,,,,,,,,,,,,,
null,,confidence_buffer,1170684,confidence_buffer,,null,,,,,,,,,,,,,,,,,,
848.7000000476837,,pt2_memorable_rating,1171534,Assateague Island,,53,,,5,,,,,,,,,,,,,,,
null,,confidence_buffer,1171636,confidence_buffer,,null,,,,,,,,,,,,,,,,,,
1456.3000000715256,,recognition_phase,1173094,Assateague Island,,49,,,,,,old,1,0.9482758620689655,,,,,,,,,,
null,,confidence_buffer,1173196,confidence_buffer,,null,,,,,,,,,,,,,,,,,,
null,,thebreak,1173697,break,,null,,,,,,,,,,,,,,,,,,
2299.6999999284744,,realistic_rating,1175998,Fairhaven,,53,Fairhaven,Fictional,5,,,,,,,,,,,,,,,
null,,confidence_buffer,1176101,confidence_buffer,,null,,,,,,,,,,,,,,,,,,
2739.7000000476837,,pt2_unique_rating,1178842,Fairhaven,,49,,,1,,,,,,,,,,,,,,,
null,,confidence_buffer,1178945,confidence_buffer,,null,,,,,,,,,,,,,,,,,,
2907.2999999523163,,pt2_memorable_rating,1181854,Fairhaven,,52,,,4,,,,,,,,,,,,,,,
null,,confidence_buffer,1181956,confidence_buffer,,null,,,,,,,,,,,,,,,,,,
2984,,recognition_phase,1184942,Fairhaven,,51,,,,,,new,1,0.9491525423728814,,,,,,,,,,
null,,confidence_buffer,1185044,confidence_buffer,,null,,,,,,,,,,,,,,,,,,
null,,thebreak,1185550,break,,null,,,,,,,,,,,,,,,,,,
2702.9000000953674,,realistic_rating,1188254,Duck,,53,Duck,US,5,,,,,,,,,,,,,,,
null,,confidence_buffer,1188356,confidence_buffer,,null,,,,,,,,,,,,,,,,,,
2662.4000000953674,,pt2_unique_rating,1191020,Duck,,52,,,4,,,,,,,,,,,,,,,
null,,confidence_buffer,1191122,confidence_buffer,,null,,,,,,,,,,,,,,,,,,
1642.1999999284744,,pt2_memorable_rating,1192766,Duck,,53,,,5,,,,,,,,,,,,,,,
null,,confidence_buffer,1192869,confidence_buffer,,null,,,,,,,,,,,,,,,,,,
1568.8999999761581,,recognition_phase,1194439,Duck,,52,,,,,,new,1,0.95,,,,,,,,,,
null,,confidence_buffer,1194541,confidence_buffer,,null,,,,,,,,,,,,,,,,,,
null,,thebreak,1195042,break,,null,,,,,,,,,,,,,,,,,,
,,survey,1600678,survey-questions,,,,,,,,,,,none,high,no,none really, some of the unique names I recognized from traveling a lot,I guess if it sounded familiar or awkward as far as the name, I did recognize many names from real cities,yes, some names were more memorable because either I knew the city already, or it was just a common name easy to remember,how common the name was thinking something like Smithtown vs, Lake of Ozarks, some cities names are common and used in multiple states, some you would never find a duplicate of,almost all were realistic in some way to me taking into account uniqueness although some names sounded awkward,no, not like this regarding names/cities,
