rt,responses,trial_type,time_elapsed,stimulus,button_pressed,key_press,name_trial,city_type,rating,probe,probe_accuracy,response,correct,accuracy,problems,smooth,distraction,strategies,familiar,memorable,unique,realistic,similar,comments
21251.600000000093,{worker_id:67ad0cc9f3a3feb73e22852d},id_enter,21255,,,,,,,,,,,,,,,,,,,,,
283465,,fullscreen,304725,fullscreen,0,,,,,,,,,,,,,,,,,,,
10130.899999999907,,intro_0,314860,instruct,,32,,,,,,,,,,,,,,,,,,
41534.89999999991,,intro_1,356399,instruct,,32,,,,,,,,,,,,,,,,,,
21598.799999999814,,intro_2,378000,instruct,,32,,,,,,,,,,,,,,,,,,
null,,instruct_dir_4,379504,instruct,,null,,,,,,,,,,,,,,,,,,
null,,thebreak,380008,break,,null,,,,,,,,,,,,,,,,,,
13156.600000000093,,familiar_rating,393168,Newport,,50,Newport,US,2,,,,,,,,,,,,,,,
null,,confidence_buffer,393271,confidence_buffer,,null,,,,,,,,,,,,,,,,,,
20723.100000000093,,probe_rating,413997,probe_rating,,51,,,,3,1,,,,,,,,,,,,,
null,,confidence_buffer,414099,confidence_buffer,,null,,,,,,,,,,,,,,,,,,
7725.899999999907,,unique_rating,421827,Newport,,52,,,4,,,,,,,,,,,,,,,
null,,confidence_buffer,421929,confidence_buffer,,null,,,,,,,,,,,,,,,,,,
7381,,memorable_rating,429312,Newport,,53,,,5,,,,,,,,,,,,,,,
null,,confidence_buffer,429414,confidence_buffer,,null,,,,,,,,,,,,,,,,,,
null,,thebreak,429917,break,,null,,,,,,,,,,,,,,,,,,
13806.30000000028,,familiar_rating,443725,Abilene,,49,Abilene,US,1,,,,,,,,,,,,,,,
null,,confidence_buffer,443828,confidence_buffer,,null,,,,,,,,,,,,,,,,,,
17560.100000000093,,unique_rating,461390,Abilene,,49,,,1,,,,,,,,,,,,,,,
null,,confidence_buffer,461492,confidence_buffer,,null,,,,,,,,,,,,,,,,,,
5381.299999999814,,memorable_rating,466875,Abilene,,50,,,2,,,,,,,,,,,,,,,
null,,confidence_buffer,466978,confidence_buffer,,null,,,,,,,,,,,,,,,,,,
null,,thebreak,467480,break,,null,,,,,,,,,,,,,,,,,,
8150.399999999907,,familiar_rating,475633,Manistee,,51,Manistee,US,3,,,,,,,,,,,,,,,
null,,confidence_buffer,475735,confidence_buffer,,null,,,,,,,,,,,,,,,,,,
11836.299999999814,,unique_rating,487573,Manistee,,51,,,3,,,,,,,,,,,,,,,
null,,confidence_buffer,487675,confidence_buffer,,null,,,,,,,,,,,,,,,,,,
6882.199999999721,,memorable_rating,494559,Manistee,,51,,,3,,,,,,,,,,,,,,,
null,,confidence_buffer,494661,confidence_buffer,,null,,,,,,,,,,,,,,,,,,
null,,thebreak,495162,break,,null,,,,,,,,,,,,,,,,,,
6545.299999999814,,familiar_rating,501710,East Ladera,,50,East Ladera,Fictional,2,,,,,,,,,,,,,,,
null,,confidence_buffer,501811,confidence_buffer,,null,,,,,,,,,,,,,,,,,,
7400.299999999814,,unique_rating,509214,East Ladera,,53,,,5,,,,,,,,,,,,,,,
null,,confidence_buffer,509317,confidence_buffer,,null,,,,,,,,,,,,,,,,,,
16679,,memorable_rating,525998,East Ladera,,51,,,3,,,,,,,,,,,,,,,
null,,confidence_buffer,526100,confidence_buffer,,null,,,,,,,,,,,,,,,,,,
null,,thebreak,526601,break,,null,,,,,,,,,,,,,,,,,,
6632.799999999814,,familiar_rating,533236,New Hope,,52,New Hope,US,4,,,,,,,,,,,,,,,
null,,confidence_buffer,533338,confidence_buffer,,null,,,,,,,,,,,,,,,,,,
25342.600000000093,,unique_rating,558682,New Hope,,53,,,5,,,,,,,,,,,,,,,
null,,confidence_buffer,558784,confidence_buffer,,null,,,,,,,,,,,,,,,,,,
6382.200000000186,,memorable_rating,565169,New Hope,,53,,,5,,,,,,,,,,,,,,,
null,,confidence_buffer,565271,confidence_buffer,,null,,,,,,,,,,,,,,,,,,
null,,thebreak,565772,break,,null,,,,,,,,,,,,,,,,,,
9091.900000000373,,familiar_rating,574868,Westridge,,52,Westridge,Fictional,4,,,,,,,,,,,,,,,
null,,confidence_buffer,574971,confidence_buffer,,null,,,,,,,,,,,,,,,,,,
4109.100000000093,,unique_rating,579081,Westridge,,53,,,5,,,,,,,,,,,,,,,
null,,confidence_buffer,579183,confidence_buffer,,null,,,,,,,,,,,,,,,,,,
14720.200000000186,,memorable_rating,593905,Westridge,,52,,,4,,,,,,,,,,,,,,,
null,,confidence_buffer,594007,confidence_buffer,,null,,,,,,,,,,,,,,,,,,
null,,thebreak,594508,break,,null,,,,,,,,,,,,,,,,,,
5026,,familiar_rating,599537,Duck,,50,Duck,US,2,,,,,,,,,,,,,,,
null,,confidence_buffer,599640,confidence_buffer,,null,,,,,,,,,,,,,,,,,,
5670.5999999996275,,unique_rating,605312,Duck,,53,,,5,,,,,,,,,,,,,,,
null,,confidence_buffer,605414,confidence_buffer,,null,,,,,,,,,,,,,,,,,,
5520.600000000093,,memorable_rating,610936,Duck,,53,,,5,,,,,,,,,,,,,,,
null,,confidence_buffer,611038,confidence_buffer,,null,,,,,,,,,,,,,,,,,,
null,,thebreak,611540,break,,null,,,,,,,,,,,,,,,,,,
26796.200000000186,,familiar_rating,638339,Redgrove,,50,Redgrove,Fictional,2,,,,,,,,,,,,,,,
null,,confidence_buffer,638442,confidence_buffer,,null,,,,,,,,,,,,,,,,,,
3856.4000000003725,,unique_rating,642300,Redgrove,,51,,,3,,,,,,,,,,,,,,,
null,,confidence_buffer,642402,confidence_buffer,,null,,,,,,,,,,,,,,,,,,
5827,,probe_rating,648232,probe_rating,,50,,,,2,1,,,,,,,,,,,,,
null,,confidence_buffer,648334,confidence_buffer,,null,,,,,,,,,,,,,,,,,,
4265.399999999907,,memorable_rating,652601,Redgrove,,50,,,2,,,,,,,,,,,,,,,
null,,confidence_buffer,652703,confidence_buffer,,null,,,,,,,,,,,,,,,,,,
null,,thebreak,653205,break,,null,,,,,,,,,,,,,,,,,,
6870,,familiar_rating,660077,Natchez,,50,Natchez,US,2,,,,,,,,,,,,,,,
null,,confidence_buffer,660179,confidence_buffer,,null,,,,,,,,,,,,,,,,,,
14075,,unique_rating,674255,Natchez,,51,,,3,,,,,,,,,,,,,,,
null,,confidence_buffer,674358,confidence_buffer,,null,,,,,,,,,,,,,,,,,,
3925.600000000093,,memorable_rating,678286,Natchez,,50,,,2,,,,,,,,,,,,,,,
null,,confidence_buffer,678390,confidence_buffer,,null,,,,,,,,,,,,,,,,,,
null,,thebreak,678891,break,,null,,,,,,,,,,,,,,,,,,
5634.199999999721,,familiar_rating,684528,San Antonio,,53,San Antonio,US,5,,,,,,,,,,,,,,,
null,,confidence_buffer,684631,confidence_buffer,,null,,,,,,,,,,,,,,,,,,
5100.700000000186,,unique_rating,689733,San Antonio,,53,,,5,,,,,,,,,,,,,,,
null,,confidence_buffer,689835,confidence_buffer,,null,,,,,,,,,,,,,,,,,,
3693.600000000093,,memorable_rating,693531,San Antonio,,53,,,5,,,,,,,,,,,,,,,
null,,confidence_buffer,693633,confidence_buffer,,null,,,,,,,,,,,,,,,,,,
null,,thebreak,694135,break,,null,,,,,,,,,,,,,,,,,,
7703.399999999907,,familiar_rating,701842,Pine Hollow,,51,Pine Hollow,Fictional,3,,,,,,,,,,,,,,,
null,,confidence_buffer,701945,confidence_buffer,,null,,,,,,,,,,,,,,,,,,
4815.700000000186,,unique_rating,706762,Pine Hollow,,52,,,4,,,,,,,,,,,,,,,
null,,confidence_buffer,706864,confidence_buffer,,null,,,,,,,,,,,,,,,,,,
1637.8999999999069,,memorable_rating,708503,Pine Hollow,,50,,,2,,,,,,,,,,,,,,,
null,,confidence_buffer,708605,confidence_buffer,,null,,,,,,,,,,,,,,,,,,
null,,thebreak,709108,break,,null,,,,,,,,,,,,,,,,,,
5004.399999999907,,familiar_rating,714115,Huntsville,,52,Huntsville,US,4,,,,,,,,,,,,,,,
null,,confidence_buffer,714218,confidence_buffer,,null,,,,,,,,,,,,,,,,,,
4214.100000000093,,unique_rating,718434,Huntsville,,52,,,4,,,,,,,,,,,,,,,
null,,confidence_buffer,718536,confidence_buffer,,null,,,,,,,,,,,,,,,,,,
2299.899999999907,,memorable_rating,720837,Huntsville,,52,,,4,,,,,,,,,,,,,,,
null,,confidence_buffer,720940,confidence_buffer,,null,,,,,,,,,,,,,,,,,,
null,,thebreak,721443,break,,null,,,,,,,,,,,,,,,,,,
6852.5,,familiar_rating,728298,Hollendale,,53,Hollendale,Fictional,5,,,,,,,,,,,,,,,
null,,confidence_buffer,728400,confidence_buffer,,null,,,,,,,,,,,,,,,,,,
12992.5,,unique_rating,741394,Hollendale,,53,,,5,,,,,,,,,,,,,,,
null,,confidence_buffer,741497,confidence_buffer,,null,,,,,,,,,,,,,,,,,,
7078.100000000093,,memorable_rating,748577,Hollendale,,53,,,5,,,,,,,,,,,,,,,
null,,confidence_buffer,748679,confidence_buffer,,null,,,,,,,,,,,,,,,,,,
null,,thebreak,749181,break,,null,,,,,,,,,,,,,,,,,,
22198.200000000186,,familiar_rating,771381,Peoria,,50,Peoria,US,2,,,,,,,,,,,,,,,
null,,confidence_buffer,771483,confidence_buffer,,null,,,,,,,,,,,,,,,,,,
2801.3000000002794,,unique_rating,774286,Peoria,,52,,,4,,,,,,,,,,,,,,,
null,,confidence_buffer,774389,confidence_buffer,,null,,,,,,,,,,,,,,,,,,
779.5,,memorable_rating,775171,Peoria,,52,,,4,,,,,,,,,,,,,,,
null,,confidence_buffer,775273,confidence_buffer,,null,,,,,,,,,,,,,,,,,,
3572.6999999997206,,probe_rating,778848,probe_rating,,50,,,,2,1,,,,,,,,,,,,,
null,,confidence_buffer,778951,confidence_buffer,,null,,,,,,,,,,,,,,,,,,
null,,thebreak,779453,break,,null,,,,,,,,,,,,,,,,,,
9629.600000000093,,familiar_rating,789085,Hanover,,49,Hanover,US,1,,,,,,,,,,,,,,,
null,,confidence_buffer,789189,confidence_buffer,,null,,,,,,,,,,,,,,,,,,
2316.7000000001863,,unique_rating,791509,Hanover,,52,,,4,,,,,,,,,,,,,,,
null,,confidence_buffer,791612,confidence_buffer,,null,,,,,,,,,,,,,,,,,,
6231.5,,memorable_rating,797845,Hanover,,53,,,5,,,,,,,,,,,,,,,
null,,confidence_buffer,797947,confidence_buffer,,null,,,,,,,,,,,,,,,,,,
null,,thebreak,798448,break,,null,,,,,,,,,,,,,,,,,,
3715,,familiar_rating,802165,Crestwood,,53,Crestwood,Fictional,5,,,,,,,,,,,,,,,
null,,confidence_buffer,802267,confidence_buffer,,null,,,,,,,,,,,,,,,,,,
7248.799999999814,,probe_rating,809517,probe_rating,,49,,,,1,1,,,,,,,,,,,,,
null,,confidence_buffer,809619,confidence_buffer,,null,,,,,,,,,,,,,,,,,,
5205.5999999996275,,unique_rating,814827,Crestwood,,52,,,4,,,,,,,,,,,,,,,
null,,confidence_buffer,814932,confidence_buffer,,null,,,,,,,,,,,,,,,,,,
1808.3999999999069,,memorable_rating,816742,Crestwood,,52,,,4,,,,,,,,,,,,,,,
null,,confidence_buffer,816844,confidence_buffer,,null,,,,,,,,,,,,,,,,,,
null,,thebreak,817346,break,,null,,,,,,,,,,,,,,,,,,
2735.1999999997206,,familiar_rating,820084,Claywater,,53,Claywater,Fictional,5,,,,,,,,,,,,,,,
null,,confidence_buffer,820187,confidence_buffer,,null,,,,,,,,,,,,,,,,,,
4150.899999999907,,unique_rating,824340,Claywater,,53,,,5,,,,,,,,,,,,,,,
null,,confidence_buffer,824442,confidence_buffer,,null,,,,,,,,,,,,,,,,,,
1864.2999999998137,,memorable_rating,826308,Claywater,,52,,,4,,,,,,,,,,,,,,,
null,,confidence_buffer,826419,confidence_buffer,,null,,,,,,,,,,,,,,,,,,
null,,thebreak,826921,break,,null,,,,,,,,,,,,,,,,,,
4944.899999999907,,familiar_rating,831868,Oakridge,,53,Oakridge,Fictional,5,,,,,,,,,,,,,,,
null,,confidence_buffer,831970,confidence_buffer,,null,,,,,,,,,,,,,,,,,,
55472.5,,unique_rating,887444,Oakridge,,53,,,5,,,,,,,,,,,,,,,
null,,confidence_buffer,887547,confidence_buffer,,null,,,,,,,,,,,,,,,,,,
5355.899999999907,,memorable_rating,892905,Oakridge,,53,,,5,,,,,,,,,,,,,,,
null,,confidence_buffer,893009,confidence_buffer,,null,,,,,,,,,,,,,,,,,,
null,,thebreak,893511,break,,null,,,,,,,,,,,,,,,,,,
48346.10000000009,,familiar_rating,941860,Meadowspire,,50,Meadowspire,Fictional,2,,,,,,,,,,,,,,,
null,,confidence_buffer,941962,confidence_buffer,,null,,,,,,,,,,,,,,,,,,
2228.5000000004657,,unique_rating,944192,Meadowspire,,52,,,4,,,,,,,,,,,,,,,
null,,confidence_buffer,944294,confidence_buffer,,null,,,,,,,,,,,,,,,,,,
1841,,memorable_rating,946138,Meadowspire,,51,,,3,,,,,,,,,,,,,,,
null,,confidence_buffer,946240,confidence_buffer,,null,,,,,,,,,,,,,,,,,,
null,,thebreak,946741,break,,null,,,,,,,,,,,,,,,,,,
5005.5,,familiar_rating,951749,Berkeley Springs,,52,Berkeley Springs,US,4,,,,,,,,,,,,,,,
null,,confidence_buffer,951851,confidence_buffer,,null,,,,,,,,,,,,,,,,,,
1995.699999999255,,unique_rating,953848,Berkeley Springs,,52,,,4,,,,,,,,,,,,,,,
null,,confidence_buffer,953951,confidence_buffer,,null,,,,,,,,,,,,,,,,,,
9152.400000000373,,memorable_rating,963106,Berkeley Springs,,51,,,3,,,,,,,,,,,,,,,
null,,confidence_buffer,963209,confidence_buffer,,null,,,,,,,,,,,,,,,,,,
6618.799999999814,,probe_rating,969829,probe_rating,,51,,,,3,1,,,,,,,,,,,,,
null,,confidence_buffer,969931,confidence_buffer,,null,,,,,,,,,,,,,,,,,,
null,,thebreak,970433,break,,null,,,,,,,,,,,,,,,,,,
19030.10000000056,,familiar_rating,989465,Bayshore Haven,,51,Bayshore Haven,Fictional,3,,,,,,,,,,,,,,,
null,,confidence_buffer,989567,confidence_buffer,,null,,,,,,,,,,,,,,,,,,
10581.800000000745,,probe_rating,1000151,probe_rating,,50,,,,2,1,,,,,,,,,,,,,
null,,confidence_buffer,1000253,confidence_buffer,,null,,,,,,,,,,,,,,,,,,
3795.7999999998137,,unique_rating,1004051,Bayshore Haven,,51,,,3,,,,,,,,,,,,,,,
null,,confidence_buffer,1004153,confidence_buffer,,null,,,,,,,,,,,,,,,,,,
2944.7999999998137,,memorable_rating,1007101,Bayshore Haven,,50,,,2,,,,,,,,,,,,,,,
null,,confidence_buffer,1007204,confidence_buffer,,null,,,,,,,,,,,,,,,,,,
null,,thebreak,1007705,break,,null,,,,,,,,,,,,,,,,,,
40547.799999999814,,familiar_rating,1048254,Hawthorne Bluffs,,49,Hawthorne Bluffs,Fictional,1,,,,,,,,,,,,,,,
null,,confidence_buffer,1048357,confidence_buffer,,null,,,,,,,,,,,,,,,,,,
4742.399999999441,,unique_rating,1053101,Hawthorne Bluffs,,51,,,3,,,,,,,,,,,,,,,
null,,confidence_buffer,1053204,confidence_buffer,,null,,,,,,,,,,,,,,,,,,
3413.7999999998137,,memorable_rating,1056621,Hawthorne Bluffs,,50,,,2,,,,,,,,,,,,,,,
null,,confidence_buffer,1056724,confidence_buffer,,null,,,,,,,,,,,,,,,,,,
null,,thebreak,1057228,break,,null,,,,,,,,,,,,,,,,,,
12749.700000000186,,familiar_rating,1069980,Solara Glen,,50,Solara Glen,Fictional,2,,,,,,,,,,,,,,,
null,,confidence_buffer,1070082,confidence_buffer,,null,,,,,,,,,,,,,,,,,,
2370,,unique_rating,1072453,Solara Glen,,53,,,5,,,,,,,,,,,,,,,
null,,confidence_buffer,1072555,confidence_buffer,,null,,,,,,,,,,,,,,,,,,
3868.9000000003725,,memorable_rating,1076427,Solara Glen,,50,,,2,,,,,,,,,,,,,,,
null,,confidence_buffer,1076531,confidence_buffer,,null,,,,,,,,,,,,,,,,,,
null,,thebreak,1077048,break,,null,,,,,,,,,,,,,,,,,,
19269.89999999944,,familiar_rating,1096320,Maravilla Springs,,50,Maravilla Springs,Fictional,2,,,,,,,,,,,,,,,
null,,confidence_buffer,1096423,confidence_buffer,,null,,,,,,,,,,,,,,,,,,
3402.2999999998137,,unique_rating,1099827,Maravilla Springs,,51,,,3,,,,,,,,,,,,,,,
null,,confidence_buffer,1099929,confidence_buffer,,null,,,,,,,,,,,,,,,,,,
5090.5999999996275,,memorable_rating,1105021,Maravilla Springs,,50,,,2,,,,,,,,,,,,,,,
null,,confidence_buffer,1105123,confidence_buffer,,null,,,,,,,,,,,,,,,,,,
null,,thebreak,1105625,break,,null,,,,,,,,,,,,,,,,,,
18199,,familiar_rating,1123826,Boulder,,52,Boulder,US,4,,,,,,,,,,,,,,,
null,,confidence_buffer,1123928,confidence_buffer,,null,,,,,,,,,,,,,,,,,,
2107.199999999255,,unique_rating,1126038,Boulder,,52,,,4,,,,,,,,,,,,,,,
null,,confidence_buffer,1126142,confidence_buffer,,null,,,,,,,,,,,,,,,,,,
4497.700000000186,,memorable_rating,1130641,Boulder,,53,,,5,,,,,,,,,,,,,,,
null,,confidence_buffer,1130743,confidence_buffer,,null,,,,,,,,,,,,,,,,,,
null,,thebreak,1131245,break,,null,,,,,,,,,,,,,,,,,,
4328.399999999441,,familiar_rating,1135575,Cleveland,,53,Cleveland,US,5,,,,,,,,,,,,,,,
null,,confidence_buffer,1135678,confidence_buffer,,null,,,,,,,,,,,,,,,,,,
2805.7999999998137,,unique_rating,1138485,Cleveland,,53,,,5,,,,,,,,,,,,,,,
null,,confidence_buffer,1138601,confidence_buffer,,null,,,,,,,,,,,,,,,,,,
4224,,memorable_rating,1142827,Cleveland,,53,,,5,,,,,,,,,,,,,,,
null,,confidence_buffer,1142929,confidence_buffer,,null,,,,,,,,,,,,,,,,,,
null,,thebreak,1143431,break,,null,,,,,,,,,,,,,,,,,,
3875.899999999441,,familiar_rating,1147310,Cody,,50,Cody,US,2,,,,,,,,,,,,,,,
null,,confidence_buffer,1147412,confidence_buffer,,null,,,,,,,,,,,,,,,,,,
3064.399999999441,,probe_rating,1150478,probe_rating,,52,,,,4,1,,,,,,,,,,,,,
null,,confidence_buffer,1150581,confidence_buffer,,null,,,,,,,,,,,,,,,,,,
2633.2999999998137,,unique_rating,1153217,Cody,,53,,,5,,,,,,,,,,,,,,,
null,,confidence_buffer,1153318,confidence_buffer,,null,,,,,,,,,,,,,,,,,,
5212.200000000186,,memorable_rating,1158533,Cody,,53,,,5,,,,,,,,,,,,,,,
null,,confidence_buffer,1158636,confidence_buffer,,null,,,,,,,,,,,,,,,,,,
null,,thebreak,1159137,break,,null,,,,,,,,,,,,,,,,,,
17305,,familiar_rating,1176445,Brookmere,,50,Brookmere,Fictional,2,,,,,,,,,,,,,,,
null,,confidence_buffer,1176562,confidence_buffer,,null,,,,,,,,,,,,,,,,,,
4707.799999999814,,unique_rating,1181272,Brookmere,,51,,,3,,,,,,,,,,,,,,,
null,,confidence_buffer,1181374,confidence_buffer,,null,,,,,,,,,,,,,,,,,,
12222.599999999627,,memorable_rating,1193598,Brookmere,,51,,,3,,,,,,,,,,,,,,,
null,,confidence_buffer,1193703,confidence_buffer,,null,,,,,,,,,,,,,,,,,,
null,,thebreak,1194205,break,,null,,,,,,,,,,,,,,,,,,
3893,,familiar_rating,1198100,Carmel,,53,Carmel,US,5,,,,,,,,,,,,,,,
null,,confidence_buffer,1198203,confidence_buffer,,null,,,,,,,,,,,,,,,,,,
2422.2999999998137,,unique_rating,1200627,Carmel,,53,,,5,,,,,,,,,,,,,,,
null,,confidence_buffer,1200729,confidence_buffer,,null,,,,,,,,,,,,,,,,,,
2716,,memorable_rating,1203447,Carmel,,53,,,5,,,,,,,,,,,,,,,
null,,confidence_buffer,1203550,confidence_buffer,,null,,,,,,,,,,,,,,,,,,
null,,thebreak,1204051,break,,null,,,,,,,,,,,,,,,,,,
4670.200000000186,,familiar_rating,1208724,Sierra Hollow,,51,Sierra Hollow,Fictional,3,,,,,,,,,,,,,,,
null,,confidence_buffer,1208826,confidence_buffer,,null,,,,,,,,,,,,,,,,,,
2667.2999999998137,,unique_rating,1211494,Sierra Hollow,,52,,,4,,,,,,,,,,,,,,,
null,,confidence_buffer,1211597,confidence_buffer,,null,,,,,,,,,,,,,,,,,,
4264.5999999996275,,memorable_rating,1215864,Sierra Hollow,,53,,,5,,,,,,,,,,,,,,,
null,,confidence_buffer,1215967,confidence_buffer,,null,,,,,,,,,,,,,,,,,,
3899.399999999441,,probe_rating,1219868,probe_rating,,53,,,,5,1,,,,,,,,,,,,,
null,,confidence_buffer,1219971,confidence_buffer,,null,,,,,,,,,,,,,,,,,,
null,,thebreak,1220474,break,,null,,,,,,,,,,,,,,,,,,
9497.799999999814,,intro_0,1229974,instruct,,32,,,,,,,,,,,,,,,,,,
19855,,intro_1,1249831,instruct,,32,,,,,,,,,,,,,,,,,,
57392.200000000186,,intro_2,1307225,instruct,,32,,,,,,,,,,,,,,,,,,
null,,instruct_dir_4,1308728,instruct,,null,,,,,,,,,,,,,,,,,,
21849.10000000056,,realistic_rating,1330579,Elmsbury,,52,Elmsbury,Fictional,4,,,,,,,,,,,,,,,
null,,confidence_buffer,1330683,confidence_buffer,,null,,,,,,,,,,,,,,,,,,
9439.900000000373,,pt2_unique_rating,1340124,Elmsbury,,52,,,4,,,,,,,,,,,,,,,
null,,confidence_buffer,1340227,confidence_buffer,,null,,,,,,,,,,,,,,,,,,
9432.399999999441,,pt2_memorable_rating,1349661,Elmsbury,,49,,,1,,,,,,,,,,,,,,,
null,,confidence_buffer,1349764,confidence_buffer,,null,,,,,,,,,,,,,,,,,,
5966.899999999441,,recognition_phase,1355732,Elmsbury,,52,,,,,,new,1,1,,,,,,,,,,
null,,confidence_buffer,1355836,confidence_buffer,,null,,,,,,,,,,,,,,,,,,
null,,thebreak,1356337,break,,null,,,,,,,,,,,,,,,,,,
11272.200000000186,,realistic_rating,1367612,Millstone,,51,Millstone,Fictional,3,,,,,,,,,,,,,,,
null,,confidence_buffer,1367716,confidence_buffer,,null,,,,,,,,,,,,,,,,,,
5467,,pt2_unique_rating,1373185,Millstone,,52,,,4,,,,,,,,,,,,,,,
null,,confidence_buffer,1373288,confidence_buffer,,null,,,,,,,,,,,,,,,,,,
2789.600000000559,,pt2_memorable_rating,1376078,Millstone,,52,,,4,,,,,,,,,,,,,,,
null,,confidence_buffer,1376182,confidence_buffer,,null,,,,,,,,,,,,,,,,,,
2644,,recognition_phase,1378829,Millstone,,52,,,,,,new,1,1,,,,,,,,,,
null,,confidence_buffer,1378933,confidence_buffer,,null,,,,,,,,,,,,,,,,,,
null,,thebreak,1379435,break,,null,,,,,,,,,,,,,,,,,,
8752.5,,realistic_rating,1388195,Baymarsh,,52,Baymarsh,Fictional,4,,,,,,,,,,,,,,,
null,,confidence_buffer,1388298,confidence_buffer,,null,,,,,,,,,,,,,,,,,,
3726.4000000003725,,pt2_unique_rating,1392026,Baymarsh,,53,,,5,,,,,,,,,,,,,,,
null,,confidence_buffer,1392128,confidence_buffer,,null,,,,,,,,,,,,,,,,,,
9189.299999999814,,pt2_memorable_rating,1401319,Baymarsh,,50,,,2,,,,,,,,,,,,,,,
null,,confidence_buffer,1401422,confidence_buffer,,null,,,,,,,,,,,,,,,,,,
3349.4000000003725,,recognition_phase,1404773,Baymarsh,,52,,,,,,new,1,1,,,,,,,,,,
null,,confidence_buffer,1404876,confidence_buffer,,null,,,,,,,,,,,,,,,,,,
null,,thebreak,1405378,break,,null,,,,,,,,,,,,,,,,,,
9097.200000000186,,realistic_rating,1414478,Orr,,49,Orr,US,1,,,,,,,,,,,,,,,
null,,confidence_buffer,1414580,confidence_buffer,,null,,,,,,,,,,,,,,,,,,
7911.200000000186,,pt2_unique_rating,1422493,Orr,,49,,,1,,,,,,,,,,,,,,,
null,,confidence_buffer,1422596,confidence_buffer,,null,,,,,,,,,,,,,,,,,,
7679.800000000745,,pt2_memorable_rating,1430278,Orr,,52,,,4,,,,,,,,,,,,,,,
null,,confidence_buffer,1430380,confidence_buffer,,null,,,,,,,,,,,,,,,,,,
2404.2999999998137,,recognition_phase,1432785,Orr,,52,,,,,,new,1,1,,,,,,,,,,
null,,confidence_buffer,1432889,confidence_buffer,,null,,,,,,,,,,,,,,,,,,
null,,thebreak,1433392,break,,null,,,,,,,,,,,,,,,,,,
10081.299999999814,,realistic_rating,1443476,Highvale,,53,Highvale,Fictional,5,,,,,,,,,,,,,,,
null,,confidence_buffer,1443579,confidence_buffer,,null,,,,,,,,,,,,,,,,,,
5533.5999999996275,,pt2_unique_rating,1449114,Highvale,,53,,,5,,,,,,,,,,,,,,,
null,,confidence_buffer,1449218,confidence_buffer,,null,,,,,,,,,,,,,,,,,,
2400.7999999998137,,pt2_memorable_rating,1451620,Highvale,,50,,,2,,,,,,,,,,,,,,,
null,,confidence_buffer,1451723,confidence_buffer,,null,,,,,,,,,,,,,,,,,,
2301.2999999998137,,recognition_phase,1454025,Highvale,,52,,,,,,new,1,1,,,,,,,,,,
null,,confidence_buffer,1454128,confidence_buffer,,null,,,,,,,,,,,,,,,,,,
null,,thebreak,1454628,break,,null,,,,,,,,,,,,,,,,,,
7751.5,,realistic_rating,1462383,Abilene,,50,Abilene,US,2,,,,,,,,,,,,,,,
null,,confidence_buffer,1462485,confidence_buffer,,null,,,,,,,,,,,,,,,,,,
2472.600000000559,,pt2_unique_rating,1464959,Abilene,,52,,,4,,,,,,,,,,,,,,,
null,,confidence_buffer,1465061,confidence_buffer,,null,,,,,,,,,,,,,,,,,,
2525.5,,pt2_memorable_rating,1467589,Abilene,,50,,,2,,,,,,,,,,,,,,,
null,,confidence_buffer,1467691,confidence_buffer,,null,,,,,,,,,,,,,,,,,,
2067.800000000745,,recognition_phase,1469760,Abilene,,52,,,,,,new,0,0.8333333333333334,,,,,,,,,,
null,,confidence_buffer,1469864,confidence_buffer,,null,,,,,,,,,,,,,,,,,,
null,,thebreak,1470365,break,,null,,,,,,,,,,,,,,,,,,
5030,,realistic_rating,1475397,Meadowspire,,53,Meadowspire,Fictional,5,,,,,,,,,,,,,,,
null,,confidence_buffer,1475499,confidence_buffer,,null,,,,,,,,,,,,,,,,,,
4837.5,,pt2_unique_rating,1480339,Meadowspire,,52,,,4,,,,,,,,,,,,,,,
null,,confidence_buffer,1480441,confidence_buffer,,null,,,,,,,,,,,,,,,,,,
3022.0999999996275,,pt2_memorable_rating,1483465,Meadowspire,,51,,,3,,,,,,,,,,,,,,,
null,,confidence_buffer,1483569,confidence_buffer,,null,,,,,,,,,,,,,,,,,,
4480.4000000003725,,probe_rating,1488052,probe_rating,,52,,,,4,1,,,,,,,,,,,,,
null,,confidence_buffer,1488156,confidence_buffer,,null,,,,,,,,,,,,,,,,,,
7694.5999999996275,,recognition_phase,1495853,Meadowspire,,49,,,,,,old,1,0.8571428571428571,,,,,,,,,,
null,,confidence_buffer,1495955,confidence_buffer,,null,,,,,,,,,,,,,,,,,,
null,,thebreak,1496458,break,,null,,,,,,,,,,,,,,,,,,
18848.699999999255,,realistic_rating,1515309,Natchez,,49,Natchez,US,1,,,,,,,,,,,,,,,
null,,confidence_buffer,1515411,confidence_buffer,,null,,,,,,,,,,,,,,,,,,
5572.700000000186,,pt2_unique_rating,1520986,Natchez,,51,,,3,,,,,,,,,,,,,,,
null,,confidence_buffer,1521088,confidence_buffer,,null,,,,,,,,,,,,,,,,,,
4227.299999999814,,probe_rating,1525317,probe_rating,,53,,,,5,1,,,,,,,,,,,,,
null,,confidence_buffer,1525419,confidence_buffer,,null,,,,,,,,,,,,,,,,,,
5938.5,,pt2_memorable_rating,1531359,Natchez,,53,,,5,,,,,,,,,,,,,,,
null,,confidence_buffer,1531462,confidence_buffer,,null,,,,,,,,,,,,,,,,,,
1810.7999999998137,,recognition_phase,1533274,Natchez,,52,,,,,,new,0,0.75,,,,,,,,,,
null,,confidence_buffer,1533377,confidence_buffer,,null,,,,,,,,,,,,,,,,,,
null,,thebreak,1533879,break,,null,,,,,,,,,,,,,,,,,,
14277.599999999627,,realistic_rating,1548159,Silverpine,,51,Silverpine,Fictional,3,,,,,,,,,,,,,,,
null,,confidence_buffer,1548261,confidence_buffer,,null,,,,,,,,,,,,,,,,,,
1964.9000000003725,,pt2_unique_rating,1550227,Silverpine,,51,,,3,,,,,,,,,,,,,,,
null,,confidence_buffer,1550330,confidence_buffer,,null,,,,,,,,,,,,,,,,,,
1954.5,,pt2_memorable_rating,1552287,Silverpine,,50,,,2,,,,,,,,,,,,,,,
null,,confidence_buffer,1552390,confidence_buffer,,null,,,,,,,,,,,,,,,,,,
4326.4000000003725,,recognition_phase,1556718,Silverpine,,52,,,,,,new,1,0.7777777777777778,,,,,,,,,,
null,,confidence_buffer,1556822,confidence_buffer,,null,,,,,,,,,,,,,,,,,,
null,,thebreak,1557324,break,,null,,,,,,,,,,,,,,,,,,
3838,,realistic_rating,1561164,Crestwood,,53,Crestwood,Fictional,5,,,,,,,,,,,,,,,
null,,confidence_buffer,1561268,confidence_buffer,,null,,,,,,,,,,,,,,,,,,
5193,,pt2_unique_rating,1566462,Crestwood,,53,,,5,,,,,,,,,,,,,,,
null,,confidence_buffer,1566565,confidence_buffer,,null,,,,,,,,,,,,,,,,,,
2932.800000000745,,pt2_memorable_rating,1569499,Crestwood,,53,,,5,,,,,,,,,,,,,,,
null,,confidence_buffer,1569602,confidence_buffer,,null,,,,,,,,,,,,,,,,,,
2791.5,,recognition_phase,1572396,Crestwood,,49,,,,,,old,1,0.8,,,,,,,,,,
null,,confidence_buffer,1572497,confidence_buffer,,null,,,,,,,,,,,,,,,,,,
null,,thebreak,1573003,break,,null,,,,,,,,,,,,,,,,,,
3924.699999999255,,realistic_rating,1576932,Coralridge,,52,Coralridge,Fictional,4,,,,,,,,,,,,,,,
null,,confidence_buffer,1577034,confidence_buffer,,null,,,,,,,,,,,,,,,,,,
2627.0999999996275,,pt2_unique_rating,1579664,Coralridge,,51,,,3,,,,,,,,,,,,,,,
null,,confidence_buffer,1579767,confidence_buffer,,null,,,,,,,,,,,,,,,,,,
9169.900000000373,,pt2_memorable_rating,1588940,Coralridge,,51,,,3,,,,,,,,,,,,,,,
null,,confidence_buffer,1589044,confidence_buffer,,null,,,,,,,,,,,,,,,,,,
5607,,recognition_phase,1594652,Coralridge,,49,,,,,,old,0,0.7272727272727273,,,,,,,,,,
null,,confidence_buffer,1594755,confidence_buffer,,null,,,,,,,,,,,,,,,,,,
null,,thebreak,1595257,break,,null,,,,,,,,,,,,,,,,,,
4207.899999999441,,realistic_rating,1599467,Assateague Island,,53,Assateague Island,US,5,,,,,,,,,,,,,,,
null,,confidence_buffer,1599568,confidence_buffer,,null,,,,,,,,,,,,,,,,,,
4067,,pt2_unique_rating,1603637,Assateague Island,,52,,,4,,,,,,,,,,,,,,,
null,,confidence_buffer,1603740,confidence_buffer,,null,,,,,,,,,,,,,,,,,,
13563,,pt2_memorable_rating,1617306,Assateague Island,,50,,,2,,,,,,,,,,,,,,,
null,,confidence_buffer,1617409,confidence_buffer,,null,,,,,,,,,,,,,,,,,,
2361.9000000003725,,recognition_phase,1619772,Assateague Island,,52,,,,,,new,1,0.75,,,,,,,,,,
null,,confidence_buffer,1619874,confidence_buffer,,null,,,,,,,,,,,,,,,,,,
null,,thebreak,1620377,break,,null,,,,,,,,,,,,,,,,,,
4946.899999999441,,realistic_rating,1625327,New Hope,,53,New Hope,US,5,,,,,,,,,,,,,,,
null,,confidence_buffer,1625430,confidence_buffer,,null,,,,,,,,,,,,,,,,,,
2777.4000000003725,,pt2_unique_rating,1628212,New Hope,,53,,,5,,,,,,,,,,,,,,,
null,,confidence_buffer,1628315,confidence_buffer,,null,,,,,,,,,,,,,,,,,,
1869.9000000003725,,pt2_memorable_rating,1630188,New Hope,,53,,,5,,,,,,,,,,,,,,,
null,,confidence_buffer,1630290,confidence_buffer,,null,,,,,,,,,,,,,,,,,,
3594.300000000745,,recognition_phase,1633886,New Hope,,49,,,,,,old,1,0.7692307692307693,,,,,,,,,,
null,,confidence_buffer,1633989,confidence_buffer,,null,,,,,,,,,,,,,,,,,,
null,,thebreak,1634491,break,,null,,,,,,,,,,,,,,,,,,
4373.9000000003725,,realistic_rating,1638867,Delaware City,,52,Delaware City,US,4,,,,,,,,,,,,,,,
null,,confidence_buffer,1638970,confidence_buffer,,null,,,,,,,,,,,,,,,,,,
2941.899999999441,,pt2_unique_rating,1641914,Delaware City,,51,,,3,,,,,,,,,,,,,,,
null,,confidence_buffer,1642019,confidence_buffer,,null,,,,,,,,,,,,,,,,,,
14274.5,,pt2_memorable_rating,1656296,Delaware City,,53,,,5,,,,,,,,,,,,,,,
null,,confidence_buffer,1656399,confidence_buffer,,null,,,,,,,,,,,,,,,,,,
4931,,recognition_phase,1661331,Delaware City,,52,,,,,,new,1,0.7857142857142857,,,,,,,,,,
null,,confidence_buffer,1661434,confidence_buffer,,null,,,,,,,,,,,,,,,,,,
null,,thebreak,1661937,break,,null,,,,,,,,,,,,,,,,,,
5970.199999999255,,realistic_rating,1667909,Brookmere,,51,Brookmere,Fictional,3,,,,,,,,,,,,,,,
null,,confidence_buffer,1668011,confidence_buffer,,null,,,,,,,,,,,,,,,,,,
2135.100000000559,,pt2_unique_rating,1670148,Brookmere,,51,,,3,,,,,,,,,,,,,,,
null,,confidence_buffer,1670250,confidence_buffer,,null,,,,,,,,,,,,,,,,,,
2690.399999999441,,pt2_memorable_rating,1672943,Brookmere,,51,,,3,,,,,,,,,,,,,,,
null,,confidence_buffer,1673045,confidence_buffer,,null,,,,,,,,,,,,,,,,,,
6248,,recognition_phase,1679295,Brookmere,,49,,,,,,old,1,0.8,,,,,,,,,,
null,,confidence_buffer,1679397,confidence_buffer,,null,,,,,,,,,,,,,,,,,,
null,,thebreak,1679898,break,,null,,,,,,,,,,,,,,,,,,
3761,,realistic_rating,1683662,Summershade,,51,Summershade,Fictional,3,,,,,,,,,,,,,,,
null,,confidence_buffer,1683765,confidence_buffer,,null,,,,,,,,,,,,,,,,,,
9375.800000000745,,pt2_unique_rating,1693142,Summershade,,51,,,3,,,,,,,,,,,,,,,
null,,confidence_buffer,1693245,confidence_buffer,,null,,,,,,,,,,,,,,,,,,
11186.199999999255,,pt2_memorable_rating,1704434,Summershade,,51,,,3,,,,,,,,,,,,,,,
null,,confidence_buffer,1704537,confidence_buffer,,null,,,,,,,,,,,,,,,,,,
3646.5,,recognition_phase,1708185,Summershade,,52,,,,,,new,1,0.8125,,,,,,,,,,
null,,confidence_buffer,1708288,confidence_buffer,,null,,,,,,,,,,,,,,,,,,
null,,thebreak,1708790,break,,null,,,,,,,,,,,,,,,,,,
4467.299999999814,,realistic_rating,1713259,Driftwood Bay,,50,Driftwood Bay,Fictional,2,,,,,,,,,,,,,,,
null,,confidence_buffer,1713362,confidence_buffer,,null,,,,,,,,,,,,,,,,,,
2278.5999999996275,,pt2_unique_rating,1715643,Driftwood Bay,,51,,,3,,,,,,,,,,,,,,,
null,,confidence_buffer,1715746,confidence_buffer,,null,,,,,,,,,,,,,,,,,,
2339.399999999441,,pt2_memorable_rating,1718088,Driftwood Bay,,50,,,2,,,,,,,,,,,,,,,
null,,confidence_buffer,1718191,confidence_buffer,,null,,,,,,,,,,,,,,,,,,
2595.2000000001863,,recognition_phase,1720788,Driftwood Bay,,52,,,,,,new,1,0.8235294117647058,,,,,,,,,,
null,,confidence_buffer,1720891,confidence_buffer,,null,,,,,,,,,,,,,,,,,,
null,,thebreak,1721393,break,,null,,,,,,,,,,,,,,,,,,
3347.9000000003725,,realistic_rating,1724743,Hanover,,52,Hanover,US,4,,,,,,,,,,,,,,,
null,,confidence_buffer,1724849,confidence_buffer,,null,,,,,,,,,,,,,,,,,,
2427.2999999998137,,pt2_unique_rating,1727282,Hanover,,50,,,2,,,,,,,,,,,,,,,
null,,confidence_buffer,1727387,confidence_buffer,,null,,,,,,,,,,,,,,,,,,
8870.200000000186,,pt2_memorable_rating,1736260,Hanover,,52,,,4,,,,,,,,,,,,,,,
null,,confidence_buffer,1736362,confidence_buffer,,null,,,,,,,,,,,,,,,,,,
2993.2999999998137,,recognition_phase,1739357,Hanover,,49,,,,,,old,1,0.8333333333333334,,,,,,,,,,
null,,confidence_buffer,1739460,confidence_buffer,,null,,,,,,,,,,,,,,,,,,
null,,thebreak,1739962,break,,null,,,,,,,,,,,,,,,,,,
3552.5,,realistic_rating,1743517,Hot Springs,,53,Hot Springs,US,5,,,,,,,,,,,,,,,
null,,confidence_buffer,1743621,confidence_buffer,,null,,,,,,,,,,,,,,,,,,
4836.300000000745,,pt2_unique_rating,1748459,Hot Springs,,52,,,4,,,,,,,,,,,,,,,
null,,confidence_buffer,1748561,confidence_buffer,,null,,,,,,,,,,,,,,,,,,
9723.600000000559,,pt2_memorable_rating,1758287,Hot Springs,,53,,,5,,,,,,,,,,,,,,,
null,,confidence_buffer,1758390,confidence_buffer,,null,,,,,,,,,,,,,,,,,,
1862.5,,recognition_phase,1760254,Hot Springs,,52,,,,,,new,1,0.8421052631578947,,,,,,,,,,
null,,confidence_buffer,1760359,confidence_buffer,,null,,,,,,,,,,,,,,,,,,
null,,thebreak,1760861,break,,null,,,,,,,,,,,,,,,,,,
7085.5,,realistic_rating,1767949,Berkeley Springs,,50,Berkeley Springs,US,2,,,,,,,,,,,,,,,
null,,confidence_buffer,1768051,confidence_buffer,,null,,,,,,,,,,,,,,,,,,
2443.199999999255,,pt2_unique_rating,1770496,Berkeley Springs,,51,,,3,,,,,,,,,,,,,,,
null,,confidence_buffer,1770599,confidence_buffer,,null,,,,,,,,,,,,,,,,,,
4654.5,,pt2_memorable_rating,1775255,Berkeley Springs,,52,,,4,,,,,,,,,,,,,,,
null,,confidence_buffer,1775363,confidence_buffer,,null,,,,,,,,,,,,,,,,,,
2343.0999999996275,,recognition_phase,1777709,Berkeley Springs,,49,,,,,,old,1,0.85,,,,,,,,,,
null,,confidence_buffer,1777811,confidence_buffer,,null,,,,,,,,,,,,,,,,,,
null,,thebreak,1778313,break,,null,,,,,,,,,,,,,,,,,,
13477.899999999441,,realistic_rating,1791794,Newport,,53,Newport,US,5,,,,,,,,,,,,,,,
null,,confidence_buffer,1791897,confidence_buffer,,null,,,,,,,,,,,,,,,,,,
3196.4000000003725,,pt2_unique_rating,1795096,Newport,,52,,,4,,,,,,,,,,,,,,,
null,,confidence_buffer,1795200,confidence_buffer,,null,,,,,,,,,,,,,,,,,,
1914.7999999998137,,pt2_memorable_rating,1797117,Newport,,52,,,4,,,,,,,,,,,,,,,
null,,confidence_buffer,1797219,confidence_buffer,,null,,,,,,,,,,,,,,,,,,
2136.5999999996275,,recognition_phase,1799358,Newport,,52,,,,,,new,0,0.8095238095238095,,,,,,,,,,
null,,confidence_buffer,1799461,confidence_buffer,,null,,,,,,,,,,,,,,,,,,
null,,thebreak,1799964,break,,null,,,,,,,,,,,,,,,,,,
3976.9000000003725,,realistic_rating,1803944,Cape May,,50,Cape May,US,2,,,,,,,,,,,,,,,
null,,confidence_buffer,1804047,confidence_buffer,,null,,,,,,,,,,,,,,,,,,
1944.0999999996275,,pt2_unique_rating,1805992,Cape May,,51,,,3,,,,,,,,,,,,,,,
null,,confidence_buffer,1806095,confidence_buffer,,null,,,,,,,,,,,,,,,,,,
4502.700000000186,,pt2_memorable_rating,1810601,Cape May,,52,,,4,,,,,,,,,,,,,,,
null,,confidence_buffer,1810704,confidence_buffer,,null,,,,,,,,,,,,,,,,,,
1862.2999999998137,,recognition_phase,1812568,Cape May,,52,,,,,,new,1,0.8181818181818182,,,,,,,,,,
null,,confidence_buffer,1812671,confidence_buffer,,null,,,,,,,,,,,,,,,,,,
null,,thebreak,1813173,break,,null,,,,,,,,,,,,,,,,,,
9715.399999999441,,realistic_rating,1822890,Willowford,,50,Willowford,Fictional,2,,,,,,,,,,,,,,,
null,,confidence_buffer,1822993,confidence_buffer,,null,,,,,,,,,,,,,,,,,,
20689.699999999255,,pt2_unique_rating,1843684,Willowford,,51,,,3,,,,,,,,,,,,,,,
null,,confidence_buffer,1843786,confidence_buffer,,null,,,,,,,,,,,,,,,,,,
2465.2000000001863,,pt2_memorable_rating,1846253,Willowford,,50,,,2,,,,,,,,,,,,,,,
null,,confidence_buffer,1846358,confidence_buffer,,null,,,,,,,,,,,,,,,,,,
2013.7999999998137,,recognition_phase,1848374,Willowford,,52,,,,,,new,1,0.8260869565217391,,,,,,,,,,
null,,confidence_buffer,1848476,confidence_buffer,,null,,,,,,,,,,,,,,,,,,
null,,thebreak,1848978,break,,null,,,,,,,,,,,,,,,,,,
5650,,realistic_rating,1854630,Redgrove,,51,Redgrove,Fictional,3,,,,,,,,,,,,,,,
null,,confidence_buffer,1854744,confidence_buffer,,null,,,,,,,,,,,,,,,,,,
5019,,pt2_unique_rating,1859765,Redgrove,,52,,,4,,,,,,,,,,,,,,,
null,,confidence_buffer,1859867,confidence_buffer,,null,,,,,,,,,,,,,,,,,,
6316.799999999814,,pt2_memorable_rating,1866187,Redgrove,,52,,,4,,,,,,,,,,,,,,,
null,,confidence_buffer,1866289,confidence_buffer,,null,,,,,,,,,,,,,,,,,,
4164.5,,probe_rating,1870456,probe_rating,,53,,,,5,1,,,,,,,,,,,,,
null,,confidence_buffer,1870560,confidence_buffer,,null,,,,,,,,,,,,,,,,,,
2919.100000000559,,recognition_phase,1873483,Redgrove,,52,,,,,,new,0,0.7916666666666666,,,,,,,,,,
null,,confidence_buffer,1873586,confidence_buffer,,null,,,,,,,,,,,,,,,,,,
null,,thebreak,1874089,break,,null,,,,,,,,,,,,,,,,,,
4183.600000000559,,realistic_rating,1878274,North Arroya,,51,North Arroya,Fictional,3,,,,,,,,,,,,,,,
null,,confidence_buffer,1878377,confidence_buffer,,null,,,,,,,,,,,,,,,,,,
7384.9000000003725,,pt2_unique_rating,1885765,North Arroya,,52,,,4,,,,,,,,,,,,,,,
null,,confidence_buffer,1885867,confidence_buffer,,null,,,,,,,,,,,,,,,,,,
14354.900000000373,,pt2_memorable_rating,1900224,North Arroya,,51,,,3,,,,,,,,,,,,,,,
null,,confidence_buffer,1900326,confidence_buffer,,null,,,,,,,,,,,,,,,,,,
2026.2000000001863,,recognition_phase,1902354,North Arroya,,52,,,,,,new,1,0.8,,,,,,,,,,
null,,confidence_buffer,1902457,confidence_buffer,,null,,,,,,,,,,,,,,,,,,
null,,thebreak,1902959,break,,null,,,,,,,,,,,,,,,,,,
4732.899999999441,,realistic_rating,1907694,Peoria,,51,Peoria,US,3,,,,,,,,,,,,,,,
null,,confidence_buffer,1907796,confidence_buffer,,null,,,,,,,,,,,,,,,,,,
2586.899999999441,,pt2_unique_rating,1910385,Peoria,,52,,,4,,,,,,,,,,,,,,,
null,,confidence_buffer,1910488,confidence_buffer,,null,,,,,,,,,,,,,,,,,,
2411.600000000559,,pt2_memorable_rating,1912902,Peoria,,53,,,5,,,,,,,,,,,,,,,
null,,confidence_buffer,1913004,confidence_buffer,,null,,,,,,,,,,,,,,,,,,
8494.200000000186,,recognition_phase,1921501,Peoria,,49,,,,,,old,1,0.8076923076923077,,,,,,,,,,
null,,confidence_buffer,1921605,confidence_buffer,,null,,,,,,,,,,,,,,,,,,
null,,thebreak,1922107,break,,null,,,,,,,,,,,,,,,,,,
4326.799999999814,,realistic_rating,1926435,East Ladera,,51,East Ladera,Fictional,3,,,,,,,,,,,,,,,
null,,confidence_buffer,1926538,confidence_buffer,,null,,,,,,,,,,,,,,,,,,
1566.3999999994412,,pt2_unique_rating,1928107,East Ladera,,50,,,2,,,,,,,,,,,,,,,
null,,confidence_buffer,1928210,confidence_buffer,,null,,,,,,,,,,,,,,,,,,
3184.4000000003725,,pt2_memorable_rating,1931396,East Ladera,,51,,,3,,,,,,,,,,,,,,,
null,,confidence_buffer,1931499,confidence_buffer,,null,,,,,,,,,,,,,,,,,,
4728.9000000003725,,recognition_phase,1936229,East Ladera,,52,,,,,,new,0,0.7777777777777778,,,,,,,,,,
null,,confidence_buffer,1936331,confidence_buffer,,null,,,,,,,,,,,,,,,,,,
null,,thebreak,1936833,break,,null,,,,,,,,,,,,,,,,,,
4897.100000000559,,realistic_rating,1941732,Sierra Hollow,,52,Sierra Hollow,Fictional,4,,,,,,,,,,,,,,,
null,,confidence_buffer,1941835,confidence_buffer,,null,,,,,,,,,,,,,,,,,,
1983.6000000005588,,pt2_unique_rating,1943820,Sierra Hollow,,50,,,2,,,,,,,,,,,,,,,
null,,confidence_buffer,1943922,confidence_buffer,,null,,,,,,,,,,,,,,,,,,
2289.2999999998137,,pt2_memorable_rating,1946214,Sierra Hollow,,53,,,5,,,,,,,,,,,,,,,
null,,confidence_buffer,1946317,confidence_buffer,,null,,,,,,,,,,,,,,,,,,
5005.799999999814,,recognition_phase,1951325,Sierra Hollow,,49,,,,,,old,1,0.7857142857142857,,,,,,,,,,
null,,confidence_buffer,1951430,confidence_buffer,,null,,,,,,,,,,,,,,,,,,
null,,thebreak,1951931,break,,null,,,,,,,,,,,,,,,,,,
17894.5,,realistic_rating,1969828,Sammamish,,51,Sammamish,US,3,,,,,,,,,,,,,,,
null,,confidence_buffer,1969931,confidence_buffer,,null,,,,,,,,,,,,,,,,,,
2334.0999999996275,,pt2_unique_rating,1972267,Sammamish,,50,,,2,,,,,,,,,,,,,,,
null,,confidence_buffer,1972369,confidence_buffer,,null,,,,,,,,,,,,,,,,,,
7975.600000000559,,pt2_memorable_rating,1980347,Sammamish,,53,,,5,,,,,,,,,,,,,,,
null,,confidence_buffer,1980452,confidence_buffer,,null,,,,,,,,,,,,,,,,,,
3163.699999999255,,recognition_phase,1983617,Sammamish,,52,,,,,,new,1,0.7931034482758621,,,,,,,,,,
null,,confidence_buffer,1983722,confidence_buffer,,null,,,,,,,,,,,,,,,,,,
null,,thebreak,1984223,break,,null,,,,,,,,,,,,,,,,,,
5832.200000000186,,realistic_rating,1990058,San Antonio,,53,San Antonio,US,5,,,,,,,,,,,,,,,
null,,confidence_buffer,1990161,confidence_buffer,,null,,,,,,,,,,,,,,,,,,
1854.7000000001863,,pt2_unique_rating,1992017,San Antonio,,53,,,5,,,,,,,,,,,,,,,
null,,confidence_buffer,1992121,confidence_buffer,,null,,,,,,,,,,,,,,,,,,
19797.699999999255,,pt2_memorable_rating,2011922,San Antonio,,53,,,5,,,,,,,,,,,,,,,
null,,confidence_buffer,2012024,confidence_buffer,,null,,,,,,,,,,,,,,,,,,
5474.4000000003725,,recognition_phase,2017500,San Antonio,,49,,,,,,old,1,0.8,,,,,,,,,,
null,,confidence_buffer,2017603,confidence_buffer,,null,,,,,,,,,,,,,,,,,,
null,,thebreak,2018105,break,,null,,,,,,,,,,,,,,,,,,
12340.899999999441,,realistic_rating,2030449,Sunmere,,50,Sunmere,Fictional,2,,,,,,,,,,,,,,,
null,,confidence_buffer,2030551,confidence_buffer,,null,,,,,,,,,,,,,,,,,,
2189.5,,pt2_unique_rating,2032743,Sunmere,,53,,,5,,,,,,,,,,,,,,,
null,,confidence_buffer,2032845,confidence_buffer,,null,,,,,,,,,,,,,,,,,,
2126.199999999255,,pt2_memorable_rating,2034974,Sunmere,,50,,,2,,,,,,,,,,,,,,,
null,,confidence_buffer,2035077,confidence_buffer,,null,,,,,,,,,,,,,,,,,,
1921.4000000003725,,recognition_phase,2037000,Sunmere,,52,,,,,,new,1,0.8064516129032258,,,,,,,,,,
null,,confidence_buffer,2037102,confidence_buffer,,null,,,,,,,,,,,,,,,,,,
null,,thebreak,2037604,break,,null,,,,,,,,,,,,,,,,,,
7449.200000000186,,realistic_rating,2045056,Sitka,,50,Sitka,US,2,,,,,,,,,,,,,,,
null,,confidence_buffer,2045159,confidence_buffer,,null,,,,,,,,,,,,,,,,,,
4177.700000000186,,pt2_unique_rating,2049338,Sitka,,53,,,5,,,,,,,,,,,,,,,
null,,confidence_buffer,2049441,confidence_buffer,,null,,,,,,,,,,,,,,,,,,
1393.0999999996275,,pt2_memorable_rating,2050836,Sitka,,50,,,2,,,,,,,,,,,,,,,
null,,confidence_buffer,2050938,confidence_buffer,,null,,,,,,,,,,,,,,,,,,
4821.4000000003725,,recognition_phase,2055762,Sitka,,52,,,,,,new,1,0.8125,,,,,,,,,,
null,,confidence_buffer,2055867,confidence_buffer,,null,,,,,,,,,,,,,,,,,,
null,,thebreak,2056370,break,,null,,,,,,,,,,,,,,,,,,
4639,,realistic_rating,2061011,Pine Hollow,,51,Pine Hollow,Fictional,3,,,,,,,,,,,,,,,
null,,confidence_buffer,2061115,confidence_buffer,,null,,,,,,,,,,,,,,,,,,
4573,,pt2_unique_rating,2065690,Pine Hollow,,52,,,4,,,,,,,,,,,,,,,
null,,confidence_buffer,2065793,confidence_buffer,,null,,,,,,,,,,,,,,,,,,
3329.399999999441,,pt2_memorable_rating,2069124,Pine Hollow,,53,,,5,,,,,,,,,,,,,,,
null,,confidence_buffer,2069227,confidence_buffer,,null,,,,,,,,,,,,,,,,,,
2671.4000000003725,,recognition_phase,2071901,Pine Hollow,,49,,,,,,old,1,0.8181818181818182,,,,,,,,,,
null,,confidence_buffer,2072012,confidence_buffer,,null,,,,,,,,,,,,,,,,,,
null,,thebreak,2072515,break,,null,,,,,,,,,,,,,,,,,,
17148.900000000373,,realistic_rating,2089666,Gloucester,,51,Gloucester,US,3,,,,,,,,,,,,,,,
null,,confidence_buffer,2089768,confidence_buffer,,null,,,,,,,,,,,,,,,,,,
11904.399999999441,,pt2_unique_rating,2101675,Gloucester,,53,,,5,,,,,,,,,,,,,,,
null,,confidence_buffer,2101777,confidence_buffer,,null,,,,,,,,,,,,,,,,,,
3913.0999999996275,,pt2_memorable_rating,2105692,Gloucester,,50,,,2,,,,,,,,,,,,,,,
null,,confidence_buffer,2105794,confidence_buffer,,null,,,,,,,,,,,,,,,,,,
8040.100000000559,,recognition_phase,2113837,Gloucester,,49,,,,,,old,0,0.7941176470588235,,,,,,,,,,
null,,confidence_buffer,2113938,confidence_buffer,,null,,,,,,,,,,,,,,,,,,
null,,thebreak,2114441,break,,null,,,,,,,,,,,,,,,,,,
5727.0999999996275,,realistic_rating,2120171,Solara Glen,,50,Solara Glen,Fictional,2,,,,,,,,,,,,,,,
null,,confidence_buffer,2120274,confidence_buffer,,null,,,,,,,,,,,,,,,,,,
1934,,pt2_unique_rating,2122210,Solara Glen,,52,,,4,,,,,,,,,,,,,,,
null,,confidence_buffer,2122313,confidence_buffer,,null,,,,,,,,,,,,,,,,,,
2402.899999999441,,pt2_memorable_rating,2124718,Solara Glen,,51,,,3,,,,,,,,,,,,,,,
null,,confidence_buffer,2124821,confidence_buffer,,null,,,,,,,,,,,,,,,,,,
2965,,recognition_phase,2127788,Solara Glen,,49,,,,,,old,1,0.8,,,,,,,,,,
null,,confidence_buffer,2127891,confidence_buffer,,null,,,,,,,,,,,,,,,,,,
null,,thebreak,2128392,break,,null,,,,,,,,,,,,,,,,,,
2826.5,,realistic_rating,2131222,Westridge,,52,Westridge,Fictional,4,,,,,,,,,,,,,,,
null,,confidence_buffer,2131325,confidence_buffer,,null,,,,,,,,,,,,,,,,,,
6236.299999999814,,pt2_unique_rating,2137564,Westridge,,50,,,2,,,,,,,,,,,,,,,
null,,confidence_buffer,2137666,confidence_buffer,,null,,,,,,,,,,,,,,,,,,
34845.199999999255,,pt2_memorable_rating,2172513,Westridge,,52,,,4,,,,,,,,,,,,,,,
null,,confidence_buffer,2172616,confidence_buffer,,null,,,,,,,,,,,,,,,,,,
3778,,recognition_phase,2176396,Westridge,,49,,,,,,old,1,0.8055555555555556,,,,,,,,,,
null,,confidence_buffer,2176498,confidence_buffer,,null,,,,,,,,,,,,,,,,,,
null,,thebreak,2177000,break,,null,,,,,,,,,,,,,,,,,,
3501.7000000001863,,realistic_rating,2180504,Oakridge,,53,Oakridge,Fictional,5,,,,,,,,,,,,,,,
null,,confidence_buffer,2180607,confidence_buffer,,null,,,,,,,,,,,,,,,,,,
12933.200000000186,,pt2_unique_rating,2193542,Oakridge,,51,,,3,,,,,,,,,,,,,,,
null,,confidence_buffer,2193644,confidence_buffer,,null,,,,,,,,,,,,,,,,,,
3392.2000000001863,,pt2_memorable_rating,2197038,Oakridge,,53,,,5,,,,,,,,,,,,,,,
null,,confidence_buffer,2197143,confidence_buffer,,null,,,,,,,,,,,,,,,,,,
1980.9000000003725,,recognition_phase,2199126,Oakridge,,52,,,,,,new,0,0.7837837837837838,,,,,,,,,,
null,,confidence_buffer,2199229,confidence_buffer,,null,,,,,,,,,,,,,,,,,,
null,,thebreak,2199731,break,,null,,,,,,,,,,,,,,,,,,
3133.7999999998137,,realistic_rating,2202867,Clearbrook,,51,Clearbrook,Fictional,3,,,,,,,,,,,,,,,
null,,confidence_buffer,2202969,confidence_buffer,,null,,,,,,,,,,,,,,,,,,
5350.799999999814,,pt2_unique_rating,2208322,Clearbrook,,53,,,5,,,,,,,,,,,,,,,
null,,confidence_buffer,2208439,confidence_buffer,,null,,,,,,,,,,,,,,,,,,
2205.2999999998137,,pt2_memorable_rating,2210646,Clearbrook,,50,,,2,,,,,,,,,,,,,,,
null,,confidence_buffer,2210748,confidence_buffer,,null,,,,,,,,,,,,,,,,,,
2156.5,,recognition_phase,2212908,Clearbrook,,52,,,,,,new,1,0.7894736842105263,,,,,,,,,,
null,,confidence_buffer,2213011,confidence_buffer,,null,,,,,,,,,,,,,,,,,,
null,,thebreak,2213513,break,,null,,,,,,,,,,,,,,,,,,
25866.099999999627,,realistic_rating,2239382,Medora,,51,Medora,US,3,,,,,,,,,,,,,,,
null,,confidence_buffer,2239484,confidence_buffer,,null,,,,,,,,,,,,,,,,,,
1813.0999999996275,,pt2_unique_rating,2241299,Medora,,52,,,4,,,,,,,,,,,,,,,
null,,confidence_buffer,2241401,confidence_buffer,,null,,,,,,,,,,,,,,,,,,
1636.5,,pt2_memorable_rating,2243040,Medora,,50,,,2,,,,,,,,,,,,,,,
null,,confidence_buffer,2243142,confidence_buffer,,null,,,,,,,,,,,,,,,,,,
3539.600000000559,,recognition_phase,2246683,Medora,,49,,,,,,old,0,0.7692307692307693,,,,,,,,,,
null,,confidence_buffer,2246785,confidence_buffer,,null,,,,,,,,,,,,,,,,,,
null,,thebreak,2247287,break,,null,,,,,,,,,,,,,,,,,,
2733.800000000745,,realistic_rating,2250023,Cody,,52,Cody,US,4,,,,,,,,,,,,,,,
null,,confidence_buffer,2250126,confidence_buffer,,null,,,,,,,,,,,,,,,,,,
1627.2000000001863,,pt2_unique_rating,2251755,Cody,,52,,,4,,,,,,,,,,,,,,,
null,,confidence_buffer,2251858,confidence_buffer,,null,,,,,,,,,,,,,,,,,,
2046,,pt2_memorable_rating,2253906,Cody,,53,,,5,,,,,,,,,,,,,,,
null,,confidence_buffer,2254008,confidence_buffer,,null,,,,,,,,,,,,,,,,,,
2784.9000000003725,,recognition_phase,2256796,Cody,,49,,,,,,old,1,0.775,,,,,,,,,,
null,,confidence_buffer,2256898,confidence_buffer,,null,,,,,,,,,,,,,,,,,,
null,,thebreak,2257402,break,,null,,,,,,,,,,,,,,,,,,
3597.9000000003725,,realistic_rating,2261002,Carmel,,52,Carmel,US,4,,,,,,,,,,,,,,,
null,,confidence_buffer,2261104,confidence_buffer,,null,,,,,,,,,,,,,,,,,,
6958.800000000745,,probe_rating,2268066,probe_rating,,51,,,,3,1,,,,,,,,,,,,,
null,,confidence_buffer,2268169,confidence_buffer,,null,,,,,,,,,,,,,,,,,,
4196.0999999996275,,pt2_unique_rating,2272367,Carmel,,53,,,5,,,,,,,,,,,,,,,
null,,confidence_buffer,2272472,confidence_buffer,,null,,,,,,,,,,,,,,,,,,
1869.5,,pt2_memorable_rating,2274344,Carmel,,53,,,5,,,,,,,,,,,,,,,
null,,confidence_buffer,2274447,confidence_buffer,,null,,,,,,,,,,,,,,,,,,
2986.199999999255,,recognition_phase,2277436,Carmel,,49,,,,,,old,1,0.7804878048780488,,,,,,,,,,
null,,confidence_buffer,2277539,confidence_buffer,,null,,,,,,,,,,,,,,,,,,
null,,thebreak,2278041,break,,null,,,,,,,,,,,,,,,,,,
11914.700000000186,,realistic_rating,2289958,Manistee,,51,Manistee,US,3,,,,,,,,,,,,,,,
null,,confidence_buffer,2290061,confidence_buffer,,null,,,,,,,,,,,,,,,,,,
3317.7999999998137,,pt2_unique_rating,2293380,Manistee,,52,,,4,,,,,,,,,,,,,,,
null,,confidence_buffer,2293495,confidence_buffer,,null,,,,,,,,,,,,,,,,,,
2756.7000000001863,,pt2_memorable_rating,2296254,Manistee,,50,,,2,,,,,,,,,,,,,,,
null,,confidence_buffer,2296357,confidence_buffer,,null,,,,,,,,,,,,,,,,,,
1341.2000000001863,,recognition_phase,2297700,Manistee,,52,,,,,,new,0,0.7619047619047619,,,,,,,,,,
null,,confidence_buffer,2297802,confidence_buffer,,null,,,,,,,,,,,,,,,,,,
null,,thebreak,2298304,break,,null,,,,,,,,,,,,,,,,,,
2757.399999999441,,realistic_rating,2301064,New Verdan,,52,New Verdan,Fictional,4,,,,,,,,,,,,,,,
null,,confidence_buffer,2301167,confidence_buffer,,null,,,,,,,,,,,,,,,,,,
4450.399999999441,,pt2_unique_rating,2305620,New Verdan,,52,,,4,,,,,,,,,,,,,,,
null,,confidence_buffer,2305722,confidence_buffer,,null,,,,,,,,,,,,,,,,,,
4114.5,,probe_rating,2309838,probe_rating,,53,,,,5,1,,,,,,,,,,,,,
null,,confidence_buffer,2309941,confidence_buffer,,null,,,,,,,,,,,,,,,,,,
2534.600000000559,,pt2_memorable_rating,2312479,New Verdan,,53,,,5,,,,,,,,,,,,,,,
null,,confidence_buffer,2312582,confidence_buffer,,null,,,,,,,,,,,,,,,,,,
1422.2999999998137,,recognition_phase,2314007,New Verdan,,52,,,,,,new,1,0.7674418604651163,,,,,,,,,,
null,,confidence_buffer,2314109,confidence_buffer,,null,,,,,,,,,,,,,,,,,,
null,,thebreak,2314611,break,,null,,,,,,,,,,,,,,,,,,
15802.200000000186,,realistic_rating,2330417,Maravilla Springs,,53,Maravilla Springs,Fictional,5,,,,,,,,,,,,,,,
null,,confidence_buffer,2330520,confidence_buffer,,null,,,,,,,,,,,,,,,,,,
19361.799999999814,,pt2_unique_rating,2349884,Maravilla Springs,,53,,,5,,,,,,,,,,,,,,,
null,,confidence_buffer,2349985,confidence_buffer,,null,,,,,,,,,,,,,,,,,,
5542.9000000003725,,pt2_memorable_rating,2355530,Maravilla Springs,,51,,,3,,,,,,,,,,,,,,,
null,,confidence_buffer,2355631,confidence_buffer,,null,,,,,,,,,,,,,,,,,,
5766.700000000186,,probe_rating,2361400,probe_rating,,53,,,,5,1,,,,,,,,,,,,,
null,,confidence_buffer,2361504,confidence_buffer,,null,,,,,,,,,,,,,,,,,,
2737.2000000001863,,recognition_phase,2364244,Maravilla Springs,,52,,,,,,new,0,0.75,,,,,,,,,,
null,,confidence_buffer,2364346,confidence_buffer,,null,,,,,,,,,,,,,,,,,,
null,,thebreak,2364848,break,,null,,,,,,,,,,,,,,,,,,
2327.5,,realistic_rating,2367178,Hilo,,51,Hilo,US,3,,,,,,,,,,,,,,,
null,,confidence_buffer,2367280,confidence_buffer,,null,,,,,,,,,,,,,,,,,,
2240.5,,pt2_unique_rating,2369523,Hilo,,52,,,4,,,,,,,,,,,,,,,
null,,confidence_buffer,2369626,confidence_buffer,,null,,,,,,,,,,,,,,,,,,
2290.5999999996275,,pt2_memorable_rating,2371919,Hilo,,50,,,2,,,,,,,,,,,,,,,
null,,confidence_buffer,2372022,confidence_buffer,,null,,,,,,,,,,,,,,,,,,
11086.099999999627,,recognition_phase,2383111,Hilo,,52,,,,,,new,1,0.7555555555555555,,,,,,,,,,
null,,confidence_buffer,2383214,confidence_buffer,,null,,,,,,,,,,,,,,,,,,
null,,thebreak,2383716,break,,null,,,,,,,,,,,,,,,,,,
4477.5,,realistic_rating,2388195,Livingston,,52,Livingston,US,4,,,,,,,,,,,,,,,
null,,confidence_buffer,2388298,confidence_buffer,,null,,,,,,,,,,,,,,,,,,
4902.200000000186,,pt2_unique_rating,2393202,Livingston,,50,,,2,,,,,,,,,,,,,,,
null,,confidence_buffer,2393304,confidence_buffer,,null,,,,,,,,,,,,,,,,,,
2391.5999999996275,,pt2_memorable_rating,2395698,Livingston,,52,,,4,,,,,,,,,,,,,,,
null,,confidence_buffer,2395800,confidence_buffer,,null,,,,,,,,,,,,,,,,,,
2689.5,,recognition_phase,2398492,Livingston,,49,,,,,,old,0,0.7391304347826086,,,,,,,,,,
null,,confidence_buffer,2398594,confidence_buffer,,null,,,,,,,,,,,,,,,,,,
null,,thebreak,2399096,break,,null,,,,,,,,,,,,,,,,,,
2337.7999999998137,,realistic_rating,2401436,Leesburg,,52,Leesburg,US,4,,,,,,,,,,,,,,,
null,,confidence_buffer,2401539,confidence_buffer,,null,,,,,,,,,,,,,,,,,,
3564.7999999998137,,pt2_unique_rating,2405106,Leesburg,,53,,,5,,,,,,,,,,,,,,,
null,,confidence_buffer,2405208,confidence_buffer,,null,,,,,,,,,,,,,,,,,,
25137.900000000373,,pt2_memorable_rating,2430348,Leesburg,,53,,,5,,,,,,,,,,,,,,,
null,,confidence_buffer,2430451,confidence_buffer,,null,,,,,,,,,,,,,,,,,,
3511.399999999441,,recognition_phase,2433964,Leesburg,,49,,,,,,old,0,0.723404255319149,,,,,,,,,,
null,,confidence_buffer,2434067,confidence_buffer,,null,,,,,,,,,,,,,,,,,,
null,,thebreak,2434569,break,,null,,,,,,,,,,,,,,,,,,
5508.100000000559,,realistic_rating,2440080,Huntsville,,52,Huntsville,US,4,,,,,,,,,,,,,,,
null,,confidence_buffer,2440182,confidence_buffer,,null,,,,,,,,,,,,,,,,,,
1688.0999999996275,,pt2_unique_rating,2441872,Huntsville,,53,,,5,,,,,,,,,,,,,,,
null,,confidence_buffer,2441975,confidence_buffer,,null,,,,,,,,,,,,,,,,,,
1599,,pt2_memorable_rating,2443575,Huntsville,,53,,,5,,,,,,,,,,,,,,,
null,,confidence_buffer,2443678,confidence_buffer,,null,,,,,,,,,,,,,,,,,,
2042.7000000001863,,recognition_phase,2445724,Huntsville,,49,,,,,,old,1,0.7291666666666666,,,,,,,,,,
null,,confidence_buffer,2445827,confidence_buffer,,null,,,,,,,,,,,,,,,,,,
null,,thebreak,2446328,break,,null,,,,,,,,,,,,,,,,,,
26864.099999999627,,realistic_rating,2473195,Cleveland,,53,Cleveland,US,5,,,,,,,,,,,,,,,
null,,confidence_buffer,2473298,confidence_buffer,,null,,,,,,,,,,,,,,,,,,
3412.5999999996275,,pt2_unique_rating,2476712,Cleveland,,53,,,5,,,,,,,,,,,,,,,
null,,confidence_buffer,2476813,confidence_buffer,,null,,,,,,,,,,,,,,,,,,
1985.2000000001863,,pt2_memorable_rating,2478801,Cleveland,,53,,,5,,,,,,,,,,,,,,,
null,,confidence_buffer,2478903,confidence_buffer,,null,,,,,,,,,,,,,,,,,,
2594.2999999998137,,recognition_phase,2481500,Cleveland,,49,,,,,,old,1,0.7346938775510204,,,,,,,,,,
null,,confidence_buffer,2481602,confidence_buffer,,null,,,,,,,,,,,,,,,,,,
null,,thebreak,2482103,break,,null,,,,,,,,,,,,,,,,,,
2730.2000000001863,,realistic_rating,2484836,Lake of the Ozarks,,52,Lake of the Ozarks,US,4,,,,,,,,,,,,,,,
null,,confidence_buffer,2484939,confidence_buffer,,null,,,,,,,,,,,,,,,,,,
1667.2000000001863,,pt2_unique_rating,2486608,Lake of the Ozarks,,51,,,3,,,,,,,,,,,,,,,
null,,confidence_buffer,2486711,confidence_buffer,,null,,,,,,,,,,,,,,,,,,
1107.0999999996275,,pt2_memorable_rating,2487820,Lake of the Ozarks,,50,,,2,,,,,,,,,,,,,,,
null,,confidence_buffer,2487924,confidence_buffer,,null,,,,,,,,,,,,,,,,,,
2390.2000000001863,,recognition_phase,2490317,Lake of the Ozarks,,52,,,,,,new,1,0.74,,,,,,,,,,
null,,confidence_buffer,2490420,confidence_buffer,,null,,,,,,,,,,,,,,,,,,
null,,thebreak,2490922,break,,null,,,,,,,,,,,,,,,,,,
2336.5,,realistic_rating,2493261,Duck,,51,Duck,US,3,,,,,,,,,,,,,,,
null,,confidence_buffer,2493367,confidence_buffer,,null,,,,,,,,,,,,,,,,,,
2418.2999999998137,,pt2_unique_rating,2495788,Duck,,52,,,4,,,,,,,,,,,,,,,
null,,confidence_buffer,2495890,confidence_buffer,,null,,,,,,,,,,,,,,,,,,
2241.5,,pt2_memorable_rating,2498133,Duck,,53,,,5,,,,,,,,,,,,,,,
null,,confidence_buffer,2498237,confidence_buffer,,null,,,,,,,,,,,,,,,,,,
2283.7999999998137,,recognition_phase,2500523,Duck,,49,,,,,,old,1,0.7450980392156863,,,,,,,,,,
null,,confidence_buffer,2500626,confidence_buffer,,null,,,,,,,,,,,,,,,,,,
null,,thebreak,2501128,break,,null,,,,,,,,,,,,,,,,,,
5022.9000000003725,,realistic_rating,2506153,Barnard,,53,Barnard,US,5,,,,,,,,,,,,,,,
null,,confidence_buffer,2506256,confidence_buffer,,null,,,,,,,,,,,,,,,,,,
2227.2999999998137,,pt2_unique_rating,2508484,Barnard,,52,,,4,,,,,,,,,,,,,,,
null,,confidence_buffer,2508587,confidence_buffer,,null,,,,,,,,,,,,,,,,,,
2158.2999999998137,,pt2_memorable_rating,2510749,Barnard,,50,,,2,,,,,,,,,,,,,,,
null,,confidence_buffer,2510852,confidence_buffer,,null,,,,,,,,,,,,,,,,,,
1565.2000000001863,,recognition_phase,2512419,Barnard,,52,,,,,,new,1,0.75,,,,,,,,,,
null,,confidence_buffer,2512522,confidence_buffer,,null,,,,,,,,,,,,,,,,,,
null,,thebreak,2513024,break,,null,,,,,,,,,,,,,,,,,,
3517.0999999996275,,realistic_rating,2516544,Ashford Hills,,51,Ashford Hills,Fictional,3,,,,,,,,,,,,,,,
null,,confidence_buffer,2516647,confidence_buffer,,null,,,,,,,,,,,,,,,,,,
1861.7999999998137,,pt2_unique_rating,2518511,Ashford Hills,,52,,,4,,,,,,,,,,,,,,,
null,,confidence_buffer,2518613,confidence_buffer,,null,,,,,,,,,,,,,,,,,,
2127,,pt2_memorable_rating,2520743,Ashford Hills,,51,,,3,,,,,,,,,,,,,,,
null,,confidence_buffer,2520846,confidence_buffer,,null,,,,,,,,,,,,,,,,,,
5753.5,,recognition_phase,2526602,Ashford Hills,,52,,,,,,new,1,0.7547169811320755,,,,,,,,,,
null,,confidence_buffer,2526704,confidence_buffer,,null,,,,,,,,,,,,,,,,,,
null,,thebreak,2527205,break,,null,,,,,,,,,,,,,,,,,,
8267.5,,realistic_rating,2535475,Claywater,,52,Claywater,Fictional,4,,,,,,,,,,,,,,,
null,,confidence_buffer,2535578,confidence_buffer,,null,,,,,,,,,,,,,,,,,,
3114.5999999996275,,pt2_unique_rating,2538694,Claywater,,53,,,5,,,,,,,,,,,,,,,
null,,confidence_buffer,2538798,confidence_buffer,,null,,,,,,,,,,,,,,,,,,
2820.2000000001863,,pt2_memorable_rating,2541620,Claywater,,51,,,3,,,,,,,,,,,,,,,
null,,confidence_buffer,2541724,confidence_buffer,,null,,,,,,,,,,,,,,,,,,
2877.7000000001863,,recognition_phase,2544604,Claywater,,49,,,,,,old,1,0.7592592592592593,,,,,,,,,,
null,,confidence_buffer,2544707,confidence_buffer,,null,,,,,,,,,,,,,,,,,,
null,,thebreak,2545210,break,,null,,,,,,,,,,,,,,,,,,
5495.300000000745,,realistic_rating,2550708,Albuquerque,,53,Albuquerque,US,5,,,,,,,,,,,,,,,
null,,confidence_buffer,2550811,confidence_buffer,,null,,,,,,,,,,,,,,,,,,
4305.800000000745,,pt2_unique_rating,2555119,Albuquerque,,53,,,5,,,,,,,,,,,,,,,
null,,confidence_buffer,2555223,confidence_buffer,,null,,,,,,,,,,,,,,,,,,
3256.5,,pt2_memorable_rating,2558481,Albuquerque,,53,,,5,,,,,,,,,,,,,,,
null,,confidence_buffer,2558584,confidence_buffer,,null,,,,,,,,,,,,,,,,,,
2146.2000000001863,,recognition_phase,2560732,Albuquerque,,52,,,,,,new,1,0.7636363636363637,,,,,,,,,,
null,,confidence_buffer,2560835,confidence_buffer,,null,,,,,,,,,,,,,,,,,,
null,,thebreak,2561338,break,,null,,,,,,,,,,,,,,,,,,
4872.399999999441,,realistic_rating,2566213,Hawthorne Bluffs,,52,Hawthorne Bluffs,Fictional,4,,,,,,,,,,,,,,,
null,,confidence_buffer,2566315,confidence_buffer,,null,,,,,,,,,,,,,,,,,,
4239.299999999814,,pt2_unique_rating,2570556,Hawthorne Bluffs,,53,,,5,,,,,,,,,,,,,,,
null,,confidence_buffer,2570672,confidence_buffer,,null,,,,,,,,,,,,,,,,,,
2623.0999999996275,,pt2_memorable_rating,2573297,Hawthorne Bluffs,,50,,,2,,,,,,,,,,,,,,,
null,,confidence_buffer,2573401,confidence_buffer,,null,,,,,,,,,,,,,,,,,,
2899.2000000001863,,recognition_phase,2576303,Hawthorne Bluffs,,52,,,,,,new,0,0.75,,,,,,,,,,
null,,confidence_buffer,2576405,confidence_buffer,,null,,,,,,,,,,,,,,,,,,
null,,thebreak,2576913,break,,null,,,,,,,,,,,,,,,,,,
7151.9000000003725,,realistic_rating,2584067,Maplehurst,,52,Maplehurst,Fictional,4,,,,,,,,,,,,,,,
null,,confidence_buffer,2584170,confidence_buffer,,null,,,,,,,,,,,,,,,,,,
1219.3999999994412,,pt2_unique_rating,2585391,Maplehurst,,51,,,3,,,,,,,,,,,,,,,
null,,confidence_buffer,2585493,confidence_buffer,,null,,,,,,,,,,,,,,,,,,
2370.0999999996275,,probe_rating,2587866,probe_rating,,53,,,,5,1,,,,,,,,,,,,,
null,,confidence_buffer,2587970,confidence_buffer,,null,,,,,,,,,,,,,,,,,,
5853.700000000186,,pt2_memorable_rating,2593826,Maplehurst,,52,,,4,,,,,,,,,,,,,,,
null,,confidence_buffer,2593928,confidence_buffer,,null,,,,,,,,,,,,,,,,,,
2465.699999999255,,recognition_phase,2596396,Maplehurst,,49,,,,,,old,0,0.7368421052631579,,,,,,,,,,
null,,confidence_buffer,2596499,confidence_buffer,,null,,,,,,,,,,,,,,,,,,
null,,thebreak,2597010,break,,null,,,,,,,,,,,,,,,,,,
5057,,realistic_rating,2602070,Hollendale,,53,Hollendale,Fictional,5,,,,,,,,,,,,,,,
null,,confidence_buffer,2602172,confidence_buffer,,null,,,,,,,,,,,,,,,,,,
1290.3999999994412,,pt2_unique_rating,2603464,Hollendale,,53,,,5,,,,,,,,,,,,,,,
null,,confidence_buffer,2603568,confidence_buffer,,null,,,,,,,,,,,,,,,,,,
1260.300000000745,,pt2_memorable_rating,2604830,Hollendale,,53,,,5,,,,,,,,,,,,,,,
null,,confidence_buffer,2604942,confidence_buffer,,null,,,,,,,,,,,,,,,,,,
2190.5,,recognition_phase,2607136,Hollendale,,49,,,,,,old,1,0.7413793103448276,,,,,,,,,,
null,,confidence_buffer,2607239,confidence_buffer,,null,,,,,,,,,,,,,,,,,,
null,,thebreak,2607741,break,,null,,,,,,,,,,,,,,,,,,
13930,,realistic_rating,2621673,Bayshore Haven,,52,Bayshore Haven,Fictional,4,,,,,,,,,,,,,,,
null,,confidence_buffer,2621776,confidence_buffer,,null,,,,,,,,,,,,,,,,,,
2900.699999999255,,pt2_unique_rating,2624678,Bayshore Haven,,53,,,5,,,,,,,,,,,,,,,
null,,confidence_buffer,2624781,confidence_buffer,,null,,,,,,,,,,,,,,,,,,
2005.0999999996275,,pt2_memorable_rating,2626788,Bayshore Haven,,53,,,5,,,,,,,,,,,,,,,
null,,confidence_buffer,2626891,confidence_buffer,,null,,,,,,,,,,,,,,,,,,
5566,,recognition_phase,2632460,Bayshore Haven,,49,,,,,,old,1,0.7457627118644068,,,,,,,,,,
null,,confidence_buffer,2632561,confidence_buffer,,null,,,,,,,,,,,,,,,,,,
null,,thebreak,2633063,break,,null,,,,,,,,,,,,,,,,,,
5052.5999999996275,,realistic_rating,2638118,Boulder,,51,Boulder,US,3,,,,,,,,,,,,,,,
null,,confidence_buffer,2638221,confidence_buffer,,null,,,,,,,,,,,,,,,,,,
3939.7000000001863,,pt2_unique_rating,2642163,Boulder,,52,,,4,,,,,,,,,,,,,,,
null,,confidence_buffer,2642266,confidence_buffer,,null,,,,,,,,,,,,,,,,,,
2478,,pt2_memorable_rating,2644746,Boulder,,52,,,4,,,,,,,,,,,,,,,
null,,confidence_buffer,2644848,confidence_buffer,,null,,,,,,,,,,,,,,,,,,
4297,,recognition_phase,2649148,Boulder,,49,,,,,,old,1,0.75,,,,,,,,,,
null,,confidence_buffer,2649249,confidence_buffer,,null,,,,,,,,,,,,,,,,,,
null,,thebreak,2649751,break,,null,,,,,,,,,,,,,,,,,,
,,survey,3099482,survey-questions,,,,,,,,,,,none,high,No,Memorizing the first three or four letters,Letters that correspond with what I remember,Only the unique ones,Names I have never heard.,Those that sounded normal to me,No,The task was interesting
