rt,responses,trial_type,time_elapsed,stimulus,button_pressed,key_press,name_trial,city_type,rating,probe,probe_accuracy,response,correct,accuracy,problems,smooth,distraction,strategies,familiar,memorable,unique,realistic,similar,comments
21708.5,{worker_id:67ef2b71416319fc29b5d49d},id_enter,21717,,,,,,,,,,,,,,,,,,,,,
7181.800000011921,,fullscreen,28906,fullscreen,0,,,,,,,,,,,,,,,,,,,
30598.69999998808,,intro_0,59508,instruct,,32,,,,,,,,,,,,,,,,,,
10156.299999952316,,intro_1,69667,instruct,,32,,,,,,,,,,,,,,,,,,
8579.400000035763,,intro_2,78249,instruct,,32,,,,,,,,,,,,,,,,,,
null,,instruct_dir_4,79755,instruct,,null,,,,,,,,,,,,,,,,,,
null,,thebreak,80271,break,,null,,,,,,,,,,,,,,,,,,
10376.100000023842,,familiar_rating,90650,Hawthorne Bluffs,,49,Hawthorne Bluffs,Fictional,1,,,,,,,,,,,,,,,
null,,confidence_buffer,90761,confidence_buffer,,null,,,,,,,,,,,,,,,,,,
5021.5,,unique_rating,95785,Hawthorne Bluffs,,50,,,2,,,,,,,,,,,,,,,
null,,confidence_buffer,95893,confidence_buffer,,null,,,,,,,,,,,,,,,,,,
5018.400000035763,,memorable_rating,100913,Hawthorne Bluffs,,50,,,2,,,,,,,,,,,,,,,
null,,confidence_buffer,101020,confidence_buffer,,null,,,,,,,,,,,,,,,,,,
null,,thebreak,101535,break,,null,,,,,,,,,,,,,,,,,,
4160.699999988079,,familiar_rating,105699,Huntsville,,50,Huntsville,US,2,,,,,,,,,,,,,,,
null,,confidence_buffer,105814,confidence_buffer,,null,,,,,,,,,,,,,,,,,,
1682.4000000357628,,unique_rating,107498,Huntsville,,50,,,2,,,,,,,,,,,,,,,
null,,confidence_buffer,107605,confidence_buffer,,null,,,,,,,,,,,,,,,,,,
1683.2999999523163,,memorable_rating,109291,Huntsville,,50,,,2,,,,,,,,,,,,,,,
null,,confidence_buffer,109394,confidence_buffer,,null,,,,,,,,,,,,,,,,,,
null,,thebreak,109910,break,,null,,,,,,,,,,,,,,,,,,
3346.800000011921,,familiar_rating,113259,Yukon,,51,Yukon,US,3,,,,,,,,,,,,,,,
null,,confidence_buffer,113367,confidence_buffer,,null,,,,,,,,,,,,,,,,,,
3345.399999976158,,unique_rating,116714,Yukon,,52,,,4,,,,,,,,,,,,,,,
null,,confidence_buffer,116818,confidence_buffer,,null,,,,,,,,,,,,,,,,,,
1173.6000000238419,,memorable_rating,117995,Yukon,,51,,,3,,,,,,,,,,,,,,,
null,,confidence_buffer,118100,confidence_buffer,,null,,,,,,,,,,,,,,,,,,
null,,thebreak,118615,break,,null,,,,,,,,,,,,,,,,,,
2432,,familiar_rating,121048,Montelake,,52,Montelake,Fictional,4,,,,,,,,,,,,,,,
null,,confidence_buffer,121155,confidence_buffer,,null,,,,,,,,,,,,,,,,,,
1106.8999999761581,,unique_rating,122265,Montelake,,53,,,5,,,,,,,,,,,,,,,
null,,confidence_buffer,122382,confidence_buffer,,null,,,,,,,,,,,,,,,,,,
1128.7999999523163,,memorable_rating,123513,Montelake,,53,,,5,,,,,,,,,,,,,,,
null,,confidence_buffer,123620,confidence_buffer,,null,,,,,,,,,,,,,,,,,,
null,,thebreak,124137,break,,null,,,,,,,,,,,,,,,,,,
6967.300000011921,,familiar_rating,131107,Oakridge,,53,Oakridge,Fictional,5,,,,,,,,,,,,,,,
null,,confidence_buffer,131211,confidence_buffer,,null,,,,,,,,,,,,,,,,,,
1084.699999988079,,unique_rating,132298,Oakridge,,53,,,5,,,,,,,,,,,,,,,
null,,confidence_buffer,132411,confidence_buffer,,null,,,,,,,,,,,,,,,,,,
1293.1000000238419,,memorable_rating,133706,Oakridge,,52,,,4,,,,,,,,,,,,,,,
null,,confidence_buffer,133822,confidence_buffer,,null,,,,,,,,,,,,,,,,,,
null,,thebreak,134340,break,,null,,,,,,,,,,,,,,,,,,
7100.100000023842,,familiar_rating,141442,Bar Harbor,,49,Bar Harbor,US,1,,,,,,,,,,,,,,,
null,,confidence_buffer,141552,confidence_buffer,,null,,,,,,,,,,,,,,,,,,
3250.300000011921,,unique_rating,144804,Bar Harbor,,50,,,2,,,,,,,,,,,,,,,
null,,confidence_buffer,144917,confidence_buffer,,null,,,,,,,,,,,,,,,,,,
2395.100000023842,,memorable_rating,147314,Bar Harbor,,51,,,3,,,,,,,,,,,,,,,
null,,confidence_buffer,147424,confidence_buffer,,null,,,,,,,,,,,,,,,,,,
null,,thebreak,147931,break,,null,,,,,,,,,,,,,,,,,,
3860.300000011921,,familiar_rating,151794,Leesburg,,50,Leesburg,US,2,,,,,,,,,,,,,,,
null,,confidence_buffer,151903,confidence_buffer,,null,,,,,,,,,,,,,,,,,,
2145,,unique_rating,154050,Leesburg,,50,,,2,,,,,,,,,,,,,,,
null,,confidence_buffer,154160,confidence_buffer,,null,,,,,,,,,,,,,,,,,,
2602.199999988079,,memorable_rating,156764,Leesburg,,51,,,3,,,,,,,,,,,,,,,
null,,confidence_buffer,156868,confidence_buffer,,null,,,,,,,,,,,,,,,,,,
4341.099999964237,,probe_rating,161211,probe_rating,,50,,,,2,1,,,,,,,,,,,,,
null,,confidence_buffer,161323,confidence_buffer,,null,,,,,,,,,,,,,,,,,,
null,,thebreak,161838,break,,null,,,,,,,,,,,,,,,,,,
4835.199999988079,,familiar_rating,166675,Hollendale,,49,Hollendale,Fictional,1,,,,,,,,,,,,,,,
null,,confidence_buffer,166779,confidence_buffer,,null,,,,,,,,,,,,,,,,,,
1726.1000000238419,,unique_rating,168507,Hollendale,,50,,,2,,,,,,,,,,,,,,,
null,,confidence_buffer,168612,confidence_buffer,,null,,,,,,,,,,,,,,,,,,
2043.800000011921,,memorable_rating,170658,Hollendale,,51,,,3,,,,,,,,,,,,,,,
null,,confidence_buffer,170768,confidence_buffer,,null,,,,,,,,,,,,,,,,,,
null,,thebreak,171279,break,,null,,,,,,,,,,,,,,,,,,
3432.899999976158,,familiar_rating,174714,Golden Trace,,53,Golden Trace,Fictional,5,,,,,,,,,,,,,,,
null,,confidence_buffer,174818,confidence_buffer,,null,,,,,,,,,,,,,,,,,,
2430.100000023842,,unique_rating,177251,Golden Trace,,52,,,4,,,,,,,,,,,,,,,
null,,confidence_buffer,177356,confidence_buffer,,null,,,,,,,,,,,,,,,,,,
2396.099999964237,,memorable_rating,179755,Golden Trace,,51,,,3,,,,,,,,,,,,,,,
null,,confidence_buffer,179870,confidence_buffer,,null,,,,,,,,,,,,,,,,,,
null,,thebreak,180387,break,,null,,,,,,,,,,,,,,,,,,
3086.300000011921,,familiar_rating,183475,Westridge,,51,Westridge,Fictional,3,,,,,,,,,,,,,,,
null,,confidence_buffer,183585,confidence_buffer,,null,,,,,,,,,,,,,,,,,,
3078.7999999523163,,unique_rating,186666,Westridge,,51,,,3,,,,,,,,,,,,,,,
null,,confidence_buffer,186769,confidence_buffer,,null,,,,,,,,,,,,,,,,,,
2566.800000011921,,memorable_rating,189338,Westridge,,51,,,3,,,,,,,,,,,,,,,
null,,confidence_buffer,189445,confidence_buffer,,null,,,,,,,,,,,,,,,,,,
null,,thebreak,189949,break,,null,,,,,,,,,,,,,,,,,,
3291,,familiar_rating,193243,Cornwall,,49,Cornwall,US,1,,,,,,,,,,,,,,,
null,,confidence_buffer,193355,confidence_buffer,,null,,,,,,,,,,,,,,,,,,
1724.5,,unique_rating,195083,Cornwall,,49,,,1,,,,,,,,,,,,,,,
null,,confidence_buffer,195194,confidence_buffer,,null,,,,,,,,,,,,,,,,,,
2022,,memorable_rating,197218,Cornwall,,50,,,2,,,,,,,,,,,,,,,
null,,confidence_buffer,197327,confidence_buffer,,null,,,,,,,,,,,,,,,,,,
null,,thebreak,197844,break,,null,,,,,,,,,,,,,,,,,,
5388,,familiar_rating,203234,Driftwood Bay,,49,Driftwood Bay,Fictional,1,,,,,,,,,,,,,,,
null,,confidence_buffer,203344,confidence_buffer,,null,,,,,,,,,,,,,,,,,,
2544.2999999523163,,unique_rating,205891,Driftwood Bay,,50,,,2,,,,,,,,,,,,,,,
null,,confidence_buffer,206001,confidence_buffer,,null,,,,,,,,,,,,,,,,,,
3495.7999999523163,,memorable_rating,209499,Driftwood Bay,,51,,,3,,,,,,,,,,,,,,,
null,,confidence_buffer,209606,confidence_buffer,,null,,,,,,,,,,,,,,,,,,
null,,thebreak,210111,break,,null,,,,,,,,,,,,,,,,,,
2351.7000000476837,,familiar_rating,212465,Gardnerville,,52,Gardnerville,US,4,,,,,,,,,,,,,,,
null,,confidence_buffer,212570,confidence_buffer,,null,,,,,,,,,,,,,,,,,,
3181.5,,unique_rating,215753,Gardnerville,,52,,,4,,,,,,,,,,,,,,,
null,,confidence_buffer,215862,confidence_buffer,,null,,,,,,,,,,,,,,,,,,
3361.899999976158,,memorable_rating,219226,Gardnerville,,53,,,5,,,,,,,,,,,,,,,
null,,confidence_buffer,219332,confidence_buffer,,null,,,,,,,,,,,,,,,,,,
2772,,probe_rating,222106,probe_rating,,51,,,,3,1,,,,,,,,,,,,,
null,,confidence_buffer,222215,confidence_buffer,,null,,,,,,,,,,,,,,,,,,
null,,thebreak,222721,break,,null,,,,,,,,,,,,,,,,,,
2919.300000011921,,familiar_rating,225642,Park City,,49,Park City,US,1,,,,,,,,,,,,,,,
null,,confidence_buffer,225754,confidence_buffer,,null,,,,,,,,,,,,,,,,,,
1942.5,,unique_rating,227699,Park City,,50,,,2,,,,,,,,,,,,,,,
null,,confidence_buffer,227804,confidence_buffer,,null,,,,,,,,,,,,,,,,,,
2156.699999988079,,memorable_rating,229963,Park City,,51,,,3,,,,,,,,,,,,,,,
null,,confidence_buffer,230076,confidence_buffer,,null,,,,,,,,,,,,,,,,,,
null,,thebreak,230578,break,,null,,,,,,,,,,,,,,,,,,
2397.5,,familiar_rating,232979,Livingston,,53,Livingston,US,5,,,,,,,,,,,,,,,
null,,confidence_buffer,233082,confidence_buffer,,null,,,,,,,,,,,,,,,,,,
2070.899999976158,,unique_rating,235154,Livingston,,52,,,4,,,,,,,,,,,,,,,
null,,confidence_buffer,235257,confidence_buffer,,null,,,,,,,,,,,,,,,,,,
1974.5999999642372,,memorable_rating,237234,Livingston,,53,,,5,,,,,,,,,,,,,,,
null,,confidence_buffer,237339,confidence_buffer,,null,,,,,,,,,,,,,,,,,,
null,,thebreak,237856,break,,null,,,,,,,,,,,,,,,,,,
2624.600000023842,,familiar_rating,240483,Shreveport,,52,Shreveport,US,4,,,,,,,,,,,,,,,
null,,confidence_buffer,240595,confidence_buffer,,null,,,,,,,,,,,,,,,,,,
1534,,unique_rating,242131,Shreveport,,51,,,3,,,,,,,,,,,,,,,
null,,confidence_buffer,242235,confidence_buffer,,null,,,,,,,,,,,,,,,,,,
2356.5,,memorable_rating,244594,Shreveport,,51,,,3,,,,,,,,,,,,,,,
null,,confidence_buffer,244708,confidence_buffer,,null,,,,,,,,,,,,,,,,,,
null,,thebreak,245219,break,,null,,,,,,,,,,,,,,,,,,
2501.7000000476837,,familiar_rating,247723,Abilene,,50,Abilene,US,2,,,,,,,,,,,,,,,
null,,confidence_buffer,247831,confidence_buffer,,null,,,,,,,,,,,,,,,,,,
1735.199999988079,,unique_rating,249568,Abilene,,51,,,3,,,,,,,,,,,,,,,
null,,confidence_buffer,249682,confidence_buffer,,null,,,,,,,,,,,,,,,,,,
1807.0999999642372,,memorable_rating,251491,Abilene,,52,,,4,,,,,,,,,,,,,,,
null,,confidence_buffer,251595,confidence_buffer,,null,,,,,,,,,,,,,,,,,,
null,,thebreak,252111,break,,null,,,,,,,,,,,,,,,,,,
2169.899999976158,,familiar_rating,254283,Cody,,49,Cody,US,1,,,,,,,,,,,,,,,
null,,confidence_buffer,254397,confidence_buffer,,null,,,,,,,,,,,,,,,,,,
2139.800000011921,,unique_rating,256538,Cody,,49,,,1,,,,,,,,,,,,,,,
null,,confidence_buffer,256652,confidence_buffer,,null,,,,,,,,,,,,,,,,,,
3588.400000035763,,memorable_rating,260242,Cody,,53,,,5,,,,,,,,,,,,,,,
null,,confidence_buffer,260351,confidence_buffer,,null,,,,,,,,,,,,,,,,,,
null,,thebreak,260868,break,,null,,,,,,,,,,,,,,,,,,
2459.2000000476837,,familiar_rating,263329,Barnard,,50,Barnard,US,2,,,,,,,,,,,,,,,
null,,confidence_buffer,263443,confidence_buffer,,null,,,,,,,,,,,,,,,,,,
1789.7000000476837,,unique_rating,265235,Barnard,,51,,,3,,,,,,,,,,,,,,,
null,,confidence_buffer,265340,confidence_buffer,,null,,,,,,,,,,,,,,,,,,
2795.199999988079,,memorable_rating,268137,Barnard,,52,,,4,,,,,,,,,,,,,,,
null,,confidence_buffer,268246,confidence_buffer,,null,,,,,,,,,,,,,,,,,,
null,,thebreak,268748,break,,null,,,,,,,,,,,,,,,,,,
2508.2999999523163,,familiar_rating,271259,San Antonio,,53,San Antonio,US,5,,,,,,,,,,,,,,,
null,,confidence_buffer,271363,confidence_buffer,,null,,,,,,,,,,,,,,,,,,
1581.6000000238419,,unique_rating,272947,San Antonio,,53,,,5,,,,,,,,,,,,,,,
null,,confidence_buffer,273061,confidence_buffer,,null,,,,,,,,,,,,,,,,,,
1741.1000000238419,,memorable_rating,274804,San Antonio,,53,,,5,,,,,,,,,,,,,,,
null,,confidence_buffer,274909,confidence_buffer,,null,,,,,,,,,,,,,,,,,,
null,,thebreak,275426,break,,null,,,,,,,,,,,,,,,,,,
2478.699999988079,,familiar_rating,277907,Baymarsh,,49,Baymarsh,Fictional,1,,,,,,,,,,,,,,,
null,,confidence_buffer,278013,confidence_buffer,,null,,,,,,,,,,,,,,,,,,
2457.800000011921,,probe_rating,280472,probe_rating,,52,,,,4,1,,,,,,,,,,,,,
null,,confidence_buffer,280580,confidence_buffer,,null,,,,,,,,,,,,,,,,,,
2468.900000035763,,unique_rating,283051,Baymarsh,,53,,,5,,,,,,,,,,,,,,,
null,,confidence_buffer,283168,confidence_buffer,,null,,,,,,,,,,,,,,,,,,
4048.699999988079,,memorable_rating,287220,Baymarsh,,53,,,5,,,,,,,,,,,,,,,
null,,confidence_buffer,287329,confidence_buffer,,null,,,,,,,,,,,,,,,,,,
null,,thebreak,287841,break,,null,,,,,,,,,,,,,,,,,,
2526.399999976158,,familiar_rating,290369,New Verdan,,51,New Verdan,Fictional,3,,,,,,,,,,,,,,,
null,,confidence_buffer,290482,confidence_buffer,,null,,,,,,,,,,,,,,,,,,
1910.199999988079,,unique_rating,292394,New Verdan,,50,,,2,,,,,,,,,,,,,,,
null,,confidence_buffer,292500,confidence_buffer,,null,,,,,,,,,,,,,,,,,,
1819.699999988079,,memorable_rating,294322,New Verdan,,49,,,1,,,,,,,,,,,,,,,
null,,confidence_buffer,294435,confidence_buffer,,null,,,,,,,,,,,,,,,,,,
null,,thebreak,294950,break,,null,,,,,,,,,,,,,,,,,,
1386.699999988079,,familiar_rating,296339,East Ladera,,50,East Ladera,Fictional,2,,,,,,,,,,,,,,,
null,,confidence_buffer,296444,confidence_buffer,,null,,,,,,,,,,,,,,,,,,
1036.6000000238419,,unique_rating,297483,East Ladera,,51,,,3,,,,,,,,,,,,,,,
null,,confidence_buffer,297587,confidence_buffer,,null,,,,,,,,,,,,,,,,,,
1260.7000000476837,,memorable_rating,298850,East Ladera,,52,,,4,,,,,,,,,,,,,,,
null,,confidence_buffer,298954,confidence_buffer,,null,,,,,,,,,,,,,,,,,,
null,,thebreak,299463,break,,null,,,,,,,,,,,,,,,,,,
3553.199999988079,,familiar_rating,303019,West Palm Beach,,53,West Palm Beach,US,5,,,,,,,,,,,,,,,
null,,confidence_buffer,303126,confidence_buffer,,null,,,,,,,,,,,,,,,,,,
2561.399999976158,,unique_rating,305690,West Palm Beach,,52,,,4,,,,,,,,,,,,,,,
null,,confidence_buffer,305798,confidence_buffer,,null,,,,,,,,,,,,,,,,,,
2275.399999976158,,memorable_rating,308076,West Palm Beach,,53,,,5,,,,,,,,,,,,,,,
null,,confidence_buffer,308188,confidence_buffer,,null,,,,,,,,,,,,,,,,,,
null,,thebreak,308706,break,,null,,,,,,,,,,,,,,,,,,
2110,,familiar_rating,310818,Sierra Hollow,,51,Sierra Hollow,Fictional,3,,,,,,,,,,,,,,,
null,,confidence_buffer,310923,confidence_buffer,,null,,,,,,,,,,,,,,,,,,
2004.5,,unique_rating,312930,Sierra Hollow,,50,,,2,,,,,,,,,,,,,,,
null,,confidence_buffer,313045,confidence_buffer,,null,,,,,,,,,,,,,,,,,,
2762.100000023842,,memorable_rating,315810,Sierra Hollow,,50,,,2,,,,,,,,,,,,,,,
null,,confidence_buffer,315926,confidence_buffer,,null,,,,,,,,,,,,,,,,,,
3291.7000000476837,,probe_rating,319219,probe_rating,,50,,,,2,1,,,,,,,,,,,,,
null,,confidence_buffer,319326,confidence_buffer,,null,,,,,,,,,,,,,,,,,,
null,,thebreak,319836,break,,null,,,,,,,,,,,,,,,,,,
1709.199999988079,,familiar_rating,321547,Orchard Bend,,52,Orchard Bend,Fictional,4,,,,,,,,,,,,,,,
null,,confidence_buffer,321657,confidence_buffer,,null,,,,,,,,,,,,,,,,,,
3269.899999976158,,unique_rating,324928,Orchard Bend,,51,,,3,,,,,,,,,,,,,,,
null,,confidence_buffer,325047,confidence_buffer,,null,,,,,,,,,,,,,,,,,,
3626.399999976158,,memorable_rating,328675,Orchard Bend,,53,,,5,,,,,,,,,,,,,,,
null,,confidence_buffer,328786,confidence_buffer,,null,,,,,,,,,,,,,,,,,,
null,,thebreak,329305,break,,null,,,,,,,,,,,,,,,,,,
5183.200000047684,,familiar_rating,334491,Gatlinburg,,49,Gatlinburg,US,1,,,,,,,,,,,,,,,
null,,confidence_buffer,334598,confidence_buffer,,null,,,,,,,,,,,,,,,,,,
2153.899999976158,,unique_rating,336754,Gatlinburg,,50,,,2,,,,,,,,,,,,,,,
null,,confidence_buffer,336865,confidence_buffer,,null,,,,,,,,,,,,,,,,,,
2278.400000035763,,probe_rating,339146,probe_rating,,52,,,,4,1,,,,,,,,,,,,,
null,,confidence_buffer,339256,confidence_buffer,,null,,,,,,,,,,,,,,,,,,
1921.1000000238419,,memorable_rating,341179,Gatlinburg,,53,,,5,,,,,,,,,,,,,,,
null,,confidence_buffer,341288,confidence_buffer,,null,,,,,,,,,,,,,,,,,,
null,,thebreak,341805,break,,null,,,,,,,,,,,,,,,,,,
3595.800000011921,,familiar_rating,345403,Rosehollow,,50,Rosehollow,Fictional,2,,,,,,,,,,,,,,,
null,,confidence_buffer,345512,confidence_buffer,,null,,,,,,,,,,,,,,,,,,
2854.699999988079,,unique_rating,348369,Rosehollow,,51,,,3,,,,,,,,,,,,,,,
null,,confidence_buffer,348475,confidence_buffer,,null,,,,,,,,,,,,,,,,,,
1517.3999999761581,,memorable_rating,349995,Rosehollow,,52,,,4,,,,,,,,,,,,,,,
null,,confidence_buffer,350099,confidence_buffer,,null,,,,,,,,,,,,,,,,,,
null,,thebreak,350612,break,,null,,,,,,,,,,,,,,,,,,
65061.89999997616,,familiar_rating,415676,Clearbrook,,52,Clearbrook,Fictional,4,,,,,,,,,,,,,,,
null,,confidence_buffer,415788,confidence_buffer,,null,,,,,,,,,,,,,,,,,,
2165,,unique_rating,417955,Clearbrook,,52,,,4,,,,,,,,,,,,,,,
null,,confidence_buffer,418060,confidence_buffer,,null,,,,,,,,,,,,,,,,,,
2156.699999988079,,memorable_rating,420219,Clearbrook,,51,,,3,,,,,,,,,,,,,,,
null,,confidence_buffer,420326,confidence_buffer,,null,,,,,,,,,,,,,,,,,,
null,,thebreak,420834,break,,null,,,,,,,,,,,,,,,,,,
2062.2999999523163,,familiar_rating,422898,Highvale,,50,Highvale,Fictional,2,,,,,,,,,,,,,,,
null,,confidence_buffer,423008,confidence_buffer,,null,,,,,,,,,,,,,,,,,,
1295.1000000238419,,unique_rating,424306,Highvale,,51,,,3,,,,,,,,,,,,,,,
null,,confidence_buffer,424421,confidence_buffer,,null,,,,,,,,,,,,,,,,,,
2588.899999976158,,memorable_rating,427012,Highvale,,52,,,4,,,,,,,,,,,,,,,
null,,confidence_buffer,427115,confidence_buffer,,null,,,,,,,,,,,,,,,,,,
null,,thebreak,427623,break,,null,,,,,,,,,,,,,,,,,,
5847.099999964237,,intro_0,433472,instruct,,32,,,,,,,,,,,,,,,,,,
11385.699999988079,,intro_1,444859,instruct,,32,,,,,,,,,,,,,,,,,,
14828.300000011921,,intro_2,459689,instruct,,32,,,,,,,,,,,,,,,,,,
null,,instruct_dir_4,461200,instruct,,null,,,,,,,,,,,,,,,,,,
7712.100000023842,,realistic_rating,468915,San Antonio,,53,San Antonio,US,5,,,,,,,,,,,,,,,
null,,confidence_buffer,469027,confidence_buffer,,null,,,,,,,,,,,,,,,,,,
2501.5,,pt2_unique_rating,471531,San Antonio,,52,,,4,,,,,,,,,,,,,,,
null,,confidence_buffer,471647,confidence_buffer,,null,,,,,,,,,,,,,,,,,,
2921.600000023842,,pt2_memorable_rating,474571,San Antonio,,53,,,5,,,,,,,,,,,,,,,
null,,confidence_buffer,474679,confidence_buffer,,null,,,,,,,,,,,,,,,,,,
2928.2999999523163,,recognition_phase,477610,San Antonio,,49,,,,,,old,1,1,,,,,,,,,,
null,,confidence_buffer,477719,confidence_buffer,,null,,,,,,,,,,,,,,,,,,
null,,thebreak,478234,break,,null,,,,,,,,,,,,,,,,,,
8559.299999952316,,realistic_rating,486796,Newport,,51,Newport,US,3,,,,,,,,,,,,,,,
null,,confidence_buffer,486914,confidence_buffer,,null,,,,,,,,,,,,,,,,,,
2574.5,,pt2_unique_rating,489491,Newport,,50,,,2,,,,,,,,,,,,,,,
null,,confidence_buffer,489603,confidence_buffer,,null,,,,,,,,,,,,,,,,,,
1525.8999999761581,,pt2_memorable_rating,491131,Newport,,51,,,3,,,,,,,,,,,,,,,
null,,confidence_buffer,491235,confidence_buffer,,null,,,,,,,,,,,,,,,,,,
4677.300000011921,,recognition_phase,495915,Newport,,50,,,,,,old,0,0.5,,,,,,,,,,
null,,confidence_buffer,496025,confidence_buffer,,null,,,,,,,,,,,,,,,,,,
null,,thebreak,496528,break,,null,,,,,,,,,,,,,,,,,,
4815,,realistic_rating,501345,Hanover,,52,Hanover,US,4,,,,,,,,,,,,,,,
null,,confidence_buffer,501453,confidence_buffer,,null,,,,,,,,,,,,,,,,,,
2393.699999988079,,pt2_unique_rating,503849,Hanover,,52,,,4,,,,,,,,,,,,,,,
null,,confidence_buffer,503963,confidence_buffer,,null,,,,,,,,,,,,,,,,,,
1374.0999999642372,,pt2_memorable_rating,505339,Hanover,,53,,,5,,,,,,,,,,,,,,,
null,,confidence_buffer,505444,confidence_buffer,,null,,,,,,,,,,,,,,,,,,
1924.1000000238419,,probe_rating,507371,probe_rating,,50,,,,2,1,,,,,,,,,,,,,
null,,confidence_buffer,507477,confidence_buffer,,null,,,,,,,,,,,,,,,,,,
5556.400000035763,,recognition_phase,513035,Hanover,,51,,,,,,new,1,0.6666666666666666,,,,,,,,,,
null,,confidence_buffer,513149,confidence_buffer,,null,,,,,,,,,,,,,,,,,,
null,,thebreak,513656,break,,null,,,,,,,,,,,,,,,,,,
5048.100000023842,,realistic_rating,518706,Lakehaven,,49,Lakehaven,Fictional,1,,,,,,,,,,,,,,,
null,,confidence_buffer,518810,confidence_buffer,,null,,,,,,,,,,,,,,,,,,
1454.300000011921,,pt2_unique_rating,520267,Lakehaven,,50,,,2,,,,,,,,,,,,,,,
null,,confidence_buffer,520376,confidence_buffer,,null,,,,,,,,,,,,,,,,,,
1584.0999999642372,,pt2_memorable_rating,521963,Lakehaven,,51,,,3,,,,,,,,,,,,,,,
null,,confidence_buffer,522075,confidence_buffer,,null,,,,,,,,,,,,,,,,,,
5125.5,,recognition_phase,527203,Lakehaven,,50,,,,,,old,0,0.5,,,,,,,,,,
null,,confidence_buffer,527314,confidence_buffer,,null,,,,,,,,,,,,,,,,,,
null,,thebreak,527825,break,,null,,,,,,,,,,,,,,,,,,
4935.599999964237,,realistic_rating,532763,Bowling Green,,52,Bowling Green,US,4,,,,,,,,,,,,,,,
null,,confidence_buffer,532870,confidence_buffer,,null,,,,,,,,,,,,,,,,,,
1081.7000000476837,,pt2_unique_rating,533956,Bowling Green,,51,,,3,,,,,,,,,,,,,,,
null,,confidence_buffer,534069,confidence_buffer,,null,,,,,,,,,,,,,,,,,,
715.3000000119209,,pt2_memorable_rating,534787,Bowling Green,,50,,,2,,,,,,,,,,,,,,,
null,,confidence_buffer,534893,confidence_buffer,,null,,,,,,,,,,,,,,,,,,
5163.400000035763,,recognition_phase,540059,Bowling Green,,52,,,,,,new,1,0.6,,,,,,,,,,
null,,confidence_buffer,540167,confidence_buffer,,null,,,,,,,,,,,,,,,,,,
null,,thebreak,540675,break,,null,,,,,,,,,,,,,,,,,,
3612,,realistic_rating,544289,Westridge,,52,Westridge,Fictional,4,,,,,,,,,,,,,,,
null,,confidence_buffer,544396,confidence_buffer,,null,,,,,,,,,,,,,,,,,,
1980.800000011921,,pt2_unique_rating,546379,Westridge,,51,,,3,,,,,,,,,,,,,,,
null,,confidence_buffer,546496,confidence_buffer,,null,,,,,,,,,,,,,,,,,,
1960.5,,probe_rating,548459,probe_rating,,49,,,,1,1,,,,,,,,,,,,,
null,,confidence_buffer,548569,confidence_buffer,,null,,,,,,,,,,,,,,,,,,
2103.800000011921,,pt2_memorable_rating,550675,Westridge,,50,,,2,,,,,,,,,,,,,,,
null,,confidence_buffer,550782,confidence_buffer,,null,,,,,,,,,,,,,,,,,,
2745.300000011921,,recognition_phase,553530,Westridge,,49,,,,,,old,1,0.6666666666666666,,,,,,,,,,
null,,confidence_buffer,553633,confidence_buffer,,null,,,,,,,,,,,,,,,,,,
null,,thebreak,554146,break,,null,,,,,,,,,,,,,,,,,,
2982.699999988079,,realistic_rating,557131,Yukon,,53,Yukon,US,5,,,,,,,,,,,,,,,
null,,confidence_buffer,557240,confidence_buffer,,null,,,,,,,,,,,,,,,,,,
1735.800000011921,,pt2_unique_rating,558978,Yukon,,52,,,4,,,,,,,,,,,,,,,
null,,confidence_buffer,559086,confidence_buffer,,null,,,,,,,,,,,,,,,,,,
3875.199999988079,,pt2_memorable_rating,562963,Yukon,,51,,,3,,,,,,,,,,,,,,,
null,,confidence_buffer,563069,confidence_buffer,,null,,,,,,,,,,,,,,,,,,
4667,,recognition_phase,567739,Yukon,,51,,,,,,new,0,0.5714285714285714,,,,,,,,,,
null,,confidence_buffer,567843,confidence_buffer,,null,,,,,,,,,,,,,,,,,,
null,,thebreak,568351,break,,null,,,,,,,,,,,,,,,,,,
14929.300000011921,,realistic_rating,583283,Abilene,,50,Abilene,US,2,,,,,,,,,,,,,,,
null,,confidence_buffer,583389,confidence_buffer,,null,,,,,,,,,,,,,,,,,,
3291.600000023842,,pt2_unique_rating,586683,Abilene,,51,,,3,,,,,,,,,,,,,,,
null,,confidence_buffer,586788,confidence_buffer,,null,,,,,,,,,,,,,,,,,,
2920.199999988079,,pt2_memorable_rating,589713,Abilene,,51,,,3,,,,,,,,,,,,,,,
null,,confidence_buffer,589818,confidence_buffer,,null,,,,,,,,,,,,,,,,,,
2759.5,,recognition_phase,592580,Abilene,,49,,,,,,old,1,0.625,,,,,,,,,,
null,,confidence_buffer,592685,confidence_buffer,,null,,,,,,,,,,,,,,,,,,
null,,thebreak,593187,break,,null,,,,,,,,,,,,,,,,,,
3955.2999999523163,,realistic_rating,597145,Cedarwyn,,50,Cedarwyn,Fictional,2,,,,,,,,,,,,,,,
null,,confidence_buffer,597249,confidence_buffer,,null,,,,,,,,,,,,,,,,,,
1438.8999999761581,,pt2_unique_rating,598690,Cedarwyn,,51,,,3,,,,,,,,,,,,,,,
null,,confidence_buffer,598794,confidence_buffer,,null,,,,,,,,,,,,,,,,,,
2198.199999988079,,pt2_memorable_rating,600997,Cedarwyn,,52,,,4,,,,,,,,,,,,,,,
null,,confidence_buffer,601101,confidence_buffer,,null,,,,,,,,,,,,,,,,,,
2308.100000023842,,recognition_phase,603412,Cedarwyn,,52,,,,,,new,1,0.6666666666666666,,,,,,,,,,
null,,confidence_buffer,603516,confidence_buffer,,null,,,,,,,,,,,,,,,,,,
null,,thebreak,604021,break,,null,,,,,,,,,,,,,,,,,,
3273.899999976158,,realistic_rating,607299,Highvale,,52,Highvale,Fictional,4,,,,,,,,,,,,,,,
null,,confidence_buffer,607404,confidence_buffer,,null,,,,,,,,,,,,,,,,,,
2150,,pt2_unique_rating,609557,Highvale,,52,,,4,,,,,,,,,,,,,,,
null,,confidence_buffer,609662,confidence_buffer,,null,,,,,,,,,,,,,,,,,,
1488.1000000238419,,pt2_memorable_rating,611153,Highvale,,51,,,3,,,,,,,,,,,,,,,
null,,confidence_buffer,611256,confidence_buffer,,null,,,,,,,,,,,,,,,,,,
1905.5,,recognition_phase,613163,Highvale,,49,,,,,,old,1,0.7,,,,,,,,,,
null,,confidence_buffer,613266,confidence_buffer,,null,,,,,,,,,,,,,,,,,,
null,,thebreak,613769,break,,null,,,,,,,,,,,,,,,,,,
3665.800000011921,,realistic_rating,617437,Berkeley Springs,,51,Berkeley Springs,US,3,,,,,,,,,,,,,,,
null,,confidence_buffer,617541,confidence_buffer,,null,,,,,,,,,,,,,,,,,,
2923.199999988079,,pt2_unique_rating,620467,Berkeley Springs,,50,,,2,,,,,,,,,,,,,,,
null,,confidence_buffer,620572,confidence_buffer,,null,,,,,,,,,,,,,,,,,,
11797.399999976158,,pt2_memorable_rating,632372,Berkeley Springs,,51,,,3,,,,,,,,,,,,,,,
null,,confidence_buffer,632477,confidence_buffer,,null,,,,,,,,,,,,,,,,,,
5100.100000023842,,recognition_phase,637579,Berkeley Springs,,51,,,,,,new,1,0.7272727272727273,,,,,,,,,,
null,,confidence_buffer,637684,confidence_buffer,,null,,,,,,,,,,,,,,,,,,
null,,thebreak,638186,break,,null,,,,,,,,,,,,,,,,,,
3558.099999964237,,realistic_rating,641747,Clearbrook,,50,Clearbrook,Fictional,2,,,,,,,,,,,,,,,
null,,confidence_buffer,641852,confidence_buffer,,null,,,,,,,,,,,,,,,,,,
1252.9000000357628,,pt2_unique_rating,643107,Clearbrook,,51,,,3,,,,,,,,,,,,,,,
null,,confidence_buffer,643210,confidence_buffer,,null,,,,,,,,,,,,,,,,,,
1031.199999988079,,pt2_memorable_rating,644245,Clearbrook,,52,,,4,,,,,,,,,,,,,,,
null,,confidence_buffer,644347,confidence_buffer,,null,,,,,,,,,,,,,,,,,,
2085.899999976158,,recognition_phase,646436,Clearbrook,,49,,,,,,old,1,0.75,,,,,,,,,,
null,,confidence_buffer,646539,confidence_buffer,,null,,,,,,,,,,,,,,,,,,
null,,thebreak,647043,break,,null,,,,,,,,,,,,,,,,,,
5780.300000011921,,realistic_rating,652826,Gardnerville,,51,Gardnerville,US,3,,,,,,,,,,,,,,,
null,,confidence_buffer,652931,confidence_buffer,,null,,,,,,,,,,,,,,,,,,
1390.2000000476837,,pt2_unique_rating,654325,Gardnerville,,52,,,4,,,,,,,,,,,,,,,
null,,confidence_buffer,654427,confidence_buffer,,null,,,,,,,,,,,,,,,,,,
2029.2000000476837,,pt2_memorable_rating,656459,Gardnerville,,51,,,3,,,,,,,,,,,,,,,
null,,confidence_buffer,656564,confidence_buffer,,null,,,,,,,,,,,,,,,,,,
1508.800000011921,,probe_rating,658076,probe_rating,,49,,,,1,1,,,,,,,,,,,,,
null,,confidence_buffer,658180,confidence_buffer,,null,,,,,,,,,,,,,,,,,,
2292.5,,recognition_phase,660476,Gardnerville,,51,,,,,,new,0,0.6923076923076923,,,,,,,,,,
null,,confidence_buffer,660578,confidence_buffer,,null,,,,,,,,,,,,,,,,,,
null,,thebreak,661083,break,,null,,,,,,,,,,,,,,,,,,
3014.100000023842,,realistic_rating,664100,Northbridge,,51,Northbridge,Fictional,3,,,,,,,,,,,,,,,
null,,confidence_buffer,664204,confidence_buffer,,null,,,,,,,,,,,,,,,,,,
941.2999999523163,,pt2_unique_rating,665149,Northbridge,,52,,,4,,,,,,,,,,,,,,,
null,,confidence_buffer,665253,confidence_buffer,,null,,,,,,,,,,,,,,,,,,
1884.0999999642372,,pt2_memorable_rating,667138,Northbridge,,53,,,5,,,,,,,,,,,,,,,
null,,confidence_buffer,667241,confidence_buffer,,null,,,,,,,,,,,,,,,,,,
2215.5,,recognition_phase,669459,Northbridge,,49,,,,,,old,0,0.6428571428571429,,,,,,,,,,
null,,confidence_buffer,669563,confidence_buffer,,null,,,,,,,,,,,,,,,,,,
null,,thebreak,670066,break,,null,,,,,,,,,,,,,,,,,,
2636.7000000476837,,realistic_rating,672705,Cleveland,,50,Cleveland,US,2,,,,,,,,,,,,,,,
null,,confidence_buffer,672809,confidence_buffer,,null,,,,,,,,,,,,,,,,,,
1127.5999999642372,,pt2_unique_rating,673940,Cleveland,,51,,,3,,,,,,,,,,,,,,,
null,,confidence_buffer,674044,confidence_buffer,,null,,,,,,,,,,,,,,,,,,
902.6999999880791,,pt2_memorable_rating,674949,Cleveland,,52,,,4,,,,,,,,,,,,,,,
null,,confidence_buffer,675054,confidence_buffer,,null,,,,,,,,,,,,,,,,,,
1802.1000000238419,,recognition_phase,676861,Cleveland,,49,,,,,,old,0,0.6,,,,,,,,,,
null,,confidence_buffer,676965,confidence_buffer,,null,,,,,,,,,,,,,,,,,,
null,,thebreak,677469,break,,null,,,,,,,,,,,,,,,,,,
6785.099999964237,,realistic_rating,684256,Juniper Creek,,50,Juniper Creek,Fictional,2,,,,,,,,,,,,,,,
null,,confidence_buffer,684359,confidence_buffer,,null,,,,,,,,,,,,,,,,,,
1121.800000011921,,pt2_unique_rating,685484,Juniper Creek,,51,,,3,,,,,,,,,,,,,,,
null,,confidence_buffer,685589,confidence_buffer,,null,,,,,,,,,,,,,,,,,,
3261,,pt2_memorable_rating,688853,Juniper Creek,,52,,,4,,,,,,,,,,,,,,,
null,,confidence_buffer,688958,confidence_buffer,,null,,,,,,,,,,,,,,,,,,
2215.800000011921,,recognition_phase,691177,Juniper Creek,,52,,,,,,new,1,0.625,,,,,,,,,,
null,,confidence_buffer,691278,confidence_buffer,,null,,,,,,,,,,,,,,,,,,
null,,thebreak,691783,break,,null,,,,,,,,,,,,,,,,,,
4530.399999976158,,realistic_rating,696316,Gatlinburg,,53,Gatlinburg,US,5,,,,,,,,,,,,,,,
null,,confidence_buffer,696420,confidence_buffer,,null,,,,,,,,,,,,,,,,,,
637.3000000119209,,pt2_unique_rating,697060,Gatlinburg,,52,,,4,,,,,,,,,,,,,,,
null,,confidence_buffer,697166,confidence_buffer,,null,,,,,,,,,,,,,,,,,,
1770.699999988079,,probe_rating,698940,probe_rating,,51,,,,3,1,,,,,,,,,,,,,
null,,confidence_buffer,699045,confidence_buffer,,null,,,,,,,,,,,,,,,,,,
3771.699999988079,,pt2_memorable_rating,702819,Gatlinburg,,50,,,2,,,,,,,,,,,,,,,
null,,confidence_buffer,702924,confidence_buffer,,null,,,,,,,,,,,,,,,,,,
2843.699999988079,,recognition_phase,705771,Gatlinburg,,50,,,,,,old,1,0.6470588235294118,,,,,,,,,,
null,,confidence_buffer,705880,confidence_buffer,,null,,,,,,,,,,,,,,,,,,
null,,thebreak,706386,break,,null,,,,,,,,,,,,,,,,,,
63248.80000001192,,realistic_rating,769637,West Talora,,52,West Talora,Fictional,4,,,,,,,,,,,,,,,
null,,confidence_buffer,769742,confidence_buffer,,null,,,,,,,,,,,,,,,,,,
1459.800000011921,,pt2_unique_rating,771204,West Talora,,52,,,4,,,,,,,,,,,,,,,
null,,confidence_buffer,771309,confidence_buffer,,null,,,,,,,,,,,,,,,,,,
1122.0999999642372,,pt2_memorable_rating,772436,West Talora,,53,,,5,,,,,,,,,,,,,,,
null,,confidence_buffer,772540,confidence_buffer,,null,,,,,,,,,,,,,,,,,,
2418.900000035763,,recognition_phase,774961,West Talora,,51,,,,,,new,1,0.6666666666666666,,,,,,,,,,
null,,confidence_buffer,775065,confidence_buffer,,null,,,,,,,,,,,,,,,,,,
null,,thebreak,775568,break,,null,,,,,,,,,,,,,,,,,,
2888.900000035763,,realistic_rating,778461,Tamarisk Hills,,51,Tamarisk Hills,Fictional,3,,,,,,,,,,,,,,,
null,,confidence_buffer,778565,confidence_buffer,,null,,,,,,,,,,,,,,,,,,
2745,,pt2_unique_rating,781313,Tamarisk Hills,,52,,,4,,,,,,,,,,,,,,,
null,,confidence_buffer,781416,confidence_buffer,,null,,,,,,,,,,,,,,,,,,
1407,,pt2_memorable_rating,782825,Tamarisk Hills,,53,,,5,,,,,,,,,,,,,,,
null,,confidence_buffer,782927,confidence_buffer,,null,,,,,,,,,,,,,,,,,,
3595.099999964237,,recognition_phase,786523,Tamarisk Hills,,52,,,,,,new,1,0.6842105263157895,,,,,,,,,,
null,,confidence_buffer,786629,confidence_buffer,,null,,,,,,,,,,,,,,,,,,
null,,thebreak,787134,break,,null,,,,,,,,,,,,,,,,,,
2867.199999988079,,realistic_rating,790005,Pine Hollow,,52,Pine Hollow,Fictional,4,,,,,,,,,,,,,,,
null,,confidence_buffer,790111,confidence_buffer,,null,,,,,,,,,,,,,,,,,,
474.69999998807907,,pt2_unique_rating,790588,Pine Hollow,,51,,,3,,,,,,,,,,,,,,,
null,,confidence_buffer,790693,confidence_buffer,,null,,,,,,,,,,,,,,,,,,
940.5,,pt2_memorable_rating,791637,Pine Hollow,,50,,,2,,,,,,,,,,,,,,,
null,,confidence_buffer,791741,confidence_buffer,,null,,,,,,,,,,,,,,,,,,
3748,,recognition_phase,795493,Pine Hollow,,50,,,,,,old,0,0.65,,,,,,,,,,
null,,confidence_buffer,795596,confidence_buffer,,null,,,,,,,,,,,,,,,,,,
null,,thebreak,796098,break,,null,,,,,,,,,,,,,,,,,,
6799.600000023842,,realistic_rating,802899,Montelake,,52,Montelake,Fictional,4,,,,,,,,,,,,,,,
null,,confidence_buffer,803004,confidence_buffer,,null,,,,,,,,,,,,,,,,,,
2267.899999976158,,pt2_unique_rating,805275,Montelake,,51,,,3,,,,,,,,,,,,,,,
null,,confidence_buffer,805379,confidence_buffer,,null,,,,,,,,,,,,,,,,,,
1821.1000000238419,,probe_rating,807203,probe_rating,,50,,,,2,1,,,,,,,,,,,,,
null,,confidence_buffer,807307,confidence_buffer,,null,,,,,,,,,,,,,,,,,,
3931.399999976158,,pt2_memorable_rating,811241,Montelake,,52,,,4,,,,,,,,,,,,,,,
null,,confidence_buffer,811347,confidence_buffer,,null,,,,,,,,,,,,,,,,,,
1613.5,,recognition_phase,812964,Montelake,,49,,,,,,old,1,0.6666666666666666,,,,,,,,,,
null,,confidence_buffer,813069,confidence_buffer,,null,,,,,,,,,,,,,,,,,,
null,,thebreak,813572,break,,null,,,,,,,,,,,,,,,,,,
3892,,realistic_rating,817468,Medora,,50,Medora,US,2,,,,,,,,,,,,,,,
null,,confidence_buffer,817572,confidence_buffer,,null,,,,,,,,,,,,,,,,,,
1132.7000000476837,,pt2_unique_rating,818707,Medora,,51,,,3,,,,,,,,,,,,,,,
null,,confidence_buffer,818813,confidence_buffer,,null,,,,,,,,,,,,,,,,,,
3258.199999988079,,pt2_memorable_rating,822073,Medora,,52,,,4,,,,,,,,,,,,,,,
null,,confidence_buffer,822176,confidence_buffer,,null,,,,,,,,,,,,,,,,,,
2160.5,,recognition_phase,824340,Medora,,50,,,,,,old,0,0.6363636363636364,,,,,,,,,,
null,,confidence_buffer,824444,confidence_buffer,,null,,,,,,,,,,,,,,,,,,
null,,thebreak,824947,break,,null,,,,,,,,,,,,,,,,,,
6014.5,,realistic_rating,830965,Bayshore Haven,,53,Bayshore Haven,Fictional,5,,,,,,,,,,,,,,,
null,,confidence_buffer,831071,confidence_buffer,,null,,,,,,,,,,,,,,,,,,
1074.199999988079,,pt2_unique_rating,832148,Bayshore Haven,,52,,,4,,,,,,,,,,,,,,,
null,,confidence_buffer,832253,confidence_buffer,,null,,,,,,,,,,,,,,,,,,
739.0999999642372,,pt2_memorable_rating,832994,Bayshore Haven,,51,,,3,,,,,,,,,,,,,,,
null,,confidence_buffer,833096,confidence_buffer,,null,,,,,,,,,,,,,,,,,,
2065.099999964237,,recognition_phase,835163,Bayshore Haven,,49,,,,,,old,0,0.6086956521739131,,,,,,,,,,
null,,confidence_buffer,835269,confidence_buffer,,null,,,,,,,,,,,,,,,,,,
null,,thebreak,835774,break,,null,,,,,,,,,,,,,,,,,,
3866.399999976158,,realistic_rating,839644,Delaware City,,51,Delaware City,US,3,,,,,,,,,,,,,,,
null,,confidence_buffer,839749,confidence_buffer,,null,,,,,,,,,,,,,,,,,,
1265.2999999523163,,pt2_unique_rating,841017,Delaware City,,52,,,4,,,,,,,,,,,,,,,
null,,confidence_buffer,841121,confidence_buffer,,null,,,,,,,,,,,,,,,,,,
3272.899999976158,,probe_rating,844396,probe_rating,,52,,,,4,1,,,,,,,,,,,,,
null,,confidence_buffer,844500,confidence_buffer,,null,,,,,,,,,,,,,,,,,,
2030.800000011921,,pt2_memorable_rating,846533,Delaware City,,53,,,5,,,,,,,,,,,,,,,
null,,confidence_buffer,846638,confidence_buffer,,null,,,,,,,,,,,,,,,,,,
3395.100000023842,,recognition_phase,850037,Delaware City,,52,,,,,,new,1,0.625,,,,,,,,,,
null,,confidence_buffer,850142,confidence_buffer,,null,,,,,,,,,,,,,,,,,,
null,,thebreak,850645,break,,null,,,,,,,,,,,,,,,,,,
2955,,realistic_rating,853603,East Ladera,,52,East Ladera,Fictional,4,,,,,,,,,,,,,,,
null,,confidence_buffer,853709,confidence_buffer,,null,,,,,,,,,,,,,,,,,,
3740.199999988079,,pt2_unique_rating,857452,East Ladera,,51,,,3,,,,,,,,,,,,,,,
null,,confidence_buffer,857556,confidence_buffer,,null,,,,,,,,,,,,,,,,,,
1573.699999988079,,pt2_memorable_rating,859132,East Ladera,,52,,,4,,,,,,,,,,,,,,,
null,,confidence_buffer,859236,confidence_buffer,,null,,,,,,,,,,,,,,,,,,
2997.5,,recognition_phase,862237,East Ladera,,51,,,,,,new,0,0.6,,,,,,,,,,
null,,confidence_buffer,862341,confidence_buffer,,null,,,,,,,,,,,,,,,,,,
null,,thebreak,862845,break,,null,,,,,,,,,,,,,,,,,,
3699,,realistic_rating,866546,Shreveport,,53,Shreveport,US,5,,,,,,,,,,,,,,,
null,,confidence_buffer,866651,confidence_buffer,,null,,,,,,,,,,,,,,,,,,
1468.8999999761581,,pt2_unique_rating,868124,Shreveport,,52,,,4,,,,,,,,,,,,,,,
null,,confidence_buffer,868229,confidence_buffer,,null,,,,,,,,,,,,,,,,,,
1073.800000011921,,pt2_memorable_rating,869306,Shreveport,,51,,,3,,,,,,,,,,,,,,,
null,,confidence_buffer,869409,confidence_buffer,,null,,,,,,,,,,,,,,,,,,
2087.400000035763,,probe_rating,871500,probe_rating,,49,,,,1,1,,,,,,,,,,,,,
null,,confidence_buffer,871604,confidence_buffer,,null,,,,,,,,,,,,,,,,,,
13700.899999976158,,recognition_phase,885308,Shreveport,,50,,,,,,old,1,0.6153846153846154,,,,,,,,,,
null,,confidence_buffer,885413,confidence_buffer,,null,,,,,,,,,,,,,,,,,,
null,,thebreak,885916,break,,null,,,,,,,,,,,,,,,,,,
3923.400000035763,,realistic_rating,889841,Maplehurst,,52,Maplehurst,Fictional,4,,,,,,,,,,,,,,,
null,,confidence_buffer,889946,confidence_buffer,,null,,,,,,,,,,,,,,,,,,
8089.800000011921,,pt2_unique_rating,898038,Maplehurst,,51,,,3,,,,,,,,,,,,,,,
null,,confidence_buffer,898144,confidence_buffer,,null,,,,,,,,,,,,,,,,,,
2448.5,,pt2_memorable_rating,900596,Maplehurst,,52,,,4,,,,,,,,,,,,,,,
null,,confidence_buffer,900701,confidence_buffer,,null,,,,,,,,,,,,,,,,,,
2850,,recognition_phase,903557,Maplehurst,,52,,,,,,new,1,0.6296296296296297,,,,,,,,,,
null,,confidence_buffer,903662,confidence_buffer,,null,,,,,,,,,,,,,,,,,,
null,,thebreak,904165,break,,null,,,,,,,,,,,,,,,,,,
5213,,realistic_rating,909380,Cornwall,,51,Cornwall,US,3,,,,,,,,,,,,,,,
null,,confidence_buffer,909487,confidence_buffer,,null,,,,,,,,,,,,,,,,,,
1074.199999988079,,pt2_unique_rating,910564,Cornwall,,50,,,2,,,,,,,,,,,,,,,
null,,confidence_buffer,910669,confidence_buffer,,null,,,,,,,,,,,,,,,,,,
1963.3999999761581,,probe_rating,912636,probe_rating,,52,,,,4,1,,,,,,,,,,,,,
null,,confidence_buffer,912743,confidence_buffer,,null,,,,,,,,,,,,,,,,,,
1249.800000011921,,pt2_memorable_rating,913995,Cornwall,,53,,,5,,,,,,,,,,,,,,,
null,,confidence_buffer,914099,confidence_buffer,,null,,,,,,,,,,,,,,,,,,
4437.199999988079,,recognition_phase,918540,Cornwall,,51,,,,,,new,0,0.6071428571428571,,,,,,,,,,
null,,confidence_buffer,918644,confidence_buffer,,null,,,,,,,,,,,,,,,,,,
null,,thebreak,919148,break,,null,,,,,,,,,,,,,,,,,,
1735.199999988079,,realistic_rating,920886,Linden Trace,,49,Linden Trace,Fictional,1,,,,,,,,,,,,,,,
null,,confidence_buffer,920992,confidence_buffer,,null,,,,,,,,,,,,,,,,,,
1297.4000000357628,,pt2_unique_rating,922293,Linden Trace,,50,,,2,,,,,,,,,,,,,,,
null,,confidence_buffer,922396,confidence_buffer,,null,,,,,,,,,,,,,,,,,,
1051.199999988079,,pt2_memorable_rating,923451,Linden Trace,,51,,,3,,,,,,,,,,,,,,,
null,,confidence_buffer,923555,confidence_buffer,,null,,,,,,,,,,,,,,,,,,
4830.800000011921,,recognition_phase,928390,Linden Trace,,50,,,,,,old,0,0.5862068965517241,,,,,,,,,,
null,,confidence_buffer,928494,confidence_buffer,,null,,,,,,,,,,,,,,,,,,
null,,thebreak,928997,break,,null,,,,,,,,,,,,,,,,,,
883.5999999642372,,realistic_rating,929884,Oakridge,,50,Oakridge,Fictional,2,,,,,,,,,,,,,,,
null,,confidence_buffer,929989,confidence_buffer,,null,,,,,,,,,,,,,,,,,,
2082.099999964237,,pt2_unique_rating,932073,Oakridge,,51,,,3,,,,,,,,,,,,,,,
null,,confidence_buffer,932178,confidence_buffer,,null,,,,,,,,,,,,,,,,,,
1135.9000000357628,,pt2_memorable_rating,933316,Oakridge,,52,,,4,,,,,,,,,,,,,,,
null,,confidence_buffer,933422,confidence_buffer,,null,,,,,,,,,,,,,,,,,,
1586.699999988079,,recognition_phase,935013,Oakridge,,49,,,,,,old,1,0.6,,,,,,,,,,
null,,confidence_buffer,935119,confidence_buffer,,null,,,,,,,,,,,,,,,,,,
null,,thebreak,935624,break,,null,,,,,,,,,,,,,,,,,,
1743.699999988079,,realistic_rating,937371,New Verdan,,52,New Verdan,Fictional,4,,,,,,,,,,,,,,,
null,,confidence_buffer,937477,confidence_buffer,,null,,,,,,,,,,,,,,,,,,
1075.4000000357628,,pt2_unique_rating,938555,New Verdan,,51,,,3,,,,,,,,,,,,,,,
null,,confidence_buffer,938659,confidence_buffer,,null,,,,,,,,,,,,,,,,,,
933.3000000119209,,pt2_memorable_rating,939594,New Verdan,,52,,,4,,,,,,,,,,,,,,,
null,,confidence_buffer,939701,confidence_buffer,,null,,,,,,,,,,,,,,,,,,
4100.099999964237,,recognition_phase,943805,New Verdan,,52,,,,,,new,0,0.5806451612903226,,,,,,,,,,
null,,confidence_buffer,943909,confidence_buffer,,null,,,,,,,,,,,,,,,,,,
null,,thebreak,944413,break,,null,,,,,,,,,,,,,,,,,,
1235.2000000476837,,realistic_rating,945652,Sierra Hollow,,51,Sierra Hollow,Fictional,3,,,,,,,,,,,,,,,
null,,confidence_buffer,945757,confidence_buffer,,null,,,,,,,,,,,,,,,,,,
1123.800000011921,,pt2_unique_rating,946884,Sierra Hollow,,50,,,2,,,,,,,,,,,,,,,
null,,confidence_buffer,946990,confidence_buffer,,null,,,,,,,,,,,,,,,,,,
1707,,pt2_memorable_rating,948699,Sierra Hollow,,52,,,4,,,,,,,,,,,,,,,
null,,confidence_buffer,948803,confidence_buffer,,null,,,,,,,,,,,,,,,,,,
1085.4000000357628,,recognition_phase,949892,Sierra Hollow,,51,,,,,,new,0,0.5625,,,,,,,,,,
null,,confidence_buffer,949996,confidence_buffer,,null,,,,,,,,,,,,,,,,,,
null,,thebreak,950500,break,,null,,,,,,,,,,,,,,,,,,
700.6000000238419,,realistic_rating,951204,New Hope,,51,New Hope,US,3,,,,,,,,,,,,,,,
null,,confidence_buffer,951308,confidence_buffer,,null,,,,,,,,,,,,,,,,,,
978,,pt2_unique_rating,952289,New Hope,,50,,,2,,,,,,,,,,,,,,,
null,,confidence_buffer,952393,confidence_buffer,,null,,,,,,,,,,,,,,,,,,
1360,,pt2_memorable_rating,953757,New Hope,,51,,,3,,,,,,,,,,,,,,,
null,,confidence_buffer,953861,confidence_buffer,,null,,,,,,,,,,,,,,,,,,
2348,,recognition_phase,956212,New Hope,,52,,,,,,new,1,0.5757575757575758,,,,,,,,,,
null,,confidence_buffer,956316,confidence_buffer,,null,,,,,,,,,,,,,,,,,,
null,,thebreak,956821,break,,null,,,,,,,,,,,,,,,,,,
1443.699999988079,,realistic_rating,958267,Bisbee,,51,Bisbee,US,3,,,,,,,,,,,,,,,
null,,confidence_buffer,958372,confidence_buffer,,null,,,,,,,,,,,,,,,,,,
1260.5,,pt2_unique_rating,959636,Bisbee,,50,,,2,,,,,,,,,,,,,,,
null,,confidence_buffer,959740,confidence_buffer,,null,,,,,,,,,,,,,,,,,,
7630.300000011921,,pt2_memorable_rating,967373,Bisbee,,53,,,5,,,,,,,,,,,,,,,
null,,confidence_buffer,967478,confidence_buffer,,null,,,,,,,,,,,,,,,,,,
2906.5,,recognition_phase,970388,Bisbee,,50,,,,,,old,0,0.5588235294117647,,,,,,,,,,
null,,confidence_buffer,970492,confidence_buffer,,null,,,,,,,,,,,,,,,,,,
null,,thebreak,970994,break,,null,,,,,,,,,,,,,,,,,,
3031,,realistic_rating,974027,Cody,,52,Cody,US,4,,,,,,,,,,,,,,,
null,,confidence_buffer,974132,confidence_buffer,,null,,,,,,,,,,,,,,,,,,
2494.7000000476837,,pt2_unique_rating,976629,Cody,,51,,,3,,,,,,,,,,,,,,,
null,,confidence_buffer,976733,confidence_buffer,,null,,,,,,,,,,,,,,,,,,
1788.300000011921,,pt2_memorable_rating,978524,Cody,,52,,,4,,,,,,,,,,,,,,,
null,,confidence_buffer,978629,confidence_buffer,,null,,,,,,,,,,,,,,,,,,
2381,,recognition_phase,981013,Cody,,49,,,,,,old,1,0.5714285714285714,,,,,,,,,,
null,,confidence_buffer,981116,confidence_buffer,,null,,,,,,,,,,,,,,,,,,
null,,thebreak,981621,break,,null,,,,,,,,,,,,,,,,,,
3628.300000011921,,realistic_rating,985252,Albuquerque,,51,Albuquerque,US,3,,,,,,,,,,,,,,,
null,,confidence_buffer,985357,confidence_buffer,,null,,,,,,,,,,,,,,,,,,
923.5,,pt2_unique_rating,986283,Albuquerque,,52,,,4,,,,,,,,,,,,,,,
null,,confidence_buffer,986387,confidence_buffer,,null,,,,,,,,,,,,,,,,,,
1701.300000011921,,pt2_memorable_rating,988091,Albuquerque,,53,,,5,,,,,,,,,,,,,,,
null,,confidence_buffer,988195,confidence_buffer,,null,,,,,,,,,,,,,,,,,,
4574.699999988079,,recognition_phase,992773,Albuquerque,,52,,,,,,new,1,0.5833333333333334,,,,,,,,,,
null,,confidence_buffer,992881,confidence_buffer,,null,,,,,,,,,,,,,,,,,,
null,,thebreak,993384,break,,null,,,,,,,,,,,,,,,,,,
5351.900000035763,,realistic_rating,998740,Golden Trace,,53,Golden Trace,Fictional,5,,,,,,,,,,,,,,,
null,,confidence_buffer,998844,confidence_buffer,,null,,,,,,,,,,,,,,,,,,
1804.800000011921,,pt2_unique_rating,1000651,Golden Trace,,52,,,4,,,,,,,,,,,,,,,
null,,confidence_buffer,1000755,confidence_buffer,,null,,,,,,,,,,,,,,,,,,
2733.5,,probe_rating,1003492,probe_rating,,51,,,,3,1,,,,,,,,,,,,,
null,,confidence_buffer,1003595,confidence_buffer,,null,,,,,,,,,,,,,,,,,,
13406.600000023842,,pt2_memorable_rating,1017005,Golden Trace,,52,,,4,,,,,,,,,,,,,,,
null,,confidence_buffer,1017108,confidence_buffer,,null,,,,,,,,,,,,,,,,,,
2447.5,,recognition_phase,1019557,Golden Trace,,49,,,,,,old,1,0.5945945945945946,,,,,,,,,,
null,,confidence_buffer,1019662,confidence_buffer,,null,,,,,,,,,,,,,,,,,,
null,,thebreak,1020166,break,,null,,,,,,,,,,,,,,,,,,
5099.699999988079,,realistic_rating,1025268,Orchard Bend,,51,Orchard Bend,Fictional,3,,,,,,,,,,,,,,,
null,,confidence_buffer,1025371,confidence_buffer,,null,,,,,,,,,,,,,,,,,,
879,,pt2_unique_rating,1026253,Orchard Bend,,52,,,4,,,,,,,,,,,,,,,
null,,confidence_buffer,1026358,confidence_buffer,,null,,,,,,,,,,,,,,,,,,
1315.699999988079,,pt2_memorable_rating,1027676,Orchard Bend,,51,,,3,,,,,,,,,,,,,,,
null,,confidence_buffer,1027779,confidence_buffer,,null,,,,,,,,,,,,,,,,,,
3357.399999976158,,recognition_phase,1031140,Orchard Bend,,51,,,,,,new,0,0.5789473684210527,,,,,,,,,,
null,,confidence_buffer,1031244,confidence_buffer,,null,,,,,,,,,,,,,,,,,,
null,,thebreak,1031749,break,,null,,,,,,,,,,,,,,,,,,
1428.699999988079,,realistic_rating,1033180,Gloucester,,51,Gloucester,US,3,,,,,,,,,,,,,,,
null,,confidence_buffer,1033284,confidence_buffer,,null,,,,,,,,,,,,,,,,,,
1484.5,,pt2_unique_rating,1034771,Gloucester,,52,,,4,,,,,,,,,,,,,,,
null,,confidence_buffer,1034876,confidence_buffer,,null,,,,,,,,,,,,,,,,,,
1435.4000000357628,,pt2_memorable_rating,1036315,Gloucester,,51,,,3,,,,,,,,,,,,,,,
null,,confidence_buffer,1036419,confidence_buffer,,null,,,,,,,,,,,,,,,,,,
9348.400000035763,,recognition_phase,1045772,Gloucester,,51,,,,,,new,1,0.5897435897435898,,,,,,,,,,
null,,confidence_buffer,1045876,confidence_buffer,,null,,,,,,,,,,,,,,,,,,
null,,thebreak,1046381,break,,null,,,,,,,,,,,,,,,,,,
3554.199999988079,,realistic_rating,1049939,Hawthorne Bluffs,,49,Hawthorne Bluffs,Fictional,1,,,,,,,,,,,,,,,
null,,confidence_buffer,1050044,confidence_buffer,,null,,,,,,,,,,,,,,,,,,
2491.400000035763,,pt2_unique_rating,1052539,Hawthorne Bluffs,,49,,,1,,,,,,,,,,,,,,,
null,,confidence_buffer,1052644,confidence_buffer,,null,,,,,,,,,,,,,,,,,,
1867.2000000476837,,pt2_memorable_rating,1054513,Hawthorne Bluffs,,50,,,2,,,,,,,,,,,,,,,
null,,confidence_buffer,1054618,confidence_buffer,,null,,,,,,,,,,,,,,,,,,
2128,,recognition_phase,1056748,Hawthorne Bluffs,,49,,,,,,old,1,0.6,,,,,,,,,,
null,,confidence_buffer,1056854,confidence_buffer,,null,,,,,,,,,,,,,,,,,,
null,,thebreak,1057358,break,,null,,,,,,,,,,,,,,,,,,
2315.399999976158,,realistic_rating,1059676,Barnard,,51,Barnard,US,3,,,,,,,,,,,,,,,
null,,confidence_buffer,1059782,confidence_buffer,,null,,,,,,,,,,,,,,,,,,
2240.300000011921,,pt2_unique_rating,1062025,Barnard,,52,,,4,,,,,,,,,,,,,,,
null,,confidence_buffer,1062127,confidence_buffer,,null,,,,,,,,,,,,,,,,,,
3458.800000011921,,pt2_memorable_rating,1065588,Barnard,,53,,,5,,,,,,,,,,,,,,,
null,,confidence_buffer,1065692,confidence_buffer,,null,,,,,,,,,,,,,,,,,,
1773,,recognition_phase,1067468,Barnard,,49,,,,,,old,1,0.6097560975609756,,,,,,,,,,
null,,confidence_buffer,1067573,confidence_buffer,,null,,,,,,,,,,,,,,,,,,
null,,thebreak,1068076,break,,null,,,,,,,,,,,,,,,,,,
1429.3999999761581,,realistic_rating,1069509,Millstone,,50,Millstone,Fictional,2,,,,,,,,,,,,,,,
null,,confidence_buffer,1069613,confidence_buffer,,null,,,,,,,,,,,,,,,,,,
1705,,pt2_unique_rating,1071321,Millstone,,51,,,3,,,,,,,,,,,,,,,
null,,confidence_buffer,1071424,confidence_buffer,,null,,,,,,,,,,,,,,,,,,
1729.699999988079,,probe_rating,1073156,probe_rating,,53,,,,5,1,,,,,,,,,,,,,
null,,confidence_buffer,1073262,confidence_buffer,,null,,,,,,,,,,,,,,,,,,
1474.6000000238419,,pt2_memorable_rating,1074740,Millstone,,51,,,3,,,,,,,,,,,,,,,
null,,confidence_buffer,1074844,confidence_buffer,,null,,,,,,,,,,,,,,,,,,
8005.800000011921,,recognition_phase,1082854,Millstone,,50,,,,,,old,0,0.5952380952380952,,,,,,,,,,
null,,confidence_buffer,1082959,confidence_buffer,,null,,,,,,,,,,,,,,,,,,
null,,thebreak,1083461,break,,null,,,,,,,,,,,,,,,,,,
1235.0999999642372,,realistic_rating,1084699,Huntsville,,51,Huntsville,US,3,,,,,,,,,,,,,,,
null,,confidence_buffer,1084803,confidence_buffer,,null,,,,,,,,,,,,,,,,,,
3333.399999976158,,pt2_unique_rating,1088140,Huntsville,,51,,,3,,,,,,,,,,,,,,,
null,,confidence_buffer,1088243,confidence_buffer,,null,,,,,,,,,,,,,,,,,,
1486.8999999761581,,pt2_memorable_rating,1089733,Huntsville,,52,,,4,,,,,,,,,,,,,,,
null,,confidence_buffer,1089836,confidence_buffer,,null,,,,,,,,,,,,,,,,,,
2533.100000023842,,recognition_phase,1092372,Huntsville,,50,,,,,,old,1,0.6046511627906976,,,,,,,,,,
null,,confidence_buffer,1092478,confidence_buffer,,null,,,,,,,,,,,,,,,,,,
null,,thebreak,1092982,break,,null,,,,,,,,,,,,,,,,,,
3669.100000023842,,realistic_rating,1096653,Baymarsh,,53,Baymarsh,Fictional,5,,,,,,,,,,,,,,,
null,,confidence_buffer,1096758,confidence_buffer,,null,,,,,,,,,,,,,,,,,,
3659.600000023842,,pt2_unique_rating,1100420,Baymarsh,,52,,,4,,,,,,,,,,,,,,,
null,,confidence_buffer,1100524,confidence_buffer,,null,,,,,,,,,,,,,,,,,,
814.1000000238419,,pt2_memorable_rating,1101341,Baymarsh,,51,,,3,,,,,,,,,,,,,,,
null,,confidence_buffer,1101447,confidence_buffer,,null,,,,,,,,,,,,,,,,,,
2866,,recognition_phase,1104316,Baymarsh,,52,,,,,,new,0,0.5909090909090909,,,,,,,,,,
null,,confidence_buffer,1104421,confidence_buffer,,null,,,,,,,,,,,,,,,,,,
null,,thebreak,1104926,break,,null,,,,,,,,,,,,,,,,,,
5132.399999976158,,realistic_rating,1110060,Bar Harbor,,52,Bar Harbor,US,4,,,,,,,,,,,,,,,
null,,confidence_buffer,1110166,confidence_buffer,,null,,,,,,,,,,,,,,,,,,
1161.7000000476837,,pt2_unique_rating,1111330,Bar Harbor,,51,,,3,,,,,,,,,,,,,,,
null,,confidence_buffer,1111434,confidence_buffer,,null,,,,,,,,,,,,,,,,,,
2855.800000011921,,pt2_memorable_rating,1114292,Bar Harbor,,50,,,2,,,,,,,,,,,,,,,
null,,confidence_buffer,1114396,confidence_buffer,,null,,,,,,,,,,,,,,,,,,
1755.3999999761581,,recognition_phase,1116155,Bar Harbor,,51,,,,,,new,0,0.5777777777777777,,,,,,,,,,
null,,confidence_buffer,1116261,confidence_buffer,,null,,,,,,,,,,,,,,,,,,
null,,thebreak,1116764,break,,null,,,,,,,,,,,,,,,,,,
4247.100000023842,,realistic_rating,1121013,Crestwood,,50,Crestwood,Fictional,2,,,,,,,,,,,,,,,
null,,confidence_buffer,1121118,confidence_buffer,,null,,,,,,,,,,,,,,,,,,
1092,,pt2_unique_rating,1122212,Crestwood,,51,,,3,,,,,,,,,,,,,,,
null,,confidence_buffer,1122319,confidence_buffer,,null,,,,,,,,,,,,,,,,,,
2000,,pt2_memorable_rating,1124322,Crestwood,,52,,,4,,,,,,,,,,,,,,,
null,,confidence_buffer,1124425,confidence_buffer,,null,,,,,,,,,,,,,,,,,,
1453.5,,recognition_phase,1125881,Crestwood,,52,,,,,,new,1,0.5869565217391305,,,,,,,,,,
null,,confidence_buffer,1125984,confidence_buffer,,null,,,,,,,,,,,,,,,,,,
null,,thebreak,1126487,break,,null,,,,,,,,,,,,,,,,,,
2426.899999976158,,realistic_rating,1128916,Carmel,,51,Carmel,US,3,,,,,,,,,,,,,,,
null,,confidence_buffer,1129023,confidence_buffer,,null,,,,,,,,,,,,,,,,,,
2058.199999988079,,pt2_unique_rating,1131085,Carmel,,50,,,2,,,,,,,,,,,,,,,
null,,confidence_buffer,1131189,confidence_buffer,,null,,,,,,,,,,,,,,,,,,
1156.0999999642372,,pt2_memorable_rating,1132348,Carmel,,51,,,3,,,,,,,,,,,,,,,
null,,confidence_buffer,1132451,confidence_buffer,,null,,,,,,,,,,,,,,,,,,
989.8999999761581,,recognition_phase,1133444,Carmel,,52,,,,,,new,1,0.5957446808510638,,,,,,,,,,
null,,confidence_buffer,1133548,confidence_buffer,,null,,,,,,,,,,,,,,,,,,
null,,thebreak,1134051,break,,null,,,,,,,,,,,,,,,,,,
1979.1000000238419,,realistic_rating,1136033,Driftwood Bay,,51,Driftwood Bay,Fictional,3,,,,,,,,,,,,,,,
null,,confidence_buffer,1136136,confidence_buffer,,null,,,,,,,,,,,,,,,,,,
1489.3999999761581,,pt2_unique_rating,1137627,Driftwood Bay,,50,,,2,,,,,,,,,,,,,,,
null,,confidence_buffer,1137733,confidence_buffer,,null,,,,,,,,,,,,,,,,,,
608.5,,pt2_memorable_rating,1138345,Driftwood Bay,,52,,,4,,,,,,,,,,,,,,,
null,,confidence_buffer,1138449,confidence_buffer,,null,,,,,,,,,,,,,,,,,,
2247.300000011921,,recognition_phase,1140700,Driftwood Bay,,50,,,,,,old,1,0.6041666666666666,,,,,,,,,,
null,,confidence_buffer,1140803,confidence_buffer,,null,,,,,,,,,,,,,,,,,,
null,,thebreak,1141305,break,,null,,,,,,,,,,,,,,,,,,
3160.400000035763,,realistic_rating,1144468,Livingston,,52,Livingston,US,4,,,,,,,,,,,,,,,
null,,confidence_buffer,1144574,confidence_buffer,,null,,,,,,,,,,,,,,,,,,
2116,,pt2_unique_rating,1146693,Livingston,,53,,,5,,,,,,,,,,,,,,,
null,,confidence_buffer,1146799,confidence_buffer,,null,,,,,,,,,,,,,,,,,,
1531.3999999761581,,pt2_memorable_rating,1148333,Livingston,,52,,,4,,,,,,,,,,,,,,,
null,,confidence_buffer,1148436,confidence_buffer,,null,,,,,,,,,,,,,,,,,,
1644.6000000238419,,recognition_phase,1150084,Livingston,,51,,,,,,new,0,0.5918367346938775,,,,,,,,,,
null,,confidence_buffer,1150189,confidence_buffer,,null,,,,,,,,,,,,,,,,,,
null,,thebreak,1150693,break,,null,,,,,,,,,,,,,,,,,,
7957.699999988079,,realistic_rating,1158654,Coeur d'Alene,,50,Coeur d'Alene,US,2,,,,,,,,,,,,,,,
null,,confidence_buffer,1158761,confidence_buffer,,null,,,,,,,,,,,,,,,,,,
1079.1000000238419,,pt2_unique_rating,1159843,Coeur d'Alene,,51,,,3,,,,,,,,,,,,,,,
null,,confidence_buffer,1159946,confidence_buffer,,null,,,,,,,,,,,,,,,,,,
1253.7000000476837,,pt2_memorable_rating,1161203,Coeur d'Alene,,52,,,4,,,,,,,,,,,,,,,
null,,confidence_buffer,1161308,confidence_buffer,,null,,,,,,,,,,,,,,,,,,
2189.300000011921,,recognition_phase,1163500,Coeur d'Alene,,50,,,,,,old,0,0.58,,,,,,,,,,
null,,confidence_buffer,1163604,confidence_buffer,,null,,,,,,,,,,,,,,,,,,
null,,thebreak,1164108,break,,null,,,,,,,,,,,,,,,,,,
3140.400000035763,,realistic_rating,1167253,Rosehollow,,52,Rosehollow,Fictional,4,,,,,,,,,,,,,,,
null,,confidence_buffer,1167360,confidence_buffer,,null,,,,,,,,,,,,,,,,,,
1424.1000000238419,,pt2_unique_rating,1168788,Rosehollow,,52,,,4,,,,,,,,,,,,,,,
null,,confidence_buffer,1168894,confidence_buffer,,null,,,,,,,,,,,,,,,,,,
4266.600000023842,,pt2_memorable_rating,1173165,Rosehollow,,53,,,5,,,,,,,,,,,,,,,
null,,confidence_buffer,1173271,confidence_buffer,,null,,,,,,,,,,,,,,,,,,
3354.199999988079,,recognition_phase,1176629,Rosehollow,,52,,,,,,new,0,0.5686274509803921,,,,,,,,,,
null,,confidence_buffer,1176733,confidence_buffer,,null,,,,,,,,,,,,,,,,,,
null,,thebreak,1177236,break,,null,,,,,,,,,,,,,,,,,,
5084,,realistic_rating,1182324,Lake of the Ozarks,,49,Lake of the Ozarks,US,1,,,,,,,,,,,,,,,
null,,confidence_buffer,1182429,confidence_buffer,,null,,,,,,,,,,,,,,,,,,
1619.199999988079,,pt2_unique_rating,1184052,Lake of the Ozarks,,50,,,2,,,,,,,,,,,,,,,
null,,confidence_buffer,1184156,confidence_buffer,,null,,,,,,,,,,,,,,,,,,
1485.199999988079,,pt2_memorable_rating,1185644,Lake of the Ozarks,,51,,,3,,,,,,,,,,,,,,,
null,,confidence_buffer,1185748,confidence_buffer,,null,,,,,,,,,,,,,,,,,,
3397.5,,recognition_phase,1189149,Lake of the Ozarks,,52,,,,,,new,1,0.5769230769230769,,,,,,,,,,
null,,confidence_buffer,1189254,confidence_buffer,,null,,,,,,,,,,,,,,,,,,
null,,thebreak,1189757,break,,null,,,,,,,,,,,,,,,,,,
3181.100000023842,,realistic_rating,1192940,Leesburg,,51,Leesburg,US,3,,,,,,,,,,,,,,,
null,,confidence_buffer,1193044,confidence_buffer,,null,,,,,,,,,,,,,,,,,,
1517.199999988079,,pt2_unique_rating,1194565,Leesburg,,52,,,4,,,,,,,,,,,,,,,
null,,confidence_buffer,1194670,confidence_buffer,,null,,,,,,,,,,,,,,,,,,
2593.600000023842,,pt2_memorable_rating,1197266,Leesburg,,52,,,4,,,,,,,,,,,,,,,
null,,confidence_buffer,1197369,confidence_buffer,,null,,,,,,,,,,,,,,,,,,
2840.300000011921,,recognition_phase,1200212,Leesburg,,51,,,,,,new,0,0.5660377358490566,,,,,,,,,,
null,,confidence_buffer,1200316,confidence_buffer,,null,,,,,,,,,,,,,,,,,,
null,,thebreak,1200818,break,,null,,,,,,,,,,,,,,,,,,
3615.599999964237,,realistic_rating,1204437,Coralridge,,50,Coralridge,Fictional,2,,,,,,,,,,,,,,,
null,,confidence_buffer,1204542,confidence_buffer,,null,,,,,,,,,,,,,,,,,,
1650.9000000357628,,pt2_unique_rating,1206196,Coralridge,,51,,,3,,,,,,,,,,,,,,,
null,,confidence_buffer,1206300,confidence_buffer,,null,,,,,,,,,,,,,,,,,,
1484.800000011921,,pt2_memorable_rating,1207787,Coralridge,,52,,,4,,,,,,,,,,,,,,,
null,,confidence_buffer,1207890,confidence_buffer,,null,,,,,,,,,,,,,,,,,,
2327.600000023842,,recognition_phase,1210220,Coralridge,,51,,,,,,new,1,0.5740740740740741,,,,,,,,,,
null,,confidence_buffer,1210325,confidence_buffer,,null,,,,,,,,,,,,,,,,,,
null,,thebreak,1210828,break,,null,,,,,,,,,,,,,,,,,,
3331.600000023842,,realistic_rating,1214163,West Palm Beach,,53,West Palm Beach,US,5,,,,,,,,,,,,,,,
null,,confidence_buffer,1214268,confidence_buffer,,null,,,,,,,,,,,,,,,,,,
4715.600000023842,,pt2_unique_rating,1218988,West Palm Beach,,52,,,4,,,,,,,,,,,,,,,
null,,confidence_buffer,1219093,confidence_buffer,,null,,,,,,,,,,,,,,,,,,
1564.699999988079,,pt2_memorable_rating,1220660,West Palm Beach,,52,,,4,,,,,,,,,,,,,,,
null,,confidence_buffer,1220764,confidence_buffer,,null,,,,,,,,,,,,,,,,,,
1562.7999999523163,,recognition_phase,1222331,West Palm Beach,,49,,,,,,old,1,0.5818181818181818,,,,,,,,,,
null,,confidence_buffer,1222436,confidence_buffer,,null,,,,,,,,,,,,,,,,,,
null,,thebreak,1222939,break,,null,,,,,,,,,,,,,,,,,,
2647.399999976158,,realistic_rating,1225589,Hollendale,,52,Hollendale,Fictional,4,,,,,,,,,,,,,,,
null,,confidence_buffer,1225695,confidence_buffer,,null,,,,,,,,,,,,,,,,,,
2896.600000023842,,pt2_unique_rating,1228593,Hollendale,,51,,,3,,,,,,,,,,,,,,,
null,,confidence_buffer,1228696,confidence_buffer,,null,,,,,,,,,,,,,,,,,,
1930.1000000238419,,probe_rating,1230629,probe_rating,,50,,,,2,1,,,,,,,,,,,,,
null,,confidence_buffer,1230735,confidence_buffer,,null,,,,,,,,,,,,,,,,,,
1147.3999999761581,,pt2_memorable_rating,1231884,Hollendale,,51,,,3,,,,,,,,,,,,,,,
null,,confidence_buffer,1231990,confidence_buffer,,null,,,,,,,,,,,,,,,,,,
2274.5,,recognition_phase,1234268,Hollendale,,51,,,,,,new,0,0.5714285714285714,,,,,,,,,,
null,,confidence_buffer,1234373,confidence_buffer,,null,,,,,,,,,,,,,,,,,,
null,,thebreak,1234878,break,,null,,,,,,,,,,,,,,,,,,
2798.099999964237,,realistic_rating,1237679,Ravenport,,52,Ravenport,Fictional,4,,,,,,,,,,,,,,,
null,,confidence_buffer,1237784,confidence_buffer,,null,,,,,,,,,,,,,,,,,,
1993.199999988079,,pt2_unique_rating,1239782,Ravenport,,51,,,3,,,,,,,,,,,,,,,
null,,confidence_buffer,1239888,confidence_buffer,,null,,,,,,,,,,,,,,,,,,
2121.399999976158,,pt2_memorable_rating,1242013,Ravenport,,52,,,4,,,,,,,,,,,,,,,
null,,confidence_buffer,1242118,confidence_buffer,,null,,,,,,,,,,,,,,,,,,
3443,,recognition_phase,1245565,Ravenport,,50,,,,,,old,0,0.5614035087719298,,,,,,,,,,
null,,confidence_buffer,1245668,confidence_buffer,,null,,,,,,,,,,,,,,,,,,
null,,thebreak,1246171,break,,null,,,,,,,,,,,,,,,,,,
2084.399999976158,,realistic_rating,1248259,Park City,,53,Park City,US,5,,,,,,,,,,,,,,,
null,,confidence_buffer,1248363,confidence_buffer,,null,,,,,,,,,,,,,,,,,,
1421,,pt2_unique_rating,1249788,Park City,,52,,,4,,,,,,,,,,,,,,,
null,,confidence_buffer,1249893,confidence_buffer,,null,,,,,,,,,,,,,,,,,,
1170.4000000357628,,pt2_memorable_rating,1251068,Park City,,51,,,3,,,,,,,,,,,,,,,
null,,confidence_buffer,1251171,confidence_buffer,,null,,,,,,,,,,,,,,,,,,
1774.0999999642372,,probe_rating,1252949,probe_rating,,49,,,,1,1,,,,,,,,,,,,,
null,,confidence_buffer,1253055,confidence_buffer,,null,,,,,,,,,,,,,,,,,,
2455,,recognition_phase,1255513,Park City,,52,,,,,,new,0,0.5517241379310345,,,,,,,,,,
null,,confidence_buffer,1255616,confidence_buffer,,null,,,,,,,,,,,,,,,,,,
null,,thebreak,1256119,break,,null,,,,,,,,,,,,,,,,,,
4129.199999988079,,realistic_rating,1260249,Assateague Island,,52,Assateague Island,US,4,,,,,,,,,,,,,,,
null,,confidence_buffer,1260353,confidence_buffer,,null,,,,,,,,,,,,,,,,,,
2017.1000000238419,,pt2_unique_rating,1262372,Assateague Island,,53,,,5,,,,,,,,,,,,,,,
null,,confidence_buffer,1262477,confidence_buffer,,null,,,,,,,,,,,,,,,,,,
2362.7000000476837,,pt2_memorable_rating,1264841,Assateague Island,,51,,,3,,,,,,,,,,,,,,,
null,,confidence_buffer,1264944,confidence_buffer,,null,,,,,,,,,,,,,,,,,,
4352.800000011921,,recognition_phase,1269299,Assateague Island,,51,,,,,,new,1,0.559322033898305,,,,,,,,,,
null,,confidence_buffer,1269401,confidence_buffer,,null,,,,,,,,,,,,,,,,,,
null,,thebreak,1269904,break,,null,,,,,,,,,,,,,,,,,,
2840.199999988079,,realistic_rating,1272745,Riverlyn,,51,Riverlyn,Fictional,3,,,,,,,,,,,,,,,
null,,confidence_buffer,1272847,confidence_buffer,,null,,,,,,,,,,,,,,,,,,
2387.199999988079,,pt2_unique_rating,1275236,Riverlyn,,52,,,4,,,,,,,,,,,,,,,
null,,confidence_buffer,1275339,confidence_buffer,,null,,,,,,,,,,,,,,,,,,
1819.800000011921,,pt2_memorable_rating,1277161,Riverlyn,,51,,,3,,,,,,,,,,,,,,,
null,,confidence_buffer,1277265,confidence_buffer,,null,,,,,,,,,,,,,,,,,,
3657.100000023842,,recognition_phase,1280925,Riverlyn,,52,,,,,,new,1,0.5666666666666667,,,,,,,,,,
null,,confidence_buffer,1281029,confidence_buffer,,null,,,,,,,,,,,,,,,,,,
null,,thebreak,1281531,break,,null,,,,,,,,,,,,,,,,,,
,,survey,1857029,survey-questions,,,,,,,,,,,none,high,I fully concentrated on the experiment.,I trusted my memory and just read the names carefully. The ratings were a bit tricky but overall enjoyed it.,Some of the names were familiar and so easy to rate them. Others were intuitive.,Most of the names were memorable. I just had to read them carefully.,Others were cliche while others broke conventions. I think most names were unique,Most of the names were realistic while others were far fetched.,Not really,I enjoyed the survey.
