rt,responses,trial_type,time_elapsed,stimulus,button_pressed,key_press,name_trial,city_type,rating,probe,probe_accuracy,response,correct,accuracy,problems,smooth,distraction,strategies,familiar,memorable,unique,realistic,similar,comments
26392.5,{worker_id:676b040df6d7ded171203036},id_enter,26398,,,,,,,,,,,,,,,,,,,,,
86304.39999997616,,fullscreen,112708,fullscreen,0,,,,,,,,,,,,,,,,,,,
17926,,intro_0,130638,instruct,,32,,,,,,,,,,,,,,,,,,
10157.700000047684,,intro_1,140799,instruct,,32,,,,,,,,,,,,,,,,,,
6618.200000047684,,intro_2,147418,instruct,,32,,,,,,,,,,,,,,,,,,
null,,instruct_dir_4,148921,instruct,,null,,,,,,,,,,,,,,,,,,
null,,thebreak,149423,break,,null,,,,,,,,,,,,,,,,,,
7437.899999976158,,familiar_rating,156863,Bisbee,,51,Bisbee,US,3,,,,,,,,,,,,,,,
null,,confidence_buffer,156967,confidence_buffer,,null,,,,,,,,,,,,,,,,,,
6634.700000047684,,unique_rating,163603,Bisbee,,50,,,2,,,,,,,,,,,,,,,
null,,confidence_buffer,163720,confidence_buffer,,null,,,,,,,,,,,,,,,,,,
5369,,memorable_rating,169091,Bisbee,,52,,,4,,,,,,,,,,,,,,,
null,,confidence_buffer,169193,confidence_buffer,,null,,,,,,,,,,,,,,,,,,
null,,thebreak,169694,break,,null,,,,,,,,,,,,,,,,,,
5623.699999988079,,familiar_rating,175320,Ravenport,,52,Ravenport,Fictional,4,,,,,,,,,,,,,,,
null,,confidence_buffer,175422,confidence_buffer,,null,,,,,,,,,,,,,,,,,,
4577.700000047684,,unique_rating,180001,Ravenport,,51,,,3,,,,,,,,,,,,,,,
null,,confidence_buffer,180105,confidence_buffer,,null,,,,,,,,,,,,,,,,,,
3096.699999988079,,memorable_rating,183203,Ravenport,,52,,,4,,,,,,,,,,,,,,,
null,,confidence_buffer,183304,confidence_buffer,,null,,,,,,,,,,,,,,,,,,
null,,thebreak,183806,break,,null,,,,,,,,,,,,,,,,,,
2813.2000000476837,,familiar_rating,186621,New Hope,,49,New Hope,US,1,,,,,,,,,,,,,,,
null,,confidence_buffer,186724,confidence_buffer,,null,,,,,,,,,,,,,,,,,,
5464.599999964237,,unique_rating,192190,New Hope,,50,,,2,,,,,,,,,,,,,,,
null,,confidence_buffer,192291,confidence_buffer,,null,,,,,,,,,,,,,,,,,,
2993.900000035763,,memorable_rating,195286,New Hope,,51,,,3,,,,,,,,,,,,,,,
null,,confidence_buffer,195388,confidence_buffer,,null,,,,,,,,,,,,,,,,,,
null,,thebreak,195890,break,,null,,,,,,,,,,,,,,,,,,
5348.100000023842,,familiar_rating,201238,Berkeley Springs,,49,Berkeley Springs,US,1,,,,,,,,,,,,,,,
null,,confidence_buffer,201341,confidence_buffer,,null,,,,,,,,,,,,,,,,,,
2823.399999976158,,unique_rating,204165,Berkeley Springs,,50,,,2,,,,,,,,,,,,,,,
null,,confidence_buffer,204267,confidence_buffer,,null,,,,,,,,,,,,,,,,,,
6137.800000011921,,memorable_rating,210406,Berkeley Springs,,49,,,1,,,,,,,,,,,,,,,
null,,confidence_buffer,210508,confidence_buffer,,null,,,,,,,,,,,,,,,,,,
null,,thebreak,211010,break,,null,,,,,,,,,,,,,,,,,,
3132.899999976158,,familiar_rating,214143,Lakehaven,,49,Lakehaven,Fictional,1,,,,,,,,,,,,,,,
null,,confidence_buffer,214245,confidence_buffer,,null,,,,,,,,,,,,,,,,,,
5354.099999964237,,unique_rating,219600,Lakehaven,,52,,,4,,,,,,,,,,,,,,,
null,,confidence_buffer,219703,confidence_buffer,,null,,,,,,,,,,,,,,,,,,
5258.899999976158,,memorable_rating,224963,Lakehaven,,52,,,4,,,,,,,,,,,,,,,
null,,confidence_buffer,225066,confidence_buffer,,null,,,,,,,,,,,,,,,,,,
null,,thebreak,225567,break,,null,,,,,,,,,,,,,,,,,,
2669.300000011921,,familiar_rating,228238,Lake of the Ozarks,,49,Lake of the Ozarks,US,1,,,,,,,,,,,,,,,
null,,confidence_buffer,228341,confidence_buffer,,null,,,,,,,,,,,,,,,,,,
3621,,unique_rating,231963,Lake of the Ozarks,,53,,,5,,,,,,,,,,,,,,,
null,,confidence_buffer,232066,confidence_buffer,,null,,,,,,,,,,,,,,,,,,
3122.5,,memorable_rating,235190,Lake of the Ozarks,,53,,,5,,,,,,,,,,,,,,,
null,,confidence_buffer,235293,confidence_buffer,,null,,,,,,,,,,,,,,,,,,
null,,thebreak,235795,break,,null,,,,,,,,,,,,,,,,,,
2965,,familiar_rating,238761,Maplehurst,,49,Maplehurst,Fictional,1,,,,,,,,,,,,,,,
null,,confidence_buffer,238864,confidence_buffer,,null,,,,,,,,,,,,,,,,,,
3807.099999964237,,unique_rating,242673,Maplehurst,,52,,,4,,,,,,,,,,,,,,,
null,,confidence_buffer,242777,confidence_buffer,,null,,,,,,,,,,,,,,,,,,
3432.100000023842,,memorable_rating,246211,Maplehurst,,52,,,4,,,,,,,,,,,,,,,
null,,confidence_buffer,246313,confidence_buffer,,null,,,,,,,,,,,,,,,,,,
null,,thebreak,246814,break,,null,,,,,,,,,,,,,,,,,,
11450.800000011921,,familiar_rating,258267,Livingston,,49,Livingston,US,1,,,,,,,,,,,,,,,
null,,confidence_buffer,258370,confidence_buffer,,null,,,,,,,,,,,,,,,,,,
3995.5,,unique_rating,262368,Livingston,,50,,,2,,,,,,,,,,,,,,,
null,,confidence_buffer,262470,confidence_buffer,,null,,,,,,,,,,,,,,,,,,
1960.199999988079,,memorable_rating,264431,Livingston,,50,,,2,,,,,,,,,,,,,,,
null,,confidence_buffer,264534,confidence_buffer,,null,,,,,,,,,,,,,,,,,,
null,,thebreak,265036,break,,null,,,,,,,,,,,,,,,,,,
3530.5,,familiar_rating,268567,Hollendale,,51,Hollendale,Fictional,3,,,,,,,,,,,,,,,
null,,confidence_buffer,268669,confidence_buffer,,null,,,,,,,,,,,,,,,,,,
3387.5,,unique_rating,272059,Hollendale,,51,,,3,,,,,,,,,,,,,,,
null,,confidence_buffer,272161,confidence_buffer,,null,,,,,,,,,,,,,,,,,,
2978.699999988079,,memorable_rating,275141,Hollendale,,50,,,2,,,,,,,,,,,,,,,
null,,confidence_buffer,275242,confidence_buffer,,null,,,,,,,,,,,,,,,,,,
null,,thebreak,275744,break,,null,,,,,,,,,,,,,,,,,,
6941,,familiar_rating,282686,Gloucester,,52,Gloucester,US,4,,,,,,,,,,,,,,,
null,,confidence_buffer,282788,confidence_buffer,,null,,,,,,,,,,,,,,,,,,
3178.100000023842,,unique_rating,285968,Gloucester,,50,,,2,,,,,,,,,,,,,,,
null,,confidence_buffer,286068,confidence_buffer,,null,,,,,,,,,,,,,,,,,,
2325.599999964237,,memorable_rating,288395,Gloucester,,51,,,3,,,,,,,,,,,,,,,
null,,confidence_buffer,288503,confidence_buffer,,null,,,,,,,,,,,,,,,,,,
null,,thebreak,289004,break,,null,,,,,,,,,,,,,,,,,,
9673.5,,familiar_rating,298679,North Arroya,,49,North Arroya,Fictional,1,,,,,,,,,,,,,,,
null,,confidence_buffer,298782,confidence_buffer,,null,,,,,,,,,,,,,,,,,,
3305.899999976158,,unique_rating,302089,North Arroya,,51,,,3,,,,,,,,,,,,,,,
null,,confidence_buffer,302190,confidence_buffer,,null,,,,,,,,,,,,,,,,,,
1993.1000000238419,,memorable_rating,304185,North Arroya,,51,,,3,,,,,,,,,,,,,,,
null,,confidence_buffer,304288,confidence_buffer,,null,,,,,,,,,,,,,,,,,,
null,,thebreak,304790,break,,null,,,,,,,,,,,,,,,,,,
3372.599999964237,,familiar_rating,308165,Barnard,,52,Barnard,US,4,,,,,,,,,,,,,,,
null,,confidence_buffer,308269,confidence_buffer,,null,,,,,,,,,,,,,,,,,,
2293.5,,unique_rating,310564,Barnard,,49,,,1,,,,,,,,,,,,,,,
null,,confidence_buffer,310680,confidence_buffer,,null,,,,,,,,,,,,,,,,,,
2669,,memorable_rating,313352,Barnard,,49,,,1,,,,,,,,,,,,,,,
null,,confidence_buffer,313454,confidence_buffer,,null,,,,,,,,,,,,,,,,,,
null,,thebreak,313956,break,,null,,,,,,,,,,,,,,,,,,
2120.699999988079,,familiar_rating,316078,Westridge,,49,Westridge,Fictional,1,,,,,,,,,,,,,,,
null,,confidence_buffer,316180,confidence_buffer,,null,,,,,,,,,,,,,,,,,,
4267.600000023842,,unique_rating,320449,Westridge,,51,,,3,,,,,,,,,,,,,,,
null,,confidence_buffer,320550,confidence_buffer,,null,,,,,,,,,,,,,,,,,,
2689.600000023842,,memorable_rating,323241,Westridge,,51,,,3,,,,,,,,,,,,,,,
null,,confidence_buffer,323344,confidence_buffer,,null,,,,,,,,,,,,,,,,,,
4052.199999988079,,probe_rating,327398,probe_rating,,52,,,,4,1,,,,,,,,,,,,,
null,,confidence_buffer,327501,confidence_buffer,,null,,,,,,,,,,,,,,,,,,
null,,thebreak,328003,break,,null,,,,,,,,,,,,,,,,,,
3501.599999964237,,familiar_rating,331506,Coralridge,,49,Coralridge,Fictional,1,,,,,,,,,,,,,,,
null,,confidence_buffer,331608,confidence_buffer,,null,,,,,,,,,,,,,,,,,,
4390.800000011921,,unique_rating,336000,Coralridge,,51,,,3,,,,,,,,,,,,,,,
null,,confidence_buffer,336103,confidence_buffer,,null,,,,,,,,,,,,,,,,,,
2428.7000000476837,,memorable_rating,338532,Coralridge,,50,,,2,,,,,,,,,,,,,,,
null,,confidence_buffer,338634,confidence_buffer,,null,,,,,,,,,,,,,,,,,,
null,,thebreak,339135,break,,null,,,,,,,,,,,,,,,,,,
3664.300000011921,,familiar_rating,342801,West Palm Beach,,52,West Palm Beach,US,4,,,,,,,,,,,,,,,
null,,confidence_buffer,342903,confidence_buffer,,null,,,,,,,,,,,,,,,,,,
3693.399999976158,,unique_rating,346597,West Palm Beach,,51,,,3,,,,,,,,,,,,,,,
null,,confidence_buffer,346699,confidence_buffer,,null,,,,,,,,,,,,,,,,,,
3615,,memorable_rating,350316,West Palm Beach,,50,,,2,,,,,,,,,,,,,,,
null,,confidence_buffer,350419,confidence_buffer,,null,,,,,,,,,,,,,,,,,,
null,,thebreak,350921,break,,null,,,,,,,,,,,,,,,,,,
3293.600000023842,,familiar_rating,354215,Cody,,49,Cody,US,1,,,,,,,,,,,,,,,
null,,confidence_buffer,354318,confidence_buffer,,null,,,,,,,,,,,,,,,,,,
3046.699999988079,,unique_rating,357367,Cody,,51,,,3,,,,,,,,,,,,,,,
null,,confidence_buffer,357468,confidence_buffer,,null,,,,,,,,,,,,,,,,,,
2513.5,,memorable_rating,359983,Cody,,52,,,4,,,,,,,,,,,,,,,
null,,confidence_buffer,360086,confidence_buffer,,null,,,,,,,,,,,,,,,,,,
null,,thebreak,360588,break,,null,,,,,,,,,,,,,,,,,,
3104.900000035763,,familiar_rating,363694,Duck,,49,Duck,US,1,,,,,,,,,,,,,,,
null,,confidence_buffer,363799,confidence_buffer,,null,,,,,,,,,,,,,,,,,,
2281.699999988079,,unique_rating,366082,Duck,,53,,,5,,,,,,,,,,,,,,,
null,,confidence_buffer,366183,confidence_buffer,,null,,,,,,,,,,,,,,,,,,
2976.300000011921,,memorable_rating,369160,Duck,,53,,,5,,,,,,,,,,,,,,,
null,,confidence_buffer,369263,confidence_buffer,,null,,,,,,,,,,,,,,,,,,
null,,thebreak,369764,break,,null,,,,,,,,,,,,,,,,,,
4178.199999988079,,familiar_rating,373943,Falconridge,,51,Falconridge,Fictional,3,,,,,,,,,,,,,,,
null,,confidence_buffer,374056,confidence_buffer,,null,,,,,,,,,,,,,,,,,,
2459.300000011921,,unique_rating,376517,Falconridge,,51,,,3,,,,,,,,,,,,,,,
null,,confidence_buffer,376620,confidence_buffer,,null,,,,,,,,,,,,,,,,,,
1537.199999988079,,memorable_rating,378158,Falconridge,,51,,,3,,,,,,,,,,,,,,,
null,,confidence_buffer,378261,confidence_buffer,,null,,,,,,,,,,,,,,,,,,
null,,thebreak,378764,break,,null,,,,,,,,,,,,,,,,,,
4458.800000011921,,familiar_rating,383224,Meadowspire,,49,Meadowspire,Fictional,1,,,,,,,,,,,,,,,
null,,confidence_buffer,383326,confidence_buffer,,null,,,,,,,,,,,,,,,,,,
2632.2999999523163,,unique_rating,385959,Meadowspire,,52,,,4,,,,,,,,,,,,,,,
null,,confidence_buffer,386061,confidence_buffer,,null,,,,,,,,,,,,,,,,,,
2521.899999976158,,memorable_rating,388584,Meadowspire,,51,,,3,,,,,,,,,,,,,,,
null,,confidence_buffer,388686,confidence_buffer,,null,,,,,,,,,,,,,,,,,,
null,,thebreak,389188,break,,null,,,,,,,,,,,,,,,,,,
4672,,familiar_rating,393862,Cornwall,,52,Cornwall,US,4,,,,,,,,,,,,,,,
null,,confidence_buffer,393964,confidence_buffer,,null,,,,,,,,,,,,,,,,,,
1942.300000011921,,unique_rating,395908,Cornwall,,50,,,2,,,,,,,,,,,,,,,
null,,confidence_buffer,396010,confidence_buffer,,null,,,,,,,,,,,,,,,,,,
2138.199999988079,,memorable_rating,398150,Cornwall,,52,,,4,,,,,,,,,,,,,,,
null,,confidence_buffer,398250,confidence_buffer,,null,,,,,,,,,,,,,,,,,,
null,,thebreak,398751,break,,null,,,,,,,,,,,,,,,,,,
1528.699999988079,,familiar_rating,400281,Stonebrook,,52,Stonebrook,Fictional,4,,,,,,,,,,,,,,,
null,,confidence_buffer,400382,confidence_buffer,,null,,,,,,,,,,,,,,,,,,
1623.300000011921,,unique_rating,402006,Stonebrook,,52,,,4,,,,,,,,,,,,,,,
null,,confidence_buffer,402109,confidence_buffer,,null,,,,,,,,,,,,,,,,,,
1622.199999988079,,memorable_rating,403732,Stonebrook,,52,,,4,,,,,,,,,,,,,,,
null,,confidence_buffer,403833,confidence_buffer,,null,,,,,,,,,,,,,,,,,,
null,,thebreak,404334,break,,null,,,,,,,,,,,,,,,,,,
2799.300000011921,,familiar_rating,407135,Claywater,,49,Claywater,Fictional,1,,,,,,,,,,,,,,,
null,,confidence_buffer,407237,confidence_buffer,,null,,,,,,,,,,,,,,,,,,
1798.6000000238419,,unique_rating,409036,Claywater,,52,,,4,,,,,,,,,,,,,,,
null,,confidence_buffer,409138,confidence_buffer,,null,,,,,,,,,,,,,,,,,,
1949.9000000357628,,memorable_rating,411089,Claywater,,52,,,4,,,,,,,,,,,,,,,
null,,confidence_buffer,411191,confidence_buffer,,null,,,,,,,,,,,,,,,,,,
null,,thebreak,411693,break,,null,,,,,,,,,,,,,,,,,,
2449.699999988079,,familiar_rating,414145,Park City,,52,Park City,US,4,,,,,,,,,,,,,,,
null,,confidence_buffer,414248,confidence_buffer,,null,,,,,,,,,,,,,,,,,,
1199.4000000357628,,unique_rating,415450,Park City,,49,,,1,,,,,,,,,,,,,,,
null,,confidence_buffer,415552,confidence_buffer,,null,,,,,,,,,,,,,,,,,,
1921.4000000357628,,memorable_rating,417475,Park City,,52,,,4,,,,,,,,,,,,,,,
null,,confidence_buffer,417578,confidence_buffer,,null,,,,,,,,,,,,,,,,,,
null,,thebreak,418081,break,,null,,,,,,,,,,,,,,,,,,
2756,,familiar_rating,420838,Carmel,,49,Carmel,US,1,,,,,,,,,,,,,,,
null,,confidence_buffer,420940,confidence_buffer,,null,,,,,,,,,,,,,,,,,,
3175,,unique_rating,424116,Carmel,,50,,,2,,,,,,,,,,,,,,,
null,,confidence_buffer,424218,confidence_buffer,,null,,,,,,,,,,,,,,,,,,
1568.3999999761581,,memorable_rating,425787,Carmel,,50,,,2,,,,,,,,,,,,,,,
null,,confidence_buffer,425889,confidence_buffer,,null,,,,,,,,,,,,,,,,,,
null,,thebreak,426391,break,,null,,,,,,,,,,,,,,,,,,
1891.5,,familiar_rating,428284,Briarfield,,49,Briarfield,Fictional,1,,,,,,,,,,,,,,,
null,,confidence_buffer,428386,confidence_buffer,,null,,,,,,,,,,,,,,,,,,
2104.100000023842,,unique_rating,430491,Briarfield,,52,,,4,,,,,,,,,,,,,,,
null,,confidence_buffer,430593,confidence_buffer,,null,,,,,,,,,,,,,,,,,,
1875.1000000238419,,memorable_rating,432470,Briarfield,,51,,,3,,,,,,,,,,,,,,,
null,,confidence_buffer,432572,confidence_buffer,,null,,,,,,,,,,,,,,,,,,
null,,thebreak,433074,break,,null,,,,,,,,,,,,,,,,,,
1644.1000000238419,,familiar_rating,434719,Gatlinburg,,49,Gatlinburg,US,1,,,,,,,,,,,,,,,
null,,confidence_buffer,434821,confidence_buffer,,null,,,,,,,,,,,,,,,,,,
2447.399999976158,,unique_rating,437269,Gatlinburg,,52,,,4,,,,,,,,,,,,,,,
null,,confidence_buffer,437372,confidence_buffer,,null,,,,,,,,,,,,,,,,,,
1434.300000011921,,memorable_rating,438808,Gatlinburg,,52,,,4,,,,,,,,,,,,,,,
null,,confidence_buffer,438911,confidence_buffer,,null,,,,,,,,,,,,,,,,,,
null,,thebreak,439413,break,,null,,,,,,,,,,,,,,,,,,
1987.6000000238419,,familiar_rating,441403,Montelake,,49,Montelake,Fictional,1,,,,,,,,,,,,,,,
null,,confidence_buffer,441512,confidence_buffer,,null,,,,,,,,,,,,,,,,,,
1470,,unique_rating,442983,Montelake,,52,,,4,,,,,,,,,,,,,,,
null,,confidence_buffer,443087,confidence_buffer,,null,,,,,,,,,,,,,,,,,,
2850.2000000476837,,memorable_rating,445938,Montelake,,50,,,2,,,,,,,,,,,,,,,
null,,confidence_buffer,446040,confidence_buffer,,null,,,,,,,,,,,,,,,,,,
null,,thebreak,446543,break,,null,,,,,,,,,,,,,,,,,,
5647.399999976158,,familiar_rating,452191,East Ladera,,49,East Ladera,Fictional,1,,,,,,,,,,,,,,,
null,,confidence_buffer,452293,confidence_buffer,,null,,,,,,,,,,,,,,,,,,
3947.199999988079,,unique_rating,456242,East Ladera,,52,,,4,,,,,,,,,,,,,,,
null,,confidence_buffer,456344,confidence_buffer,,null,,,,,,,,,,,,,,,,,,
4606.599999964237,,memorable_rating,460952,East Ladera,,51,,,3,,,,,,,,,,,,,,,
null,,confidence_buffer,461053,confidence_buffer,,null,,,,,,,,,,,,,,,,,,
null,,thebreak,461554,break,,null,,,,,,,,,,,,,,,,,,
2552.5,,familiar_rating,464108,Tamarisk Hills,,49,Tamarisk Hills,Fictional,1,,,,,,,,,,,,,,,
null,,confidence_buffer,464212,confidence_buffer,,null,,,,,,,,,,,,,,,,,,
4162.800000011921,,unique_rating,468377,Tamarisk Hills,,52,,,4,,,,,,,,,,,,,,,
null,,confidence_buffer,468479,confidence_buffer,,null,,,,,,,,,,,,,,,,,,
2608.199999988079,,memorable_rating,471088,Tamarisk Hills,,51,,,3,,,,,,,,,,,,,,,
null,,confidence_buffer,471191,confidence_buffer,,null,,,,,,,,,,,,,,,,,,
null,,thebreak,471694,break,,null,,,,,,,,,,,,,,,,,,
3756.199999988079,,familiar_rating,475452,Assateague Island,,49,Assateague Island,US,1,,,,,,,,,,,,,,,
null,,confidence_buffer,475554,confidence_buffer,,null,,,,,,,,,,,,,,,,,,
3587.599999964237,,unique_rating,479144,Assateague Island,,52,,,4,,,,,,,,,,,,,,,
null,,confidence_buffer,479253,confidence_buffer,,null,,,,,,,,,,,,,,,,,,
2721.300000011921,,memorable_rating,481975,Assateague Island,,50,,,2,,,,,,,,,,,,,,,
null,,confidence_buffer,482078,confidence_buffer,,null,,,,,,,,,,,,,,,,,,
null,,thebreak,482581,break,,null,,,,,,,,,,,,,,,,,,
10558.699999988079,,intro_0,493141,instruct,,32,,,,,,,,,,,,,,,,,,
8807.399999976158,,intro_1,501949,instruct,,32,,,,,,,,,,,,,,,,,,
48456.90000003576,,intro_2,550407,instruct,,32,,,,,,,,,,,,,,,,,,
null,,instruct_dir_4,551908,instruct,,null,,,,,,,,,,,,,,,,,,
7673.700000047684,,realistic_rating,559584,Claywater,,49,Claywater,Fictional,1,,,,,,,,,,,,,,,
null,,confidence_buffer,559689,confidence_buffer,,null,,,,,,,,,,,,,,,,,,
4943.900000035763,,pt2_unique_rating,564635,Claywater,,52,,,4,,,,,,,,,,,,,,,
null,,confidence_buffer,564739,confidence_buffer,,null,,,,,,,,,,,,,,,,,,
4071.5,,pt2_memorable_rating,568811,Claywater,,51,,,3,,,,,,,,,,,,,,,
null,,confidence_buffer,568914,confidence_buffer,,null,,,,,,,,,,,,,,,,,,
2192.899999976158,,recognition_phase,571108,Claywater,,49,,,,,,old,1,1,,,,,,,,,,
null,,confidence_buffer,571210,confidence_buffer,,null,,,,,,,,,,,,,,,,,,
null,,thebreak,571712,break,,null,,,,,,,,,,,,,,,,,,
6663.699999988079,,realistic_rating,578376,Hollendale,,52,Hollendale,Fictional,4,,,,,,,,,,,,,,,
null,,confidence_buffer,578478,confidence_buffer,,null,,,,,,,,,,,,,,,,,,
2715.600000023842,,pt2_unique_rating,581195,Hollendale,,51,,,3,,,,,,,,,,,,,,,
null,,confidence_buffer,581298,confidence_buffer,,null,,,,,,,,,,,,,,,,,,
2823.800000011921,,pt2_memorable_rating,584122,Hollendale,,51,,,3,,,,,,,,,,,,,,,
null,,confidence_buffer,584225,confidence_buffer,,null,,,,,,,,,,,,,,,,,,
3572.199999988079,,probe_rating,587799,probe_rating,,53,,,,5,1,,,,,,,,,,,,,
null,,confidence_buffer,587902,confidence_buffer,,null,,,,,,,,,,,,,,,,,,
2509.800000011921,,recognition_phase,590413,Hollendale,,49,,,,,,old,1,1,,,,,,,,,,
null,,confidence_buffer,590515,confidence_buffer,,null,,,,,,,,,,,,,,,,,,
null,,thebreak,591017,break,,null,,,,,,,,,,,,,,,,,,
3533.300000011921,,realistic_rating,594554,Medora,,49,Medora,US,1,,,,,,,,,,,,,,,
null,,confidence_buffer,594657,confidence_buffer,,null,,,,,,,,,,,,,,,,,,
2133.5,,pt2_unique_rating,596792,Medora,,51,,,3,,,,,,,,,,,,,,,
null,,confidence_buffer,596895,confidence_buffer,,null,,,,,,,,,,,,,,,,,,
2331.199999988079,,pt2_memorable_rating,599227,Medora,,51,,,3,,,,,,,,,,,,,,,
null,,confidence_buffer,599329,confidence_buffer,,null,,,,,,,,,,,,,,,,,,
4234.800000011921,,recognition_phase,603566,Medora,,52,,,,,,new,1,1,,,,,,,,,,
null,,confidence_buffer,603669,confidence_buffer,,null,,,,,,,,,,,,,,,,,,
null,,thebreak,604170,break,,null,,,,,,,,,,,,,,,,,,
4508.800000011921,,realistic_rating,608680,Meadowspire,,52,Meadowspire,Fictional,4,,,,,,,,,,,,,,,
null,,confidence_buffer,608783,confidence_buffer,,null,,,,,,,,,,,,,,,,,,
2281.2999999523163,,pt2_unique_rating,611065,Meadowspire,,51,,,3,,,,,,,,,,,,,,,
null,,confidence_buffer,611169,confidence_buffer,,null,,,,,,,,,,,,,,,,,,
3040,,probe_rating,614210,probe_rating,,51,,,,3,1,,,,,,,,,,,,,
null,,confidence_buffer,614311,confidence_buffer,,null,,,,,,,,,,,,,,,,,,
1981.3999999761581,,pt2_memorable_rating,616293,Meadowspire,,51,,,3,,,,,,,,,,,,,,,
null,,confidence_buffer,616395,confidence_buffer,,null,,,,,,,,,,,,,,,,,,
2533.600000023842,,recognition_phase,618930,Meadowspire,,49,,,,,,old,1,1,,,,,,,,,,
null,,confidence_buffer,619031,confidence_buffer,,null,,,,,,,,,,,,,,,,,,
null,,thebreak,619533,break,,null,,,,,,,,,,,,,,,,,,
3242.199999988079,,realistic_rating,622777,North Arroya,,52,North Arroya,Fictional,4,,,,,,,,,,,,,,,
null,,confidence_buffer,622880,confidence_buffer,,null,,,,,,,,,,,,,,,,,,
3194.400000035763,,pt2_unique_rating,626075,North Arroya,,52,,,4,,,,,,,,,,,,,,,
null,,confidence_buffer,626177,confidence_buffer,,null,,,,,,,,,,,,,,,,,,
1757.5,,pt2_memorable_rating,627935,North Arroya,,51,,,3,,,,,,,,,,,,,,,
null,,confidence_buffer,628037,confidence_buffer,,null,,,,,,,,,,,,,,,,,,
3795.300000011921,,recognition_phase,631833,North Arroya,,49,,,,,,old,1,1,,,,,,,,,,
null,,confidence_buffer,631935,confidence_buffer,,null,,,,,,,,,,,,,,,,,,
null,,thebreak,632437,break,,null,,,,,,,,,,,,,,,,,,
3698.899999976158,,realistic_rating,636138,Summershade,,50,Summershade,Fictional,2,,,,,,,,,,,,,,,
null,,confidence_buffer,636240,confidence_buffer,,null,,,,,,,,,,,,,,,,,,
2707.699999988079,,pt2_unique_rating,638949,Summershade,,51,,,3,,,,,,,,,,,,,,,
null,,confidence_buffer,639051,confidence_buffer,,null,,,,,,,,,,,,,,,,,,
1774.3999999761581,,pt2_memorable_rating,640827,Summershade,,51,,,3,,,,,,,,,,,,,,,
null,,confidence_buffer,640929,confidence_buffer,,null,,,,,,,,,,,,,,,,,,
2281.300000011921,,recognition_phase,643212,Summershade,,52,,,,,,new,1,1,,,,,,,,,,
null,,confidence_buffer,643314,confidence_buffer,,null,,,,,,,,,,,,,,,,,,
null,,thebreak,643817,break,,null,,,,,,,,,,,,,,,,,,
4948.300000011921,,realistic_rating,648767,Okoboji,,49,Okoboji,US,1,,,,,,,,,,,,,,,
null,,confidence_buffer,648870,confidence_buffer,,null,,,,,,,,,,,,,,,,,,
3065.899999976158,,pt2_unique_rating,651936,Okoboji,,53,,,5,,,,,,,,,,,,,,,
null,,confidence_buffer,652038,confidence_buffer,,null,,,,,,,,,,,,,,,,,,
1774.199999988079,,pt2_memorable_rating,653813,Okoboji,,53,,,5,,,,,,,,,,,,,,,
null,,confidence_buffer,653913,confidence_buffer,,null,,,,,,,,,,,,,,,,,,
2823.600000023842,,recognition_phase,656738,Okoboji,,52,,,,,,new,1,1,,,,,,,,,,
null,,confidence_buffer,656841,confidence_buffer,,null,,,,,,,,,,,,,,,,,,
null,,thebreak,657343,break,,null,,,,,,,,,,,,,,,,,,
2730.7000000476837,,realistic_rating,660074,Bowling Green,,49,Bowling Green,US,1,,,,,,,,,,,,,,,
null,,confidence_buffer,660177,confidence_buffer,,null,,,,,,,,,,,,,,,,,,
1910.9000000357628,,pt2_unique_rating,662090,Bowling Green,,52,,,4,,,,,,,,,,,,,,,
null,,confidence_buffer,662191,confidence_buffer,,null,,,,,,,,,,,,,,,,,,
3477.199999988079,,pt2_memorable_rating,665669,Bowling Green,,52,,,4,,,,,,,,,,,,,,,
null,,confidence_buffer,665771,confidence_buffer,,null,,,,,,,,,,,,,,,,,,
3066.100000023842,,recognition_phase,668837,Bowling Green,,52,,,,,,new,1,1,,,,,,,,,,
null,,confidence_buffer,668939,confidence_buffer,,null,,,,,,,,,,,,,,,,,,
null,,thebreak,669441,break,,null,,,,,,,,,,,,,,,,,,
3711.800000011921,,realistic_rating,673154,Lakehaven,,51,Lakehaven,Fictional,3,,,,,,,,,,,,,,,
null,,confidence_buffer,673257,confidence_buffer,,null,,,,,,,,,,,,,,,,,,
1257.800000011921,,pt2_unique_rating,674516,Lakehaven,,51,,,3,,,,,,,,,,,,,,,
null,,confidence_buffer,674617,confidence_buffer,,null,,,,,,,,,,,,,,,,,,
2868.600000023842,,pt2_memorable_rating,677487,Lakehaven,,51,,,3,,,,,,,,,,,,,,,
null,,confidence_buffer,677589,confidence_buffer,,null,,,,,,,,,,,,,,,,,,
1762.1000000238419,,recognition_phase,679352,Lakehaven,,49,,,,,,old,1,1,,,,,,,,,,
null,,confidence_buffer,679455,confidence_buffer,,null,,,,,,,,,,,,,,,,,,
null,,thebreak,679956,break,,null,,,,,,,,,,,,,,,,,,
6386.300000011921,,realistic_rating,686344,Fairhaven,,50,Fairhaven,Fictional,2,,,,,,,,,,,,,,,
null,,confidence_buffer,686446,confidence_buffer,,null,,,,,,,,,,,,,,,,,,
4930.5,,pt2_unique_rating,691378,Fairhaven,,50,,,2,,,,,,,,,,,,,,,
null,,confidence_buffer,691481,confidence_buffer,,null,,,,,,,,,,,,,,,,,,
2622.600000023842,,pt2_memorable_rating,694104,Fairhaven,,50,,,2,,,,,,,,,,,,,,,
null,,confidence_buffer,694206,confidence_buffer,,null,,,,,,,,,,,,,,,,,,
4873.300000011921,,recognition_phase,699081,Fairhaven,,51,,,,,,new,1,1,,,,,,,,,,
null,,confidence_buffer,699188,confidence_buffer,,null,,,,,,,,,,,,,,,,,,
null,,thebreak,699690,break,,null,,,,,,,,,,,,,,,,,,
4471.600000023842,,realistic_rating,704163,Gloucester,,53,Gloucester,US,5,,,,,,,,,,,,,,,
null,,confidence_buffer,704266,confidence_buffer,,null,,,,,,,,,,,,,,,,,,
3033.399999976158,,pt2_unique_rating,707300,Gloucester,,51,,,3,,,,,,,,,,,,,,,
null,,confidence_buffer,707402,confidence_buffer,,null,,,,,,,,,,,,,,,,,,
3084.599999964237,,pt2_memorable_rating,710488,Gloucester,,52,,,4,,,,,,,,,,,,,,,
null,,confidence_buffer,710590,confidence_buffer,,null,,,,,,,,,,,,,,,,,,
1841.800000011921,,recognition_phase,712433,Gloucester,,49,,,,,,old,1,1,,,,,,,,,,
null,,confidence_buffer,712535,confidence_buffer,,null,,,,,,,,,,,,,,,,,,
null,,thebreak,713037,break,,null,,,,,,,,,,,,,,,,,,
3789.5,,realistic_rating,716828,Coralridge,,51,Coralridge,Fictional,3,,,,,,,,,,,,,,,
null,,confidence_buffer,716930,confidence_buffer,,null,,,,,,,,,,,,,,,,,,
2017.800000011921,,pt2_unique_rating,718949,Coralridge,,51,,,3,,,,,,,,,,,,,,,
null,,confidence_buffer,719051,confidence_buffer,,null,,,,,,,,,,,,,,,,,,
6548.599999964237,,pt2_memorable_rating,725601,Coralridge,,51,,,3,,,,,,,,,,,,,,,
null,,confidence_buffer,725702,confidence_buffer,,null,,,,,,,,,,,,,,,,,,
1985.699999988079,,recognition_phase,727689,Coralridge,,49,,,,,,old,1,1,,,,,,,,,,
null,,confidence_buffer,727791,confidence_buffer,,null,,,,,,,,,,,,,,,,,,
null,,thebreak,728292,break,,null,,,,,,,,,,,,,,,,,,
3985.300000011921,,realistic_rating,732278,New Hope,,53,New Hope,US,5,,,,,,,,,,,,,,,
null,,confidence_buffer,732379,confidence_buffer,,null,,,,,,,,,,,,,,,,,,
2145.900000035763,,pt2_unique_rating,734527,New Hope,,51,,,3,,,,,,,,,,,,,,,
null,,confidence_buffer,734629,confidence_buffer,,null,,,,,,,,,,,,,,,,,,
1036.7999999523163,,pt2_memorable_rating,735668,New Hope,,51,,,3,,,,,,,,,,,,,,,
null,,confidence_buffer,735770,confidence_buffer,,null,,,,,,,,,,,,,,,,,,
2116.300000011921,,recognition_phase,737887,New Hope,,49,,,,,,old,1,1,,,,,,,,,,
null,,confidence_buffer,737989,confidence_buffer,,null,,,,,,,,,,,,,,,,,,
null,,thebreak,738490,break,,null,,,,,,,,,,,,,,,,,,
5600,,realistic_rating,744091,Folly Beach,,49,Folly Beach,US,1,,,,,,,,,,,,,,,
null,,confidence_buffer,744193,confidence_buffer,,null,,,,,,,,,,,,,,,,,,
2119.800000011921,,pt2_unique_rating,746314,Folly Beach,,52,,,4,,,,,,,,,,,,,,,
null,,confidence_buffer,746415,confidence_buffer,,null,,,,,,,,,,,,,,,,,,
2080.199999988079,,pt2_memorable_rating,748496,Folly Beach,,52,,,4,,,,,,,,,,,,,,,
null,,confidence_buffer,748599,confidence_buffer,,null,,,,,,,,,,,,,,,,,,
2701.5,,recognition_phase,751301,Folly Beach,,52,,,,,,new,1,1,,,,,,,,,,
null,,confidence_buffer,751403,confidence_buffer,,null,,,,,,,,,,,,,,,,,,
null,,thebreak,751904,break,,null,,,,,,,,,,,,,,,,,,
4815.600000023842,,realistic_rating,756721,Maplehurst,,50,Maplehurst,Fictional,2,,,,,,,,,,,,,,,
null,,confidence_buffer,756824,confidence_buffer,,null,,,,,,,,,,,,,,,,,,
2935.900000035763,,pt2_unique_rating,759762,Maplehurst,,51,,,3,,,,,,,,,,,,,,,
null,,confidence_buffer,759865,confidence_buffer,,null,,,,,,,,,,,,,,,,,,
1183.5,,pt2_memorable_rating,761049,Maplehurst,,51,,,3,,,,,,,,,,,,,,,
null,,confidence_buffer,761152,confidence_buffer,,null,,,,,,,,,,,,,,,,,,
1899.199999988079,,probe_rating,763054,probe_rating,,49,,,,1,1,,,,,,,,,,,,,
null,,confidence_buffer,763157,confidence_buffer,,null,,,,,,,,,,,,,,,,,,
1666.800000011921,,recognition_phase,764824,Maplehurst,,49,,,,,,old,1,1,,,,,,,,,,
null,,confidence_buffer,764926,confidence_buffer,,null,,,,,,,,,,,,,,,,,,
null,,thebreak,765428,break,,null,,,,,,,,,,,,,,,,,,
3438.400000035763,,realistic_rating,768867,Ravenport,,53,Ravenport,Fictional,5,,,,,,,,,,,,,,,
null,,confidence_buffer,768969,confidence_buffer,,null,,,,,,,,,,,,,,,,,,
2474.600000023842,,pt2_unique_rating,771444,Ravenport,,51,,,3,,,,,,,,,,,,,,,
null,,confidence_buffer,771546,confidence_buffer,,null,,,,,,,,,,,,,,,,,,
2672.199999988079,,probe_rating,774219,probe_rating,,49,,,,1,1,,,,,,,,,,,,,
null,,confidence_buffer,774320,confidence_buffer,,null,,,,,,,,,,,,,,,,,,
2784.599999964237,,pt2_memorable_rating,777106,Ravenport,,52,,,4,,,,,,,,,,,,,,,
null,,confidence_buffer,777210,confidence_buffer,,null,,,,,,,,,,,,,,,,,,
1757.0999999642372,,recognition_phase,778970,Ravenport,,49,,,,,,old,1,1,,,,,,,,,,
null,,confidence_buffer,779072,confidence_buffer,,null,,,,,,,,,,,,,,,,,,
null,,thebreak,779574,break,,null,,,,,,,,,,,,,,,,,,
2750.5,,realistic_rating,782328,San Antonio,,53,San Antonio,US,5,,,,,,,,,,,,,,,
null,,confidence_buffer,782431,confidence_buffer,,null,,,,,,,,,,,,,,,,,,
3165.199999988079,,pt2_unique_rating,785597,San Antonio,,53,,,5,,,,,,,,,,,,,,,
null,,confidence_buffer,785700,confidence_buffer,,null,,,,,,,,,,,,,,,,,,
3905.600000023842,,pt2_memorable_rating,789606,San Antonio,,53,,,5,,,,,,,,,,,,,,,
null,,confidence_buffer,789707,confidence_buffer,,null,,,,,,,,,,,,,,,,,,
2939.699999988079,,recognition_phase,792648,San Antonio,,52,,,,,,new,1,1,,,,,,,,,,
null,,confidence_buffer,792751,confidence_buffer,,null,,,,,,,,,,,,,,,,,,
null,,thebreak,793253,break,,null,,,,,,,,,,,,,,,,,,
3162.5,,realistic_rating,796417,Bisbee,,50,Bisbee,US,2,,,,,,,,,,,,,,,
null,,confidence_buffer,796520,confidence_buffer,,null,,,,,,,,,,,,,,,,,,
2108.100000023842,,pt2_unique_rating,798630,Bisbee,,52,,,4,,,,,,,,,,,,,,,
null,,confidence_buffer,798732,confidence_buffer,,null,,,,,,,,,,,,,,,,,,
2970.199999988079,,probe_rating,801703,probe_rating,,49,,,,1,1,,,,,,,,,,,,,
null,,confidence_buffer,801812,confidence_buffer,,null,,,,,,,,,,,,,,,,,,
4732.199999988079,,pt2_memorable_rating,806545,Bisbee,,52,,,4,,,,,,,,,,,,,,,
null,,confidence_buffer,806656,confidence_buffer,,null,,,,,,,,,,,,,,,,,,
2064.5,,recognition_phase,808721,Bisbee,,49,,,,,,old,1,1,,,,,,,,,,
null,,confidence_buffer,808823,confidence_buffer,,null,,,,,,,,,,,,,,,,,,
null,,thebreak,809325,break,,null,,,,,,,,,,,,,,,,,,
4281.5,,realistic_rating,813608,Solara Glen,,52,Solara Glen,Fictional,4,,,,,,,,,,,,,,,
null,,confidence_buffer,813711,confidence_buffer,,null,,,,,,,,,,,,,,,,,,
1379,,pt2_unique_rating,815091,Solara Glen,,52,,,4,,,,,,,,,,,,,,,
null,,confidence_buffer,815194,confidence_buffer,,null,,,,,,,,,,,,,,,,,,
2210.5,,pt2_memorable_rating,817406,Solara Glen,,52,,,4,,,,,,,,,,,,,,,
null,,confidence_buffer,817508,confidence_buffer,,null,,,,,,,,,,,,,,,,,,
1587.5,,probe_rating,819098,probe_rating,,50,,,,2,1,,,,,,,,,,,,,
null,,confidence_buffer,819200,confidence_buffer,,null,,,,,,,,,,,,,,,,,,
1795.6000000238419,,recognition_phase,820997,Solara Glen,,52,,,,,,new,1,1,,,,,,,,,,
null,,confidence_buffer,821099,confidence_buffer,,null,,,,,,,,,,,,,,,,,,
null,,thebreak,821600,break,,null,,,,,,,,,,,,,,,,,,
5573.5,,realistic_rating,827175,Cape May,,53,Cape May,US,5,,,,,,,,,,,,,,,
null,,confidence_buffer,827277,confidence_buffer,,null,,,,,,,,,,,,,,,,,,
1665.9000000357628,,pt2_unique_rating,828945,Cape May,,53,,,5,,,,,,,,,,,,,,,
null,,confidence_buffer,829046,confidence_buffer,,null,,,,,,,,,,,,,,,,,,
1243.300000011921,,pt2_memorable_rating,830291,Cape May,,52,,,4,,,,,,,,,,,,,,,
null,,confidence_buffer,830394,confidence_buffer,,null,,,,,,,,,,,,,,,,,,
1613.5999999642372,,probe_rating,832008,probe_rating,,49,,,,1,1,,,,,,,,,,,,,
null,,confidence_buffer,832111,confidence_buffer,,null,,,,,,,,,,,,,,,,,,
1580.8999999761581,,recognition_phase,833692,Cape May,,52,,,,,,new,1,1,,,,,,,,,,
null,,confidence_buffer,833796,confidence_buffer,,null,,,,,,,,,,,,,,,,,,
null,,thebreak,834298,break,,null,,,,,,,,,,,,,,,,,,
3614.100000023842,,realistic_rating,837913,Stonebrook,,52,Stonebrook,Fictional,4,,,,,,,,,,,,,,,
null,,confidence_buffer,838015,confidence_buffer,,null,,,,,,,,,,,,,,,,,,
1143.5,,pt2_unique_rating,839160,Stonebrook,,52,,,4,,,,,,,,,,,,,,,
null,,confidence_buffer,839262,confidence_buffer,,null,,,,,,,,,,,,,,,,,,
1861.3999999761581,,probe_rating,841125,probe_rating,,50,,,,2,1,,,,,,,,,,,,,
null,,confidence_buffer,841228,confidence_buffer,,null,,,,,,,,,,,,,,,,,,
1825.5,,pt2_memorable_rating,843054,Stonebrook,,52,,,4,,,,,,,,,,,,,,,
null,,confidence_buffer,843156,confidence_buffer,,null,,,,,,,,,,,,,,,,,,
1621.699999988079,,recognition_phase,844779,Stonebrook,,52,,,,,,new,0,0.9523809523809523,,,,,,,,,,
null,,confidence_buffer,844881,confidence_buffer,,null,,,,,,,,,,,,,,,,,,
null,,thebreak,845384,break,,null,,,,,,,,,,,,,,,,,,
4026.699999988079,,realistic_rating,849412,Sisters,,51,Sisters,US,3,,,,,,,,,,,,,,,
null,,confidence_buffer,849514,confidence_buffer,,null,,,,,,,,,,,,,,,,,,
1747.699999988079,,pt2_unique_rating,851263,Sisters,,52,,,4,,,,,,,,,,,,,,,
null,,confidence_buffer,851365,confidence_buffer,,null,,,,,,,,,,,,,,,,,,
1712.800000011921,,pt2_memorable_rating,853079,Sisters,,52,,,4,,,,,,,,,,,,,,,
null,,confidence_buffer,853182,confidence_buffer,,null,,,,,,,,,,,,,,,,,,
1647.3999999761581,,recognition_phase,854831,Sisters,,52,,,,,,new,1,0.9545454545454546,,,,,,,,,,
null,,confidence_buffer,854933,confidence_buffer,,null,,,,,,,,,,,,,,,,,,
null,,thebreak,855435,break,,null,,,,,,,,,,,,,,,,,,
5768.5,,realistic_rating,861205,Maravilla Springs,,52,Maravilla Springs,Fictional,4,,,,,,,,,,,,,,,
null,,confidence_buffer,861307,confidence_buffer,,null,,,,,,,,,,,,,,,,,,
2048.5,,probe_rating,863357,probe_rating,,49,,,,1,1,,,,,,,,,,,,,
null,,confidence_buffer,863459,confidence_buffer,,null,,,,,,,,,,,,,,,,,,
2187.400000035763,,pt2_unique_rating,865648,Maravilla Springs,,52,,,4,,,,,,,,,,,,,,,
null,,confidence_buffer,865750,confidence_buffer,,null,,,,,,,,,,,,,,,,,,
1213.300000011921,,pt2_memorable_rating,866966,Maravilla Springs,,52,,,4,,,,,,,,,,,,,,,
null,,confidence_buffer,867068,confidence_buffer,,null,,,,,,,,,,,,,,,,,,
1742.0999999642372,,recognition_phase,868812,Maravilla Springs,,52,,,,,,new,1,0.9565217391304348,,,,,,,,,,
null,,confidence_buffer,868923,confidence_buffer,,null,,,,,,,,,,,,,,,,,,
null,,thebreak,869425,break,,null,,,,,,,,,,,,,,,,,,
4709.099999964237,,realistic_rating,874135,East Ladera,,52,East Ladera,Fictional,4,,,,,,,,,,,,,,,
null,,confidence_buffer,874238,confidence_buffer,,null,,,,,,,,,,,,,,,,,,
2500.800000011921,,pt2_unique_rating,876740,East Ladera,,52,,,4,,,,,,,,,,,,,,,
null,,confidence_buffer,876845,confidence_buffer,,null,,,,,,,,,,,,,,,,,,
1993.699999988079,,pt2_memorable_rating,878840,East Ladera,,51,,,3,,,,,,,,,,,,,,,
null,,confidence_buffer,878941,confidence_buffer,,null,,,,,,,,,,,,,,,,,,
4411.699999988079,,recognition_phase,883354,East Ladera,,50,,,,,,old,1,0.9583333333333334,,,,,,,,,,
null,,confidence_buffer,883456,confidence_buffer,,null,,,,,,,,,,,,,,,,,,
null,,thebreak,883959,break,,null,,,,,,,,,,,,,,,,,,
3289.699999988079,,realistic_rating,887251,Manistee,,51,Manistee,US,3,,,,,,,,,,,,,,,
null,,confidence_buffer,887352,confidence_buffer,,null,,,,,,,,,,,,,,,,,,
1832.699999988079,,pt2_unique_rating,889186,Manistee,,52,,,4,,,,,,,,,,,,,,,
null,,confidence_buffer,889288,confidence_buffer,,null,,,,,,,,,,,,,,,,,,
2208.300000011921,,pt2_memorable_rating,891497,Manistee,,52,,,4,,,,,,,,,,,,,,,
null,,confidence_buffer,891599,confidence_buffer,,null,,,,,,,,,,,,,,,,,,
2001.0999999642372,,recognition_phase,893601,Manistee,,52,,,,,,new,1,0.96,,,,,,,,,,
null,,confidence_buffer,893703,confidence_buffer,,null,,,,,,,,,,,,,,,,,,
null,,thebreak,894205,break,,null,,,,,,,,,,,,,,,,,,
2929.2000000476837,,realistic_rating,897135,Gatlinburg,,53,Gatlinburg,US,5,,,,,,,,,,,,,,,
null,,confidence_buffer,897238,confidence_buffer,,null,,,,,,,,,,,,,,,,,,
1671.3999999761581,,pt2_unique_rating,898910,Gatlinburg,,52,,,4,,,,,,,,,,,,,,,
null,,confidence_buffer,899012,confidence_buffer,,null,,,,,,,,,,,,,,,,,,
1959.3999999761581,,pt2_memorable_rating,900972,Gatlinburg,,52,,,4,,,,,,,,,,,,,,,
null,,confidence_buffer,901074,confidence_buffer,,null,,,,,,,,,,,,,,,,,,
1929.5,,recognition_phase,903006,Gatlinburg,,49,,,,,,old,1,0.9615384615384616,,,,,,,,,,
null,,confidence_buffer,903108,confidence_buffer,,null,,,,,,,,,,,,,,,,,,
null,,thebreak,903611,break,,null,,,,,,,,,,,,,,,,,,
3013.699999988079,,realistic_rating,906626,West Palm Beach,,53,West Palm Beach,US,5,,,,,,,,,,,,,,,
null,,confidence_buffer,906729,confidence_buffer,,null,,,,,,,,,,,,,,,,,,
1786.5999999642372,,pt2_unique_rating,908517,West Palm Beach,,53,,,5,,,,,,,,,,,,,,,
null,,confidence_buffer,908620,confidence_buffer,,null,,,,,,,,,,,,,,,,,,
2134.300000011921,,pt2_memorable_rating,910755,West Palm Beach,,52,,,4,,,,,,,,,,,,,,,
null,,confidence_buffer,910858,confidence_buffer,,null,,,,,,,,,,,,,,,,,,
8432.800000011921,,recognition_phase,919292,West Palm Beach,,51,,,,,,new,0,0.9259259259259259,,,,,,,,,,
null,,confidence_buffer,919405,confidence_buffer,,null,,,,,,,,,,,,,,,,,,
null,,thebreak,919906,break,,null,,,,,,,,,,,,,,,,,,
6988.399999976158,,realistic_rating,926895,Briarfield,,52,Briarfield,Fictional,4,,,,,,,,,,,,,,,
null,,confidence_buffer,926997,confidence_buffer,,null,,,,,,,,,,,,,,,,,,
1780.5,,pt2_unique_rating,928780,Briarfield,,51,,,3,,,,,,,,,,,,,,,
null,,confidence_buffer,928881,confidence_buffer,,null,,,,,,,,,,,,,,,,,,
1825,,pt2_memorable_rating,930708,Briarfield,,51,,,3,,,,,,,,,,,,,,,
null,,confidence_buffer,930811,confidence_buffer,,null,,,,,,,,,,,,,,,,,,
1730.8999999761581,,recognition_phase,932543,Briarfield,,49,,,,,,old,1,0.9285714285714286,,,,,,,,,,
null,,confidence_buffer,932645,confidence_buffer,,null,,,,,,,,,,,,,,,,,,
null,,thebreak,933148,break,,null,,,,,,,,,,,,,,,,,,
8321.199999988079,,realistic_rating,941471,Redgrove,,52,Redgrove,Fictional,4,,,,,,,,,,,,,,,
null,,confidence_buffer,941574,confidence_buffer,,null,,,,,,,,,,,,,,,,,,
1821,,pt2_unique_rating,943397,Redgrove,,51,,,3,,,,,,,,,,,,,,,
null,,confidence_buffer,943498,confidence_buffer,,null,,,,,,,,,,,,,,,,,,
1171.0999999642372,,pt2_memorable_rating,944670,Redgrove,,51,,,3,,,,,,,,,,,,,,,
null,,confidence_buffer,944773,confidence_buffer,,null,,,,,,,,,,,,,,,,,,
1503.5,,recognition_phase,946278,Redgrove,,52,,,,,,new,1,0.9310344827586207,,,,,,,,,,
null,,confidence_buffer,946381,confidence_buffer,,null,,,,,,,,,,,,,,,,,,
null,,thebreak,946883,break,,null,,,,,,,,,,,,,,,,,,
3334.699999988079,,realistic_rating,950219,Racine,,51,Racine,US,3,,,,,,,,,,,,,,,
null,,confidence_buffer,950321,confidence_buffer,,null,,,,,,,,,,,,,,,,,,
3077.100000023842,,pt2_unique_rating,953399,Racine,,51,,,3,,,,,,,,,,,,,,,
null,,confidence_buffer,953500,confidence_buffer,,null,,,,,,,,,,,,,,,,,,
1436.800000011921,,probe_rating,954938,probe_rating,,49,,,,1,1,,,,,,,,,,,,,
null,,confidence_buffer,955039,confidence_buffer,,null,,,,,,,,,,,,,,,,,,
2051.300000011921,,pt2_memorable_rating,957091,Racine,,51,,,3,,,,,,,,,,,,,,,
null,,confidence_buffer,957197,confidence_buffer,,null,,,,,,,,,,,,,,,,,,
1555.5,,recognition_phase,958755,Racine,,52,,,,,,new,1,0.9333333333333333,,,,,,,,,,
null,,confidence_buffer,958857,confidence_buffer,,null,,,,,,,,,,,,,,,,,,
null,,thebreak,959358,break,,null,,,,,,,,,,,,,,,,,,
3315.5,,realistic_rating,962674,Riverlyn,,52,Riverlyn,Fictional,4,,,,,,,,,,,,,,,
null,,confidence_buffer,962776,confidence_buffer,,null,,,,,,,,,,,,,,,,,,
2963,,pt2_unique_rating,965739,Riverlyn,,50,,,2,,,,,,,,,,,,,,,
null,,confidence_buffer,965840,confidence_buffer,,null,,,,,,,,,,,,,,,,,,
1848.3999999761581,,pt2_memorable_rating,967690,Riverlyn,,50,,,2,,,,,,,,,,,,,,,
null,,confidence_buffer,967792,confidence_buffer,,null,,,,,,,,,,,,,,,,,,
1601.8999999761581,,recognition_phase,969396,Riverlyn,,52,,,,,,new,1,0.9354838709677419,,,,,,,,,,
null,,confidence_buffer,969498,confidence_buffer,,null,,,,,,,,,,,,,,,,,,
null,,thebreak,970000,break,,null,,,,,,,,,,,,,,,,,,
4044.199999988079,,realistic_rating,974046,Cedarwyn,,51,Cedarwyn,Fictional,3,,,,,,,,,,,,,,,
null,,confidence_buffer,974149,confidence_buffer,,null,,,,,,,,,,,,,,,,,,
2019.699999988079,,pt2_unique_rating,976171,Cedarwyn,,52,,,4,,,,,,,,,,,,,,,
null,,confidence_buffer,976273,confidence_buffer,,null,,,,,,,,,,,,,,,,,,
1691.6000000238419,,pt2_memorable_rating,977965,Cedarwyn,,52,,,4,,,,,,,,,,,,,,,
null,,confidence_buffer,978067,confidence_buffer,,null,,,,,,,,,,,,,,,,,,
4959,,recognition_phase,983028,Cedarwyn,,51,,,,,,new,1,0.9375,,,,,,,,,,
null,,confidence_buffer,983130,confidence_buffer,,null,,,,,,,,,,,,,,,,,,
null,,thebreak,983633,break,,null,,,,,,,,,,,,,,,,,,
2528.5,,realistic_rating,986164,Barnard,,52,Barnard,US,4,,,,,,,,,,,,,,,
null,,confidence_buffer,986265,confidence_buffer,,null,,,,,,,,,,,,,,,,,,
2315,,pt2_unique_rating,988581,Barnard,,50,,,2,,,,,,,,,,,,,,,
null,,confidence_buffer,988683,confidence_buffer,,null,,,,,,,,,,,,,,,,,,
2125.7000000476837,,pt2_memorable_rating,990809,Barnard,,52,,,4,,,,,,,,,,,,,,,
null,,confidence_buffer,990910,confidence_buffer,,null,,,,,,,,,,,,,,,,,,
1576.5999999642372,,recognition_phase,992488,Barnard,,49,,,,,,old,1,0.9393939393939394,,,,,,,,,,
null,,confidence_buffer,992589,confidence_buffer,,null,,,,,,,,,,,,,,,,,,
null,,thebreak,993091,break,,null,,,,,,,,,,,,,,,,,,
5251.600000023842,,realistic_rating,998344,Duck,,51,Duck,US,3,,,,,,,,,,,,,,,
null,,confidence_buffer,998447,confidence_buffer,,null,,,,,,,,,,,,,,,,,,
4197.900000035763,,pt2_unique_rating,1002645,Duck,,52,,,4,,,,,,,,,,,,,,,
null,,confidence_buffer,1002748,confidence_buffer,,null,,,,,,,,,,,,,,,,,,
3752.800000011921,,pt2_memorable_rating,1006503,Duck,,53,,,5,,,,,,,,,,,,,,,
null,,confidence_buffer,1006606,confidence_buffer,,null,,,,,,,,,,,,,,,,,,
1562.800000011921,,recognition_phase,1008171,Duck,,49,,,,,,old,1,0.9411764705882353,,,,,,,,,,
null,,confidence_buffer,1008273,confidence_buffer,,null,,,,,,,,,,,,,,,,,,
null,,thebreak,1008774,break,,null,,,,,,,,,,,,,,,,,,
1863.9000000357628,,realistic_rating,1010640,Livingston,,51,Livingston,US,3,,,,,,,,,,,,,,,
null,,confidence_buffer,1010741,confidence_buffer,,null,,,,,,,,,,,,,,,,,,
1351,,pt2_unique_rating,1012093,Livingston,,51,,,3,,,,,,,,,,,,,,,
null,,confidence_buffer,1012195,confidence_buffer,,null,,,,,,,,,,,,,,,,,,
1541.699999988079,,pt2_memorable_rating,1013738,Livingston,,52,,,4,,,,,,,,,,,,,,,
null,,confidence_buffer,1013843,confidence_buffer,,null,,,,,,,,,,,,,,,,,,
2045.199999988079,,recognition_phase,1015890,Livingston,,49,,,,,,old,1,0.9428571428571428,,,,,,,,,,
null,,confidence_buffer,1015991,confidence_buffer,,null,,,,,,,,,,,,,,,,,,
null,,thebreak,1016493,break,,null,,,,,,,,,,,,,,,,,,
2292.300000011921,,realistic_rating,1018787,Park City,,52,Park City,US,4,,,,,,,,,,,,,,,
null,,confidence_buffer,1018890,confidence_buffer,,null,,,,,,,,,,,,,,,,,,
2310.800000011921,,pt2_unique_rating,1021202,Park City,,50,,,2,,,,,,,,,,,,,,,
null,,confidence_buffer,1021304,confidence_buffer,,null,,,,,,,,,,,,,,,,,,
1774.2999999523163,,pt2_memorable_rating,1023080,Park City,,52,,,4,,,,,,,,,,,,,,,
null,,confidence_buffer,1023183,confidence_buffer,,null,,,,,,,,,,,,,,,,,,
1665.199999988079,,recognition_phase,1024850,Park City,,49,,,,,,old,1,0.9444444444444444,,,,,,,,,,
null,,confidence_buffer,1024951,confidence_buffer,,null,,,,,,,,,,,,,,,,,,
null,,thebreak,1025453,break,,null,,,,,,,,,,,,,,,,,,
4215.5,,realistic_rating,1029669,Cody,,51,Cody,US,3,,,,,,,,,,,,,,,
null,,confidence_buffer,1029771,confidence_buffer,,null,,,,,,,,,,,,,,,,,,
2302.600000023842,,probe_rating,1032074,probe_rating,,51,,,,3,1,,,,,,,,,,,,,
null,,confidence_buffer,1032178,confidence_buffer,,null,,,,,,,,,,,,,,,,,,
4541,,pt2_unique_rating,1036721,Cody,,50,,,2,,,,,,,,,,,,,,,
null,,confidence_buffer,1036824,confidence_buffer,,null,,,,,,,,,,,,,,,,,,
1934.7999999523163,,pt2_memorable_rating,1038760,Cody,,52,,,4,,,,,,,,,,,,,,,
null,,confidence_buffer,1038862,confidence_buffer,,null,,,,,,,,,,,,,,,,,,
1565.0999999642372,,recognition_phase,1040428,Cody,,49,,,,,,old,1,0.9459459459459459,,,,,,,,,,
null,,confidence_buffer,1040531,confidence_buffer,,null,,,,,,,,,,,,,,,,,,
null,,thebreak,1041033,break,,null,,,,,,,,,,,,,,,,,,
2686.600000023842,,realistic_rating,1043721,Berkeley Springs,,53,Berkeley Springs,US,5,,,,,,,,,,,,,,,
null,,confidence_buffer,1043823,confidence_buffer,,null,,,,,,,,,,,,,,,,,,
1477.5,,probe_rating,1045303,probe_rating,,49,,,,1,1,,,,,,,,,,,,,
null,,confidence_buffer,1045406,confidence_buffer,,null,,,,,,,,,,,,,,,,,,
1527.5,,pt2_unique_rating,1046935,Berkeley Springs,,52,,,4,,,,,,,,,,,,,,,
null,,confidence_buffer,1047038,confidence_buffer,,null,,,,,,,,,,,,,,,,,,
1866.5,,pt2_memorable_rating,1048906,Berkeley Springs,,52,,,4,,,,,,,,,,,,,,,
null,,confidence_buffer,1049008,confidence_buffer,,null,,,,,,,,,,,,,,,,,,
1887.3999999761581,,recognition_phase,1050897,Berkeley Springs,,49,,,,,,old,1,0.9473684210526315,,,,,,,,,,
null,,confidence_buffer,1050998,confidence_buffer,,null,,,,,,,,,,,,,,,,,,
null,,thebreak,1051500,break,,null,,,,,,,,,,,,,,,,,,
4540.199999988079,,realistic_rating,1056042,West Talora,,50,West Talora,Fictional,2,,,,,,,,,,,,,,,
null,,confidence_buffer,1056145,confidence_buffer,,null,,,,,,,,,,,,,,,,,,
2150.699999988079,,pt2_unique_rating,1058297,West Talora,,52,,,4,,,,,,,,,,,,,,,
null,,confidence_buffer,1058399,confidence_buffer,,null,,,,,,,,,,,,,,,,,,
1912.1000000238419,,pt2_memorable_rating,1060313,West Talora,,51,,,3,,,,,,,,,,,,,,,
null,,confidence_buffer,1060416,confidence_buffer,,null,,,,,,,,,,,,,,,,,,
2648.400000035763,,probe_rating,1063065,probe_rating,,51,,,,3,1,,,,,,,,,,,,,
null,,confidence_buffer,1063168,confidence_buffer,,null,,,,,,,,,,,,,,,,,,
2564.199999988079,,recognition_phase,1065733,West Talora,,52,,,,,,new,1,0.9487179487179487,,,,,,,,,,
null,,confidence_buffer,1065834,confidence_buffer,,null,,,,,,,,,,,,,,,,,,
null,,thebreak,1066336,break,,null,,,,,,,,,,,,,,,,,,
2257.300000011921,,realistic_rating,1068595,Brookmere,,51,Brookmere,Fictional,3,,,,,,,,,,,,,,,
null,,confidence_buffer,1068697,confidence_buffer,,null,,,,,,,,,,,,,,,,,,
3749.100000023842,,pt2_unique_rating,1072447,Brookmere,,52,,,4,,,,,,,,,,,,,,,
null,,confidence_buffer,1072550,confidence_buffer,,null,,,,,,,,,,,,,,,,,,
3272.300000011921,,pt2_memorable_rating,1075823,Brookmere,,50,,,2,,,,,,,,,,,,,,,
null,,confidence_buffer,1075924,confidence_buffer,,null,,,,,,,,,,,,,,,,,,
1620.8999999761581,,recognition_phase,1077546,Brookmere,,52,,,,,,new,1,0.95,,,,,,,,,,
null,,confidence_buffer,1077648,confidence_buffer,,null,,,,,,,,,,,,,,,,,,
null,,thebreak,1078149,break,,null,,,,,,,,,,,,,,,,,,
2664.800000011921,,realistic_rating,1080815,Falconridge,,52,Falconridge,Fictional,4,,,,,,,,,,,,,,,
null,,confidence_buffer,1080927,confidence_buffer,,null,,,,,,,,,,,,,,,,,,
1783.300000011921,,pt2_unique_rating,1082711,Falconridge,,51,,,3,,,,,,,,,,,,,,,
null,,confidence_buffer,1082814,confidence_buffer,,null,,,,,,,,,,,,,,,,,,
3736.800000011921,,pt2_memorable_rating,1086553,Falconridge,,52,,,4,,,,,,,,,,,,,,,
null,,confidence_buffer,1086656,confidence_buffer,,null,,,,,,,,,,,,,,,,,,
1626.7999999523163,,recognition_phase,1088285,Falconridge,,49,,,,,,old,1,0.9512195121951219,,,,,,,,,,
null,,confidence_buffer,1088387,confidence_buffer,,null,,,,,,,,,,,,,,,,,,
null,,thebreak,1088888,break,,null,,,,,,,,,,,,,,,,,,
12946,,realistic_rating,1101835,Tamarisk Hills,,53,Tamarisk Hills,Fictional,5,,,,,,,,,,,,,,,
null,,confidence_buffer,1101936,confidence_buffer,,null,,,,,,,,,,,,,,,,,,
2150.099999964237,,pt2_unique_rating,1104088,Tamarisk Hills,,52,,,4,,,,,,,,,,,,,,,
null,,confidence_buffer,1104189,confidence_buffer,,null,,,,,,,,,,,,,,,,,,
1294,,pt2_memorable_rating,1105486,Tamarisk Hills,,52,,,4,,,,,,,,,,,,,,,
null,,confidence_buffer,1105588,confidence_buffer,,null,,,,,,,,,,,,,,,,,,
1793.8999999761581,,recognition_phase,1107383,Tamarisk Hills,,49,,,,,,old,1,0.9523809523809523,,,,,,,,,,
null,,confidence_buffer,1107486,confidence_buffer,,null,,,,,,,,,,,,,,,,,,
null,,thebreak,1107988,break,,null,,,,,,,,,,,,,,,,,,
2630.300000011921,,realistic_rating,1110620,Bar Harbor,,52,Bar Harbor,US,4,,,,,,,,,,,,,,,
null,,confidence_buffer,1110723,confidence_buffer,,null,,,,,,,,,,,,,,,,,,
1094.699999988079,,pt2_unique_rating,1111819,Bar Harbor,,52,,,4,,,,,,,,,,,,,,,
null,,confidence_buffer,1111921,confidence_buffer,,null,,,,,,,,,,,,,,,,,,
2049.5,,pt2_memorable_rating,1113972,Bar Harbor,,51,,,3,,,,,,,,,,,,,,,
null,,confidence_buffer,1114075,confidence_buffer,,null,,,,,,,,,,,,,,,,,,
1762.199999988079,,recognition_phase,1115839,Bar Harbor,,52,,,,,,new,1,0.9534883720930233,,,,,,,,,,
null,,confidence_buffer,1115941,confidence_buffer,,null,,,,,,,,,,,,,,,,,,
null,,thebreak,1116444,break,,null,,,,,,,,,,,,,,,,,,
3378.100000023842,,realistic_rating,1119824,New Verdan,,53,New Verdan,Fictional,5,,,,,,,,,,,,,,,
null,,confidence_buffer,1119926,confidence_buffer,,null,,,,,,,,,,,,,,,,,,
1353,,probe_rating,1121280,probe_rating,,49,,,,1,1,,,,,,,,,,,,,
null,,confidence_buffer,1121383,confidence_buffer,,null,,,,,,,,,,,,,,,,,,
2573.7999999523163,,pt2_unique_rating,1123959,New Verdan,,51,,,3,,,,,,,,,,,,,,,
null,,confidence_buffer,1124062,confidence_buffer,,null,,,,,,,,,,,,,,,,,,
1337.300000011921,,pt2_memorable_rating,1125400,New Verdan,,51,,,3,,,,,,,,,,,,,,,
null,,confidence_buffer,1125501,confidence_buffer,,null,,,,,,,,,,,,,,,,,,
1731.9000000357628,,recognition_phase,1127234,New Verdan,,52,,,,,,new,1,0.9545454545454546,,,,,,,,,,
null,,confidence_buffer,1127349,confidence_buffer,,null,,,,,,,,,,,,,,,,,,
null,,thebreak,1127851,break,,null,,,,,,,,,,,,,,,,,,
3066.400000035763,,realistic_rating,1130918,Hilo,,49,Hilo,US,1,,,,,,,,,,,,,,,
null,,confidence_buffer,1131020,confidence_buffer,,null,,,,,,,,,,,,,,,,,,
2819.399999976158,,pt2_unique_rating,1133840,Hilo,,50,,,2,,,,,,,,,,,,,,,
null,,confidence_buffer,1133943,confidence_buffer,,null,,,,,,,,,,,,,,,,,,
1452.3999999761581,,pt2_memorable_rating,1135398,Hilo,,50,,,2,,,,,,,,,,,,,,,
null,,confidence_buffer,1135500,confidence_buffer,,null,,,,,,,,,,,,,,,,,,
1611.8999999761581,,recognition_phase,1137114,Hilo,,52,,,,,,new,1,0.9555555555555556,,,,,,,,,,
null,,confidence_buffer,1137216,confidence_buffer,,null,,,,,,,,,,,,,,,,,,
null,,thebreak,1137726,break,,null,,,,,,,,,,,,,,,,,,
3047.399999976158,,realistic_rating,1140774,Delaro Park,,49,Delaro Park,Fictional,1,,,,,,,,,,,,,,,
null,,confidence_buffer,1140875,confidence_buffer,,null,,,,,,,,,,,,,,,,,,
6524.5,,pt2_unique_rating,1147400,Delaro Park,,52,,,4,,,,,,,,,,,,,,,
null,,confidence_buffer,1147503,confidence_buffer,,null,,,,,,,,,,,,,,,,,,
1394.5999999642372,,probe_rating,1148898,probe_rating,,51,,,,3,1,,,,,,,,,,,,,
null,,confidence_buffer,1149000,confidence_buffer,,null,,,,,,,,,,,,,,,,,,
1767.5,,pt2_memorable_rating,1150768,Delaro Park,,51,,,3,,,,,,,,,,,,,,,
null,,confidence_buffer,1150870,confidence_buffer,,null,,,,,,,,,,,,,,,,,,
1628.0999999642372,,recognition_phase,1152499,Delaro Park,,52,,,,,,new,1,0.9565217391304348,,,,,,,,,,
null,,confidence_buffer,1152599,confidence_buffer,,null,,,,,,,,,,,,,,,,,,
null,,thebreak,1153101,break,,null,,,,,,,,,,,,,,,,,,
2000.0999999642372,,realistic_rating,1155102,Ashford Hills,,52,Ashford Hills,Fictional,4,,,,,,,,,,,,,,,
null,,confidence_buffer,1155205,confidence_buffer,,null,,,,,,,,,,,,,,,,,,
5529.400000035763,,pt2_unique_rating,1160735,Ashford Hills,,51,,,3,,,,,,,,,,,,,,,
null,,confidence_buffer,1160845,confidence_buffer,,null,,,,,,,,,,,,,,,,,,
2550.399999976158,,pt2_memorable_rating,1163397,Ashford Hills,,51,,,3,,,,,,,,,,,,,,,
null,,confidence_buffer,1163500,confidence_buffer,,null,,,,,,,,,,,,,,,,,,
2018.2999999523163,,recognition_phase,1165520,Ashford Hills,,52,,,,,,new,1,0.9574468085106383,,,,,,,,,,
null,,confidence_buffer,1165623,confidence_buffer,,null,,,,,,,,,,,,,,,,,,
null,,thebreak,1166125,break,,null,,,,,,,,,,,,,,,,,,
1591.5999999642372,,realistic_rating,1167718,Oakridge,,52,Oakridge,Fictional,4,,,,,,,,,,,,,,,
null,,confidence_buffer,1167820,confidence_buffer,,null,,,,,,,,,,,,,,,,,,
3414.399999976158,,pt2_unique_rating,1171236,Oakridge,,50,,,2,,,,,,,,,,,,,,,
null,,confidence_buffer,1171339,confidence_buffer,,null,,,,,,,,,,,,,,,,,,
1542.5999999642372,,pt2_memorable_rating,1172883,Oakridge,,50,,,2,,,,,,,,,,,,,,,
null,,confidence_buffer,1172987,confidence_buffer,,null,,,,,,,,,,,,,,,,,,
3529,,recognition_phase,1176518,Oakridge,,51,,,,,,new,1,0.9583333333333334,,,,,,,,,,
null,,confidence_buffer,1176621,confidence_buffer,,null,,,,,,,,,,,,,,,,,,
null,,thebreak,1177123,break,,null,,,,,,,,,,,,,,,,,,
5491.199999988079,,realistic_rating,1182616,Boulder,,51,Boulder,US,3,,,,,,,,,,,,,,,
null,,confidence_buffer,1182718,confidence_buffer,,null,,,,,,,,,,,,,,,,,,
2665.699999988079,,pt2_unique_rating,1185386,Boulder,,49,,,1,,,,,,,,,,,,,,,
null,,confidence_buffer,1185487,confidence_buffer,,null,,,,,,,,,,,,,,,,,,
2905.899999976158,,pt2_memorable_rating,1188395,Boulder,,50,,,2,,,,,,,,,,,,,,,
null,,confidence_buffer,1188497,confidence_buffer,,null,,,,,,,,,,,,,,,,,,
3561.100000023842,,recognition_phase,1192060,Boulder,,52,,,,,,new,1,0.9591836734693877,,,,,,,,,,
null,,confidence_buffer,1192164,confidence_buffer,,null,,,,,,,,,,,,,,,,,,
null,,thebreak,1192666,break,,null,,,,,,,,,,,,,,,,,,
2672.699999988079,,realistic_rating,1195340,Peoria,,49,Peoria,US,1,,,,,,,,,,,,,,,
null,,confidence_buffer,1195443,confidence_buffer,,null,,,,,,,,,,,,,,,,,,
1845,,pt2_unique_rating,1197289,Peoria,,52,,,4,,,,,,,,,,,,,,,
null,,confidence_buffer,1197392,confidence_buffer,,null,,,,,,,,,,,,,,,,,,
4071.399999976158,,pt2_memorable_rating,1201463,Peoria,,50,,,2,,,,,,,,,,,,,,,
null,,confidence_buffer,1201570,confidence_buffer,,null,,,,,,,,,,,,,,,,,,
1533.699999988079,,recognition_phase,1203104,Peoria,,52,,,,,,new,1,0.96,,,,,,,,,,
null,,confidence_buffer,1203206,confidence_buffer,,null,,,,,,,,,,,,,,,,,,
null,,thebreak,1203708,break,,null,,,,,,,,,,,,,,,,,,
4612,,realistic_rating,1208321,Lake of the Ozarks,,51,Lake of the Ozarks,US,3,,,,,,,,,,,,,,,
null,,confidence_buffer,1208422,confidence_buffer,,null,,,,,,,,,,,,,,,,,,
3163.899999976158,,pt2_unique_rating,1211587,Lake of the Ozarks,,53,,,5,,,,,,,,,,,,,,,
null,,confidence_buffer,1211688,confidence_buffer,,null,,,,,,,,,,,,,,,,,,
1524.1000000238419,,probe_rating,1213212,probe_rating,,52,,,,4,1,,,,,,,,,,,,,
null,,confidence_buffer,1213314,confidence_buffer,,null,,,,,,,,,,,,,,,,,,
2155.399999976158,,pt2_memorable_rating,1215470,Lake of the Ozarks,,53,,,5,,,,,,,,,,,,,,,
null,,confidence_buffer,1215571,confidence_buffer,,null,,,,,,,,,,,,,,,,,,
1895.0999999642372,,recognition_phase,1217468,Lake of the Ozarks,,49,,,,,,old,1,0.9607843137254902,,,,,,,,,,
null,,confidence_buffer,1217569,confidence_buffer,,null,,,,,,,,,,,,,,,,,,
null,,thebreak,1218072,break,,null,,,,,,,,,,,,,,,,,,
3029.699999988079,,realistic_rating,1221103,Montelake,,52,Montelake,Fictional,4,,,,,,,,,,,,,,,
null,,confidence_buffer,1221205,confidence_buffer,,null,,,,,,,,,,,,,,,,,,
2281.099999964237,,pt2_unique_rating,1223488,Montelake,,52,,,4,,,,,,,,,,,,,,,
null,,confidence_buffer,1223596,confidence_buffer,,null,,,,,,,,,,,,,,,,,,
1125.5,,pt2_memorable_rating,1224725,Montelake,,52,,,4,,,,,,,,,,,,,,,
null,,confidence_buffer,1224828,confidence_buffer,,null,,,,,,,,,,,,,,,,,,
3464.800000011921,,probe_rating,1228294,probe_rating,,52,,,,4,1,,,,,,,,,,,,,
null,,confidence_buffer,1228397,confidence_buffer,,null,,,,,,,,,,,,,,,,,,
3750.300000011921,,recognition_phase,1232149,Montelake,,51,,,,,,new,0,0.9423076923076923,,,,,,,,,,
null,,confidence_buffer,1232250,confidence_buffer,,null,,,,,,,,,,,,,,,,,,
null,,thebreak,1232752,break,,null,,,,,,,,,,,,,,,,,,
11760.5,,realistic_rating,1244513,Assateague Island,,49,Assateague Island,US,1,,,,,,,,,,,,,,,
null,,confidence_buffer,1244615,confidence_buffer,,null,,,,,,,,,,,,,,,,,,
2475.2999999523163,,pt2_unique_rating,1247092,Assateague Island,,53,,,5,,,,,,,,,,,,,,,
null,,confidence_buffer,1247193,confidence_buffer,,null,,,,,,,,,,,,,,,,,,
1753.1000000238419,,pt2_memorable_rating,1248947,Assateague Island,,53,,,5,,,,,,,,,,,,,,,
null,,confidence_buffer,1249049,confidence_buffer,,null,,,,,,,,,,,,,,,,,,
5735.700000047684,,recognition_phase,1254785,Assateague Island,,51,,,,,,new,0,0.9245283018867925,,,,,,,,,,
null,,confidence_buffer,1254887,confidence_buffer,,null,,,,,,,,,,,,,,,,,,
null,,thebreak,1255389,break,,null,,,,,,,,,,,,,,,,,,
6607.300000011921,,realistic_rating,1261997,Golden Trace,,52,Golden Trace,Fictional,4,,,,,,,,,,,,,,,
null,,confidence_buffer,1262098,confidence_buffer,,null,,,,,,,,,,,,,,,,,,
2109.699999988079,,pt2_unique_rating,1264210,Golden Trace,,52,,,4,,,,,,,,,,,,,,,
null,,confidence_buffer,1264313,confidence_buffer,,null,,,,,,,,,,,,,,,,,,
1776.699999988079,,pt2_memorable_rating,1266091,Golden Trace,,52,,,4,,,,,,,,,,,,,,,
null,,confidence_buffer,1266192,confidence_buffer,,null,,,,,,,,,,,,,,,,,,
2205.5,,recognition_phase,1268398,Golden Trace,,52,,,,,,new,1,0.9259259259259259,,,,,,,,,,
null,,confidence_buffer,1268500,confidence_buffer,,null,,,,,,,,,,,,,,,,,,
null,,thebreak,1269002,break,,null,,,,,,,,,,,,,,,,,,
6599.300000011921,,realistic_rating,1275604,Cornwall,,52,Cornwall,US,4,,,,,,,,,,,,,,,
null,,confidence_buffer,1275707,confidence_buffer,,null,,,,,,,,,,,,,,,,,,
1900,,pt2_unique_rating,1277609,Cornwall,,50,,,2,,,,,,,,,,,,,,,
null,,confidence_buffer,1277721,confidence_buffer,,null,,,,,,,,,,,,,,,,,,
2168.899999976158,,pt2_memorable_rating,1279892,Cornwall,,50,,,2,,,,,,,,,,,,,,,
null,,confidence_buffer,1279994,confidence_buffer,,null,,,,,,,,,,,,,,,,,,
2659.5,,recognition_phase,1282655,Cornwall,,52,,,,,,new,0,0.9090909090909091,,,,,,,,,,
null,,confidence_buffer,1282756,confidence_buffer,,null,,,,,,,,,,,,,,,,,,
null,,thebreak,1283258,break,,null,,,,,,,,,,,,,,,,,,
2601.5,,realistic_rating,1285861,Yukon,,53,Yukon,US,5,,,,,,,,,,,,,,,
null,,confidence_buffer,1285962,confidence_buffer,,null,,,,,,,,,,,,,,,,,,
4135.5,,pt2_unique_rating,1290099,Yukon,,51,,,3,,,,,,,,,,,,,,,
null,,confidence_buffer,1290200,confidence_buffer,,null,,,,,,,,,,,,,,,,,,
1807.300000011921,,probe_rating,1292008,probe_rating,,53,,,,5,1,,,,,,,,,,,,,
null,,confidence_buffer,1292111,confidence_buffer,,null,,,,,,,,,,,,,,,,,,
3266.7000000476837,,pt2_memorable_rating,1295379,Yukon,,52,,,4,,,,,,,,,,,,,,,
null,,confidence_buffer,1295482,confidence_buffer,,null,,,,,,,,,,,,,,,,,,
1779.800000011921,,recognition_phase,1297263,Yukon,,52,,,,,,new,1,0.9107142857142857,,,,,,,,,,
null,,confidence_buffer,1297366,confidence_buffer,,null,,,,,,,,,,,,,,,,,,
null,,thebreak,1297867,break,,null,,,,,,,,,,,,,,,,,,
2234.300000011921,,realistic_rating,1300104,Newport,,53,Newport,US,5,,,,,,,,,,,,,,,
null,,confidence_buffer,1300206,confidence_buffer,,null,,,,,,,,,,,,,,,,,,
2739.300000011921,,pt2_unique_rating,1302946,Newport,,51,,,3,,,,,,,,,,,,,,,
null,,confidence_buffer,1303048,confidence_buffer,,null,,,,,,,,,,,,,,,,,,
1266.3999999761581,,probe_rating,1304315,probe_rating,,51,,,,3,1,,,,,,,,,,,,,
null,,confidence_buffer,1304419,confidence_buffer,,null,,,,,,,,,,,,,,,,,,
1942.5,,pt2_memorable_rating,1306363,Newport,,52,,,4,,,,,,,,,,,,,,,
null,,confidence_buffer,1306464,confidence_buffer,,null,,,,,,,,,,,,,,,,,,
1394,,recognition_phase,1307860,Newport,,52,,,,,,new,1,0.9122807017543859,,,,,,,,,,
null,,confidence_buffer,1307962,confidence_buffer,,null,,,,,,,,,,,,,,,,,,
null,,thebreak,1308464,break,,null,,,,,,,,,,,,,,,,,,
3090.099999964237,,realistic_rating,1311556,Linden Trace,,49,Linden Trace,Fictional,1,,,,,,,,,,,,,,,
null,,confidence_buffer,1311659,confidence_buffer,,null,,,,,,,,,,,,,,,,,,
2986.900000035763,,pt2_unique_rating,1314647,Linden Trace,,52,,,4,,,,,,,,,,,,,,,
null,,confidence_buffer,1314749,confidence_buffer,,null,,,,,,,,,,,,,,,,,,
2029.800000011921,,pt2_memorable_rating,1316780,Linden Trace,,51,,,3,,,,,,,,,,,,,,,
null,,confidence_buffer,1316897,confidence_buffer,,null,,,,,,,,,,,,,,,,,,
1690.3999999761581,,recognition_phase,1318588,Linden Trace,,52,,,,,,new,1,0.9137931034482759,,,,,,,,,,
null,,confidence_buffer,1318691,confidence_buffer,,null,,,,,,,,,,,,,,,,,,
null,,thebreak,1319192,break,,null,,,,,,,,,,,,,,,,,,
3418.600000023842,,realistic_rating,1322611,Westridge,,52,Westridge,Fictional,4,,,,,,,,,,,,,,,
null,,confidence_buffer,1322715,confidence_buffer,,null,,,,,,,,,,,,,,,,,,
2912.899999976158,,pt2_unique_rating,1325629,Westridge,,51,,,3,,,,,,,,,,,,,,,
null,,confidence_buffer,1325729,confidence_buffer,,null,,,,,,,,,,,,,,,,,,
1971.1000000238419,,pt2_memorable_rating,1327701,Westridge,,51,,,3,,,,,,,,,,,,,,,
null,,confidence_buffer,1327803,confidence_buffer,,null,,,,,,,,,,,,,,,,,,
2487.199999988079,,recognition_phase,1330292,Westridge,,52,,,,,,new,0,0.8983050847457628,,,,,,,,,,
null,,confidence_buffer,1330394,confidence_buffer,,null,,,,,,,,,,,,,,,,,,
null,,thebreak,1330896,break,,null,,,,,,,,,,,,,,,,,,
5688.799999952316,,realistic_rating,1336586,Carmel,,51,Carmel,US,3,,,,,,,,,,,,,,,
null,,confidence_buffer,1336688,confidence_buffer,,null,,,,,,,,,,,,,,,,,,
5087.400000035763,,pt2_unique_rating,1341777,Carmel,,51,,,3,,,,,,,,,,,,,,,
null,,confidence_buffer,1341878,confidence_buffer,,null,,,,,,,,,,,,,,,,,,
2686.199999988079,,pt2_memorable_rating,1344566,Carmel,,51,,,3,,,,,,,,,,,,,,,
null,,confidence_buffer,1344670,confidence_buffer,,null,,,,,,,,,,,,,,,,,,
3385.600000023842,,recognition_phase,1348057,Carmel,,51,,,,,,new,0,0.8833333333333333,,,,,,,,,,
null,,confidence_buffer,1348159,confidence_buffer,,null,,,,,,,,,,,,,,,,,,
null,,thebreak,1348660,break,,null,,,,,,,,,,,,,,,,,,
,,survey,1791699,survey-questions,,,,,,,,,,,none,high,I was not doing anything else while doing the task.,None, I only responded to what I could or could not recall.,If it sounds like somewhere I have heard of in the past.,If I think I would easily recall it if asked to do so later.,If it makes me think hmm that's not a name I have heard before,Would anyone realistically name a city this way?,No,It was perfect!
