rt,responses,trial_type,time_elapsed,stimulus,button_pressed,key_press,name_trial,city_type,rating,probe,probe_accuracy,response,correct,accuracy,problems,smooth,distraction,strategies,familiar,memorable,unique,realistic,similar,comments
17331.90000000596,{worker_id:67f03209ccb6f27a49e7903d},id_enter,17342,,,,,,,,,,,,,,,,,,,,,
53519.79999998212,,fullscreen,70885,fullscreen,0,,,,,,,,,,,,,,,,,,,
9403.300000011921,,intro_0,80291,instruct,,32,,,,,,,,,,,,,,,,,,
21225.79999998212,,intro_1,101520,instruct,,32,,,,,,,,,,,,,,,,,,
10123.199999988079,,intro_2,111646,instruct,,32,,,,,,,,,,,,,,,,,,
null,,instruct_dir_4,113149,instruct,,null,,,,,,,,,,,,,,,,,,
null,,thebreak,113652,break,,null,,,,,,,,,,,,,,,,,,
11680.299999982119,,familiar_rating,125335,Assateague Island,,49,Assateague Island,US,1,,,,,,,,,,,,,,,
null,,confidence_buffer,125439,confidence_buffer,,null,,,,,,,,,,,,,,,,,,
10823,,unique_rating,136264,Assateague Island,,52,,,4,,,,,,,,,,,,,,,
null,,confidence_buffer,136377,confidence_buffer,,null,,,,,,,,,,,,,,,,,,
10584.40000000596,,memorable_rating,146964,Assateague Island,,51,,,3,,,,,,,,,,,,,,,
null,,confidence_buffer,147067,confidence_buffer,,null,,,,,,,,,,,,,,,,,,
null,,thebreak,147569,break,,null,,,,,,,,,,,,,,,,,,
4488.0999999940395,,familiar_rating,152059,Sisters,,49,Sisters,US,1,,,,,,,,,,,,,,,
null,,confidence_buffer,152162,confidence_buffer,,null,,,,,,,,,,,,,,,,,,
3925.2999999821186,,unique_rating,156089,Sisters,,53,,,5,,,,,,,,,,,,,,,
null,,confidence_buffer,156192,confidence_buffer,,null,,,,,,,,,,,,,,,,,,
3675.4000000059605,,memorable_rating,159870,Sisters,,53,,,5,,,,,,,,,,,,,,,
null,,confidence_buffer,159972,confidence_buffer,,null,,,,,,,,,,,,,,,,,,
null,,thebreak,160474,break,,null,,,,,,,,,,,,,,,,,,
5425.200000017881,,familiar_rating,165902,Montelake,,50,Montelake,Fictional,2,,,,,,,,,,,,,,,
null,,confidence_buffer,166004,confidence_buffer,,null,,,,,,,,,,,,,,,,,,
5467,,unique_rating,171473,Montelake,,51,,,3,,,,,,,,,,,,,,,
null,,confidence_buffer,171576,confidence_buffer,,null,,,,,,,,,,,,,,,,,,
3445.0999999940395,,memorable_rating,175023,Montelake,,52,,,4,,,,,,,,,,,,,,,
null,,confidence_buffer,175125,confidence_buffer,,null,,,,,,,,,,,,,,,,,,
null,,thebreak,175627,break,,null,,,,,,,,,,,,,,,,,,
4414.200000017881,,familiar_rating,180044,Golden Trace,,49,Golden Trace,Fictional,1,,,,,,,,,,,,,,,
null,,confidence_buffer,180147,confidence_buffer,,null,,,,,,,,,,,,,,,,,,
2972.600000023842,,unique_rating,183121,Golden Trace,,51,,,3,,,,,,,,,,,,,,,
null,,confidence_buffer,183223,confidence_buffer,,null,,,,,,,,,,,,,,,,,,
3856.2000000178814,,memorable_rating,187080,Golden Trace,,53,,,5,,,,,,,,,,,,,,,
null,,confidence_buffer,187184,confidence_buffer,,null,,,,,,,,,,,,,,,,,,
null,,thebreak,187686,break,,null,,,,,,,,,,,,,,,,,,
3669.5999999940395,,familiar_rating,191357,Natchez,,50,Natchez,US,2,,,,,,,,,,,,,,,
null,,confidence_buffer,191460,confidence_buffer,,null,,,,,,,,,,,,,,,,,,
3925.399999976158,,unique_rating,195387,Natchez,,53,,,5,,,,,,,,,,,,,,,
null,,confidence_buffer,195491,confidence_buffer,,null,,,,,,,,,,,,,,,,,,
3708.5,,memorable_rating,199201,Natchez,,52,,,4,,,,,,,,,,,,,,,
null,,confidence_buffer,199305,confidence_buffer,,null,,,,,,,,,,,,,,,,,,
null,,thebreak,199806,break,,null,,,,,,,,,,,,,,,,,,
5015.699999988079,,familiar_rating,204824,Hanover,,51,Hanover,US,3,,,,,,,,,,,,,,,
null,,confidence_buffer,204935,confidence_buffer,,null,,,,,,,,,,,,,,,,,,
3048.0999999940395,,unique_rating,207985,Hanover,,51,,,3,,,,,,,,,,,,,,,
null,,confidence_buffer,208088,confidence_buffer,,null,,,,,,,,,,,,,,,,,,
3431.800000011921,,memorable_rating,211522,Hanover,,52,,,4,,,,,,,,,,,,,,,
null,,confidence_buffer,211625,confidence_buffer,,null,,,,,,,,,,,,,,,,,,
null,,thebreak,212128,break,,null,,,,,,,,,,,,,,,,,,
2415,,familiar_rating,214545,Orr,,49,Orr,US,1,,,,,,,,,,,,,,,
null,,confidence_buffer,214648,confidence_buffer,,null,,,,,,,,,,,,,,,,,,
5433.799999982119,,unique_rating,220084,Orr,,51,,,3,,,,,,,,,,,,,,,
null,,confidence_buffer,220188,confidence_buffer,,null,,,,,,,,,,,,,,,,,,
2369.7000000178814,,memorable_rating,222560,Orr,,52,,,4,,,,,,,,,,,,,,,
null,,confidence_buffer,222661,confidence_buffer,,null,,,,,,,,,,,,,,,,,,
null,,thebreak,223163,break,,null,,,,,,,,,,,,,,,,,,
5615.0999999940395,,familiar_rating,228780,Sierra Hollow,,49,Sierra Hollow,Fictional,1,,,,,,,,,,,,,,,
null,,confidence_buffer,228882,confidence_buffer,,null,,,,,,,,,,,,,,,,,,
2608.5,,unique_rating,231493,Sierra Hollow,,53,,,5,,,,,,,,,,,,,,,
null,,confidence_buffer,231595,confidence_buffer,,null,,,,,,,,,,,,,,,,,,
2358.5,,memorable_rating,233955,Sierra Hollow,,52,,,4,,,,,,,,,,,,,,,
null,,confidence_buffer,234058,confidence_buffer,,null,,,,,,,,,,,,,,,,,,
null,,thebreak,234560,break,,null,,,,,,,,,,,,,,,,,,
7875.5999999940395,,familiar_rating,242437,Juniper Creek,,50,Juniper Creek,Fictional,2,,,,,,,,,,,,,,,
null,,confidence_buffer,242551,confidence_buffer,,null,,,,,,,,,,,,,,,,,,
4193.299999982119,,unique_rating,246746,Juniper Creek,,51,,,3,,,,,,,,,,,,,,,
null,,confidence_buffer,246849,confidence_buffer,,null,,,,,,,,,,,,,,,,,,
3010.9000000059605,,memorable_rating,249861,Juniper Creek,,52,,,4,,,,,,,,,,,,,,,
null,,confidence_buffer,249965,confidence_buffer,,null,,,,,,,,,,,,,,,,,,
null,,thebreak,250467,break,,null,,,,,,,,,,,,,,,,,,
12824,,familiar_rating,263293,Summershade,,50,Summershade,Fictional,2,,,,,,,,,,,,,,,
null,,confidence_buffer,263395,confidence_buffer,,null,,,,,,,,,,,,,,,,,,
10838.09999999404,,unique_rating,274235,Summershade,,51,,,3,,,,,,,,,,,,,,,
null,,confidence_buffer,274345,confidence_buffer,,null,,,,,,,,,,,,,,,,,,
3242.5999999940395,,memorable_rating,277589,Summershade,,52,,,4,,,,,,,,,,,,,,,
null,,confidence_buffer,277691,confidence_buffer,,null,,,,,,,,,,,,,,,,,,
null,,thebreak,278192,break,,null,,,,,,,,,,,,,,,,,,
8375.09999999404,,familiar_rating,286569,Maplehurst,,50,Maplehurst,Fictional,2,,,,,,,,,,,,,,,
null,,confidence_buffer,286672,confidence_buffer,,null,,,,,,,,,,,,,,,,,,
2666.600000023842,,unique_rating,289340,Maplehurst,,52,,,4,,,,,,,,,,,,,,,
null,,confidence_buffer,289442,confidence_buffer,,null,,,,,,,,,,,,,,,,,,
1381,,memorable_rating,290825,Maplehurst,,51,,,3,,,,,,,,,,,,,,,
null,,confidence_buffer,290927,confidence_buffer,,null,,,,,,,,,,,,,,,,,,
null,,thebreak,291430,break,,null,,,,,,,,,,,,,,,,,,
3928.699999988079,,familiar_rating,295360,Sammamish,,49,Sammamish,US,1,,,,,,,,,,,,,,,
null,,confidence_buffer,295463,confidence_buffer,,null,,,,,,,,,,,,,,,,,,
2180.199999988079,,unique_rating,297645,Sammamish,,53,,,5,,,,,,,,,,,,,,,
null,,confidence_buffer,297747,confidence_buffer,,null,,,,,,,,,,,,,,,,,,
2453,,memorable_rating,300202,Sammamish,,52,,,4,,,,,,,,,,,,,,,
null,,confidence_buffer,300306,confidence_buffer,,null,,,,,,,,,,,,,,,,,,
null,,thebreak,300808,break,,null,,,,,,,,,,,,,,,,,,
25762,,familiar_rating,326571,Peoria,,49,Peoria,US,1,,,,,,,,,,,,,,,
null,,confidence_buffer,326674,confidence_buffer,,null,,,,,,,,,,,,,,,,,,
8373.100000023842,,probe_rating,335049,probe_rating,,51,,,,3,1,,,,,,,,,,,,,
null,,confidence_buffer,335153,confidence_buffer,,null,,,,,,,,,,,,,,,,,,
3162.0999999940395,,unique_rating,338316,Peoria,,52,,,4,,,,,,,,,,,,,,,
null,,confidence_buffer,338418,confidence_buffer,,null,,,,,,,,,,,,,,,,,,
2382.4000000059605,,memorable_rating,340802,Peoria,,50,,,2,,,,,,,,,,,,,,,
null,,confidence_buffer,340905,confidence_buffer,,null,,,,,,,,,,,,,,,,,,
null,,thebreak,341406,break,,null,,,,,,,,,,,,,,,,,,
4381.4000000059605,,familiar_rating,345790,Newport,,51,Newport,US,3,,,,,,,,,,,,,,,
null,,confidence_buffer,345893,confidence_buffer,,null,,,,,,,,,,,,,,,,,,
3469.5999999940395,,probe_rating,349364,probe_rating,,49,,,,1,1,,,,,,,,,,,,,
null,,confidence_buffer,349480,confidence_buffer,,null,,,,,,,,,,,,,,,,,,
3546.0999999940395,,unique_rating,353028,Newport,,51,,,3,,,,,,,,,,,,,,,
null,,confidence_buffer,353130,confidence_buffer,,null,,,,,,,,,,,,,,,,,,
3552.4000000059605,,memorable_rating,356684,Newport,,53,,,5,,,,,,,,,,,,,,,
null,,confidence_buffer,356798,confidence_buffer,,null,,,,,,,,,,,,,,,,,,
null,,thebreak,357301,break,,null,,,,,,,,,,,,,,,,,,
5972.100000023842,,familiar_rating,363274,Falconridge,,51,Falconridge,Fictional,3,,,,,,,,,,,,,,,
null,,confidence_buffer,363377,confidence_buffer,,null,,,,,,,,,,,,,,,,,,
4501.700000017881,,unique_rating,367881,Falconridge,,52,,,4,,,,,,,,,,,,,,,
null,,confidence_buffer,367984,confidence_buffer,,null,,,,,,,,,,,,,,,,,,
3342.0999999940395,,memorable_rating,371327,Falconridge,,53,,,5,,,,,,,,,,,,,,,
null,,confidence_buffer,371431,confidence_buffer,,null,,,,,,,,,,,,,,,,,,
4878,,probe_rating,376311,probe_rating,,52,,,,4,1,,,,,,,,,,,,,
null,,confidence_buffer,376413,confidence_buffer,,null,,,,,,,,,,,,,,,,,,
null,,thebreak,376926,break,,null,,,,,,,,,,,,,,,,,,
5515.899999976158,,familiar_rating,382444,Medora,,51,Medora,US,3,,,,,,,,,,,,,,,
null,,confidence_buffer,382546,confidence_buffer,,null,,,,,,,,,,,,,,,,,,
3576.199999988079,,unique_rating,386124,Medora,,52,,,4,,,,,,,,,,,,,,,
null,,confidence_buffer,386227,confidence_buffer,,null,,,,,,,,,,,,,,,,,,
3521.5999999940395,,memorable_rating,389750,Medora,,53,,,5,,,,,,,,,,,,,,,
null,,confidence_buffer,389853,confidence_buffer,,null,,,,,,,,,,,,,,,,,,
null,,thebreak,390355,break,,null,,,,,,,,,,,,,,,,,,
10021.299999982119,,familiar_rating,400378,Gatlinburg,,52,Gatlinburg,US,4,,,,,,,,,,,,,,,
null,,confidence_buffer,400482,confidence_buffer,,null,,,,,,,,,,,,,,,,,,
2789.7000000178814,,unique_rating,403273,Gatlinburg,,51,,,3,,,,,,,,,,,,,,,
null,,confidence_buffer,403376,confidence_buffer,,null,,,,,,,,,,,,,,,,,,
4093.899999976158,,memorable_rating,407472,Gatlinburg,,51,,,3,,,,,,,,,,,,,,,
null,,confidence_buffer,407574,confidence_buffer,,null,,,,,,,,,,,,,,,,,,
null,,thebreak,408076,break,,null,,,,,,,,,,,,,,,,,,
5656.199999988079,,familiar_rating,413734,Highvale,,50,Highvale,Fictional,2,,,,,,,,,,,,,,,
null,,confidence_buffer,413837,confidence_buffer,,null,,,,,,,,,,,,,,,,,,
35506.79999998212,,unique_rating,449346,Highvale,,53,,,5,,,,,,,,,,,,,,,
null,,confidence_buffer,449449,confidence_buffer,,null,,,,,,,,,,,,,,,,,,
2266.9000000059605,,memorable_rating,451717,Highvale,,50,,,2,,,,,,,,,,,,,,,
null,,confidence_buffer,451821,confidence_buffer,,null,,,,,,,,,,,,,,,,,,
null,,thebreak,452323,break,,null,,,,,,,,,,,,,,,,,,
2966.699999988079,,familiar_rating,455291,Cornwall,,51,Cornwall,US,3,,,,,,,,,,,,,,,
null,,confidence_buffer,455393,confidence_buffer,,null,,,,,,,,,,,,,,,,,,
2360.5,,unique_rating,457756,Cornwall,,52,,,4,,,,,,,,,,,,,,,
null,,confidence_buffer,457859,confidence_buffer,,null,,,,,,,,,,,,,,,,,,
2425.899999976158,,memorable_rating,460286,Cornwall,,52,,,4,,,,,,,,,,,,,,,
null,,confidence_buffer,460389,confidence_buffer,,null,,,,,,,,,,,,,,,,,,
null,,thebreak,460892,break,,null,,,,,,,,,,,,,,,,,,
2793.7000000178814,,familiar_rating,463687,Tamarisk Hills,,49,Tamarisk Hills,Fictional,1,,,,,,,,,,,,,,,
null,,confidence_buffer,463790,confidence_buffer,,null,,,,,,,,,,,,,,,,,,
2558.4000000059605,,unique_rating,466350,Tamarisk Hills,,52,,,4,,,,,,,,,,,,,,,
null,,confidence_buffer,466452,confidence_buffer,,null,,,,,,,,,,,,,,,,,,
6360.5,,memorable_rating,472814,Tamarisk Hills,,51,,,3,,,,,,,,,,,,,,,
null,,confidence_buffer,472917,confidence_buffer,,null,,,,,,,,,,,,,,,,,,
null,,thebreak,473419,break,,null,,,,,,,,,,,,,,,,,,
4745.4000000059605,,familiar_rating,478166,Rosehollow,,52,Rosehollow,Fictional,4,,,,,,,,,,,,,,,
null,,confidence_buffer,478268,confidence_buffer,,null,,,,,,,,,,,,,,,,,,
3461.5,,unique_rating,481732,Rosehollow,,53,,,5,,,,,,,,,,,,,,,
null,,confidence_buffer,481834,confidence_buffer,,null,,,,,,,,,,,,,,,,,,
35635.70000001788,,memorable_rating,517471,Rosehollow,,52,,,4,,,,,,,,,,,,,,,
null,,confidence_buffer,517573,confidence_buffer,,null,,,,,,,,,,,,,,,,,,
null,,thebreak,518074,break,,null,,,,,,,,,,,,,,,,,,
6208.199999988079,,familiar_rating,524285,Maravilla Springs,,50,Maravilla Springs,Fictional,2,,,,,,,,,,,,,,,
null,,confidence_buffer,524388,confidence_buffer,,null,,,,,,,,,,,,,,,,,,
2601.2000000178814,,unique_rating,526991,Maravilla Springs,,51,,,3,,,,,,,,,,,,,,,
null,,confidence_buffer,527093,confidence_buffer,,null,,,,,,,,,,,,,,,,,,
3719.800000011921,,memorable_rating,530815,Maravilla Springs,,53,,,5,,,,,,,,,,,,,,,
null,,confidence_buffer,530917,confidence_buffer,,null,,,,,,,,,,,,,,,,,,
null,,thebreak,531419,break,,null,,,,,,,,,,,,,,,,,,
34548.30000001192,,familiar_rating,565969,Pine Hollow,,49,Pine Hollow,Fictional,1,,,,,,,,,,,,,,,
null,,confidence_buffer,566072,confidence_buffer,,null,,,,,,,,,,,,,,,,,,
6210,,unique_rating,572284,Pine Hollow,,51,,,3,,,,,,,,,,,,,,,
null,,confidence_buffer,572385,confidence_buffer,,null,,,,,,,,,,,,,,,,,,
2302.0999999940395,,memorable_rating,574689,Pine Hollow,,53,,,5,,,,,,,,,,,,,,,
null,,confidence_buffer,574792,confidence_buffer,,null,,,,,,,,,,,,,,,,,,
null,,thebreak,575294,break,,null,,,,,,,,,,,,,,,,,,
3114.9000000059605,,familiar_rating,578411,Hilo,,51,Hilo,US,3,,,,,,,,,,,,,,,
null,,confidence_buffer,578513,confidence_buffer,,null,,,,,,,,,,,,,,,,,,
3590.5999999940395,,unique_rating,582106,Hilo,,50,,,2,,,,,,,,,,,,,,,
null,,confidence_buffer,582209,confidence_buffer,,null,,,,,,,,,,,,,,,,,,
2297.100000023842,,memorable_rating,584508,Hilo,,53,,,5,,,,,,,,,,,,,,,
null,,confidence_buffer,584610,confidence_buffer,,null,,,,,,,,,,,,,,,,,,
2950.0999999940395,,probe_rating,587562,probe_rating,,50,,,,2,1,,,,,,,,,,,,,
null,,confidence_buffer,587666,confidence_buffer,,null,,,,,,,,,,,,,,,,,,
null,,thebreak,588168,break,,null,,,,,,,,,,,,,,,,,,
11002.40000000596,,familiar_rating,599171,Bowling Green,,52,Bowling Green,US,4,,,,,,,,,,,,,,,
null,,confidence_buffer,599273,confidence_buffer,,null,,,,,,,,,,,,,,,,,,
2844.899999976158,,unique_rating,602119,Bowling Green,,50,,,2,,,,,,,,,,,,,,,
null,,confidence_buffer,602222,confidence_buffer,,null,,,,,,,,,,,,,,,,,,
2809.5999999940395,,memorable_rating,605033,Bowling Green,,52,,,4,,,,,,,,,,,,,,,
null,,confidence_buffer,605137,confidence_buffer,,null,,,,,,,,,,,,,,,,,,
null,,thebreak,605639,break,,null,,,,,,,,,,,,,,,,,,
40126.40000000596,,familiar_rating,645767,Cedarwyn,,51,Cedarwyn,Fictional,3,,,,,,,,,,,,,,,
null,,confidence_buffer,645870,confidence_buffer,,null,,,,,,,,,,,,,,,,,,
2353.9000000059605,,unique_rating,648226,Cedarwyn,,50,,,2,,,,,,,,,,,,,,,
null,,confidence_buffer,648328,confidence_buffer,,null,,,,,,,,,,,,,,,,,,
2239.2999999821186,,memorable_rating,650569,Cedarwyn,,49,,,1,,,,,,,,,,,,,,,
null,,confidence_buffer,650672,confidence_buffer,,null,,,,,,,,,,,,,,,,,,
null,,thebreak,651174,break,,null,,,,,,,,,,,,,,,,,,
2299.4000000059605,,familiar_rating,653475,Cody,,52,Cody,US,4,,,,,,,,,,,,,,,
null,,confidence_buffer,653584,confidence_buffer,,null,,,,,,,,,,,,,,,,,,
2849.7999999821186,,unique_rating,656436,Cody,,50,,,2,,,,,,,,,,,,,,,
null,,confidence_buffer,656538,confidence_buffer,,null,,,,,,,,,,,,,,,,,,
2126.7999999821186,,memorable_rating,658667,Cody,,53,,,5,,,,,,,,,,,,,,,
null,,confidence_buffer,658770,confidence_buffer,,null,,,,,,,,,,,,,,,,,,
null,,thebreak,659272,break,,null,,,,,,,,,,,,,,,,,,
2853.199999988079,,familiar_rating,662127,Sunmere,,51,Sunmere,Fictional,3,,,,,,,,,,,,,,,
null,,confidence_buffer,662231,confidence_buffer,,null,,,,,,,,,,,,,,,,,,
2448.5,,unique_rating,664682,Sunmere,,53,,,5,,,,,,,,,,,,,,,
null,,confidence_buffer,664783,confidence_buffer,,null,,,,,,,,,,,,,,,,,,
1907.300000011921,,memorable_rating,666692,Sunmere,,52,,,4,,,,,,,,,,,,,,,
null,,confidence_buffer,666796,confidence_buffer,,null,,,,,,,,,,,,,,,,,,
null,,thebreak,667298,break,,null,,,,,,,,,,,,,,,,,,
4103.299999982119,,familiar_rating,671403,Millstone,,52,Millstone,Fictional,4,,,,,,,,,,,,,,,
null,,confidence_buffer,671506,confidence_buffer,,null,,,,,,,,,,,,,,,,,,
2752,,unique_rating,674260,Millstone,,51,,,3,,,,,,,,,,,,,,,
null,,confidence_buffer,674363,confidence_buffer,,null,,,,,,,,,,,,,,,,,,
2649.2000000178814,,memorable_rating,677014,Millstone,,50,,,2,,,,,,,,,,,,,,,
null,,confidence_buffer,677116,confidence_buffer,,null,,,,,,,,,,,,,,,,,,
null,,thebreak,677618,break,,null,,,,,,,,,,,,,,,,,,
3800,,familiar_rating,681421,Park City,,53,Park City,US,5,,,,,,,,,,,,,,,
null,,confidence_buffer,681523,confidence_buffer,,null,,,,,,,,,,,,,,,,,,
48614.09999999404,,unique_rating,730139,Park City,,53,,,5,,,,,,,,,,,,,,,
null,,confidence_buffer,730242,confidence_buffer,,null,,,,,,,,,,,,,,,,,,
3840.2000000178814,,memorable_rating,734084,Park City,,53,,,5,,,,,,,,,,,,,,,
null,,confidence_buffer,734187,confidence_buffer,,null,,,,,,,,,,,,,,,,,,
null,,thebreak,734690,break,,null,,,,,,,,,,,,,,,,,,
7854.199999988079,,intro_0,742546,instruct,,32,,,,,,,,,,,,,,,,,,
14223.300000011921,,intro_1,756770,instruct,,32,,,,,,,,,,,,,,,,,,
206211.40000000596,,intro_2,962984,instruct,,32,,,,,,,,,,,,,,,,,,
null,,instruct_dir_4,964486,instruct,,null,,,,,,,,,,,,,,,,,,
16194.700000017881,,realistic_rating,980683,Juniper Creek,,51,Juniper Creek,Fictional,3,,,,,,,,,,,,,,,
null,,confidence_buffer,980786,confidence_buffer,,null,,,,,,,,,,,,,,,,,,
4512.9000000059605,,pt2_unique_rating,985300,Juniper Creek,,53,,,5,,,,,,,,,,,,,,,
null,,confidence_buffer,985403,confidence_buffer,,null,,,,,,,,,,,,,,,,,,
3493.5,,pt2_memorable_rating,988898,Juniper Creek,,52,,,4,,,,,,,,,,,,,,,
null,,confidence_buffer,989002,confidence_buffer,,null,,,,,,,,,,,,,,,,,,
4409.9000000059605,,recognition_phase,993414,Juniper Creek,,49,,,,,,old,1,1,,,,,,,,,,
null,,confidence_buffer,993524,confidence_buffer,,null,,,,,,,,,,,,,,,,,,
null,,thebreak,994026,break,,null,,,,,,,,,,,,,,,,,,
65603.80000001192,,realistic_rating,1059632,Brookmere,,52,Brookmere,Fictional,4,,,,,,,,,,,,,,,
null,,confidence_buffer,1059735,confidence_buffer,,null,,,,,,,,,,,,,,,,,,
2640.9000000059605,,pt2_unique_rating,1062377,Brookmere,,50,,,2,,,,,,,,,,,,,,,
null,,confidence_buffer,1062478,confidence_buffer,,null,,,,,,,,,,,,,,,,,,
3183.4000000059605,,pt2_memorable_rating,1065663,Brookmere,,53,,,5,,,,,,,,,,,,,,,
null,,confidence_buffer,1065766,confidence_buffer,,null,,,,,,,,,,,,,,,,,,
4326.5999999940395,,recognition_phase,1070094,Brookmere,,50,,,,,,old,0,0.5,,,,,,,,,,
null,,confidence_buffer,1070197,confidence_buffer,,null,,,,,,,,,,,,,,,,,,
null,,thebreak,1070699,break,,null,,,,,,,,,,,,,,,,,,
3505.0999999940395,,realistic_rating,1074206,Delaro Park,,52,Delaro Park,Fictional,4,,,,,,,,,,,,,,,
null,,confidence_buffer,1074309,confidence_buffer,,null,,,,,,,,,,,,,,,,,,
1853.5999999940395,,pt2_unique_rating,1076165,Delaro Park,,50,,,2,,,,,,,,,,,,,,,
null,,confidence_buffer,1076275,confidence_buffer,,null,,,,,,,,,,,,,,,,,,
1969.699999988079,,pt2_memorable_rating,1078246,Delaro Park,,53,,,5,,,,,,,,,,,,,,,
null,,confidence_buffer,1078349,confidence_buffer,,null,,,,,,,,,,,,,,,,,,
1731.800000011921,,recognition_phase,1080083,Delaro Park,,49,,,,,,old,0,0.3333333333333333,,,,,,,,,,
null,,confidence_buffer,1080186,confidence_buffer,,null,,,,,,,,,,,,,,,,,,
null,,thebreak,1080688,break,,null,,,,,,,,,,,,,,,,,,
6092.199999988079,,realistic_rating,1086782,Medora,,51,Medora,US,3,,,,,,,,,,,,,,,
null,,confidence_buffer,1086884,confidence_buffer,,null,,,,,,,,,,,,,,,,,,
2822.5999999940395,,pt2_unique_rating,1089709,Medora,,50,,,2,,,,,,,,,,,,,,,
null,,confidence_buffer,1089811,confidence_buffer,,null,,,,,,,,,,,,,,,,,,
4438,,pt2_memorable_rating,1094251,Medora,,53,,,5,,,,,,,,,,,,,,,
null,,confidence_buffer,1094353,confidence_buffer,,null,,,,,,,,,,,,,,,,,,
1705.9000000059605,,recognition_phase,1096061,Medora,,49,,,,,,old,1,0.5,,,,,,,,,,
null,,confidence_buffer,1096164,confidence_buffer,,null,,,,,,,,,,,,,,,,,,
null,,thebreak,1096666,break,,null,,,,,,,,,,,,,,,,,,
6534.9000000059605,,realistic_rating,1103203,Golden Trace,,49,Golden Trace,Fictional,1,,,,,,,,,,,,,,,
null,,confidence_buffer,1103305,confidence_buffer,,null,,,,,,,,,,,,,,,,,,
2571.7000000178814,,pt2_unique_rating,1105879,Golden Trace,,50,,,2,,,,,,,,,,,,,,,
null,,confidence_buffer,1105981,confidence_buffer,,null,,,,,,,,,,,,,,,,,,
4801.199999988079,,pt2_memorable_rating,1110784,Golden Trace,,50,,,2,,,,,,,,,,,,,,,
null,,confidence_buffer,1110887,confidence_buffer,,null,,,,,,,,,,,,,,,,,,
2078.2999999821186,,recognition_phase,1112967,Golden Trace,,49,,,,,,old,1,0.6,,,,,,,,,,
null,,confidence_buffer,1113069,confidence_buffer,,null,,,,,,,,,,,,,,,,,,
null,,thebreak,1113572,break,,null,,,,,,,,,,,,,,,,,,
3375,,realistic_rating,1116949,Cedarwyn,,51,Cedarwyn,Fictional,3,,,,,,,,,,,,,,,
null,,confidence_buffer,1117051,confidence_buffer,,null,,,,,,,,,,,,,,,,,,
3169.2999999821186,,pt2_unique_rating,1120222,Cedarwyn,,52,,,4,,,,,,,,,,,,,,,
null,,confidence_buffer,1120325,confidence_buffer,,null,,,,,,,,,,,,,,,,,,
1826,,pt2_memorable_rating,1122152,Cedarwyn,,50,,,2,,,,,,,,,,,,,,,
null,,confidence_buffer,1122255,confidence_buffer,,null,,,,,,,,,,,,,,,,,,
1737.6000000238419,,recognition_phase,1123994,Cedarwyn,,49,,,,,,old,1,0.6666666666666666,,,,,,,,,,
null,,confidence_buffer,1124097,confidence_buffer,,null,,,,,,,,,,,,,,,,,,
null,,thebreak,1124599,break,,null,,,,,,,,,,,,,,,,,,
1984.4000000059605,,realistic_rating,1126586,Cornwall,,51,Cornwall,US,3,,,,,,,,,,,,,,,
null,,confidence_buffer,1126689,confidence_buffer,,null,,,,,,,,,,,,,,,,,,
2180.4000000059605,,pt2_unique_rating,1128871,Cornwall,,52,,,4,,,,,,,,,,,,,,,
null,,confidence_buffer,1128974,confidence_buffer,,null,,,,,,,,,,,,,,,,,,
3536.0999999940395,,pt2_memorable_rating,1132512,Cornwall,,53,,,5,,,,,,,,,,,,,,,
null,,confidence_buffer,1132615,confidence_buffer,,null,,,,,,,,,,,,,,,,,,
1962.5,,recognition_phase,1134580,Cornwall,,50,,,,,,old,1,0.7142857142857143,,,,,,,,,,
null,,confidence_buffer,1134682,confidence_buffer,,null,,,,,,,,,,,,,,,,,,
null,,thebreak,1135185,break,,null,,,,,,,,,,,,,,,,,,
7035.0999999940395,,realistic_rating,1142221,Redgrove,,53,Redgrove,Fictional,5,,,,,,,,,,,,,,,
null,,confidence_buffer,1142325,confidence_buffer,,null,,,,,,,,,,,,,,,,,,
2635.199999988079,,pt2_unique_rating,1144962,Redgrove,,52,,,4,,,,,,,,,,,,,,,
null,,confidence_buffer,1145064,confidence_buffer,,null,,,,,,,,,,,,,,,,,,
7517.699999988079,,pt2_memorable_rating,1152584,Redgrove,,51,,,3,,,,,,,,,,,,,,,
null,,confidence_buffer,1152686,confidence_buffer,,null,,,,,,,,,,,,,,,,,,
9200.699999988079,,recognition_phase,1161889,Redgrove,,52,,,,,,new,1,0.75,,,,,,,,,,
null,,confidence_buffer,1161992,confidence_buffer,,null,,,,,,,,,,,,,,,,,,
null,,thebreak,1162495,break,,null,,,,,,,,,,,,,,,,,,
3323.7999999821186,,realistic_rating,1165820,Huntsville,,49,Huntsville,US,1,,,,,,,,,,,,,,,
null,,confidence_buffer,1165923,confidence_buffer,,null,,,,,,,,,,,,,,,,,,
1836.7000000178814,,pt2_unique_rating,1167762,Huntsville,,51,,,3,,,,,,,,,,,,,,,
null,,confidence_buffer,1167865,confidence_buffer,,null,,,,,,,,,,,,,,,,,,
2010.5999999940395,,pt2_memorable_rating,1169877,Huntsville,,50,,,2,,,,,,,,,,,,,,,
null,,confidence_buffer,1169980,confidence_buffer,,null,,,,,,,,,,,,,,,,,,
4797.699999988079,,recognition_phase,1174779,Huntsville,,52,,,,,,new,1,0.7777777777777778,,,,,,,,,,
null,,confidence_buffer,1174882,confidence_buffer,,null,,,,,,,,,,,,,,,,,,
null,,thebreak,1175384,break,,null,,,,,,,,,,,,,,,,,,
7130.299999982119,,realistic_rating,1182516,Solara Glen,,50,Solara Glen,Fictional,2,,,,,,,,,,,,,,,
null,,confidence_buffer,1182619,confidence_buffer,,null,,,,,,,,,,,,,,,,,,
3719.0999999940395,,pt2_unique_rating,1186340,Solara Glen,,52,,,4,,,,,,,,,,,,,,,
null,,confidence_buffer,1186442,confidence_buffer,,null,,,,,,,,,,,,,,,,,,
4791.199999988079,,probe_rating,1191235,probe_rating,,52,,,,4,1,,,,,,,,,,,,,
null,,confidence_buffer,1191339,confidence_buffer,,null,,,,,,,,,,,,,,,,,,
2090.4000000059605,,pt2_memorable_rating,1193431,Solara Glen,,50,,,2,,,,,,,,,,,,,,,
null,,confidence_buffer,1193534,confidence_buffer,,null,,,,,,,,,,,,,,,,,,
4847,,recognition_phase,1198383,Solara Glen,,52,,,,,,new,1,0.8,,,,,,,,,,
null,,confidence_buffer,1198486,confidence_buffer,,null,,,,,,,,,,,,,,,,,,
null,,thebreak,1198989,break,,null,,,,,,,,,,,,,,,,,,
3042,,realistic_rating,1202033,Cody,,49,Cody,US,1,,,,,,,,,,,,,,,
null,,confidence_buffer,1202136,confidence_buffer,,null,,,,,,,,,,,,,,,,,,
10856.699999988079,,pt2_unique_rating,1212994,Cody,,50,,,2,,,,,,,,,,,,,,,
null,,confidence_buffer,1213110,confidence_buffer,,null,,,,,,,,,,,,,,,,,,
3930.800000011921,,pt2_memorable_rating,1217043,Cody,,51,,,3,,,,,,,,,,,,,,,
null,,confidence_buffer,1217146,confidence_buffer,,null,,,,,,,,,,,,,,,,,,
7863.5999999940395,,recognition_phase,1225011,Cody,,52,,,,,,new,0,0.7272727272727273,,,,,,,,,,
null,,confidence_buffer,1225114,confidence_buffer,,null,,,,,,,,,,,,,,,,,,
null,,thebreak,1225617,break,,null,,,,,,,,,,,,,,,,,,
3834.4000000059605,,realistic_rating,1229454,Bar Harbor,,50,Bar Harbor,US,2,,,,,,,,,,,,,,,
null,,confidence_buffer,1229556,confidence_buffer,,null,,,,,,,,,,,,,,,,,,
1744.3999999761581,,pt2_unique_rating,1231302,Bar Harbor,,49,,,1,,,,,,,,,,,,,,,
null,,confidence_buffer,1231405,confidence_buffer,,null,,,,,,,,,,,,,,,,,,
1848.5,,pt2_memorable_rating,1233256,Bar Harbor,,51,,,3,,,,,,,,,,,,,,,
null,,confidence_buffer,1233358,confidence_buffer,,null,,,,,,,,,,,,,,,,,,
3411,,recognition_phase,1236771,Bar Harbor,,52,,,,,,new,1,0.75,,,,,,,,,,
null,,confidence_buffer,1236874,confidence_buffer,,null,,,,,,,,,,,,,,,,,,
null,,thebreak,1237376,break,,null,,,,,,,,,,,,,,,,,,
2816.9000000059605,,realistic_rating,1240194,Northbridge,,49,Northbridge,Fictional,1,,,,,,,,,,,,,,,
null,,confidence_buffer,1240307,confidence_buffer,,null,,,,,,,,,,,,,,,,,,
2127.5,,pt2_unique_rating,1242436,Northbridge,,51,,,3,,,,,,,,,,,,,,,
null,,confidence_buffer,1242539,confidence_buffer,,null,,,,,,,,,,,,,,,,,,
4277.899999976158,,pt2_memorable_rating,1246819,Northbridge,,50,,,2,,,,,,,,,,,,,,,
null,,confidence_buffer,1246922,confidence_buffer,,null,,,,,,,,,,,,,,,,,,
5879.5999999940395,,recognition_phase,1252803,Northbridge,,51,,,,,,new,1,0.7692307692307693,,,,,,,,,,
null,,confidence_buffer,1252906,confidence_buffer,,null,,,,,,,,,,,,,,,,,,
null,,thebreak,1253408,break,,null,,,,,,,,,,,,,,,,,,
1891.199999988079,,realistic_rating,1255301,Gatlinburg,,50,Gatlinburg,US,2,,,,,,,,,,,,,,,
null,,confidence_buffer,1255404,confidence_buffer,,null,,,,,,,,,,,,,,,,,,
1946.2999999821186,,probe_rating,1257353,probe_rating,,50,,,,2,1,,,,,,,,,,,,,
null,,confidence_buffer,1257456,confidence_buffer,,null,,,,,,,,,,,,,,,,,,
2676.600000023842,,pt2_unique_rating,1260134,Gatlinburg,,53,,,5,,,,,,,,,,,,,,,
null,,confidence_buffer,1260252,confidence_buffer,,null,,,,,,,,,,,,,,,,,,
1768.7000000178814,,pt2_memorable_rating,1262022,Gatlinburg,,51,,,3,,,,,,,,,,,,,,,
null,,confidence_buffer,1262125,confidence_buffer,,null,,,,,,,,,,,,,,,,,,
2956.7999999821186,,recognition_phase,1265084,Gatlinburg,,52,,,,,,new,0,0.7142857142857143,,,,,,,,,,
null,,confidence_buffer,1265187,confidence_buffer,,null,,,,,,,,,,,,,,,,,,
null,,thebreak,1265688,break,,null,,,,,,,,,,,,,,,,,,
3267.7999999821186,,realistic_rating,1268958,Newport,,49,Newport,US,1,,,,,,,,,,,,,,,
null,,confidence_buffer,1269062,confidence_buffer,,null,,,,,,,,,,,,,,,,,,
2165.5,,pt2_unique_rating,1271229,Newport,,51,,,3,,,,,,,,,,,,,,,
null,,confidence_buffer,1271332,confidence_buffer,,null,,,,,,,,,,,,,,,,,,
1448.800000011921,,pt2_memorable_rating,1272783,Newport,,50,,,2,,,,,,,,,,,,,,,
null,,confidence_buffer,1272886,confidence_buffer,,null,,,,,,,,,,,,,,,,,,
2827.699999988079,,recognition_phase,1275715,Newport,,52,,,,,,new,0,0.6666666666666666,,,,,,,,,,
null,,confidence_buffer,1275818,confidence_buffer,,null,,,,,,,,,,,,,,,,,,
null,,thebreak,1276320,break,,null,,,,,,,,,,,,,,,,,,
4671.9000000059605,,realistic_rating,1280995,Coralridge,,52,Coralridge,Fictional,4,,,,,,,,,,,,,,,
null,,confidence_buffer,1281099,confidence_buffer,,null,,,,,,,,,,,,,,,,,,
3509.2000000178814,,pt2_unique_rating,1284610,Coralridge,,50,,,2,,,,,,,,,,,,,,,
null,,confidence_buffer,1284712,confidence_buffer,,null,,,,,,,,,,,,,,,,,,
5301.9000000059605,,pt2_memorable_rating,1290016,Coralridge,,53,,,5,,,,,,,,,,,,,,,
null,,confidence_buffer,1290119,confidence_buffer,,null,,,,,,,,,,,,,,,,,,
3208.300000011921,,recognition_phase,1293329,Coralridge,,52,,,,,,new,1,0.6875,,,,,,,,,,
null,,confidence_buffer,1293432,confidence_buffer,,null,,,,,,,,,,,,,,,,,,
null,,thebreak,1293934,break,,null,,,,,,,,,,,,,,,,,,
3226.300000011921,,realistic_rating,1297162,Athens,,51,Athens,US,3,,,,,,,,,,,,,,,
null,,confidence_buffer,1297266,confidence_buffer,,null,,,,,,,,,,,,,,,,,,
1353.7999999821186,,pt2_unique_rating,1298621,Athens,,49,,,1,,,,,,,,,,,,,,,
null,,confidence_buffer,1298724,confidence_buffer,,null,,,,,,,,,,,,,,,,,,
1842.5,,pt2_memorable_rating,1300569,Athens,,50,,,2,,,,,,,,,,,,,,,
null,,confidence_buffer,1300672,confidence_buffer,,null,,,,,,,,,,,,,,,,,,
2588.5,,recognition_phase,1303262,Athens,,51,,,,,,new,1,0.7058823529411765,,,,,,,,,,
null,,confidence_buffer,1303366,confidence_buffer,,null,,,,,,,,,,,,,,,,,,
null,,thebreak,1303868,break,,null,,,,,,,,,,,,,,,,,,
12687.90000000596,,realistic_rating,1316557,Assateague Island,,51,Assateague Island,US,3,,,,,,,,,,,,,,,
null,,confidence_buffer,1316661,confidence_buffer,,null,,,,,,,,,,,,,,,,,,
3368.2999999821186,,pt2_unique_rating,1320031,Assateague Island,,52,,,4,,,,,,,,,,,,,,,
null,,confidence_buffer,1320133,confidence_buffer,,null,,,,,,,,,,,,,,,,,,
4319.9000000059605,,pt2_memorable_rating,1324455,Assateague Island,,53,,,5,,,,,,,,,,,,,,,
null,,confidence_buffer,1324558,confidence_buffer,,null,,,,,,,,,,,,,,,,,,
1904.4000000059605,,recognition_phase,1326464,Assateague Island,,49,,,,,,old,1,0.7222222222222222,,,,,,,,,,
null,,confidence_buffer,1326567,confidence_buffer,,null,,,,,,,,,,,,,,,,,,
null,,thebreak,1327070,break,,null,,,,,,,,,,,,,,,,,,
2082.4000000059605,,realistic_rating,1329154,Meadowspire,,50,Meadowspire,Fictional,2,,,,,,,,,,,,,,,
null,,confidence_buffer,1329258,confidence_buffer,,null,,,,,,,,,,,,,,,,,,
3409.699999988079,,pt2_unique_rating,1332669,Meadowspire,,51,,,3,,,,,,,,,,,,,,,
null,,confidence_buffer,1332771,confidence_buffer,,null,,,,,,,,,,,,,,,,,,
2643.600000023842,,pt2_memorable_rating,1335416,Meadowspire,,50,,,2,,,,,,,,,,,,,,,
null,,confidence_buffer,1335520,confidence_buffer,,null,,,,,,,,,,,,,,,,,,
1832.7000000178814,,recognition_phase,1337354,Meadowspire,,50,,,,,,old,0,0.6842105263157895,,,,,,,,,,
null,,confidence_buffer,1337457,confidence_buffer,,null,,,,,,,,,,,,,,,,,,
null,,thebreak,1337960,break,,null,,,,,,,,,,,,,,,,,,
2583.699999988079,,realistic_rating,1340545,Shreveport,,49,Shreveport,US,1,,,,,,,,,,,,,,,
null,,confidence_buffer,1340662,confidence_buffer,,null,,,,,,,,,,,,,,,,,,
2711.7999999821186,,pt2_unique_rating,1343376,Shreveport,,52,,,4,,,,,,,,,,,,,,,
null,,confidence_buffer,1343479,confidence_buffer,,null,,,,,,,,,,,,,,,,,,
4365.5999999940395,,pt2_memorable_rating,1347847,Shreveport,,50,,,2,,,,,,,,,,,,,,,
null,,confidence_buffer,1347949,confidence_buffer,,null,,,,,,,,,,,,,,,,,,
4036.5,,recognition_phase,1351988,Shreveport,,52,,,,,,new,1,0.7,,,,,,,,,,
null,,confidence_buffer,1352092,confidence_buffer,,null,,,,,,,,,,,,,,,,,,
null,,thebreak,1352597,break,,null,,,,,,,,,,,,,,,,,,
4047.7000000178814,,realistic_rating,1356647,Lakehaven,,50,Lakehaven,Fictional,2,,,,,,,,,,,,,,,
null,,confidence_buffer,1356750,confidence_buffer,,null,,,,,,,,,,,,,,,,,,
9075.200000017881,,pt2_unique_rating,1365827,Lakehaven,,51,,,3,,,,,,,,,,,,,,,
null,,confidence_buffer,1365930,confidence_buffer,,null,,,,,,,,,,,,,,,,,,
1723.7000000178814,,pt2_memorable_rating,1367655,Lakehaven,,50,,,2,,,,,,,,,,,,,,,
null,,confidence_buffer,1367757,confidence_buffer,,null,,,,,,,,,,,,,,,,,,
2935.2000000178814,,recognition_phase,1370695,Lakehaven,,52,,,,,,new,1,0.7142857142857143,,,,,,,,,,
null,,confidence_buffer,1370797,confidence_buffer,,null,,,,,,,,,,,,,,,,,,
null,,thebreak,1371299,break,,null,,,,,,,,,,,,,,,,,,
5228.399999976158,,realistic_rating,1376529,Highvale,,49,Highvale,Fictional,1,,,,,,,,,,,,,,,
null,,confidence_buffer,1376633,confidence_buffer,,null,,,,,,,,,,,,,,,,,,
2199.800000011921,,probe_rating,1378834,probe_rating,,51,,,,3,1,,,,,,,,,,,,,
null,,confidence_buffer,1378938,confidence_buffer,,null,,,,,,,,,,,,,,,,,,
3524.5,,pt2_unique_rating,1382465,Highvale,,52,,,4,,,,,,,,,,,,,,,
null,,confidence_buffer,1382567,confidence_buffer,,null,,,,,,,,,,,,,,,,,,
1357.5999999940395,,pt2_memorable_rating,1383926,Highvale,,50,,,2,,,,,,,,,,,,,,,
null,,confidence_buffer,1384029,confidence_buffer,,null,,,,,,,,,,,,,,,,,,
2328.7000000178814,,recognition_phase,1386360,Highvale,,50,,,,,,old,1,0.7272727272727273,,,,,,,,,,
null,,confidence_buffer,1386462,confidence_buffer,,null,,,,,,,,,,,,,,,,,,
null,,thebreak,1386965,break,,null,,,,,,,,,,,,,,,,,,
4565.5,,realistic_rating,1391533,Orr,,52,Orr,US,4,,,,,,,,,,,,,,,
null,,confidence_buffer,1391635,confidence_buffer,,null,,,,,,,,,,,,,,,,,,
1764,,pt2_unique_rating,1393401,Orr,,50,,,2,,,,,,,,,,,,,,,
null,,confidence_buffer,1393504,confidence_buffer,,null,,,,,,,,,,,,,,,,,,
1617.199999988079,,pt2_memorable_rating,1395122,Orr,,49,,,1,,,,,,,,,,,,,,,
null,,confidence_buffer,1395225,confidence_buffer,,null,,,,,,,,,,,,,,,,,,
2309,,recognition_phase,1397536,Orr,,50,,,,,,old,1,0.7391304347826086,,,,,,,,,,
null,,confidence_buffer,1397640,confidence_buffer,,null,,,,,,,,,,,,,,,,,,
null,,thebreak,1398142,break,,null,,,,,,,,,,,,,,,,,,
1735.9000000059605,,realistic_rating,1399880,Carmel,,52,Carmel,US,4,,,,,,,,,,,,,,,
null,,confidence_buffer,1399983,confidence_buffer,,null,,,,,,,,,,,,,,,,,,
2259.300000011921,,probe_rating,1402245,probe_rating,,53,,,,5,1,,,,,,,,,,,,,
null,,confidence_buffer,1402347,confidence_buffer,,null,,,,,,,,,,,,,,,,,,
1944.5999999940395,,pt2_unique_rating,1404293,Carmel,,50,,,2,,,,,,,,,,,,,,,
null,,confidence_buffer,1404396,confidence_buffer,,null,,,,,,,,,,,,,,,,,,
2020.300000011921,,pt2_memorable_rating,1406418,Carmel,,51,,,3,,,,,,,,,,,,,,,
null,,confidence_buffer,1406521,confidence_buffer,,null,,,,,,,,,,,,,,,,,,
3326.699999988079,,recognition_phase,1409850,Carmel,,52,,,,,,new,1,0.75,,,,,,,,,,
null,,confidence_buffer,1409953,confidence_buffer,,null,,,,,,,,,,,,,,,,,,
null,,thebreak,1410455,break,,null,,,,,,,,,,,,,,,,,,
3000.100000023842,,realistic_rating,1413457,Linden Trace,,49,Linden Trace,Fictional,1,,,,,,,,,,,,,,,
null,,confidence_buffer,1413560,confidence_buffer,,null,,,,,,,,,,,,,,,,,,
1982.300000011921,,pt2_unique_rating,1415545,Linden Trace,,52,,,4,,,,,,,,,,,,,,,
null,,confidence_buffer,1415648,confidence_buffer,,null,,,,,,,,,,,,,,,,,,
2439.5,,pt2_memorable_rating,1418089,Linden Trace,,50,,,2,,,,,,,,,,,,,,,
null,,confidence_buffer,1418192,confidence_buffer,,null,,,,,,,,,,,,,,,,,,
4845.399999976158,,recognition_phase,1423039,Linden Trace,,52,,,,,,new,1,0.76,,,,,,,,,,
null,,confidence_buffer,1423142,confidence_buffer,,null,,,,,,,,,,,,,,,,,,
null,,thebreak,1423644,break,,null,,,,,,,,,,,,,,,,,,
2849.5,,realistic_rating,1426495,Peoria,,51,Peoria,US,3,,,,,,,,,,,,,,,
null,,confidence_buffer,1426599,confidence_buffer,,null,,,,,,,,,,,,,,,,,,
3587.5,,pt2_unique_rating,1430188,Peoria,,50,,,2,,,,,,,,,,,,,,,
null,,confidence_buffer,1430291,confidence_buffer,,null,,,,,,,,,,,,,,,,,,
2298.5,,pt2_memorable_rating,1432592,Peoria,,51,,,3,,,,,,,,,,,,,,,
null,,confidence_buffer,1432694,confidence_buffer,,null,,,,,,,,,,,,,,,,,,
2633.2000000178814,,recognition_phase,1435329,Peoria,,52,,,,,,new,0,0.7307692307692307,,,,,,,,,,
null,,confidence_buffer,1435431,confidence_buffer,,null,,,,,,,,,,,,,,,,,,
null,,thebreak,1435933,break,,null,,,,,,,,,,,,,,,,,,
5946.5999999940395,,realistic_rating,1441882,Hot Springs,,53,Hot Springs,US,5,,,,,,,,,,,,,,,
null,,confidence_buffer,1441985,confidence_buffer,,null,,,,,,,,,,,,,,,,,,
2180.5,,pt2_unique_rating,1444167,Hot Springs,,52,,,4,,,,,,,,,,,,,,,
null,,confidence_buffer,1444270,confidence_buffer,,null,,,,,,,,,,,,,,,,,,
3420,,pt2_memorable_rating,1447692,Hot Springs,,53,,,5,,,,,,,,,,,,,,,
null,,confidence_buffer,1447795,confidence_buffer,,null,,,,,,,,,,,,,,,,,,
2035.7999999821186,,recognition_phase,1449833,Hot Springs,,50,,,,,,old,0,0.7037037037037037,,,,,,,,,,
null,,confidence_buffer,1449936,confidence_buffer,,null,,,,,,,,,,,,,,,,,,
null,,thebreak,1450438,break,,null,,,,,,,,,,,,,,,,,,
1814.800000011921,,realistic_rating,1452254,Okoboji,,51,Okoboji,US,3,,,,,,,,,,,,,,,
null,,confidence_buffer,1452357,confidence_buffer,,null,,,,,,,,,,,,,,,,,,
2976.7000000178814,,pt2_unique_rating,1455336,Okoboji,,53,,,5,,,,,,,,,,,,,,,
null,,confidence_buffer,1455439,confidence_buffer,,null,,,,,,,,,,,,,,,,,,
2152.0999999940395,,pt2_memorable_rating,1457593,Okoboji,,52,,,4,,,,,,,,,,,,,,,
null,,confidence_buffer,1457696,confidence_buffer,,null,,,,,,,,,,,,,,,,,,
2011.300000011921,,recognition_phase,1459709,Okoboji,,52,,,,,,new,1,0.7142857142857143,,,,,,,,,,
null,,confidence_buffer,1459812,confidence_buffer,,null,,,,,,,,,,,,,,,,,,
null,,thebreak,1460315,break,,null,,,,,,,,,,,,,,,,,,
2673.4000000059605,,realistic_rating,1462990,Natchez,,50,Natchez,US,2,,,,,,,,,,,,,,,
null,,confidence_buffer,1463093,confidence_buffer,,null,,,,,,,,,,,,,,,,,,
2234.800000011921,,pt2_unique_rating,1465329,Natchez,,52,,,4,,,,,,,,,,,,,,,
null,,confidence_buffer,1465433,confidence_buffer,,null,,,,,,,,,,,,,,,,,,
6005.699999988079,,probe_rating,1471440,probe_rating,,50,,,,2,1,,,,,,,,,,,,,
null,,confidence_buffer,1471544,confidence_buffer,,null,,,,,,,,,,,,,,,,,,
10996.199999988079,,pt2_memorable_rating,1482542,Natchez,,51,,,3,,,,,,,,,,,,,,,
null,,confidence_buffer,1482645,confidence_buffer,,null,,,,,,,,,,,,,,,,,,
14591.40000000596,,recognition_phase,1497238,Natchez,,51,,,,,,new,0,0.6896551724137931,,,,,,,,,,
null,,confidence_buffer,1497342,confidence_buffer,,null,,,,,,,,,,,,,,,,,,
null,,thebreak,1497845,break,,null,,,,,,,,,,,,,,,,,,
1419.4000000059605,,realistic_rating,1499266,Custer,,50,Custer,US,2,,,,,,,,,,,,,,,
null,,confidence_buffer,1499369,confidence_buffer,,null,,,,,,,,,,,,,,,,,,
1871,,pt2_unique_rating,1501242,Custer,,53,,,5,,,,,,,,,,,,,,,
null,,confidence_buffer,1501345,confidence_buffer,,null,,,,,,,,,,,,,,,,,,
2505.9000000059605,,pt2_memorable_rating,1503852,Custer,,51,,,3,,,,,,,,,,,,,,,
null,,confidence_buffer,1503956,confidence_buffer,,null,,,,,,,,,,,,,,,,,,
1539.4000000059605,,recognition_phase,1505498,Custer,,52,,,,,,new,1,0.7,,,,,,,,,,
null,,confidence_buffer,1505600,confidence_buffer,,null,,,,,,,,,,,,,,,,,,
null,,thebreak,1506103,break,,null,,,,,,,,,,,,,,,,,,
2162.2999999821186,,realistic_rating,1508267,Rosehollow,,50,Rosehollow,Fictional,2,,,,,,,,,,,,,,,
null,,confidence_buffer,1508369,confidence_buffer,,null,,,,,,,,,,,,,,,,,,
1558.699999988079,,pt2_unique_rating,1509930,Rosehollow,,49,,,1,,,,,,,,,,,,,,,
null,,confidence_buffer,1510033,confidence_buffer,,null,,,,,,,,,,,,,,,,,,
1417.9000000059605,,pt2_memorable_rating,1511453,Rosehollow,,52,,,4,,,,,,,,,,,,,,,
null,,confidence_buffer,1511555,confidence_buffer,,null,,,,,,,,,,,,,,,,,,
2514.300000011921,,recognition_phase,1514071,Rosehollow,,51,,,,,,new,0,0.6774193548387096,,,,,,,,,,
null,,confidence_buffer,1514173,confidence_buffer,,null,,,,,,,,,,,,,,,,,,
null,,thebreak,1514675,break,,null,,,,,,,,,,,,,,,,,,
2470,,realistic_rating,1517147,Tamarisk Hills,,52,Tamarisk Hills,Fictional,4,,,,,,,,,,,,,,,
null,,confidence_buffer,1517250,confidence_buffer,,null,,,,,,,,,,,,,,,,,,
2082.4000000059605,,pt2_unique_rating,1519334,Tamarisk Hills,,50,,,2,,,,,,,,,,,,,,,
null,,confidence_buffer,1519436,confidence_buffer,,null,,,,,,,,,,,,,,,,,,
8840,,pt2_memorable_rating,1528278,Tamarisk Hills,,52,,,4,,,,,,,,,,,,,,,
null,,confidence_buffer,1528381,confidence_buffer,,null,,,,,,,,,,,,,,,,,,
2919.800000011921,,recognition_phase,1531302,Tamarisk Hills,,51,,,,,,new,0,0.65625,,,,,,,,,,
null,,confidence_buffer,1531406,confidence_buffer,,null,,,,,,,,,,,,,,,,,,
null,,thebreak,1531908,break,,null,,,,,,,,,,,,,,,,,,
9550.09999999404,,realistic_rating,1541460,Boulder,,50,Boulder,US,2,,,,,,,,,,,,,,,
null,,confidence_buffer,1541563,confidence_buffer,,null,,,,,,,,,,,,,,,,,,
3943.5,,pt2_unique_rating,1545508,Boulder,,52,,,4,,,,,,,,,,,,,,,
null,,confidence_buffer,1545611,confidence_buffer,,null,,,,,,,,,,,,,,,,,,
2291,,pt2_memorable_rating,1547903,Boulder,,50,,,2,,,,,,,,,,,,,,,
null,,confidence_buffer,1548015,confidence_buffer,,null,,,,,,,,,,,,,,,,,,
2124.7999999821186,,recognition_phase,1550142,Boulder,,52,,,,,,new,1,0.6666666666666666,,,,,,,,,,
null,,confidence_buffer,1550244,confidence_buffer,,null,,,,,,,,,,,,,,,,,,
null,,thebreak,1550746,break,,null,,,,,,,,,,,,,,,,,,
3039.4000000059605,,realistic_rating,1553787,Albuquerque,,49,Albuquerque,US,1,,,,,,,,,,,,,,,
null,,confidence_buffer,1553890,confidence_buffer,,null,,,,,,,,,,,,,,,,,,
2010.199999988079,,pt2_unique_rating,1555902,Albuquerque,,51,,,3,,,,,,,,,,,,,,,
null,,confidence_buffer,1556004,confidence_buffer,,null,,,,,,,,,,,,,,,,,,
1526.800000011921,,pt2_memorable_rating,1557532,Albuquerque,,52,,,4,,,,,,,,,,,,,,,
null,,confidence_buffer,1557634,confidence_buffer,,null,,,,,,,,,,,,,,,,,,
2104.7000000178814,,probe_rating,1559741,probe_rating,,51,,,,3,1,,,,,,,,,,,,,
null,,confidence_buffer,1559844,confidence_buffer,,null,,,,,,,,,,,,,,,,,,
2911.100000023842,,recognition_phase,1562757,Albuquerque,,52,,,,,,new,1,0.6764705882352942,,,,,,,,,,
null,,confidence_buffer,1562860,confidence_buffer,,null,,,,,,,,,,,,,,,,,,
null,,thebreak,1563362,break,,null,,,,,,,,,,,,,,,,,,
4814,,realistic_rating,1568178,Claywater,,49,Claywater,Fictional,1,,,,,,,,,,,,,,,
null,,confidence_buffer,1568281,confidence_buffer,,null,,,,,,,,,,,,,,,,,,
2407.100000023842,,pt2_unique_rating,1570689,Claywater,,51,,,3,,,,,,,,,,,,,,,
null,,confidence_buffer,1570792,confidence_buffer,,null,,,,,,,,,,,,,,,,,,
1475.5,,pt2_memorable_rating,1572269,Claywater,,50,,,2,,,,,,,,,,,,,,,
null,,confidence_buffer,1572373,confidence_buffer,,null,,,,,,,,,,,,,,,,,,
2568.0999999940395,,recognition_phase,1574943,Claywater,,52,,,,,,new,1,0.6857142857142857,,,,,,,,,,
null,,confidence_buffer,1575046,confidence_buffer,,null,,,,,,,,,,,,,,,,,,
null,,thebreak,1575549,break,,null,,,,,,,,,,,,,,,,,,
6210.800000011921,,realistic_rating,1581761,Hanover,,52,Hanover,US,4,,,,,,,,,,,,,,,
null,,confidence_buffer,1581865,confidence_buffer,,null,,,,,,,,,,,,,,,,,,
2366,,pt2_unique_rating,1584233,Hanover,,51,,,3,,,,,,,,,,,,,,,
null,,confidence_buffer,1584335,confidence_buffer,,null,,,,,,,,,,,,,,,,,,
2182.2000000178814,,pt2_memorable_rating,1586519,Hanover,,52,,,4,,,,,,,,,,,,,,,
null,,confidence_buffer,1586621,confidence_buffer,,null,,,,,,,,,,,,,,,,,,
1510.699999988079,,recognition_phase,1588134,Hanover,,52,,,,,,new,0,0.6666666666666666,,,,,,,,,,
null,,confidence_buffer,1588244,confidence_buffer,,null,,,,,,,,,,,,,,,,,,
null,,thebreak,1588745,break,,null,,,,,,,,,,,,,,,,,,
2524.7000000178814,,realistic_rating,1591273,Maplehurst,,50,Maplehurst,Fictional,2,,,,,,,,,,,,,,,
null,,confidence_buffer,1591375,confidence_buffer,,null,,,,,,,,,,,,,,,,,,
1650.4000000059605,,pt2_unique_rating,1593027,Maplehurst,,51,,,3,,,,,,,,,,,,,,,
null,,confidence_buffer,1593130,confidence_buffer,,null,,,,,,,,,,,,,,,,,,
5095.799999982119,,pt2_memorable_rating,1598228,Maplehurst,,49,,,1,,,,,,,,,,,,,,,
null,,confidence_buffer,1598331,confidence_buffer,,null,,,,,,,,,,,,,,,,,,
1260.0999999940395,,recognition_phase,1599593,Maplehurst,,51,,,,,,new,0,0.6486486486486487,,,,,,,,,,
null,,confidence_buffer,1599709,confidence_buffer,,null,,,,,,,,,,,,,,,,,,
null,,thebreak,1600211,break,,null,,,,,,,,,,,,,,,,,,
12413.5,,realistic_rating,1612627,Maravilla Springs,,51,Maravilla Springs,Fictional,3,,,,,,,,,,,,,,,
null,,confidence_buffer,1612729,confidence_buffer,,null,,,,,,,,,,,,,,,,,,
2345.699999988079,,pt2_unique_rating,1615076,Maravilla Springs,,49,,,1,,,,,,,,,,,,,,,
null,,confidence_buffer,1615180,confidence_buffer,,null,,,,,,,,,,,,,,,,,,
1720.0999999940395,,pt2_memorable_rating,1616901,Maravilla Springs,,53,,,5,,,,,,,,,,,,,,,
null,,confidence_buffer,1617004,confidence_buffer,,null,,,,,,,,,,,,,,,,,,
2652.5999999940395,,recognition_phase,1619659,Maravilla Springs,,52,,,,,,new,0,0.631578947368421,,,,,,,,,,
null,,confidence_buffer,1619761,confidence_buffer,,null,,,,,,,,,,,,,,,,,,
null,,thebreak,1620263,break,,null,,,,,,,,,,,,,,,,,,
2559.2999999821186,,realistic_rating,1622824,Hilo,,50,Hilo,US,2,,,,,,,,,,,,,,,
null,,confidence_buffer,1622928,confidence_buffer,,null,,,,,,,,,,,,,,,,,,
1259.2999999821186,,pt2_unique_rating,1624190,Hilo,,51,,,3,,,,,,,,,,,,,,,
null,,confidence_buffer,1624292,confidence_buffer,,null,,,,,,,,,,,,,,,,,,
2192.2999999821186,,pt2_memorable_rating,1626486,Hilo,,49,,,1,,,,,,,,,,,,,,,
null,,confidence_buffer,1626589,confidence_buffer,,null,,,,,,,,,,,,,,,,,,
1416.5999999940395,,recognition_phase,1628007,Hilo,,52,,,,,,new,0,0.6153846153846154,,,,,,,,,,
null,,confidence_buffer,1628110,confidence_buffer,,null,,,,,,,,,,,,,,,,,,
null,,thebreak,1628612,break,,null,,,,,,,,,,,,,,,,,,
1924.699999988079,,realistic_rating,1630539,Alliance,,53,Alliance,US,5,,,,,,,,,,,,,,,
null,,confidence_buffer,1630643,confidence_buffer,,null,,,,,,,,,,,,,,,,,,
2185.199999988079,,pt2_unique_rating,1632830,Alliance,,52,,,4,,,,,,,,,,,,,,,
null,,confidence_buffer,1632932,confidence_buffer,,null,,,,,,,,,,,,,,,,,,
4493.799999982119,,pt2_memorable_rating,1637428,Alliance,,52,,,4,,,,,,,,,,,,,,,
null,,confidence_buffer,1637536,confidence_buffer,,null,,,,,,,,,,,,,,,,,,
3914.800000011921,,recognition_phase,1641453,Alliance,,51,,,,,,new,1,0.625,,,,,,,,,,
null,,confidence_buffer,1641556,confidence_buffer,,null,,,,,,,,,,,,,,,,,,
null,,thebreak,1642059,break,,null,,,,,,,,,,,,,,,,,,
2103.300000011921,,realistic_rating,1644164,Sisters,,50,Sisters,US,2,,,,,,,,,,,,,,,
null,,confidence_buffer,1644282,confidence_buffer,,null,,,,,,,,,,,,,,,,,,
965.4000000059605,,pt2_unique_rating,1645249,Sisters,,52,,,4,,,,,,,,,,,,,,,
null,,confidence_buffer,1645352,confidence_buffer,,null,,,,,,,,,,,,,,,,,,
1331.4000000059605,,pt2_memorable_rating,1646685,Sisters,,51,,,3,,,,,,,,,,,,,,,
null,,confidence_buffer,1646788,confidence_buffer,,null,,,,,,,,,,,,,,,,,,
1445.2000000178814,,recognition_phase,1648235,Sisters,,49,,,,,,old,1,0.6341463414634146,,,,,,,,,,
null,,confidence_buffer,1648341,confidence_buffer,,null,,,,,,,,,,,,,,,,,,
null,,thebreak,1648843,break,,null,,,,,,,,,,,,,,,,,,
1462.5,,realistic_rating,1650308,North Arroya,,51,North Arroya,Fictional,3,,,,,,,,,,,,,,,
null,,confidence_buffer,1650411,confidence_buffer,,null,,,,,,,,,,,,,,,,,,
2023.5,,pt2_unique_rating,1652436,North Arroya,,52,,,4,,,,,,,,,,,,,,,
null,,confidence_buffer,1652541,confidence_buffer,,null,,,,,,,,,,,,,,,,,,
2380.4000000059605,,probe_rating,1654923,probe_rating,,53,,,,5,1,,,,,,,,,,,,,
null,,confidence_buffer,1655026,confidence_buffer,,null,,,,,,,,,,,,,,,,,,
3022.9000000059605,,pt2_memorable_rating,1658051,North Arroya,,49,,,1,,,,,,,,,,,,,,,
null,,confidence_buffer,1658154,confidence_buffer,,null,,,,,,,,,,,,,,,,,,
6274.800000011921,,recognition_phase,1664431,North Arroya,,51,,,,,,new,1,0.6428571428571429,,,,,,,,,,
null,,confidence_buffer,1664534,confidence_buffer,,null,,,,,,,,,,,,,,,,,,
null,,thebreak,1665036,break,,null,,,,,,,,,,,,,,,,,,
6539.4000000059605,,realistic_rating,1671577,Fairhaven,,50,Fairhaven,Fictional,2,,,,,,,,,,,,,,,
null,,confidence_buffer,1671681,confidence_buffer,,null,,,,,,,,,,,,,,,,,,
1920.300000011921,,pt2_unique_rating,1673603,Fairhaven,,52,,,4,,,,,,,,,,,,,,,
null,,confidence_buffer,1673706,confidence_buffer,,null,,,,,,,,,,,,,,,,,,
4466,,pt2_memorable_rating,1678174,Fairhaven,,52,,,4,,,,,,,,,,,,,,,
null,,confidence_buffer,1678276,confidence_buffer,,null,,,,,,,,,,,,,,,,,,
1566.199999988079,,recognition_phase,1679844,Fairhaven,,52,,,,,,new,1,0.6511627906976745,,,,,,,,,,
null,,confidence_buffer,1679949,confidence_buffer,,null,,,,,,,,,,,,,,,,,,
null,,thebreak,1680451,break,,null,,,,,,,,,,,,,,,,,,
2095,,realistic_rating,1682548,Montelake,,51,Montelake,Fictional,3,,,,,,,,,,,,,,,
null,,confidence_buffer,1682650,confidence_buffer,,null,,,,,,,,,,,,,,,,,,
1359.5,,pt2_unique_rating,1684011,Montelake,,53,,,5,,,,,,,,,,,,,,,
null,,confidence_buffer,1684115,confidence_buffer,,null,,,,,,,,,,,,,,,,,,
2734.699999988079,,probe_rating,1686851,probe_rating,,53,,,,5,1,,,,,,,,,,,,,
null,,confidence_buffer,1686956,confidence_buffer,,null,,,,,,,,,,,,,,,,,,
1615.800000011921,,pt2_memorable_rating,1688574,Montelake,,51,,,3,,,,,,,,,,,,,,,
null,,confidence_buffer,1688677,confidence_buffer,,null,,,,,,,,,,,,,,,,,,
2241.5999999940395,,recognition_phase,1690920,Montelake,,49,,,,,,old,1,0.6590909090909091,,,,,,,,,,
null,,confidence_buffer,1691023,confidence_buffer,,null,,,,,,,,,,,,,,,,,,
null,,thebreak,1691538,break,,null,,,,,,,,,,,,,,,,,,
2205.2000000178814,,realistic_rating,1693745,Summershade,,50,Summershade,Fictional,2,,,,,,,,,,,,,,,
null,,confidence_buffer,1693849,confidence_buffer,,null,,,,,,,,,,,,,,,,,,
2315.0999999940395,,pt2_unique_rating,1696167,Summershade,,53,,,5,,,,,,,,,,,,,,,
null,,confidence_buffer,1696269,confidence_buffer,,null,,,,,,,,,,,,,,,,,,
1224.699999988079,,pt2_memorable_rating,1697496,Summershade,,51,,,3,,,,,,,,,,,,,,,
null,,confidence_buffer,1697599,confidence_buffer,,null,,,,,,,,,,,,,,,,,,
2193.5999999940395,,recognition_phase,1699795,Summershade,,52,,,,,,new,0,0.6444444444444445,,,,,,,,,,
null,,confidence_buffer,1699897,confidence_buffer,,null,,,,,,,,,,,,,,,,,,
null,,thebreak,1700399,break,,null,,,,,,,,,,,,,,,,,,
1660.4000000059605,,realistic_rating,1702061,Pine Hollow,,50,Pine Hollow,Fictional,2,,,,,,,,,,,,,,,
null,,confidence_buffer,1702164,confidence_buffer,,null,,,,,,,,,,,,,,,,,,
1527,,pt2_unique_rating,1703692,Pine Hollow,,51,,,3,,,,,,,,,,,,,,,
null,,confidence_buffer,1703795,confidence_buffer,,null,,,,,,,,,,,,,,,,,,
191.59999999403954,,pt2_memorable_rating,1703989,Pine Hollow,,51,,,3,,,,,,,,,,,,,,,
null,,confidence_buffer,1704095,confidence_buffer,,null,,,,,,,,,,,,,,,,,,
1664.0999999940395,,recognition_phase,1705761,Pine Hollow,,52,,,,,,new,0,0.6304347826086957,,,,,,,,,,
null,,confidence_buffer,1705864,confidence_buffer,,null,,,,,,,,,,,,,,,,,,
null,,thebreak,1706366,break,,null,,,,,,,,,,,,,,,,,,
2261.9000000059605,,realistic_rating,1708629,Millstone,,49,Millstone,Fictional,1,,,,,,,,,,,,,,,
null,,confidence_buffer,1708732,confidence_buffer,,null,,,,,,,,,,,,,,,,,,
1190,,pt2_unique_rating,1709923,Millstone,,51,,,3,,,,,,,,,,,,,,,
null,,confidence_buffer,1710026,confidence_buffer,,null,,,,,,,,,,,,,,,,,,
1069.199999988079,,pt2_memorable_rating,1711097,Millstone,,50,,,2,,,,,,,,,,,,,,,
null,,confidence_buffer,1711199,confidence_buffer,,null,,,,,,,,,,,,,,,,,,
6545.699999988079,,recognition_phase,1717747,Millstone,,52,,,,,,new,0,0.6170212765957447,,,,,,,,,,
null,,confidence_buffer,1717850,confidence_buffer,,null,,,,,,,,,,,,,,,,,,
null,,thebreak,1718352,break,,null,,,,,,,,,,,,,,,,,,
10857.800000011921,,realistic_rating,1729212,Bowling Green,,50,Bowling Green,US,2,,,,,,,,,,,,,,,
null,,confidence_buffer,1729314,confidence_buffer,,null,,,,,,,,,,,,,,,,,,
1735.0999999940395,,pt2_unique_rating,1731051,Bowling Green,,52,,,4,,,,,,,,,,,,,,,
null,,confidence_buffer,1731155,confidence_buffer,,null,,,,,,,,,,,,,,,,,,
1799.699999988079,,pt2_memorable_rating,1732957,Bowling Green,,51,,,3,,,,,,,,,,,,,,,
null,,confidence_buffer,1733059,confidence_buffer,,null,,,,,,,,,,,,,,,,,,
3375.9000000059605,,probe_rating,1736437,probe_rating,,49,,,,1,1,,,,,,,,,,,,,
null,,confidence_buffer,1736541,confidence_buffer,,null,,,,,,,,,,,,,,,,,,
3191.800000011921,,recognition_phase,1739735,Bowling Green,,52,,,,,,new,0,0.6041666666666666,,,,,,,,,,
null,,confidence_buffer,1739849,confidence_buffer,,null,,,,,,,,,,,,,,,,,,
null,,thebreak,1740351,break,,null,,,,,,,,,,,,,,,,,,
7187.399999976158,,realistic_rating,1747540,Healdsburg,,51,Healdsburg,US,3,,,,,,,,,,,,,,,
null,,confidence_buffer,1747643,confidence_buffer,,null,,,,,,,,,,,,,,,,,,
2086.199999988079,,pt2_unique_rating,1749731,Healdsburg,,49,,,1,,,,,,,,,,,,,,,
null,,confidence_buffer,1749835,confidence_buffer,,null,,,,,,,,,,,,,,,,,,
3810.300000011921,,pt2_memorable_rating,1753647,Healdsburg,,52,,,4,,,,,,,,,,,,,,,
null,,confidence_buffer,1753751,confidence_buffer,,null,,,,,,,,,,,,,,,,,,
15988.09999999404,,recognition_phase,1769741,Healdsburg,,52,,,,,,new,1,0.6122448979591837,,,,,,,,,,
null,,confidence_buffer,1769843,confidence_buffer,,null,,,,,,,,,,,,,,,,,,
null,,thebreak,1770346,break,,null,,,,,,,,,,,,,,,,,,
2561.0999999940395,,realistic_rating,1772909,Sierra Hollow,,50,Sierra Hollow,Fictional,2,,,,,,,,,,,,,,,
null,,confidence_buffer,1773012,confidence_buffer,,null,,,,,,,,,,,,,,,,,,
1567.300000011921,,pt2_unique_rating,1774581,Sierra Hollow,,53,,,5,,,,,,,,,,,,,,,
null,,confidence_buffer,1774683,confidence_buffer,,null,,,,,,,,,,,,,,,,,,
1102.800000011921,,pt2_memorable_rating,1775788,Sierra Hollow,,52,,,4,,,,,,,,,,,,,,,
null,,confidence_buffer,1775890,confidence_buffer,,null,,,,,,,,,,,,,,,,,,
3161.699999988079,,recognition_phase,1779054,Sierra Hollow,,51,,,,,,new,0,0.6,,,,,,,,,,
null,,confidence_buffer,1779165,confidence_buffer,,null,,,,,,,,,,,,,,,,,,
null,,thebreak,1779667,break,,null,,,,,,,,,,,,,,,,,,
1198.0999999940395,,realistic_rating,1780868,Granton Ridge,,49,Granton Ridge,Fictional,1,,,,,,,,,,,,,,,
null,,confidence_buffer,1780971,confidence_buffer,,null,,,,,,,,,,,,,,,,,,
1838,,pt2_unique_rating,1782811,Granton Ridge,,53,,,5,,,,,,,,,,,,,,,
null,,confidence_buffer,1782913,confidence_buffer,,null,,,,,,,,,,,,,,,,,,
2068.4000000059605,,pt2_memorable_rating,1784984,Granton Ridge,,50,,,2,,,,,,,,,,,,,,,
null,,confidence_buffer,1785088,confidence_buffer,,null,,,,,,,,,,,,,,,,,,
3289,,recognition_phase,1788379,Granton Ridge,,52,,,,,,new,1,0.6078431372549019,,,,,,,,,,
null,,confidence_buffer,1788482,confidence_buffer,,null,,,,,,,,,,,,,,,,,,
null,,thebreak,1788984,break,,null,,,,,,,,,,,,,,,,,,
2117.600000023842,,realistic_rating,1791104,Berkeley Springs,,53,Berkeley Springs,US,5,,,,,,,,,,,,,,,
null,,confidence_buffer,1791206,confidence_buffer,,null,,,,,,,,,,,,,,,,,,
5140.9000000059605,,pt2_unique_rating,1796349,Berkeley Springs,,49,,,1,,,,,,,,,,,,,,,
null,,confidence_buffer,1796451,confidence_buffer,,null,,,,,,,,,,,,,,,,,,
1924.300000011921,,pt2_memorable_rating,1798378,Berkeley Springs,,52,,,4,,,,,,,,,,,,,,,
null,,confidence_buffer,1798481,confidence_buffer,,null,,,,,,,,,,,,,,,,,,
3067.800000011921,,recognition_phase,1801551,Berkeley Springs,,50,,,,,,old,0,0.5961538461538461,,,,,,,,,,
null,,confidence_buffer,1801655,confidence_buffer,,null,,,,,,,,,,,,,,,,,,
null,,thebreak,1802167,break,,null,,,,,,,,,,,,,,,,,,
2355.5999999940395,,realistic_rating,1804524,Westridge,,53,Westridge,Fictional,5,,,,,,,,,,,,,,,
null,,confidence_buffer,1804627,confidence_buffer,,null,,,,,,,,,,,,,,,,,,
1791.699999988079,,pt2_unique_rating,1806421,Westridge,,49,,,1,,,,,,,,,,,,,,,
null,,confidence_buffer,1806525,confidence_buffer,,null,,,,,,,,,,,,,,,,,,
4669.300000011921,,pt2_memorable_rating,1811196,Westridge,,52,,,4,,,,,,,,,,,,,,,
null,,confidence_buffer,1811299,confidence_buffer,,null,,,,,,,,,,,,,,,,,,
3651.5,,recognition_phase,1814953,Westridge,,50,,,,,,old,0,0.5849056603773585,,,,,,,,,,
null,,confidence_buffer,1815056,confidence_buffer,,null,,,,,,,,,,,,,,,,,,
null,,thebreak,1815559,break,,null,,,,,,,,,,,,,,,,,,
6568.0999999940395,,realistic_rating,1822129,Park City,,51,Park City,US,3,,,,,,,,,,,,,,,
null,,confidence_buffer,1822232,confidence_buffer,,null,,,,,,,,,,,,,,,,,,
2896.600000023842,,pt2_unique_rating,1825130,Park City,,53,,,5,,,,,,,,,,,,,,,
null,,confidence_buffer,1825233,confidence_buffer,,null,,,,,,,,,,,,,,,,,,
1228.0999999940395,,pt2_memorable_rating,1826464,Park City,,52,,,4,,,,,,,,,,,,,,,
null,,confidence_buffer,1826567,confidence_buffer,,null,,,,,,,,,,,,,,,,,,
2125.800000011921,,recognition_phase,1828696,Park City,,49,,,,,,old,1,0.5925925925925926,,,,,,,,,,
null,,confidence_buffer,1828800,confidence_buffer,,null,,,,,,,,,,,,,,,,,,
null,,thebreak,1829302,break,,null,,,,,,,,,,,,,,,,,,
2157.4000000059605,,realistic_rating,1831461,Livingston,,50,Livingston,US,2,,,,,,,,,,,,,,,
null,,confidence_buffer,1831564,confidence_buffer,,null,,,,,,,,,,,,,,,,,,
1298.5,,pt2_unique_rating,1832864,Livingston,,52,,,4,,,,,,,,,,,,,,,
null,,confidence_buffer,1832967,confidence_buffer,,null,,,,,,,,,,,,,,,,,,
1451.0999999940395,,pt2_memorable_rating,1834419,Livingston,,53,,,5,,,,,,,,,,,,,,,
null,,confidence_buffer,1834523,confidence_buffer,,null,,,,,,,,,,,,,,,,,,
11168.300000011921,,recognition_phase,1845694,Livingston,,52,,,,,,new,1,0.6,,,,,,,,,,
null,,confidence_buffer,1845806,confidence_buffer,,null,,,,,,,,,,,,,,,,,,
null,,thebreak,1846308,break,,null,,,,,,,,,,,,,,,,,,
2077.100000023842,,realistic_rating,1848387,Cleveland,,49,Cleveland,US,1,,,,,,,,,,,,,,,
null,,confidence_buffer,1848489,confidence_buffer,,null,,,,,,,,,,,,,,,,,,
1818.5,,pt2_unique_rating,1850310,Cleveland,,51,,,3,,,,,,,,,,,,,,,
null,,confidence_buffer,1850413,confidence_buffer,,null,,,,,,,,,,,,,,,,,,
1957.699999988079,,pt2_memorable_rating,1852372,Cleveland,,52,,,4,,,,,,,,,,,,,,,
null,,confidence_buffer,1852475,confidence_buffer,,null,,,,,,,,,,,,,,,,,,
2308.4000000059605,,recognition_phase,1854785,Cleveland,,52,,,,,,new,1,0.6071428571428571,,,,,,,,,,
null,,confidence_buffer,1854891,confidence_buffer,,null,,,,,,,,,,,,,,,,,,
null,,thebreak,1855395,break,,null,,,,,,,,,,,,,,,,,,
3215.0999999940395,,realistic_rating,1858613,Sammamish,,50,Sammamish,US,2,,,,,,,,,,,,,,,
null,,confidence_buffer,1858722,confidence_buffer,,null,,,,,,,,,,,,,,,,,,
1916.699999988079,,pt2_unique_rating,1860640,Sammamish,,51,,,3,,,,,,,,,,,,,,,
null,,confidence_buffer,1860744,confidence_buffer,,null,,,,,,,,,,,,,,,,,,
2480.199999988079,,pt2_memorable_rating,1863226,Sammamish,,51,,,3,,,,,,,,,,,,,,,
null,,confidence_buffer,1863336,confidence_buffer,,null,,,,,,,,,,,,,,,,,,
13762.799999982119,,recognition_phase,1877101,Sammamish,,52,,,,,,new,0,0.5964912280701754,,,,,,,,,,
null,,confidence_buffer,1877203,confidence_buffer,,null,,,,,,,,,,,,,,,,,,
null,,thebreak,1877705,break,,null,,,,,,,,,,,,,,,,,,
3330.5,,realistic_rating,1881037,Stonebrook,,53,Stonebrook,Fictional,5,,,,,,,,,,,,,,,
null,,confidence_buffer,1881141,confidence_buffer,,null,,,,,,,,,,,,,,,,,,
1582.5,,pt2_unique_rating,1882726,Stonebrook,,50,,,2,,,,,,,,,,,,,,,
null,,confidence_buffer,1882829,confidence_buffer,,null,,,,,,,,,,,,,,,,,,
15924.799999982119,,pt2_memorable_rating,1898756,Stonebrook,,52,,,4,,,,,,,,,,,,,,,
null,,confidence_buffer,1898859,confidence_buffer,,null,,,,,,,,,,,,,,,,,,
2082.5,,recognition_phase,1900943,Stonebrook,,52,,,,,,new,1,0.603448275862069,,,,,,,,,,
null,,confidence_buffer,1901046,confidence_buffer,,null,,,,,,,,,,,,,,,,,,
null,,thebreak,1901549,break,,null,,,,,,,,,,,,,,,,,,
3699,,realistic_rating,1905250,Sunmere,,49,Sunmere,Fictional,1,,,,,,,,,,,,,,,
null,,confidence_buffer,1905353,confidence_buffer,,null,,,,,,,,,,,,,,,,,,
2529.9000000059605,,pt2_unique_rating,1907885,Sunmere,,51,,,3,,,,,,,,,,,,,,,
null,,confidence_buffer,1907988,confidence_buffer,,null,,,,,,,,,,,,,,,,,,
1931.4000000059605,,pt2_memorable_rating,1909921,Sunmere,,53,,,5,,,,,,,,,,,,,,,
null,,confidence_buffer,1910024,confidence_buffer,,null,,,,,,,,,,,,,,,,,,
1954.3999999761581,,recognition_phase,1911980,Sunmere,,52,,,,,,new,0,0.5932203389830508,,,,,,,,,,
null,,confidence_buffer,1912084,confidence_buffer,,null,,,,,,,,,,,,,,,,,,
null,,thebreak,1912586,break,,null,,,,,,,,,,,,,,,,,,
2947.5,,realistic_rating,1915535,Falconridge,,49,Falconridge,Fictional,1,,,,,,,,,,,,,,,
null,,confidence_buffer,1915639,confidence_buffer,,null,,,,,,,,,,,,,,,,,,
1441.4000000059605,,pt2_unique_rating,1917082,Falconridge,,52,,,4,,,,,,,,,,,,,,,
null,,confidence_buffer,1917185,confidence_buffer,,null,,,,,,,,,,,,,,,,,,
1696.5,,pt2_memorable_rating,1918883,Falconridge,,51,,,3,,,,,,,,,,,,,,,
null,,confidence_buffer,1918986,confidence_buffer,,null,,,,,,,,,,,,,,,,,,
1814.7000000178814,,recognition_phase,1920803,Falconridge,,51,,,,,,new,0,0.5833333333333334,,,,,,,,,,
null,,confidence_buffer,1920905,confidence_buffer,,null,,,,,,,,,,,,,,,,,,
null,,thebreak,1921407,break,,null,,,,,,,,,,,,,,,,,,
,,survey,2325127,survey-questions,,,,,,,,,,,none,high,No, I was focused solely on the experiment.,I learnt to pronounce the names, which aided in remembrance.,I simply remembered what I had previously seen.,I recalled what I learnt.,Most of the names stood out, so I used that to my advantage.,I imagined those that were real.,No,The study was exciting.
