rt,responses,trial_type,time_elapsed,stimulus,button_pressed,key_press,name_trial,rating,probe,probe_accuracy,response,correct,accuracy,problems,smooth,distraction,strategies,familiar,memorable,unique,realistic,similar,comments
3801.399999976158,{worker_id:67eec9e200be02ad51843d9b},id_enter,3802,,,,,,,,,,,,,,,,,,,,
3761.7000000476837,,fullscreen,7566,fullscreen,0,,,,,,,,,,,,,,,,,,
1801.6000000238419,,intro_0,9368,instruct,,32,,,,,,,,,,,,,,,,,
3271.4000000953674,,intro_1,12640,instruct,,32,,,,,,,,,,,,,,,,,
1111.3999999761581,,intro_2,13751,instruct,,32,,,,,,,,,,,,,,,,,
null,,instruct_dir_4,15253,instruct,,null,,,,,,,,,,,,,,,,,
null,,thebreak,15754,break,,null,,,,,,,,,,,,,,,,,
4917.5,,familiar_rating,20672,Marquette,,49,Marquette,1,,,,,,,,,,,,,,,
null,,confidence_buffer,20773,confidence_buffer,,null,,,,,,,,,,,,,,,,,
3154.399999976158,,unique_rating,23928,Marquette,,53,,5,,,,,,,,,,,,,,,
null,,confidence_buffer,24030,confidence_buffer,,null,,,,,,,,,,,,,,,,,
1681.5,,memorable_rating,25712,Marquette,,49,,1,,,,,,,,,,,,,,,
null,,confidence_buffer,25813,confidence_buffer,,null,,,,,,,,,,,,,,,,,
null,,thebreak,26314,break,,null,,,,,,,,,,,,,,,,,
3181.2000000476837,,familiar_rating,29495,Toledo,,52,Toledo,4,,,,,,,,,,,,,,,
null,,confidence_buffer,29597,confidence_buffer,,null,,,,,,,,,,,,,,,,,
3411.7999999523163,,unique_rating,33010,Toledo,,51,,3,,,,,,,,,,,,,,,
null,,confidence_buffer,33110,confidence_buffer,,null,,,,,,,,,,,,,,,,,
1384.7999999523163,,memorable_rating,34495,Toledo,,51,,3,,,,,,,,,,,,,,,
null,,confidence_buffer,34597,confidence_buffer,,null,,,,,,,,,,,,,,,,,
null,,thebreak,35097,break,,null,,,,,,,,,,,,,,,,,
3317.9000000953674,,familiar_rating,38416,Fargo,,52,Fargo,4,,,,,,,,,,,,,,,
null,,confidence_buffer,38517,confidence_buffer,,null,,,,,,,,,,,,,,,,,
2986,,unique_rating,41503,Fargo,,51,,3,,,,,,,,,,,,,,,
null,,confidence_buffer,41604,confidence_buffer,,null,,,,,,,,,,,,,,,,,
3019.8000000715256,,memorable_rating,44625,Fargo,,53,,5,,,,,,,,,,,,,,,
null,,confidence_buffer,44726,confidence_buffer,,null,,,,,,,,,,,,,,,,,
null,,thebreak,45227,break,,null,,,,,,,,,,,,,,,,,
1949,,familiar_rating,47177,Fort Collins,,53,Fort Collins,5,,,,,,,,,,,,,,,
null,,confidence_buffer,47278,confidence_buffer,,null,,,,,,,,,,,,,,,,,
5081.700000047684,,unique_rating,52361,Fort Collins,,53,,5,,,,,,,,,,,,,,,
null,,confidence_buffer,52461,confidence_buffer,,null,,,,,,,,,,,,,,,,,
3074.600000023842,,memorable_rating,55536,Fort Collins,,53,,5,,,,,,,,,,,,,,,
null,,confidence_buffer,55638,confidence_buffer,,null,,,,,,,,,,,,,,,,,
null,,thebreak,56139,break,,null,,,,,,,,,,,,,,,,,
3444.399999976158,,familiar_rating,59583,Cambridge,,51,Cambridge,3,,,,,,,,,,,,,,,
null,,confidence_buffer,59685,confidence_buffer,,null,,,,,,,,,,,,,,,,,
2418.3000000715256,,unique_rating,62104,Cambridge,,50,,2,,,,,,,,,,,,,,,
null,,confidence_buffer,62205,confidence_buffer,,null,,,,,,,,,,,,,,,,,
2530.2000000476837,,memorable_rating,64736,Cambridge,,51,,3,,,,,,,,,,,,,,,
null,,confidence_buffer,64838,confidence_buffer,,null,,,,,,,,,,,,,,,,,
null,,thebreak,65339,break,,null,,,,,,,,,,,,,,,,,
7492.299999952316,,familiar_rating,72832,Ann Arbor,,51,Ann Arbor,3,,,,,,,,,,,,,,,
null,,confidence_buffer,72933,confidence_buffer,,null,,,,,,,,,,,,,,,,,
3282,,unique_rating,76216,Ann Arbor,,52,,4,,,,,,,,,,,,,,,
null,,confidence_buffer,76317,confidence_buffer,,null,,,,,,,,,,,,,,,,,
1513.7999999523163,,memorable_rating,77831,Ann Arbor,,51,,3,,,,,,,,,,,,,,,
null,,confidence_buffer,77933,confidence_buffer,,null,,,,,,,,,,,,,,,,,
null,,thebreak,78434,break,,null,,,,,,,,,,,,,,,,,
6229.100000023842,,familiar_rating,84664,Burlington,,53,Burlington,5,,,,,,,,,,,,,,,
null,,confidence_buffer,84765,confidence_buffer,,null,,,,,,,,,,,,,,,,,
3195.5,,unique_rating,87961,Burlington,,50,,2,,,,,,,,,,,,,,,
null,,confidence_buffer,88062,confidence_buffer,,null,,,,,,,,,,,,,,,,,
2881.4000000953674,,memorable_rating,90944,Burlington,,50,,2,,,,,,,,,,,,,,,
null,,confidence_buffer,91046,confidence_buffer,,null,,,,,,,,,,,,,,,,,
null,,thebreak,91547,break,,null,,,,,,,,,,,,,,,,,
3356.6999999284744,,familiar_rating,94904,Dubuque,,53,Dubuque,5,,,,,,,,,,,,,,,
null,,confidence_buffer,95006,confidence_buffer,,null,,,,,,,,,,,,,,,,,
2114.100000023842,,unique_rating,97121,Dubuque,,52,,4,,,,,,,,,,,,,,,
null,,confidence_buffer,97222,confidence_buffer,,null,,,,,,,,,,,,,,,,,
2122,,memorable_rating,99345,Dubuque,,52,,4,,,,,,,,,,,,,,,
null,,confidence_buffer,99446,confidence_buffer,,null,,,,,,,,,,,,,,,,,
null,,thebreak,99947,break,,null,,,,,,,,,,,,,,,,,
2308.2000000476837,,familiar_rating,102256,Boise,,53,Boise,5,,,,,,,,,,,,,,,
null,,confidence_buffer,102358,confidence_buffer,,null,,,,,,,,,,,,,,,,,
1521.2999999523163,,unique_rating,103879,Boise,,52,,4,,,,,,,,,,,,,,,
null,,confidence_buffer,103981,confidence_buffer,,null,,,,,,,,,,,,,,,,,
2466.1999999284744,,memorable_rating,106448,Boise,,52,,4,,,,,,,,,,,,,,,
null,,confidence_buffer,106550,confidence_buffer,,null,,,,,,,,,,,,,,,,,
null,,thebreak,107052,break,,null,,,,,,,,,,,,,,,,,
2243.600000023842,,familiar_rating,109296,Hagerstown,,49,Hagerstown,1,,,,,,,,,,,,,,,
null,,confidence_buffer,109397,confidence_buffer,,null,,,,,,,,,,,,,,,,,
2219,,unique_rating,111616,Hagerstown,,51,,3,,,,,,,,,,,,,,,
null,,confidence_buffer,111718,confidence_buffer,,null,,,,,,,,,,,,,,,,,
3817.2000000476837,,memorable_rating,115536,Hagerstown,,51,,3,,,,,,,,,,,,,,,
null,,confidence_buffer,115637,confidence_buffer,,null,,,,,,,,,,,,,,,,,
null,,thebreak,116139,break,,null,,,,,,,,,,,,,,,,,
2804.399999976158,,familiar_rating,118944,Norfolk,,50,Norfolk,2,,,,,,,,,,,,,,,
null,,confidence_buffer,119045,confidence_buffer,,null,,,,,,,,,,,,,,,,,
3962.3000000715256,,unique_rating,123008,Norfolk,,50,,2,,,,,,,,,,,,,,,
null,,confidence_buffer,123108,confidence_buffer,,null,,,,,,,,,,,,,,,,,
1866.8000000715256,,memorable_rating,124976,Norfolk,,51,,3,,,,,,,,,,,,,,,
null,,confidence_buffer,125076,confidence_buffer,,null,,,,,,,,,,,,,,,,,
2274.899999976158,,probe_rating,127352,probe_rating,,53,,,5,1,,,,,,,,,,,,,
null,,confidence_buffer,127453,confidence_buffer,,null,,,,,,,,,,,,,,,,,
null,,thebreak,127955,break,,null,,,,,,,,,,,,,,,,,
4916,,familiar_rating,132871,Salem,,53,Salem,5,,,,,,,,,,,,,,,
null,,confidence_buffer,132973,confidence_buffer,,null,,,,,,,,,,,,,,,,,
3786.7000000476837,,unique_rating,136761,Salem,,50,,2,,,,,,,,,,,,,,,
null,,confidence_buffer,136861,confidence_buffer,,null,,,,,,,,,,,,,,,,,
2106.100000023842,,memorable_rating,138968,Salem,,53,,5,,,,,,,,,,,,,,,
null,,confidence_buffer,139069,confidence_buffer,,null,,,,,,,,,,,,,,,,,
null,,thebreak,139571,break,,null,,,,,,,,,,,,,,,,,
6364.700000047684,,familiar_rating,145936,Yakima,,52,Yakima,4,,,,,,,,,,,,,,,
null,,confidence_buffer,146037,confidence_buffer,,null,,,,,,,,,,,,,,,,,
2188.6999999284744,,unique_rating,148226,Yakima,,53,,5,,,,,,,,,,,,,,,
null,,confidence_buffer,148327,confidence_buffer,,null,,,,,,,,,,,,,,,,,
2136,,memorable_rating,150464,Yakima,,53,,5,,,,,,,,,,,,,,,
null,,confidence_buffer,150564,confidence_buffer,,null,,,,,,,,,,,,,,,,,
null,,thebreak,151066,break,,null,,,,,,,,,,,,,,,,,
2670.100000023842,,familiar_rating,153736,Reno,,53,Reno,5,,,,,,,,,,,,,,,
null,,confidence_buffer,153838,confidence_buffer,,null,,,,,,,,,,,,,,,,,
2161.6999999284744,,unique_rating,156000,Reno,,52,,4,,,,,,,,,,,,,,,
null,,confidence_buffer,156100,confidence_buffer,,null,,,,,,,,,,,,,,,,,
1978.6999999284744,,memorable_rating,158079,Reno,,53,,5,,,,,,,,,,,,,,,
null,,confidence_buffer,158180,confidence_buffer,,null,,,,,,,,,,,,,,,,,
null,,thebreak,158682,break,,null,,,,,,,,,,,,,,,,,
1277.1999999284744,,familiar_rating,159960,Pueblo,,53,Pueblo,5,,,,,,,,,,,,,,,
null,,confidence_buffer,160060,confidence_buffer,,null,,,,,,,,,,,,,,,,,
1443.1999999284744,,unique_rating,161504,Pueblo,,53,,5,,,,,,,,,,,,,,,
null,,confidence_buffer,161605,confidence_buffer,,null,,,,,,,,,,,,,,,,,
1987.1000000238419,,memorable_rating,163592,Pueblo,,53,,5,,,,,,,,,,,,,,,
null,,confidence_buffer,163694,confidence_buffer,,null,,,,,,,,,,,,,,,,,
null,,thebreak,164196,break,,null,,,,,,,,,,,,,,,,,
1442.8999999761581,,familiar_rating,165639,Boulder,,53,Boulder,5,,,,,,,,,,,,,,,
null,,confidence_buffer,165741,confidence_buffer,,null,,,,,,,,,,,,,,,,,
1802.2000000476837,,unique_rating,167544,Boulder,,53,,5,,,,,,,,,,,,,,,
null,,confidence_buffer,167646,confidence_buffer,,null,,,,,,,,,,,,,,,,,
5481.399999976158,,memorable_rating,173128,Boulder,,52,,4,,,,,,,,,,,,,,,
null,,confidence_buffer,173229,confidence_buffer,,null,,,,,,,,,,,,,,,,,
null,,thebreak,173731,break,,null,,,,,,,,,,,,,,,,,
6436.300000071526,,familiar_rating,180168,Topeka,,52,Topeka,4,,,,,,,,,,,,,,,
null,,confidence_buffer,180270,confidence_buffer,,null,,,,,,,,,,,,,,,,,
2873.1999999284744,,unique_rating,183144,Topeka,,52,,4,,,,,,,,,,,,,,,
null,,confidence_buffer,183245,confidence_buffer,,null,,,,,,,,,,,,,,,,,
3274,,memorable_rating,186519,Topeka,,52,,4,,,,,,,,,,,,,,,
null,,confidence_buffer,186620,confidence_buffer,,null,,,,,,,,,,,,,,,,,
null,,thebreak,187121,break,,null,,,,,,,,,,,,,,,,,
4886.5,,familiar_rating,192008,Altoona,,52,Altoona,4,,,,,,,,,,,,,,,
null,,confidence_buffer,192109,confidence_buffer,,null,,,,,,,,,,,,,,,,,
2370.100000023842,,unique_rating,194480,Altoona,,53,,5,,,,,,,,,,,,,,,
null,,confidence_buffer,194581,confidence_buffer,,null,,,,,,,,,,,,,,,,,
2754.3000000715256,,memorable_rating,197336,Altoona,,53,,5,,,,,,,,,,,,,,,
null,,confidence_buffer,197437,confidence_buffer,,null,,,,,,,,,,,,,,,,,
2187.1999999284744,,probe_rating,199625,probe_rating,,53,,,5,1,,,,,,,,,,,,,
null,,confidence_buffer,199726,confidence_buffer,,null,,,,,,,,,,,,,,,,,
null,,thebreak,200228,break,,null,,,,,,,,,,,,,,,,,
3843.100000023842,,familiar_rating,204072,Scottsdale,,51,Scottsdale,3,,,,,,,,,,,,,,,
null,,confidence_buffer,204173,confidence_buffer,,null,,,,,,,,,,,,,,,,,
4250.700000047684,,unique_rating,208425,Scottsdale,,51,,3,,,,,,,,,,,,,,,
null,,confidence_buffer,208526,confidence_buffer,,null,,,,,,,,,,,,,,,,,
2689.7000000476837,,probe_rating,211216,probe_rating,,49,,,1,1,,,,,,,,,,,,,
null,,confidence_buffer,211317,confidence_buffer,,null,,,,,,,,,,,,,,,,,
5034.300000071526,,memorable_rating,216352,Scottsdale,,50,,2,,,,,,,,,,,,,,,
null,,confidence_buffer,216454,confidence_buffer,,null,,,,,,,,,,,,,,,,,
null,,thebreak,216956,break,,null,,,,,,,,,,,,,,,,,
2995.399999976158,,familiar_rating,219951,Newport News,,49,Newport News,1,,,,,,,,,,,,,,,
null,,confidence_buffer,220052,confidence_buffer,,null,,,,,,,,,,,,,,,,,
2451.0999999046326,,unique_rating,222504,Newport News,,53,,5,,,,,,,,,,,,,,,
null,,confidence_buffer,222605,confidence_buffer,,null,,,,,,,,,,,,,,,,,
4083.600000023842,,memorable_rating,226689,Newport News,,49,,1,,,,,,,,,,,,,,,
null,,confidence_buffer,226792,confidence_buffer,,null,,,,,,,,,,,,,,,,,
null,,thebreak,227293,break,,null,,,,,,,,,,,,,,,,,
2906.100000023842,,familiar_rating,230200,Peoria,,51,Peoria,3,,,,,,,,,,,,,,,
null,,confidence_buffer,230301,confidence_buffer,,null,,,,,,,,,,,,,,,,,
3498.399999976158,,unique_rating,233800,Peoria,,52,,4,,,,,,,,,,,,,,,
null,,confidence_buffer,233902,confidence_buffer,,null,,,,,,,,,,,,,,,,,
3106.600000023842,,memorable_rating,237009,Peoria,,53,,5,,,,,,,,,,,,,,,
null,,confidence_buffer,237110,confidence_buffer,,null,,,,,,,,,,,,,,,,,
1857.2000000476837,,probe_rating,238968,probe_rating,,49,,,1,1,,,,,,,,,,,,,
null,,confidence_buffer,239070,confidence_buffer,,null,,,,,,,,,,,,,,,,,
null,,thebreak,239571,break,,null,,,,,,,,,,,,,,,,,
3396.0999999046326,,familiar_rating,242968,Annapolis,,51,Annapolis,3,,,,,,,,,,,,,,,
null,,confidence_buffer,243069,confidence_buffer,,null,,,,,,,,,,,,,,,,,
3673.7000000476837,,unique_rating,246744,Annapolis,,52,,4,,,,,,,,,,,,,,,
null,,confidence_buffer,246844,confidence_buffer,,null,,,,,,,,,,,,,,,,,
1699,,memorable_rating,248544,Annapolis,,52,,4,,,,,,,,,,,,,,,
null,,confidence_buffer,248645,confidence_buffer,,null,,,,,,,,,,,,,,,,,
2322.399999976158,,probe_rating,250968,probe_rating,,53,,,5,1,,,,,,,,,,,,,
null,,confidence_buffer,251068,confidence_buffer,,null,,,,,,,,,,,,,,,,,
null,,thebreak,251570,break,,null,,,,,,,,,,,,,,,,,
4733.799999952316,,familiar_rating,256305,Olympia,,52,Olympia,4,,,,,,,,,,,,,,,
null,,confidence_buffer,256406,confidence_buffer,,null,,,,,,,,,,,,,,,,,
2441.100000023842,,unique_rating,258848,Olympia,,51,,3,,,,,,,,,,,,,,,
null,,confidence_buffer,258950,confidence_buffer,,null,,,,,,,,,,,,,,,,,
1977.7000000476837,,memorable_rating,260928,Olympia,,51,,3,,,,,,,,,,,,,,,
null,,confidence_buffer,261029,confidence_buffer,,null,,,,,,,,,,,,,,,,,
null,,thebreak,261530,break,,null,,,,,,,,,,,,,,,,,
3381.100000023842,,familiar_rating,264912,Carson City,,52,Carson City,4,,,,,,,,,,,,,,,
null,,confidence_buffer,265013,confidence_buffer,,null,,,,,,,,,,,,,,,,,
3490.8000000715256,,unique_rating,268504,Carson City,,53,,5,,,,,,,,,,,,,,,
null,,confidence_buffer,268605,confidence_buffer,,null,,,,,,,,,,,,,,,,,
2722.8000000715256,,memorable_rating,271329,Carson City,,52,,4,,,,,,,,,,,,,,,
null,,confidence_buffer,271429,confidence_buffer,,null,,,,,,,,,,,,,,,,,
null,,thebreak,271931,break,,null,,,,,,,,,,,,,,,,,
3163.899999976158,,familiar_rating,275095,Frankfort,,50,Frankfort,2,,,,,,,,,,,,,,,
null,,confidence_buffer,275197,confidence_buffer,,null,,,,,,,,,,,,,,,,,
1827.6000000238419,,unique_rating,277025,Frankfort,,49,,1,,,,,,,,,,,,,,,
null,,confidence_buffer,277127,confidence_buffer,,null,,,,,,,,,,,,,,,,,
4416.399999976158,,memorable_rating,281544,Frankfort,,51,,3,,,,,,,,,,,,,,,
null,,confidence_buffer,281645,confidence_buffer,,null,,,,,,,,,,,,,,,,,
null,,thebreak,282147,break,,null,,,,,,,,,,,,,,,,,
4061.5999999046326,,intro_0,286209,instruct,,32,,,,,,,,,,,,,,,,,
6279.099999904633,,intro_1,292489,instruct,,32,,,,,,,,,,,,,,,,,
24263.199999928474,,intro_2,316752,instruct,,32,,,,,,,,,,,,,,,,,
null,,instruct_dir_4,318253,instruct,,null,,,,,,,,,,,,,,,,,
11625.600000023842,,realistic_rating,329880,Norfolk,,52,Norfolk,4,,,,,,,,,,,,,,,
null,,confidence_buffer,329980,confidence_buffer,,null,,,,,,,,,,,,,,,,,
2683.5,,probe_rating,332664,probe_rating,,49,,,1,1,,,,,,,,,,,,,
null,,confidence_buffer,332766,confidence_buffer,,null,,,,,,,,,,,,,,,,,
2665.899999976158,,pt2_unique_rating,335432,Norfolk,,51,,3,,,,,,,,,,,,,,,
null,,confidence_buffer,335534,confidence_buffer,,null,,,,,,,,,,,,,,,,,
2609.399999976158,,pt2_memorable_rating,338144,Norfolk,,50,,2,,,,,,,,,,,,,,,
null,,confidence_buffer,338245,confidence_buffer,,null,,,,,,,,,,,,,,,,,
8170.699999928474,,recognition_phase,346416,Norfolk,,52,,,,,new,0,0,,,,,,,,,,
null,,confidence_buffer,346518,confidence_buffer,,null,,,,,,,,,,,,,,,,,
null,,thebreak,347019,break,,null,,,,,,,,,,,,,,,,,
5180.200000047684,,realistic_rating,352200,Dothan,,49,Dothan,1,,,,,,,,,,,,,,,
null,,confidence_buffer,352301,confidence_buffer,,null,,,,,,,,,,,,,,,,,
4025.7999999523163,,pt2_unique_rating,356327,Dothan,,52,,4,,,,,,,,,,,,,,,
null,,confidence_buffer,356429,confidence_buffer,,null,,,,,,,,,,,,,,,,,
3498.600000023842,,pt2_memorable_rating,359928,Dothan,,51,,3,,,,,,,,,,,,,,,
null,,confidence_buffer,360030,confidence_buffer,,null,,,,,,,,,,,,,,,,,
2745.1999999284744,,recognition_phase,362776,Dothan,,52,,,,,new,1,0.5,,,,,,,,,,
null,,confidence_buffer,362876,confidence_buffer,,null,,,,,,,,,,,,,,,,,
null,,thebreak,363378,break,,null,,,,,,,,,,,,,,,,,
4421.899999976158,,realistic_rating,367800,Fort Wayne,,53,Fort Wayne,5,,,,,,,,,,,,,,,
null,,confidence_buffer,367901,confidence_buffer,,null,,,,,,,,,,,,,,,,,
3219.2000000476837,,pt2_unique_rating,371120,Fort Wayne,,53,,5,,,,,,,,,,,,,,,
null,,confidence_buffer,371221,confidence_buffer,,null,,,,,,,,,,,,,,,,,
2866,,pt2_memorable_rating,374088,Fort Wayne,,52,,4,,,,,,,,,,,,,,,
null,,confidence_buffer,374189,confidence_buffer,,null,,,,,,,,,,,,,,,,,
2620.100000023842,,recognition_phase,376809,Fort Wayne,,52,,,,,new,1,0.6666666666666666,,,,,,,,,,
null,,confidence_buffer,376911,confidence_buffer,,null,,,,,,,,,,,,,,,,,
null,,thebreak,377413,break,,null,,,,,,,,,,,,,,,,,
6707.199999928474,,realistic_rating,384120,Altoona,,51,Altoona,3,,,,,,,,,,,,,,,
null,,confidence_buffer,384222,confidence_buffer,,null,,,,,,,,,,,,,,,,,
2025.2000000476837,,pt2_unique_rating,386248,Altoona,,52,,4,,,,,,,,,,,,,,,
null,,confidence_buffer,386349,confidence_buffer,,null,,,,,,,,,,,,,,,,,
2210.5999999046326,,pt2_memorable_rating,388560,Altoona,,52,,4,,,,,,,,,,,,,,,
null,,confidence_buffer,388660,confidence_buffer,,null,,,,,,,,,,,,,,,,,
1899.3000000715256,,recognition_phase,390560,Altoona,,49,,,,,old,1,0.75,,,,,,,,,,
null,,confidence_buffer,390661,confidence_buffer,,null,,,,,,,,,,,,,,,,,
null,,thebreak,391163,break,,null,,,,,,,,,,,,,,,,,
5372.600000023842,,realistic_rating,396536,Cheyenne,,53,Cheyenne,5,,,,,,,,,,,,,,,
null,,confidence_buffer,396637,confidence_buffer,,null,,,,,,,,,,,,,,,,,
2755.2999999523163,,pt2_unique_rating,399392,Cheyenne,,52,,4,,,,,,,,,,,,,,,
null,,confidence_buffer,399494,confidence_buffer,,null,,,,,,,,,,,,,,,,,
2553.9000000953674,,pt2_memorable_rating,402048,Cheyenne,,52,,4,,,,,,,,,,,,,,,
null,,confidence_buffer,402149,confidence_buffer,,null,,,,,,,,,,,,,,,,,
2226,,recognition_phase,404376,Cheyenne,,52,,,,,new,1,0.8,,,,,,,,,,
null,,confidence_buffer,404477,confidence_buffer,,null,,,,,,,,,,,,,,,,,
null,,thebreak,404978,break,,null,,,,,,,,,,,,,,,,,
6117.099999904633,,realistic_rating,411096,Marquette,,53,Marquette,5,,,,,,,,,,,,,,,
null,,confidence_buffer,411198,confidence_buffer,,null,,,,,,,,,,,,,,,,,
1929.8999999761581,,pt2_unique_rating,413128,Marquette,,52,,4,,,,,,,,,,,,,,,
null,,confidence_buffer,413229,confidence_buffer,,null,,,,,,,,,,,,,,,,,
1858.2999999523163,,pt2_memorable_rating,415087,Marquette,,52,,4,,,,,,,,,,,,,,,
null,,confidence_buffer,415189,confidence_buffer,,null,,,,,,,,,,,,,,,,,
3570.600000023842,,recognition_phase,418760,Marquette,,52,,,,,new,0,0.6666666666666666,,,,,,,,,,
null,,confidence_buffer,418861,confidence_buffer,,null,,,,,,,,,,,,,,,,,
null,,thebreak,419362,break,,null,,,,,,,,,,,,,,,,,
3158.5,,realistic_rating,422520,Reno,,53,Reno,5,,,,,,,,,,,,,,,
null,,confidence_buffer,422622,confidence_buffer,,null,,,,,,,,,,,,,,,,,
2536.7999999523163,,pt2_unique_rating,425159,Reno,,53,,5,,,,,,,,,,,,,,,
null,,confidence_buffer,425261,confidence_buffer,,null,,,,,,,,,,,,,,,,,
2195.8000000715256,,pt2_memorable_rating,427457,Reno,,53,,5,,,,,,,,,,,,,,,
null,,confidence_buffer,427558,confidence_buffer,,null,,,,,,,,,,,,,,,,,
1953.7000000476837,,recognition_phase,429512,Reno,,49,,,,,old,1,0.7142857142857143,,,,,,,,,,
null,,confidence_buffer,429613,confidence_buffer,,null,,,,,,,,,,,,,,,,,
null,,thebreak,430115,break,,null,,,,,,,,,,,,,,,,,
2860.7000000476837,,realistic_rating,432976,Tallahassee,,53,Tallahassee,5,,,,,,,,,,,,,,,
null,,confidence_buffer,433078,confidence_buffer,,null,,,,,,,,,,,,,,,,,
1331.8999999761581,,pt2_unique_rating,434410,Tallahassee,,53,,5,,,,,,,,,,,,,,,
null,,confidence_buffer,434511,confidence_buffer,,null,,,,,,,,,,,,,,,,,
3440.8000000715256,,pt2_memorable_rating,437953,Tallahassee,,53,,5,,,,,,,,,,,,,,,
null,,confidence_buffer,438054,confidence_buffer,,null,,,,,,,,,,,,,,,,,
4265.700000047684,,recognition_phase,442320,Tallahassee,,52,,,,,new,1,0.75,,,,,,,,,,
null,,confidence_buffer,442421,confidence_buffer,,null,,,,,,,,,,,,,,,,,
null,,thebreak,442923,break,,null,,,,,,,,,,,,,,,,,
4924.099999904633,,realistic_rating,447848,Salem,,53,Salem,5,,,,,,,,,,,,,,,
null,,confidence_buffer,447949,confidence_buffer,,null,,,,,,,,,,,,,,,,,
3514.6999999284744,,pt2_unique_rating,451464,Salem,,51,,3,,,,,,,,,,,,,,,
null,,confidence_buffer,451565,confidence_buffer,,null,,,,,,,,,,,,,,,,,
2723.1999999284744,,pt2_memorable_rating,454288,Salem,,53,,5,,,,,,,,,,,,,,,
null,,confidence_buffer,454390,confidence_buffer,,null,,,,,,,,,,,,,,,,,
2081.600000023842,,recognition_phase,456473,Salem,,49,,,,,old,1,0.7777777777777778,,,,,,,,,,
null,,confidence_buffer,456575,confidence_buffer,,null,,,,,,,,,,,,,,,,,
null,,thebreak,457076,break,,null,,,,,,,,,,,,,,,,,
4764.899999976158,,realistic_rating,461842,Topeka,,53,Topeka,5,,,,,,,,,,,,,,,
null,,confidence_buffer,461943,confidence_buffer,,null,,,,,,,,,,,,,,,,,
4192.899999976158,,pt2_unique_rating,466136,Topeka,,53,,5,,,,,,,,,,,,,,,
null,,confidence_buffer,466239,confidence_buffer,,null,,,,,,,,,,,,,,,,,
2129,,pt2_memorable_rating,468368,Topeka,,53,,5,,,,,,,,,,,,,,,
null,,confidence_buffer,468470,confidence_buffer,,null,,,,,,,,,,,,,,,,,
2370.2000000476837,,recognition_phase,470841,Topeka,,49,,,,,old,1,0.8,,,,,,,,,,
null,,confidence_buffer,470942,confidence_buffer,,null,,,,,,,,,,,,,,,,,
null,,thebreak,471444,break,,null,,,,,,,,,,,,,,,,,
5812.5,,realistic_rating,477257,Rock Springs,,52,Rock Springs,4,,,,,,,,,,,,,,,
null,,confidence_buffer,477359,confidence_buffer,,null,,,,,,,,,,,,,,,,,
2136.600000023842,,pt2_unique_rating,479495,Rock Springs,,52,,4,,,,,,,,,,,,,,,
null,,confidence_buffer,479597,confidence_buffer,,null,,,,,,,,,,,,,,,,,
2002.1999999284744,,pt2_memorable_rating,481600,Rock Springs,,52,,4,,,,,,,,,,,,,,,
null,,confidence_buffer,481702,confidence_buffer,,null,,,,,,,,,,,,,,,,,
2785.5,,recognition_phase,484488,Rock Springs,,52,,,,,new,1,0.8181818181818182,,,,,,,,,,
null,,confidence_buffer,484590,confidence_buffer,,null,,,,,,,,,,,,,,,,,
null,,thebreak,485091,break,,null,,,,,,,,,,,,,,,,,
4700.899999976158,,realistic_rating,489793,Champaign,,52,Champaign,4,,,,,,,,,,,,,,,
null,,confidence_buffer,489895,confidence_buffer,,null,,,,,,,,,,,,,,,,,
2272.6999999284744,,pt2_unique_rating,492168,Champaign,,52,,4,,,,,,,,,,,,,,,
null,,confidence_buffer,492269,confidence_buffer,,null,,,,,,,,,,,,,,,,,
2411,,pt2_memorable_rating,494680,Champaign,,51,,3,,,,,,,,,,,,,,,
null,,confidence_buffer,494781,confidence_buffer,,null,,,,,,,,,,,,,,,,,
3682.399999976158,,recognition_phase,498464,Champaign,,52,,,,,new,1,0.8333333333333334,,,,,,,,,,
null,,confidence_buffer,498564,confidence_buffer,,null,,,,,,,,,,,,,,,,,
null,,thebreak,499065,break,,null,,,,,,,,,,,,,,,,,
5807.200000047684,,realistic_rating,504872,Toledo,,53,Toledo,5,,,,,,,,,,,,,,,
null,,confidence_buffer,504974,confidence_buffer,,null,,,,,,,,,,,,,,,,,
2529.399999976158,,pt2_unique_rating,507504,Toledo,,53,,5,,,,,,,,,,,,,,,
null,,confidence_buffer,507606,confidence_buffer,,null,,,,,,,,,,,,,,,,,
1586.6000000238419,,pt2_memorable_rating,509192,Toledo,,53,,5,,,,,,,,,,,,,,,
null,,confidence_buffer,509293,confidence_buffer,,null,,,,,,,,,,,,,,,,,
2570.2999999523163,,probe_rating,511864,probe_rating,,49,,,1,1,,,,,,,,,,,,,
null,,confidence_buffer,511965,confidence_buffer,,null,,,,,,,,,,,,,,,,,
2130.8000000715256,,recognition_phase,514096,Toledo,,49,,,,,old,1,0.8461538461538461,,,,,,,,,,
null,,confidence_buffer,514197,confidence_buffer,,null,,,,,,,,,,,,,,,,,
null,,thebreak,514699,break,,null,,,,,,,,,,,,,,,,,
6228.899999976158,,realistic_rating,520928,Bellingham,,53,Bellingham,5,,,,,,,,,,,,,,,
null,,confidence_buffer,521029,confidence_buffer,,null,,,,,,,,,,,,,,,,,
2115.4000000953674,,pt2_unique_rating,523145,Bellingham,,53,,5,,,,,,,,,,,,,,,
null,,confidence_buffer,523246,confidence_buffer,,null,,,,,,,,,,,,,,,,,
1480.6999999284744,,pt2_memorable_rating,524727,Bellingham,,53,,5,,,,,,,,,,,,,,,
null,,confidence_buffer,524828,confidence_buffer,,null,,,,,,,,,,,,,,,,,
1914.7999999523163,,recognition_phase,526743,Bellingham,,52,,,,,new,1,0.8571428571428571,,,,,,,,,,
null,,confidence_buffer,526845,confidence_buffer,,null,,,,,,,,,,,,,,,,,
null,,thebreak,527346,break,,null,,,,,,,,,,,,,,,,,
3797.5,,realistic_rating,531144,Santa Monica,,53,Santa Monica,5,,,,,,,,,,,,,,,
null,,confidence_buffer,531245,confidence_buffer,,null,,,,,,,,,,,,,,,,,
1954.1000000238419,,pt2_unique_rating,533200,Santa Monica,,53,,5,,,,,,,,,,,,,,,
null,,confidence_buffer,533300,confidence_buffer,,null,,,,,,,,,,,,,,,,,
1709.0999999046326,,pt2_memorable_rating,535010,Santa Monica,,53,,5,,,,,,,,,,,,,,,
null,,confidence_buffer,535110,confidence_buffer,,null,,,,,,,,,,,,,,,,,
1784.7000000476837,,recognition_phase,536895,Santa Monica,,52,,,,,new,1,0.8666666666666667,,,,,,,,,,
null,,confidence_buffer,536996,confidence_buffer,,null,,,,,,,,,,,,,,,,,
null,,thebreak,537498,break,,null,,,,,,,,,,,,,,,,,
2341.8000000715256,,realistic_rating,539839,Muncie,,53,Muncie,5,,,,,,,,,,,,,,,
null,,confidence_buffer,539940,confidence_buffer,,null,,,,,,,,,,,,,,,,,
2555,,probe_rating,542496,probe_rating,,53,,,5,1,,,,,,,,,,,,,
null,,confidence_buffer,542597,confidence_buffer,,null,,,,,,,,,,,,,,,,,
2195.100000023842,,pt2_unique_rating,544792,Muncie,,53,,5,,,,,,,,,,,,,,,
null,,confidence_buffer,544893,confidence_buffer,,null,,,,,,,,,,,,,,,,,
1666.5,,pt2_memorable_rating,546560,Muncie,,53,,5,,,,,,,,,,,,,,,
null,,confidence_buffer,546661,confidence_buffer,,null,,,,,,,,,,,,,,,,,
1714.2000000476837,,recognition_phase,548376,Muncie,,52,,,,,new,1,0.875,,,,,,,,,,
null,,confidence_buffer,548477,confidence_buffer,,null,,,,,,,,,,,,,,,,,
null,,thebreak,548978,break,,null,,,,,,,,,,,,,,,,,
3149.600000023842,,realistic_rating,552129,Carson City,,53,Carson City,5,,,,,,,,,,,,,,,
null,,confidence_buffer,552229,confidence_buffer,,null,,,,,,,,,,,,,,,,,
2506.5,,pt2_unique_rating,554736,Carson City,,51,,3,,,,,,,,,,,,,,,
null,,confidence_buffer,554838,confidence_buffer,,null,,,,,,,,,,,,,,,,,
2954,,pt2_memorable_rating,557792,Carson City,,52,,4,,,,,,,,,,,,,,,
null,,confidence_buffer,557894,confidence_buffer,,null,,,,,,,,,,,,,,,,,
2017.0999999046326,,probe_rating,559912,probe_rating,,50,,,2,1,,,,,,,,,,,,,
null,,confidence_buffer,560013,confidence_buffer,,null,,,,,,,,,,,,,,,,,
1602.2999999523163,,recognition_phase,561616,Carson City,,49,,,,,old,1,0.8823529411764706,,,,,,,,,,
null,,confidence_buffer,561717,confidence_buffer,,null,,,,,,,,,,,,,,,,,
null,,thebreak,562218,break,,null,,,,,,,,,,,,,,,,,
3165.7000000476837,,realistic_rating,565385,Syracuse,,53,Syracuse,5,,,,,,,,,,,,,,,
null,,confidence_buffer,565485,confidence_buffer,,null,,,,,,,,,,,,,,,,,
1658.3000000715256,,pt2_unique_rating,567144,Syracuse,,53,,5,,,,,,,,,,,,,,,
null,,confidence_buffer,567245,confidence_buffer,,null,,,,,,,,,,,,,,,,,
2346.3000000715256,,pt2_memorable_rating,569592,Syracuse,,52,,4,,,,,,,,,,,,,,,
null,,confidence_buffer,569694,confidence_buffer,,null,,,,,,,,,,,,,,,,,
2753.7999999523163,,recognition_phase,572448,Syracuse,,52,,,,,new,1,0.8888888888888888,,,,,,,,,,
null,,confidence_buffer,572549,confidence_buffer,,null,,,,,,,,,,,,,,,,,
null,,thebreak,573050,break,,null,,,,,,,,,,,,,,,,,
1732.6000000238419,,realistic_rating,574783,Annapolis,,53,Annapolis,5,,,,,,,,,,,,,,,
null,,confidence_buffer,574885,confidence_buffer,,null,,,,,,,,,,,,,,,,,
2707.5,,pt2_unique_rating,577593,Annapolis,,52,,4,,,,,,,,,,,,,,,
null,,confidence_buffer,577695,confidence_buffer,,null,,,,,,,,,,,,,,,,,
2232.7000000476837,,pt2_memorable_rating,579928,Annapolis,,52,,4,,,,,,,,,,,,,,,
null,,confidence_buffer,580030,confidence_buffer,,null,,,,,,,,,,,,,,,,,
1778.3999999761581,,recognition_phase,581808,Annapolis,,49,,,,,old,1,0.8947368421052632,,,,,,,,,,
null,,confidence_buffer,581910,confidence_buffer,,null,,,,,,,,,,,,,,,,,
null,,thebreak,582411,break,,null,,,,,,,,,,,,,,,,,
14668.100000023842,,realistic_rating,597080,Berkeley,,53,Berkeley,5,,,,,,,,,,,,,,,
null,,confidence_buffer,597180,confidence_buffer,,null,,,,,,,,,,,,,,,,,
2435.2999999523163,,pt2_unique_rating,599616,Berkeley,,52,,4,,,,,,,,,,,,,,,
null,,confidence_buffer,599717,confidence_buffer,,null,,,,,,,,,,,,,,,,,
1155.6999999284744,,pt2_memorable_rating,600873,Berkeley,,52,,4,,,,,,,,,,,,,,,
null,,confidence_buffer,600974,confidence_buffer,,null,,,,,,,,,,,,,,,,,
2851.5,,recognition_phase,603826,Berkeley,,49,,,,,old,0,0.85,,,,,,,,,,
null,,confidence_buffer,603927,confidence_buffer,,null,,,,,,,,,,,,,,,,,
null,,thebreak,604428,break,,null,,,,,,,,,,,,,,,,,
2475.6999999284744,,realistic_rating,606904,Pasadena,,53,Pasadena,5,,,,,,,,,,,,,,,
null,,confidence_buffer,607006,confidence_buffer,,null,,,,,,,,,,,,,,,,,
1208.7000000476837,,pt2_unique_rating,608216,Pasadena,,53,,5,,,,,,,,,,,,,,,
null,,confidence_buffer,608317,confidence_buffer,,null,,,,,,,,,,,,,,,,,
1587.2999999523163,,pt2_memorable_rating,609904,Pasadena,,53,,5,,,,,,,,,,,,,,,
null,,confidence_buffer,610006,confidence_buffer,,null,,,,,,,,,,,,,,,,,
1321,,recognition_phase,611328,Pasadena,,49,,,,,old,0,0.8095238095238095,,,,,,,,,,
null,,confidence_buffer,611429,confidence_buffer,,null,,,,,,,,,,,,,,,,,
null,,thebreak,611931,break,,null,,,,,,,,,,,,,,,,,
2700.7000000476837,,realistic_rating,614632,Boise,,53,Boise,5,,,,,,,,,,,,,,,
null,,confidence_buffer,614733,confidence_buffer,,null,,,,,,,,,,,,,,,,,
2034.5,,pt2_unique_rating,616768,Boise,,52,,4,,,,,,,,,,,,,,,
null,,confidence_buffer,616870,confidence_buffer,,null,,,,,,,,,,,,,,,,,
1378.1000000238419,,pt2_memorable_rating,618248,Boise,,52,,4,,,,,,,,,,,,,,,
null,,confidence_buffer,618349,confidence_buffer,,null,,,,,,,,,,,,,,,,,
1266.4000000953674,,recognition_phase,619616,Boise,,49,,,,,old,1,0.8181818181818182,,,,,,,,,,
null,,confidence_buffer,619718,confidence_buffer,,null,,,,,,,,,,,,,,,,,
null,,thebreak,620218,break,,null,,,,,,,,,,,,,,,,,
2807.600000023842,,realistic_rating,623026,Dover,,53,Dover,5,,,,,,,,,,,,,,,
null,,confidence_buffer,623127,confidence_buffer,,null,,,,,,,,,,,,,,,,,
2128.2999999523163,,pt2_unique_rating,625256,Dover,,50,,2,,,,,,,,,,,,,,,
null,,confidence_buffer,625357,confidence_buffer,,null,,,,,,,,,,,,,,,,,
2387.100000023842,,probe_rating,627745,probe_rating,,49,,,1,1,,,,,,,,,,,,,
null,,confidence_buffer,627846,confidence_buffer,,null,,,,,,,,,,,,,,,,,
4041.5,,pt2_memorable_rating,631888,Dover,,51,,3,,,,,,,,,,,,,,,
null,,confidence_buffer,631989,confidence_buffer,,null,,,,,,,,,,,,,,,,,
3473.899999976158,,recognition_phase,635464,Dover,,52,,,,,new,1,0.8260869565217391,,,,,,,,,,
null,,confidence_buffer,635564,confidence_buffer,,null,,,,,,,,,,,,,,,,,
null,,thebreak,636065,break,,null,,,,,,,,,,,,,,,,,
56191.39999997616,,realistic_rating,692257,Newport News,,50,Newport News,2,,,,,,,,,,,,,,,
null,,confidence_buffer,692359,confidence_buffer,,null,,,,,,,,,,,,,,,,,
4552.799999952316,,pt2_unique_rating,696912,Newport News,,53,,5,,,,,,,,,,,,,,,
null,,confidence_buffer,697014,confidence_buffer,,null,,,,,,,,,,,,,,,,,
3401.3000000715256,,pt2_memorable_rating,700416,Newport News,,52,,4,,,,,,,,,,,,,,,
null,,confidence_buffer,700518,confidence_buffer,,null,,,,,,,,,,,,,,,,,
2977.7999999523163,,recognition_phase,703496,Newport News,,49,,,,,old,1,0.8333333333333334,,,,,,,,,,
null,,confidence_buffer,703598,confidence_buffer,,null,,,,,,,,,,,,,,,,,
null,,thebreak,704099,break,,null,,,,,,,,,,,,,,,,,
4509.5,,realistic_rating,708609,McKinney,,53,McKinney,5,,,,,,,,,,,,,,,
null,,confidence_buffer,708711,confidence_buffer,,null,,,,,,,,,,,,,,,,,
3376.1999999284744,,pt2_unique_rating,712088,McKinney,,52,,4,,,,,,,,,,,,,,,
null,,confidence_buffer,712189,confidence_buffer,,null,,,,,,,,,,,,,,,,,
2404.100000023842,,pt2_memorable_rating,714593,McKinney,,51,,3,,,,,,,,,,,,,,,
null,,confidence_buffer,714695,confidence_buffer,,null,,,,,,,,,,,,,,,,,
2072.600000023842,,recognition_phase,716768,McKinney,,52,,,,,new,1,0.84,,,,,,,,,,
null,,confidence_buffer,716870,confidence_buffer,,null,,,,,,,,,,,,,,,,,
null,,thebreak,717371,break,,null,,,,,,,,,,,,,,,,,
2291.899999976158,,realistic_rating,719664,Dubuque,,53,Dubuque,5,,,,,,,,,,,,,,,
null,,confidence_buffer,719764,confidence_buffer,,null,,,,,,,,,,,,,,,,,
3315.100000023842,,probe_rating,723080,probe_rating,,51,,,3,1,,,,,,,,,,,,,
null,,confidence_buffer,723181,confidence_buffer,,null,,,,,,,,,,,,,,,,,
4596.100000023842,,pt2_unique_rating,727777,Dubuque,,53,,5,,,,,,,,,,,,,,,
null,,confidence_buffer,727878,confidence_buffer,,null,,,,,,,,,,,,,,,,,
1352.8999999761581,,pt2_memorable_rating,729232,Dubuque,,53,,5,,,,,,,,,,,,,,,
null,,confidence_buffer,729333,confidence_buffer,,null,,,,,,,,,,,,,,,,,
1818.5,,recognition_phase,731152,Dubuque,,49,,,,,old,1,0.8461538461538461,,,,,,,,,,
null,,confidence_buffer,731252,confidence_buffer,,null,,,,,,,,,,,,,,,,,
null,,thebreak,731753,break,,null,,,,,,,,,,,,,,,,,
5798.199999928474,,realistic_rating,737552,Youngstown,,53,Youngstown,5,,,,,,,,,,,,,,,
null,,confidence_buffer,737652,confidence_buffer,,null,,,,,,,,,,,,,,,,,
3204,,pt2_unique_rating,740857,Youngstown,,51,,3,,,,,,,,,,,,,,,
null,,confidence_buffer,740959,confidence_buffer,,null,,,,,,,,,,,,,,,,,
1497.5999999046326,,pt2_memorable_rating,742457,Youngstown,,51,,3,,,,,,,,,,,,,,,
null,,confidence_buffer,742559,confidence_buffer,,null,,,,,,,,,,,,,,,,,
3065.2999999523163,,recognition_phase,745624,Youngstown,,52,,,,,new,1,0.8518518518518519,,,,,,,,,,
null,,confidence_buffer,745725,confidence_buffer,,null,,,,,,,,,,,,,,,,,
null,,thebreak,746227,break,,null,,,,,,,,,,,,,,,,,
21804.200000047684,,realistic_rating,768032,Scottsdale,,53,Scottsdale,5,,,,,,,,,,,,,,,
null,,confidence_buffer,768134,confidence_buffer,,null,,,,,,,,,,,,,,,,,
2640.8000000715256,,pt2_unique_rating,770776,Scottsdale,,51,,3,,,,,,,,,,,,,,,
null,,confidence_buffer,770878,confidence_buffer,,null,,,,,,,,,,,,,,,,,
3298.100000023842,,pt2_memorable_rating,774177,Scottsdale,,51,,3,,,,,,,,,,,,,,,
null,,confidence_buffer,774278,confidence_buffer,,null,,,,,,,,,,,,,,,,,
2489.600000023842,,recognition_phase,776768,Scottsdale,,52,,,,,new,0,0.8214285714285714,,,,,,,,,,
null,,confidence_buffer,776869,confidence_buffer,,null,,,,,,,,,,,,,,,,,
null,,thebreak,777371,break,,null,,,,,,,,,,,,,,,,,
2260.899999976158,,realistic_rating,779632,Boulder,,53,Boulder,5,,,,,,,,,,,,,,,
null,,confidence_buffer,779733,confidence_buffer,,null,,,,,,,,,,,,,,,,,
1955.5,,probe_rating,781689,probe_rating,,53,,,5,1,,,,,,,,,,,,,
null,,confidence_buffer,781790,confidence_buffer,,null,,,,,,,,,,,,,,,,,
3185.5,,pt2_unique_rating,784976,Boulder,,52,,4,,,,,,,,,,,,,,,
null,,confidence_buffer,785078,confidence_buffer,,null,,,,,,,,,,,,,,,,,
1994.5,,pt2_memorable_rating,787073,Boulder,,52,,4,,,,,,,,,,,,,,,
null,,confidence_buffer,787174,confidence_buffer,,null,,,,,,,,,,,,,,,,,
1889.5,,recognition_phase,789064,Boulder,,49,,,,,old,1,0.8275862068965517,,,,,,,,,,
null,,confidence_buffer,789165,confidence_buffer,,null,,,,,,,,,,,,,,,,,
null,,thebreak,789666,break,,null,,,,,,,,,,,,,,,,,
6925,,realistic_rating,796592,Frankfort,,53,Frankfort,5,,,,,,,,,,,,,,,
null,,confidence_buffer,796693,confidence_buffer,,null,,,,,,,,,,,,,,,,,
5282.600000023842,,pt2_unique_rating,801976,Frankfort,,50,,2,,,,,,,,,,,,,,,
null,,confidence_buffer,802077,confidence_buffer,,null,,,,,,,,,,,,,,,,,
1979,,pt2_memorable_rating,804057,Frankfort,,51,,3,,,,,,,,,,,,,,,
null,,confidence_buffer,804159,confidence_buffer,,null,,,,,,,,,,,,,,,,,
3200.399999976158,,recognition_phase,807360,Frankfort,,52,,,,,new,0,0.8,,,,,,,,,,
null,,confidence_buffer,807460,confidence_buffer,,null,,,,,,,,,,,,,,,,,
null,,thebreak,807961,break,,null,,,,,,,,,,,,,,,,,
25702.100000023842,,realistic_rating,833664,Bozeman,,53,Bozeman,5,,,,,,,,,,,,,,,
null,,confidence_buffer,833765,confidence_buffer,,null,,,,,,,,,,,,,,,,,
2266.5,,pt2_unique_rating,836032,Bozeman,,53,,5,,,,,,,,,,,,,,,
null,,confidence_buffer,836133,confidence_buffer,,null,,,,,,,,,,,,,,,,,
1946.1000000238419,,pt2_memorable_rating,838080,Bozeman,,51,,3,,,,,,,,,,,,,,,
null,,confidence_buffer,838181,confidence_buffer,,null,,,,,,,,,,,,,,,,,
3059.7999999523163,,recognition_phase,841241,Bozeman,,52,,,,,new,1,0.8064516129032258,,,,,,,,,,
null,,confidence_buffer,841342,confidence_buffer,,null,,,,,,,,,,,,,,,,,
null,,thebreak,841844,break,,null,,,,,,,,,,,,,,,,,
23052.200000047684,,realistic_rating,864896,Olympia,,53,Olympia,5,,,,,,,,,,,,,,,
null,,confidence_buffer,864998,confidence_buffer,,null,,,,,,,,,,,,,,,,,
4146.700000047684,,pt2_unique_rating,869145,Olympia,,53,,5,,,,,,,,,,,,,,,
null,,confidence_buffer,869246,confidence_buffer,,null,,,,,,,,,,,,,,,,,
2529.5999999046326,,pt2_memorable_rating,871776,Olympia,,52,,4,,,,,,,,,,,,,,,
null,,confidence_buffer,871878,confidence_buffer,,null,,,,,,,,,,,,,,,,,
2049.899999976158,,probe_rating,873928,probe_rating,,52,,,4,1,,,,,,,,,,,,,
null,,confidence_buffer,874028,confidence_buffer,,null,,,,,,,,,,,,,,,,,
4115.400000095367,,recognition_phase,878144,Olympia,,49,,,,,old,1,0.8125,,,,,,,,,,
null,,confidence_buffer,878245,confidence_buffer,,null,,,,,,,,,,,,,,,,,
null,,thebreak,878746,break,,null,,,,,,,,,,,,,,,,,
2341.399999976158,,realistic_rating,881088,Pueblo,,53,Pueblo,5,,,,,,,,,,,,,,,
null,,confidence_buffer,881189,confidence_buffer,,null,,,,,,,,,,,,,,,,,
2226,,probe_rating,883416,probe_rating,,50,,,2,1,,,,,,,,,,,,,
null,,confidence_buffer,883518,confidence_buffer,,null,,,,,,,,,,,,,,,,,
2553.899999976158,,pt2_unique_rating,886072,Pueblo,,53,,5,,,,,,,,,,,,,,,
null,,confidence_buffer,886173,confidence_buffer,,null,,,,,,,,,,,,,,,,,
1746.6000000238419,,pt2_memorable_rating,887920,Pueblo,,53,,5,,,,,,,,,,,,,,,
null,,confidence_buffer,888021,confidence_buffer,,null,,,,,,,,,,,,,,,,,
2194.2000000476837,,recognition_phase,890216,Pueblo,,49,,,,,old,1,0.8181818181818182,,,,,,,,,,
null,,confidence_buffer,890317,confidence_buffer,,null,,,,,,,,,,,,,,,,,
null,,thebreak,890819,break,,null,,,,,,,,,,,,,,,,,
4845,,realistic_rating,895664,Concord,,53,Concord,5,,,,,,,,,,,,,,,
null,,confidence_buffer,895765,confidence_buffer,,null,,,,,,,,,,,,,,,,,
3291.1999999284744,,pt2_unique_rating,899057,Concord,,52,,4,,,,,,,,,,,,,,,
null,,confidence_buffer,899159,confidence_buffer,,null,,,,,,,,,,,,,,,,,
2072.6999999284744,,pt2_memorable_rating,901232,Concord,,51,,3,,,,,,,,,,,,,,,
null,,confidence_buffer,901333,confidence_buffer,,null,,,,,,,,,,,,,,,,,
2370.0999999046326,,recognition_phase,903704,Concord,,52,,,,,new,1,0.8235294117647058,,,,,,,,,,
null,,confidence_buffer,903805,confidence_buffer,,null,,,,,,,,,,,,,,,,,
null,,thebreak,904306,break,,null,,,,,,,,,,,,,,,,,
3151.399999976158,,realistic_rating,907458,Terre Haute,,53,Terre Haute,5,,,,,,,,,,,,,,,
null,,confidence_buffer,907558,confidence_buffer,,null,,,,,,,,,,,,,,,,,
2225.399999976158,,pt2_unique_rating,909784,Terre Haute,,53,,5,,,,,,,,,,,,,,,
null,,confidence_buffer,909886,confidence_buffer,,null,,,,,,,,,,,,,,,,,
1825.6000000238419,,pt2_memorable_rating,911712,Terre Haute,,53,,5,,,,,,,,,,,,,,,
null,,confidence_buffer,911813,confidence_buffer,,null,,,,,,,,,,,,,,,,,
2290.399999976158,,recognition_phase,914104,Terre Haute,,52,,,,,new,1,0.8285714285714286,,,,,,,,,,
null,,confidence_buffer,914205,confidence_buffer,,null,,,,,,,,,,,,,,,,,
null,,thebreak,914706,break,,null,,,,,,,,,,,,,,,,,
4798,,realistic_rating,919505,Cambridge,,53,Cambridge,5,,,,,,,,,,,,,,,
null,,confidence_buffer,919606,confidence_buffer,,null,,,,,,,,,,,,,,,,,
2329.7000000476837,,pt2_unique_rating,921936,Cambridge,,51,,3,,,,,,,,,,,,,,,
null,,confidence_buffer,922037,confidence_buffer,,null,,,,,,,,,,,,,,,,,
1835.6000000238419,,pt2_memorable_rating,923873,Cambridge,,51,,3,,,,,,,,,,,,,,,
null,,confidence_buffer,923974,confidence_buffer,,null,,,,,,,,,,,,,,,,,
7882.399999976158,,recognition_phase,931857,Cambridge,,50,,,,,old,1,0.8333333333333334,,,,,,,,,,
null,,confidence_buffer,931958,confidence_buffer,,null,,,,,,,,,,,,,,,,,
null,,thebreak,932459,break,,null,,,,,,,,,,,,,,,,,
22092.5,,realistic_rating,954552,Fort Collins,,53,Fort Collins,5,,,,,,,,,,,,,,,
null,,confidence_buffer,954654,confidence_buffer,,null,,,,,,,,,,,,,,,,,
3787.600000023842,,pt2_unique_rating,958442,Fort Collins,,53,,5,,,,,,,,,,,,,,,
null,,confidence_buffer,958543,confidence_buffer,,null,,,,,,,,,,,,,,,,,
1736.2000000476837,,pt2_memorable_rating,960280,Fort Collins,,53,,5,,,,,,,,,,,,,,,
null,,confidence_buffer,960380,confidence_buffer,,null,,,,,,,,,,,,,,,,,
1907.1000000238419,,recognition_phase,962288,Fort Collins,,49,,,,,old,1,0.8378378378378378,,,,,,,,,,
null,,confidence_buffer,962389,confidence_buffer,,null,,,,,,,,,,,,,,,,,
null,,thebreak,962890,break,,null,,,,,,,,,,,,,,,,,
3782.2999999523163,,realistic_rating,966672,Decatur,,53,Decatur,5,,,,,,,,,,,,,,,
null,,confidence_buffer,966774,confidence_buffer,,null,,,,,,,,,,,,,,,,,
2145.100000023842,,pt2_unique_rating,968920,Decatur,,52,,4,,,,,,,,,,,,,,,
null,,confidence_buffer,969021,confidence_buffer,,null,,,,,,,,,,,,,,,,,
2345.600000023842,,probe_rating,971368,probe_rating,,49,,,1,1,,,,,,,,,,,,,
null,,confidence_buffer,971468,confidence_buffer,,null,,,,,,,,,,,,,,,,,
2956.600000023842,,pt2_memorable_rating,974426,Decatur,,52,,4,,,,,,,,,,,,,,,
null,,confidence_buffer,974527,confidence_buffer,,null,,,,,,,,,,,,,,,,,
6384.600000023842,,recognition_phase,980912,Decatur,,52,,,,,new,1,0.8421052631578947,,,,,,,,,,
null,,confidence_buffer,981014,confidence_buffer,,null,,,,,,,,,,,,,,,,,
null,,thebreak,981516,break,,null,,,,,,,,,,,,,,,,,
4044.600000023842,,realistic_rating,985561,Peoria,,53,Peoria,5,,,,,,,,,,,,,,,
null,,confidence_buffer,985662,confidence_buffer,,null,,,,,,,,,,,,,,,,,
2081.0999999046326,,pt2_unique_rating,987744,Peoria,,51,,3,,,,,,,,,,,,,,,
null,,confidence_buffer,987844,confidence_buffer,,null,,,,,,,,,,,,,,,,,
1499.3000000715256,,pt2_memorable_rating,989344,Peoria,,51,,3,,,,,,,,,,,,,,,
null,,confidence_buffer,989445,confidence_buffer,,null,,,,,,,,,,,,,,,,,
3459,,recognition_phase,992905,Peoria,,51,,,,,new,0,0.8205128205128205,,,,,,,,,,
null,,confidence_buffer,993006,confidence_buffer,,null,,,,,,,,,,,,,,,,,
null,,thebreak,993508,break,,null,,,,,,,,,,,,,,,,,
3570.8000000715256,,realistic_rating,997080,Las Cruces,,53,Las Cruces,5,,,,,,,,,,,,,,,
null,,confidence_buffer,997180,confidence_buffer,,null,,,,,,,,,,,,,,,,,
1298.9000000953674,,pt2_unique_rating,998480,Las Cruces,,53,,5,,,,,,,,,,,,,,,
null,,confidence_buffer,998581,confidence_buffer,,null,,,,,,,,,,,,,,,,,
1546.7000000476837,,pt2_memorable_rating,1000128,Las Cruces,,53,,5,,,,,,,,,,,,,,,
null,,confidence_buffer,1000229,confidence_buffer,,null,,,,,,,,,,,,,,,,,
2514.0999999046326,,recognition_phase,1002744,Las Cruces,,52,,,,,new,1,0.825,,,,,,,,,,
null,,confidence_buffer,1002845,confidence_buffer,,null,,,,,,,,,,,,,,,,,
null,,thebreak,1003346,break,,null,,,,,,,,,,,,,,,,,
3653.5,,realistic_rating,1007000,Fargo,,53,Fargo,5,,,,,,,,,,,,,,,
null,,confidence_buffer,1007102,confidence_buffer,,null,,,,,,,,,,,,,,,,,
858.0999999046326,,pt2_unique_rating,1007960,Fargo,,53,,5,,,,,,,,,,,,,,,
null,,confidence_buffer,1008062,confidence_buffer,,null,,,,,,,,,,,,,,,,,
1562.2999999523163,,pt2_memorable_rating,1009625,Fargo,,53,,5,,,,,,,,,,,,,,,
null,,confidence_buffer,1009726,confidence_buffer,,null,,,,,,,,,,,,,,,,,
1698.2999999523163,,recognition_phase,1011425,Fargo,,49,,,,,old,1,0.8292682926829268,,,,,,,,,,
null,,confidence_buffer,1011526,confidence_buffer,,null,,,,,,,,,,,,,,,,,
null,,thebreak,1012026,break,,null,,,,,,,,,,,,,,,,,
6284.800000071526,,realistic_rating,1018312,Helena,,53,Helena,5,,,,,,,,,,,,,,,
null,,confidence_buffer,1018413,confidence_buffer,,null,,,,,,,,,,,,,,,,,
2986.100000023842,,pt2_unique_rating,1021400,Helena,,51,,3,,,,,,,,,,,,,,,
null,,confidence_buffer,1021501,confidence_buffer,,null,,,,,,,,,,,,,,,,,
3210.0999999046326,,pt2_memorable_rating,1024712,Helena,,52,,4,,,,,,,,,,,,,,,
null,,confidence_buffer,1024812,confidence_buffer,,null,,,,,,,,,,,,,,,,,
4932.299999952316,,recognition_phase,1029745,Helena,,50,,,,,old,0,0.8095238095238095,,,,,,,,,,
null,,confidence_buffer,1029847,confidence_buffer,,null,,,,,,,,,,,,,,,,,
null,,thebreak,1030347,break,,null,,,,,,,,,,,,,,,,,
3077.100000023842,,realistic_rating,1033425,Burlington,,53,Burlington,5,,,,,,,,,,,,,,,
null,,confidence_buffer,1033527,confidence_buffer,,null,,,,,,,,,,,,,,,,,
1775.8999999761581,,pt2_unique_rating,1035304,Burlington,,50,,2,,,,,,,,,,,,,,,
null,,confidence_buffer,1035405,confidence_buffer,,null,,,,,,,,,,,,,,,,,
2882.2999999523163,,pt2_memorable_rating,1038288,Burlington,,50,,2,,,,,,,,,,,,,,,
null,,confidence_buffer,1038389,confidence_buffer,,null,,,,,,,,,,,,,,,,,
1802.5,,recognition_phase,1040192,Burlington,,49,,,,,old,1,0.813953488372093,,,,,,,,,,
null,,confidence_buffer,1040294,confidence_buffer,,null,,,,,,,,,,,,,,,,,
null,,thebreak,1040796,break,,null,,,,,,,,,,,,,,,,,
2052.100000023842,,realistic_rating,1042848,Ithaca,,53,Ithaca,5,,,,,,,,,,,,,,,
null,,confidence_buffer,1042950,confidence_buffer,,null,,,,,,,,,,,,,,,,,
1824.8000000715256,,pt2_unique_rating,1044776,Ithaca,,53,,5,,,,,,,,,,,,,,,
null,,confidence_buffer,1044878,confidence_buffer,,null,,,,,,,,,,,,,,,,,
2282.100000023842,,pt2_memorable_rating,1047160,Ithaca,,52,,4,,,,,,,,,,,,,,,
null,,confidence_buffer,1047261,confidence_buffer,,null,,,,,,,,,,,,,,,,,
2001.8000000715256,,recognition_phase,1049264,Ithaca,,49,,,,,old,0,0.7954545454545454,,,,,,,,,,
null,,confidence_buffer,1049365,confidence_buffer,,null,,,,,,,,,,,,,,,,,
null,,thebreak,1049866,break,,null,,,,,,,,,,,,,,,,,
2213.5,,realistic_rating,1052080,Gainesville,,53,Gainesville,5,,,,,,,,,,,,,,,
null,,confidence_buffer,1052181,confidence_buffer,,null,,,,,,,,,,,,,,,,,
2610.600000023842,,pt2_unique_rating,1054793,Gainesville,,50,,2,,,,,,,,,,,,,,,
null,,confidence_buffer,1054894,confidence_buffer,,null,,,,,,,,,,,,,,,,,
1865.5,,pt2_memorable_rating,1056760,Gainesville,,51,,3,,,,,,,,,,,,,,,
null,,confidence_buffer,1056862,confidence_buffer,,null,,,,,,,,,,,,,,,,,
1777.7999999523163,,recognition_phase,1058641,Gainesville,,52,,,,,new,1,0.8,,,,,,,,,,
null,,confidence_buffer,1058742,confidence_buffer,,null,,,,,,,,,,,,,,,,,
null,,thebreak,1059244,break,,null,,,,,,,,,,,,,,,,,
17387.899999976158,,realistic_rating,1076632,Yakima,,53,Yakima,5,,,,,,,,,,,,,,,
null,,confidence_buffer,1076734,confidence_buffer,,null,,,,,,,,,,,,,,,,,
908.1000000238419,,pt2_unique_rating,1077642,Yakima,,53,,5,,,,,,,,,,,,,,,
null,,confidence_buffer,1077743,confidence_buffer,,null,,,,,,,,,,,,,,,,,
1352,,pt2_memorable_rating,1079096,Yakima,,53,,5,,,,,,,,,,,,,,,
null,,confidence_buffer,1079197,confidence_buffer,,null,,,,,,,,,,,,,,,,,
2571.2999999523163,,recognition_phase,1081769,Yakima,,49,,,,,old,1,0.8043478260869565,,,,,,,,,,
null,,confidence_buffer,1081870,confidence_buffer,,null,,,,,,,,,,,,,,,,,
null,,thebreak,1082371,break,,null,,,,,,,,,,,,,,,,,
2604.5,,realistic_rating,1084976,Abilene,,53,Abilene,5,,,,,,,,,,,,,,,
null,,confidence_buffer,1085077,confidence_buffer,,null,,,,,,,,,,,,,,,,,
2515.2999999523163,,pt2_unique_rating,1087593,Abilene,,51,,3,,,,,,,,,,,,,,,
null,,confidence_buffer,1087694,confidence_buffer,,null,,,,,,,,,,,,,,,,,
945.5,,pt2_memorable_rating,1088640,Abilene,,51,,3,,,,,,,,,,,,,,,
null,,confidence_buffer,1088741,confidence_buffer,,null,,,,,,,,,,,,,,,,,
2402.2000000476837,,probe_rating,1091144,probe_rating,,53,,,5,1,,,,,,,,,,,,,
null,,confidence_buffer,1091245,confidence_buffer,,null,,,,,,,,,,,,,,,,,
1699,,recognition_phase,1092945,Abilene,,52,,,,,new,1,0.8085106382978723,,,,,,,,,,
null,,confidence_buffer,1093047,confidence_buffer,,null,,,,,,,,,,,,,,,,,
null,,thebreak,1093548,break,,null,,,,,,,,,,,,,,,,,
2268,,realistic_rating,1095816,Montpelier,,53,Montpelier,5,,,,,,,,,,,,,,,
null,,confidence_buffer,1095917,confidence_buffer,,null,,,,,,,,,,,,,,,,,
1066.1000000238419,,pt2_unique_rating,1096984,Montpelier,,53,,5,,,,,,,,,,,,,,,
null,,confidence_buffer,1097085,confidence_buffer,,null,,,,,,,,,,,,,,,,,
2714.5,,pt2_memorable_rating,1099800,Montpelier,,51,,3,,,,,,,,,,,,,,,
null,,confidence_buffer,1099900,confidence_buffer,,null,,,,,,,,,,,,,,,,,
2771.899999976158,,recognition_phase,1102673,Montpelier,,52,,,,,new,1,0.8125,,,,,,,,,,
null,,confidence_buffer,1102774,confidence_buffer,,null,,,,,,,,,,,,,,,,,
null,,thebreak,1103276,break,,null,,,,,,,,,,,,,,,,,
3628.5,,realistic_rating,1106905,Ann Arbor,,53,Ann Arbor,5,,,,,,,,,,,,,,,
null,,confidence_buffer,1107007,confidence_buffer,,null,,,,,,,,,,,,,,,,,
1872.7000000476837,,pt2_unique_rating,1108880,Ann Arbor,,52,,4,,,,,,,,,,,,,,,
null,,confidence_buffer,1108980,confidence_buffer,,null,,,,,,,,,,,,,,,,,
1635.1999999284744,,pt2_memorable_rating,1110616,Ann Arbor,,51,,3,,,,,,,,,,,,,,,
null,,confidence_buffer,1110717,confidence_buffer,,null,,,,,,,,,,,,,,,,,
4051,,recognition_phase,1114768,Ann Arbor,,51,,,,,new,0,0.7959183673469388,,,,,,,,,,
null,,confidence_buffer,1114869,confidence_buffer,,null,,,,,,,,,,,,,,,,,
null,,thebreak,1115370,break,,null,,,,,,,,,,,,,,,,,
5741.899999976158,,realistic_rating,1121113,Hagerstown,,51,Hagerstown,3,,,,,,,,,,,,,,,
null,,confidence_buffer,1121214,confidence_buffer,,null,,,,,,,,,,,,,,,,,
3833.7000000476837,,pt2_unique_rating,1125048,Hagerstown,,50,,2,,,,,,,,,,,,,,,
null,,confidence_buffer,1125149,confidence_buffer,,null,,,,,,,,,,,,,,,,,
1371.6000000238419,,pt2_memorable_rating,1126521,Hagerstown,,50,,2,,,,,,,,,,,,,,,
null,,confidence_buffer,1126621,confidence_buffer,,null,,,,,,,,,,,,,,,,,
2387.899999976158,,recognition_phase,1129010,Hagerstown,,49,,,,,old,1,0.8,,,,,,,,,,
null,,confidence_buffer,1129111,confidence_buffer,,null,,,,,,,,,,,,,,,,,
null,,thebreak,1129613,break,,null,,,,,,,,,,,,,,,,,
,,survey,1553474,survey-questions,,,,,,,,,,none,high,nope nothing else,I recognized most of the cities names so when they popped up again it was pretty easy to say I had or hadnt seen them before,They got a 5 if I could identify what state the city was most familiar with.  And as I stated before I recognized most of the cities named. ,A 5 if I had been to the city or knew about the city through the news etc.  Lower ratings if I didn't know much about the city.,If I knew there were several cities with the same name it got a lower score. ,Almost all of the cities were realistic because I had heard the names before. ,Nothing like this no. ,Nothing else I can think of
