rt,responses,trial_type,time_elapsed,stimulus,button_pressed,key_press,name_trial,city_type,rating,probe,probe_accuracy,response,correct,accuracy,problems,smooth,distraction,strategies,familiar,memorable,unique,realistic,similar,comments
6528.5,{worker_id:677b03282a32bc17e223ca06},id_enter,6531,,,,,,,,,,,,,,,,,,,,,
25267,,fullscreen,31802,fullscreen,0,,,,,,,,,,,,,,,,,,,
10969,,intro_0,42775,instruct,,32,,,,,,,,,,,,,,,,,,
11687.90000000014,,intro_1,54465,instruct,,32,,,,,,,,,,,,,,,,,,
9918.800000000047,,intro_2,64385,instruct,,32,,,,,,,,,,,,,,,,,,
null,,instruct_dir_4,65887,instruct,,null,,,,,,,,,,,,,,,,,,
null,,thebreak,66389,break,,null,,,,,,,,,,,,,,,,,,
12322.5,,familiar_rating,78714,Cody,,50,Cody,US,2,,,,,,,,,,,,,,,
null,,confidence_buffer,78816,confidence_buffer,,null,,,,,,,,,,,,,,,,,,
9383.90000000014,,unique_rating,88201,Cody,,51,,,3,,,,,,,,,,,,,,,
null,,confidence_buffer,88303,confidence_buffer,,null,,,,,,,,,,,,,,,,,,
4537.300000000047,,memorable_rating,92842,Cody,,52,,,4,,,,,,,,,,,,,,,
null,,confidence_buffer,92943,confidence_buffer,,null,,,,,,,,,,,,,,,,,,
null,,thebreak,93444,break,,null,,,,,,,,,,,,,,,,,,
4851.699999999953,,familiar_rating,98297,Fairhaven,,49,Fairhaven,Fictional,1,,,,,,,,,,,,,,,
null,,confidence_buffer,98399,confidence_buffer,,null,,,,,,,,,,,,,,,,,,
8682.100000000093,,unique_rating,107082,Fairhaven,,52,,,4,,,,,,,,,,,,,,,
null,,confidence_buffer,107184,confidence_buffer,,null,,,,,,,,,,,,,,,,,,
3800.5,,probe_rating,110985,probe_rating,,51,,,,3,1,,,,,,,,,,,,,
null,,confidence_buffer,111088,confidence_buffer,,null,,,,,,,,,,,,,,,,,,
7288.199999999953,,memorable_rating,118378,Fairhaven,,51,,,3,,,,,,,,,,,,,,,
null,,confidence_buffer,118481,confidence_buffer,,null,,,,,,,,,,,,,,,,,,
null,,thebreak,118982,break,,null,,,,,,,,,,,,,,,,,,
6730.199999999953,,familiar_rating,125713,Yukon,,53,Yukon,US,5,,,,,,,,,,,,,,,
null,,confidence_buffer,125816,confidence_buffer,,null,,,,,,,,,,,,,,,,,,
6360.40000000014,,unique_rating,132178,Yukon,,49,,,1,,,,,,,,,,,,,,,
null,,confidence_buffer,132279,confidence_buffer,,null,,,,,,,,,,,,,,,,,,
2352.899999999907,,memorable_rating,134633,Yukon,,53,,,5,,,,,,,,,,,,,,,
null,,confidence_buffer,134735,confidence_buffer,,null,,,,,,,,,,,,,,,,,,
null,,thebreak,135236,break,,null,,,,,,,,,,,,,,,,,,
13203.90000000014,,familiar_rating,148441,Highvale,,49,Highvale,Fictional,1,,,,,,,,,,,,,,,
null,,confidence_buffer,148543,confidence_buffer,,null,,,,,,,,,,,,,,,,,,
4713.199999999953,,unique_rating,153257,Highvale,,52,,,4,,,,,,,,,,,,,,,
null,,confidence_buffer,153359,confidence_buffer,,null,,,,,,,,,,,,,,,,,,
2193,,memorable_rating,155553,Highvale,,51,,,3,,,,,,,,,,,,,,,
null,,confidence_buffer,155655,confidence_buffer,,null,,,,,,,,,,,,,,,,,,
null,,thebreak,156156,break,,null,,,,,,,,,,,,,,,,,,
6276.5,,familiar_rating,162434,Peoria,,53,Peoria,US,5,,,,,,,,,,,,,,,
null,,confidence_buffer,162536,confidence_buffer,,null,,,,,,,,,,,,,,,,,,
3847.8000000000466,,unique_rating,166385,Peoria,,52,,,4,,,,,,,,,,,,,,,
null,,confidence_buffer,166487,confidence_buffer,,null,,,,,,,,,,,,,,,,,,
3745.5,,memorable_rating,170233,Peoria,,52,,,4,,,,,,,,,,,,,,,
null,,confidence_buffer,170335,confidence_buffer,,null,,,,,,,,,,,,,,,,,,
null,,thebreak,170837,break,,null,,,,,,,,,,,,,,,,,,
8267.399999999907,,familiar_rating,179105,Driftwood Bay,,49,Driftwood Bay,Fictional,1,,,,,,,,,,,,,,,
null,,confidence_buffer,179207,confidence_buffer,,null,,,,,,,,,,,,,,,,,,
2961.5,,unique_rating,182169,Driftwood Bay,,50,,,2,,,,,,,,,,,,,,,
null,,confidence_buffer,182272,confidence_buffer,,null,,,,,,,,,,,,,,,,,,
3903.5,,memorable_rating,186177,Driftwood Bay,,51,,,3,,,,,,,,,,,,,,,
null,,confidence_buffer,186280,confidence_buffer,,null,,,,,,,,,,,,,,,,,,
null,,thebreak,186781,break,,null,,,,,,,,,,,,,,,,,,
3787,,familiar_rating,190570,Watkins Glen,,53,Watkins Glen,US,5,,,,,,,,,,,,,,,
null,,confidence_buffer,190672,confidence_buffer,,null,,,,,,,,,,,,,,,,,,
5368.199999999953,,unique_rating,196041,Watkins Glen,,52,,,4,,,,,,,,,,,,,,,
null,,confidence_buffer,196142,confidence_buffer,,null,,,,,,,,,,,,,,,,,,
1297.6999999999534,,memorable_rating,197441,Watkins Glen,,52,,,4,,,,,,,,,,,,,,,
null,,confidence_buffer,197542,confidence_buffer,,null,,,,,,,,,,,,,,,,,,
null,,thebreak,198045,break,,null,,,,,,,,,,,,,,,,,,
6155.699999999953,,familiar_rating,204201,Assateague Island,,49,Assateague Island,US,1,,,,,,,,,,,,,,,
null,,confidence_buffer,204303,confidence_buffer,,null,,,,,,,,,,,,,,,,,,
4425.09999999986,,unique_rating,208729,Assateague Island,,53,,,5,,,,,,,,,,,,,,,
null,,confidence_buffer,208831,confidence_buffer,,null,,,,,,,,,,,,,,,,,,
6953.300000000047,,memorable_rating,215786,Assateague Island,,49,,,1,,,,,,,,,,,,,,,
null,,confidence_buffer,215887,confidence_buffer,,null,,,,,,,,,,,,,,,,,,
null,,thebreak,216390,break,,null,,,,,,,,,,,,,,,,,,
11954.100000000093,,familiar_rating,228345,Bayshore Haven,,49,Bayshore Haven,Fictional,1,,,,,,,,,,,,,,,
null,,confidence_buffer,228447,confidence_buffer,,null,,,,,,,,,,,,,,,,,,
4296.899999999907,,unique_rating,232745,Bayshore Haven,,50,,,2,,,,,,,,,,,,,,,
null,,confidence_buffer,232847,confidence_buffer,,null,,,,,,,,,,,,,,,,,,
3328.399999999907,,memorable_rating,236177,Bayshore Haven,,51,,,3,,,,,,,,,,,,,,,
null,,confidence_buffer,236279,confidence_buffer,,null,,,,,,,,,,,,,,,,,,
null,,thebreak,236780,break,,null,,,,,,,,,,,,,,,,,,
7379.799999999814,,familiar_rating,244161,New Hope,,52,New Hope,US,4,,,,,,,,,,,,,,,
null,,confidence_buffer,244263,confidence_buffer,,null,,,,,,,,,,,,,,,,,,
3361.100000000093,,unique_rating,247625,New Hope,,52,,,4,,,,,,,,,,,,,,,
null,,confidence_buffer,247728,confidence_buffer,,null,,,,,,,,,,,,,,,,,,
5104.100000000093,,probe_rating,252833,probe_rating,,49,,,,1,1,,,,,,,,,,,,,
null,,confidence_buffer,252935,confidence_buffer,,null,,,,,,,,,,,,,,,,,,
4665.299999999814,,memorable_rating,257601,New Hope,,52,,,4,,,,,,,,,,,,,,,
null,,confidence_buffer,257702,confidence_buffer,,null,,,,,,,,,,,,,,,,,,
null,,thebreak,258204,break,,null,,,,,,,,,,,,,,,,,,
12588,,familiar_rating,270794,Hot Springs,,53,Hot Springs,US,5,,,,,,,,,,,,,,,
null,,confidence_buffer,270896,confidence_buffer,,null,,,,,,,,,,,,,,,,,,
4519.899999999907,,unique_rating,275417,Hot Springs,,50,,,2,,,,,,,,,,,,,,,
null,,confidence_buffer,275519,confidence_buffer,,null,,,,,,,,,,,,,,,,,,
2825.1999999997206,,memorable_rating,278345,Hot Springs,,51,,,3,,,,,,,,,,,,,,,
null,,confidence_buffer,278447,confidence_buffer,,null,,,,,,,,,,,,,,,,,,
null,,thebreak,278949,break,,null,,,,,,,,,,,,,,,,,,
3227.2000000001863,,familiar_rating,282178,Medora,,49,Medora,US,1,,,,,,,,,,,,,,,
null,,confidence_buffer,282281,confidence_buffer,,null,,,,,,,,,,,,,,,,,,
3623.7000000001863,,unique_rating,285905,Medora,,52,,,4,,,,,,,,,,,,,,,
null,,confidence_buffer,286008,confidence_buffer,,null,,,,,,,,,,,,,,,,,,
2072.1999999997206,,memorable_rating,288081,Medora,,52,,,4,,,,,,,,,,,,,,,
null,,confidence_buffer,288183,confidence_buffer,,null,,,,,,,,,,,,,,,,,,
null,,thebreak,288685,break,,null,,,,,,,,,,,,,,,,,,
4947,,familiar_rating,293634,Millstone,,49,Millstone,Fictional,1,,,,,,,,,,,,,,,
null,,confidence_buffer,293736,confidence_buffer,,null,,,,,,,,,,,,,,,,,,
6536.5,,unique_rating,300273,Millstone,,51,,,3,,,,,,,,,,,,,,,
null,,confidence_buffer,300376,confidence_buffer,,null,,,,,,,,,,,,,,,,,,
2592.7000000001863,,memorable_rating,302969,Millstone,,50,,,2,,,,,,,,,,,,,,,
null,,confidence_buffer,303072,confidence_buffer,,null,,,,,,,,,,,,,,,,,,
null,,thebreak,303572,break,,null,,,,,,,,,,,,,,,,,,
4787.800000000279,,familiar_rating,308361,Claywater,,49,Claywater,Fictional,1,,,,,,,,,,,,,,,
null,,confidence_buffer,308464,confidence_buffer,,null,,,,,,,,,,,,,,,,,,
3848.399999999907,,unique_rating,312313,Claywater,,50,,,2,,,,,,,,,,,,,,,
null,,confidence_buffer,312415,confidence_buffer,,null,,,,,,,,,,,,,,,,,,
1984.7999999998137,,memorable_rating,314401,Claywater,,50,,,2,,,,,,,,,,,,,,,
null,,confidence_buffer,314503,confidence_buffer,,null,,,,,,,,,,,,,,,,,,
null,,thebreak,315003,break,,null,,,,,,,,,,,,,,,,,,
12461.200000000186,,familiar_rating,327465,Ravenport,,49,Ravenport,Fictional,1,,,,,,,,,,,,,,,
null,,confidence_buffer,327567,confidence_buffer,,null,,,,,,,,,,,,,,,,,,
3760.7999999998137,,unique_rating,331329,Ravenport,,51,,,3,,,,,,,,,,,,,,,
null,,confidence_buffer,331431,confidence_buffer,,null,,,,,,,,,,,,,,,,,,
2401.1999999997206,,memorable_rating,333833,Ravenport,,51,,,3,,,,,,,,,,,,,,,
null,,confidence_buffer,333935,confidence_buffer,,null,,,,,,,,,,,,,,,,,,
3145.5,,probe_rating,337082,probe_rating,,50,,,,2,1,,,,,,,,,,,,,
null,,confidence_buffer,337184,confidence_buffer,,null,,,,,,,,,,,,,,,,,,
null,,thebreak,337686,break,,null,,,,,,,,,,,,,,,,,,
3241.899999999907,,familiar_rating,340929,Crestwood,,51,Crestwood,Fictional,3,,,,,,,,,,,,,,,
null,,confidence_buffer,341031,confidence_buffer,,null,,,,,,,,,,,,,,,,,,
23802.5,,unique_rating,364834,Crestwood,,50,,,2,,,,,,,,,,,,,,,
null,,confidence_buffer,364936,confidence_buffer,,null,,,,,,,,,,,,,,,,,,
1423.8999999999069,,memorable_rating,366361,Crestwood,,51,,,3,,,,,,,,,,,,,,,
null,,confidence_buffer,366463,confidence_buffer,,null,,,,,,,,,,,,,,,,,,
null,,thebreak,366965,break,,null,,,,,,,,,,,,,,,,,,
5571.299999999814,,familiar_rating,372537,Natchez,,49,Natchez,US,1,,,,,,,,,,,,,,,
null,,confidence_buffer,372639,confidence_buffer,,null,,,,,,,,,,,,,,,,,,
3018,,unique_rating,375658,Natchez,,52,,,4,,,,,,,,,,,,,,,
null,,confidence_buffer,375760,confidence_buffer,,null,,,,,,,,,,,,,,,,,,
17848.5,,memorable_rating,393610,Natchez,,50,,,2,,,,,,,,,,,,,,,
null,,confidence_buffer,393712,confidence_buffer,,null,,,,,,,,,,,,,,,,,,
null,,thebreak,394214,break,,null,,,,,,,,,,,,,,,,,,
2521.5999999996275,,familiar_rating,396736,Sierra Hollow,,49,Sierra Hollow,Fictional,1,,,,,,,,,,,,,,,
null,,confidence_buffer,396839,confidence_buffer,,null,,,,,,,,,,,,,,,,,,
4409.699999999721,,unique_rating,401249,Sierra Hollow,,50,,,2,,,,,,,,,,,,,,,
null,,confidence_buffer,401351,confidence_buffer,,null,,,,,,,,,,,,,,,,,,
2761.2999999998137,,memorable_rating,404114,Sierra Hollow,,50,,,2,,,,,,,,,,,,,,,
null,,confidence_buffer,404216,confidence_buffer,,null,,,,,,,,,,,,,,,,,,
null,,thebreak,404717,break,,null,,,,,,,,,,,,,,,,,,
6074.899999999907,,familiar_rating,410793,Westridge,,51,Westridge,Fictional,3,,,,,,,,,,,,,,,
null,,confidence_buffer,410895,confidence_buffer,,null,,,,,,,,,,,,,,,,,,
2728.899999999907,,probe_rating,413625,probe_rating,,51,,,,3,1,,,,,,,,,,,,,
null,,confidence_buffer,413728,confidence_buffer,,null,,,,,,,,,,,,,,,,,,
3120.5,,unique_rating,416850,Westridge,,51,,,3,,,,,,,,,,,,,,,
null,,confidence_buffer,416951,confidence_buffer,,null,,,,,,,,,,,,,,,,,,
1888.7999999998137,,memorable_rating,418841,Westridge,,51,,,3,,,,,,,,,,,,,,,
null,,confidence_buffer,418944,confidence_buffer,,null,,,,,,,,,,,,,,,,,,
null,,thebreak,419445,break,,null,,,,,,,,,,,,,,,,,,
3626.600000000093,,familiar_rating,423073,Huntsville,,53,Huntsville,US,5,,,,,,,,,,,,,,,
null,,confidence_buffer,423176,confidence_buffer,,null,,,,,,,,,,,,,,,,,,
3360.3000000002794,,unique_rating,426537,Huntsville,,52,,,4,,,,,,,,,,,,,,,
null,,confidence_buffer,426639,confidence_buffer,,null,,,,,,,,,,,,,,,,,,
1329.6000000000931,,memorable_rating,427970,Huntsville,,52,,,4,,,,,,,,,,,,,,,
null,,confidence_buffer,428072,confidence_buffer,,null,,,,,,,,,,,,,,,,,,
null,,thebreak,428574,break,,null,,,,,,,,,,,,,,,,,,
7058.100000000093,,familiar_rating,435633,Oakridge,,53,Oakridge,Fictional,5,,,,,,,,,,,,,,,
null,,confidence_buffer,435735,confidence_buffer,,null,,,,,,,,,,,,,,,,,,
2569.8000000002794,,unique_rating,438306,Oakridge,,51,,,3,,,,,,,,,,,,,,,
null,,confidence_buffer,438408,confidence_buffer,,null,,,,,,,,,,,,,,,,,,
1552.6000000000931,,memorable_rating,439961,Oakridge,,52,,,4,,,,,,,,,,,,,,,
null,,confidence_buffer,440064,confidence_buffer,,null,,,,,,,,,,,,,,,,,,
null,,thebreak,440567,break,,null,,,,,,,,,,,,,,,,,,
3849.100000000093,,familiar_rating,444417,Alliance,,50,Alliance,US,2,,,,,,,,,,,,,,,
null,,confidence_buffer,444519,confidence_buffer,,null,,,,,,,,,,,,,,,,,,
2945,,unique_rating,447465,Alliance,,51,,,3,,,,,,,,,,,,,,,
null,,confidence_buffer,447567,confidence_buffer,,null,,,,,,,,,,,,,,,,,,
1985.5,,memorable_rating,449554,Alliance,,51,,,3,,,,,,,,,,,,,,,
null,,confidence_buffer,449656,confidence_buffer,,null,,,,,,,,,,,,,,,,,,
null,,thebreak,450157,break,,null,,,,,,,,,,,,,,,,,,
9339.600000000093,,familiar_rating,459497,Maravilla Springs,,49,Maravilla Springs,Fictional,1,,,,,,,,,,,,,,,
null,,confidence_buffer,459600,confidence_buffer,,null,,,,,,,,,,,,,,,,,,
4097.799999999814,,unique_rating,463698,Maravilla Springs,,51,,,3,,,,,,,,,,,,,,,
null,,confidence_buffer,463801,confidence_buffer,,null,,,,,,,,,,,,,,,,,,
1839.2999999998137,,memorable_rating,465641,Maravilla Springs,,50,,,2,,,,,,,,,,,,,,,
null,,confidence_buffer,465744,confidence_buffer,,null,,,,,,,,,,,,,,,,,,
null,,thebreak,466245,break,,null,,,,,,,,,,,,,,,,,,
3162.2999999998137,,familiar_rating,469409,Sitka,,53,Sitka,US,5,,,,,,,,,,,,,,,
null,,confidence_buffer,469510,confidence_buffer,,null,,,,,,,,,,,,,,,,,,
2618.2000000001863,,unique_rating,472129,Sitka,,52,,,4,,,,,,,,,,,,,,,
null,,confidence_buffer,472232,confidence_buffer,,null,,,,,,,,,,,,,,,,,,
1521.1000000000931,,memorable_rating,473754,Sitka,,52,,,4,,,,,,,,,,,,,,,
null,,confidence_buffer,473856,confidence_buffer,,null,,,,,,,,,,,,,,,,,,
null,,thebreak,474358,break,,null,,,,,,,,,,,,,,,,,,
4378,,familiar_rating,478737,Ashford Hills,,49,Ashford Hills,Fictional,1,,,,,,,,,,,,,,,
null,,confidence_buffer,478839,confidence_buffer,,null,,,,,,,,,,,,,,,,,,
3921.100000000093,,unique_rating,482761,Ashford Hills,,50,,,2,,,,,,,,,,,,,,,
null,,confidence_buffer,482864,confidence_buffer,,null,,,,,,,,,,,,,,,,,,
1513,,memorable_rating,484378,Ashford Hills,,50,,,2,,,,,,,,,,,,,,,
null,,confidence_buffer,484480,confidence_buffer,,null,,,,,,,,,,,,,,,,,,
null,,thebreak,484982,break,,null,,,,,,,,,,,,,,,,,,
6546.399999999907,,familiar_rating,491529,Cleveland,,53,Cleveland,US,5,,,,,,,,,,,,,,,
null,,confidence_buffer,491631,confidence_buffer,,null,,,,,,,,,,,,,,,,,,
4897.299999999814,,unique_rating,496530,Cleveland,,50,,,2,,,,,,,,,,,,,,,
null,,confidence_buffer,496632,confidence_buffer,,null,,,,,,,,,,,,,,,,,,
15232.69999999972,,memorable_rating,511866,Cleveland,,52,,,4,,,,,,,,,,,,,,,
null,,confidence_buffer,511967,confidence_buffer,,null,,,,,,,,,,,,,,,,,,
null,,thebreak,512468,break,,null,,,,,,,,,,,,,,,,,,
4779.899999999907,,familiar_rating,517249,Berkeley Springs,,49,Berkeley Springs,US,1,,,,,,,,,,,,,,,
null,,confidence_buffer,517350,confidence_buffer,,null,,,,,,,,,,,,,,,,,,
10738,,unique_rating,528090,Berkeley Springs,,51,,,3,,,,,,,,,,,,,,,
null,,confidence_buffer,528192,confidence_buffer,,null,,,,,,,,,,,,,,,,,,
1295.8999999999069,,memorable_rating,529489,Berkeley Springs,,51,,,3,,,,,,,,,,,,,,,
null,,confidence_buffer,529591,confidence_buffer,,null,,,,,,,,,,,,,,,,,,
null,,thebreak,530093,break,,null,,,,,,,,,,,,,,,,,,
1843.1000000000931,,familiar_rating,531937,San Antonio,,53,San Antonio,US,5,,,,,,,,,,,,,,,
null,,confidence_buffer,532039,confidence_buffer,,null,,,,,,,,,,,,,,,,,,
2633.100000000093,,unique_rating,534673,San Antonio,,51,,,3,,,,,,,,,,,,,,,
null,,confidence_buffer,534776,confidence_buffer,,null,,,,,,,,,,,,,,,,,,
3616.7000000001863,,memorable_rating,538394,San Antonio,,52,,,4,,,,,,,,,,,,,,,
null,,confidence_buffer,538496,confidence_buffer,,null,,,,,,,,,,,,,,,,,,
null,,thebreak,538998,break,,null,,,,,,,,,,,,,,,,,,
18499.200000000186,,familiar_rating,557498,Elmsbury,,49,Elmsbury,Fictional,1,,,,,,,,,,,,,,,
null,,confidence_buffer,557601,confidence_buffer,,null,,,,,,,,,,,,,,,,,,
3367.399999999907,,unique_rating,560969,Elmsbury,,50,,,2,,,,,,,,,,,,,,,
null,,confidence_buffer,561071,confidence_buffer,,null,,,,,,,,,,,,,,,,,,
1800.7999999998137,,memorable_rating,562873,Elmsbury,,50,,,2,,,,,,,,,,,,,,,
null,,confidence_buffer,562975,confidence_buffer,,null,,,,,,,,,,,,,,,,,,
null,,thebreak,563476,break,,null,,,,,,,,,,,,,,,,,,
4939.300000000279,,familiar_rating,568417,Redgrove,,49,Redgrove,Fictional,1,,,,,,,,,,,,,,,
null,,confidence_buffer,568519,confidence_buffer,,null,,,,,,,,,,,,,,,,,,
6448.600000000093,,unique_rating,574969,Redgrove,,50,,,2,,,,,,,,,,,,,,,
null,,confidence_buffer,575071,confidence_buffer,,null,,,,,,,,,,,,,,,,,,
1176.8999999999069,,memorable_rating,576249,Redgrove,,50,,,2,,,,,,,,,,,,,,,
null,,confidence_buffer,576351,confidence_buffer,,null,,,,,,,,,,,,,,,,,,
null,,thebreak,576853,break,,null,,,,,,,,,,,,,,,,,,
42995.30000000028,,intro_0,619850,instruct,,32,,,,,,,,,,,,,,,,,,
4351,,intro_1,624202,instruct,,32,,,,,,,,,,,,,,,,,,
18598.80000000028,,intro_2,642801,instruct,,32,,,,,,,,,,,,,,,,,,
null,,instruct_dir_4,644303,instruct,,null,,,,,,,,,,,,,,,,,,
8601.30000000028,,realistic_rating,652905,Golden Trace,,51,Golden Trace,Fictional,3,,,,,,,,,,,,,,,
null,,confidence_buffer,653008,confidence_buffer,,null,,,,,,,,,,,,,,,,,,
6824.0999999996275,,pt2_unique_rating,659833,Golden Trace,,50,,,2,,,,,,,,,,,,,,,
null,,confidence_buffer,659936,confidence_buffer,,null,,,,,,,,,,,,,,,,,,
5120.899999999907,,pt2_memorable_rating,665057,Golden Trace,,50,,,2,,,,,,,,,,,,,,,
null,,confidence_buffer,665159,confidence_buffer,,null,,,,,,,,,,,,,,,,,,
8048.200000000186,,recognition_phase,673209,Golden Trace,,51,,,,,,new,1,1,,,,,,,,,,
null,,confidence_buffer,673310,confidence_buffer,,null,,,,,,,,,,,,,,,,,,
null,,thebreak,673812,break,,null,,,,,,,,,,,,,,,,,,
10388.5,,realistic_rating,684202,North Arroya,,51,North Arroya,Fictional,3,,,,,,,,,,,,,,,
null,,confidence_buffer,684304,confidence_buffer,,null,,,,,,,,,,,,,,,,,,
1760.1000000000931,,pt2_unique_rating,686065,North Arroya,,51,,,3,,,,,,,,,,,,,,,
null,,confidence_buffer,686167,confidence_buffer,,null,,,,,,,,,,,,,,,,,,
4120.899999999907,,probe_rating,690289,probe_rating,,50,,,,2,1,,,,,,,,,,,,,
null,,confidence_buffer,690392,confidence_buffer,,null,,,,,,,,,,,,,,,,,,
8848.799999999814,,pt2_memorable_rating,699242,North Arroya,,50,,,2,,,,,,,,,,,,,,,
null,,confidence_buffer,699344,confidence_buffer,,null,,,,,,,,,,,,,,,,,,
2232.600000000093,,recognition_phase,701578,North Arroya,,50,,,,,,old,0,0.5,,,,,,,,,,
null,,confidence_buffer,701679,confidence_buffer,,null,,,,,,,,,,,,,,,,,,
null,,thebreak,702181,break,,null,,,,,,,,,,,,,,,,,,
16899.5,,realistic_rating,719081,Driftwood Bay,,51,Driftwood Bay,Fictional,3,,,,,,,,,,,,,,,
null,,confidence_buffer,719183,confidence_buffer,,null,,,,,,,,,,,,,,,,,,
2015.7999999998137,,pt2_unique_rating,721201,Driftwood Bay,,50,,,2,,,,,,,,,,,,,,,
null,,confidence_buffer,721303,confidence_buffer,,null,,,,,,,,,,,,,,,,,,
2097,,pt2_memorable_rating,723401,Driftwood Bay,,51,,,3,,,,,,,,,,,,,,,
null,,confidence_buffer,723503,confidence_buffer,,null,,,,,,,,,,,,,,,,,,
3521.6999999997206,,recognition_phase,727025,Driftwood Bay,,50,,,,,,old,1,0.6666666666666666,,,,,,,,,,
null,,confidence_buffer,727128,confidence_buffer,,null,,,,,,,,,,,,,,,,,,
null,,thebreak,727630,break,,null,,,,,,,,,,,,,,,,,,
4450.600000000093,,realistic_rating,732082,Oakridge,,53,Oakridge,Fictional,5,,,,,,,,,,,,,,,
null,,confidence_buffer,732184,confidence_buffer,,null,,,,,,,,,,,,,,,,,,
4568.100000000093,,pt2_unique_rating,736753,Oakridge,,51,,,3,,,,,,,,,,,,,,,
null,,confidence_buffer,736856,confidence_buffer,,null,,,,,,,,,,,,,,,,,,
2104.600000000093,,pt2_memorable_rating,738961,Oakridge,,52,,,4,,,,,,,,,,,,,,,
null,,confidence_buffer,739063,confidence_buffer,,null,,,,,,,,,,,,,,,,,,
4648.899999999907,,recognition_phase,743714,Oakridge,,49,,,,,,old,1,0.75,,,,,,,,,,
null,,confidence_buffer,743815,confidence_buffer,,null,,,,,,,,,,,,,,,,,,
null,,thebreak,744316,break,,null,,,,,,,,,,,,,,,,,,
3604.2999999998137,,realistic_rating,747922,Alliance,,49,Alliance,US,1,,,,,,,,,,,,,,,
null,,confidence_buffer,748023,confidence_buffer,,null,,,,,,,,,,,,,,,,,,
3025.2000000001863,,pt2_unique_rating,751049,Alliance,,49,,,1,,,,,,,,,,,,,,,
null,,confidence_buffer,751151,confidence_buffer,,null,,,,,,,,,,,,,,,,,,
2001.8000000002794,,pt2_memorable_rating,753153,Alliance,,49,,,1,,,,,,,,,,,,,,,
null,,confidence_buffer,753255,confidence_buffer,,null,,,,,,,,,,,,,,,,,,
3920.7999999998137,,recognition_phase,757177,Alliance,,51,,,,,,new,0,0.6,,,,,,,,,,
null,,confidence_buffer,757279,confidence_buffer,,null,,,,,,,,,,,,,,,,,,
null,,thebreak,757781,break,,null,,,,,,,,,,,,,,,,,,
8723,,realistic_rating,766505,Fairhaven,,50,Fairhaven,Fictional,2,,,,,,,,,,,,,,,
null,,confidence_buffer,766608,confidence_buffer,,null,,,,,,,,,,,,,,,,,,
2193,,pt2_unique_rating,768801,Fairhaven,,50,,,2,,,,,,,,,,,,,,,
null,,confidence_buffer,768903,confidence_buffer,,null,,,,,,,,,,,,,,,,,,
1960.7999999998137,,pt2_memorable_rating,770865,Fairhaven,,50,,,2,,,,,,,,,,,,,,,
null,,confidence_buffer,770967,confidence_buffer,,null,,,,,,,,,,,,,,,,,,
3592.7999999998137,,recognition_phase,774561,Fairhaven,,52,,,,,,new,0,0.5,,,,,,,,,,
null,,confidence_buffer,774663,confidence_buffer,,null,,,,,,,,,,,,,,,,,,
null,,thebreak,775165,break,,null,,,,,,,,,,,,,,,,,,
4419.5,,realistic_rating,779586,Claywater,,51,Claywater,Fictional,3,,,,,,,,,,,,,,,
null,,confidence_buffer,779689,confidence_buffer,,null,,,,,,,,,,,,,,,,,,
1904,,pt2_unique_rating,781594,Claywater,,51,,,3,,,,,,,,,,,,,,,
null,,confidence_buffer,781697,confidence_buffer,,null,,,,,,,,,,,,,,,,,,
2671.5,,pt2_memorable_rating,784369,Claywater,,50,,,2,,,,,,,,,,,,,,,
null,,confidence_buffer,784472,confidence_buffer,,null,,,,,,,,,,,,,,,,,,
5144.600000000093,,recognition_phase,789618,Claywater,,51,,,,,,new,0,0.42857142857142855,,,,,,,,,,
null,,confidence_buffer,789720,confidence_buffer,,null,,,,,,,,,,,,,,,,,,
null,,thebreak,790222,break,,null,,,,,,,,,,,,,,,,,,
7225.699999999721,,realistic_rating,797449,Healdsburg,,49,Healdsburg,US,1,,,,,,,,,,,,,,,
null,,confidence_buffer,797551,confidence_buffer,,null,,,,,,,,,,,,,,,,,,
2385.5,,pt2_unique_rating,799938,Healdsburg,,49,,,1,,,,,,,,,,,,,,,
null,,confidence_buffer,800039,confidence_buffer,,null,,,,,,,,,,,,,,,,,,
1473.1999999997206,,pt2_memorable_rating,801513,Healdsburg,,49,,,1,,,,,,,,,,,,,,,
null,,confidence_buffer,801615,confidence_buffer,,null,,,,,,,,,,,,,,,,,,
3712.899999999907,,recognition_phase,805330,Healdsburg,,49,,,,,,old,0,0.375,,,,,,,,,,
null,,confidence_buffer,805432,confidence_buffer,,null,,,,,,,,,,,,,,,,,,
null,,thebreak,805933,break,,null,,,,,,,,,,,,,,,,,,
2379.3000000002794,,realistic_rating,808314,Hot Springs,,53,Hot Springs,US,5,,,,,,,,,,,,,,,
null,,confidence_buffer,808416,confidence_buffer,,null,,,,,,,,,,,,,,,,,,
5200.5,,pt2_unique_rating,813618,Hot Springs,,51,,,3,,,,,,,,,,,,,,,
null,,confidence_buffer,813720,confidence_buffer,,null,,,,,,,,,,,,,,,,,,
4168.5,,pt2_memorable_rating,817889,Hot Springs,,52,,,4,,,,,,,,,,,,,,,
null,,confidence_buffer,817992,confidence_buffer,,null,,,,,,,,,,,,,,,,,,
1960.2999999998137,,recognition_phase,819953,Hot Springs,,49,,,,,,old,1,0.4444444444444444,,,,,,,,,,
null,,confidence_buffer,820055,confidence_buffer,,null,,,,,,,,,,,,,,,,,,
null,,thebreak,820556,break,,null,,,,,,,,,,,,,,,,,,
4628,,realistic_rating,825186,Folly Beach,,53,Folly Beach,US,5,,,,,,,,,,,,,,,
null,,confidence_buffer,825288,confidence_buffer,,null,,,,,,,,,,,,,,,,,,
2624.6999999997206,,pt2_unique_rating,827913,Folly Beach,,52,,,4,,,,,,,,,,,,,,,
null,,confidence_buffer,828015,confidence_buffer,,null,,,,,,,,,,,,,,,,,,
1584.7999999998137,,pt2_memorable_rating,829601,Folly Beach,,52,,,4,,,,,,,,,,,,,,,
null,,confidence_buffer,829703,confidence_buffer,,null,,,,,,,,,,,,,,,,,,
2712.2000000001863,,recognition_phase,832417,Folly Beach,,50,,,,,,old,0,0.4,,,,,,,,,,
null,,confidence_buffer,832518,confidence_buffer,,null,,,,,,,,,,,,,,,,,,
null,,thebreak,833020,break,,null,,,,,,,,,,,,,,,,,,
3324.5,,realistic_rating,836345,Bisbee,,51,Bisbee,US,3,,,,,,,,,,,,,,,
null,,confidence_buffer,836447,confidence_buffer,,null,,,,,,,,,,,,,,,,,,
2833.5,,pt2_unique_rating,839281,Bisbee,,50,,,2,,,,,,,,,,,,,,,
null,,confidence_buffer,839384,confidence_buffer,,null,,,,,,,,,,,,,,,,,,
2104,,probe_rating,841488,probe_rating,,50,,,,2,1,,,,,,,,,,,,,
null,,confidence_buffer,841591,confidence_buffer,,null,,,,,,,,,,,,,,,,,,
6793.600000000093,,pt2_memorable_rating,848385,Bisbee,,51,,,3,,,,,,,,,,,,,,,
null,,confidence_buffer,848487,confidence_buffer,,null,,,,,,,,,,,,,,,,,,
6417.100000000093,,recognition_phase,854906,Bisbee,,52,,,,,,new,1,0.45454545454545453,,,,,,,,,,
null,,confidence_buffer,855008,confidence_buffer,,null,,,,,,,,,,,,,,,,,,
null,,thebreak,855510,break,,null,,,,,,,,,,,,,,,,,,
2010.5,,realistic_rating,857521,Sitka,,53,Sitka,US,5,,,,,,,,,,,,,,,
null,,confidence_buffer,857624,confidence_buffer,,null,,,,,,,,,,,,,,,,,,
3665,,pt2_unique_rating,861290,Sitka,,52,,,4,,,,,,,,,,,,,,,
null,,confidence_buffer,861392,confidence_buffer,,null,,,,,,,,,,,,,,,,,,
2288.2999999998137,,pt2_memorable_rating,863681,Sitka,,52,,,4,,,,,,,,,,,,,,,
null,,confidence_buffer,863784,confidence_buffer,,null,,,,,,,,,,,,,,,,,,
2984.5,,recognition_phase,866769,Sitka,,49,,,,,,old,1,0.5,,,,,,,,,,
null,,confidence_buffer,866872,confidence_buffer,,null,,,,,,,,,,,,,,,,,,
null,,thebreak,867373,break,,null,,,,,,,,,,,,,,,,,,
6539.4000000003725,,realistic_rating,873914,Barnard,,51,Barnard,US,3,,,,,,,,,,,,,,,
null,,confidence_buffer,874016,confidence_buffer,,null,,,,,,,,,,,,,,,,,,
2528.7000000001863,,pt2_unique_rating,876545,Barnard,,51,,,3,,,,,,,,,,,,,,,
null,,confidence_buffer,876647,confidence_buffer,,null,,,,,,,,,,,,,,,,,,
1017.5999999996275,,pt2_memorable_rating,877666,Barnard,,51,,,3,,,,,,,,,,,,,,,
null,,confidence_buffer,877768,confidence_buffer,,null,,,,,,,,,,,,,,,,,,
3272.0999999996275,,recognition_phase,881041,Barnard,,51,,,,,,new,1,0.5384615384615384,,,,,,,,,,
null,,confidence_buffer,881144,confidence_buffer,,null,,,,,,,,,,,,,,,,,,
null,,thebreak,881646,break,,null,,,,,,,,,,,,,,,,,,
6265.9000000003725,,realistic_rating,887913,Sierra Hollow,,50,Sierra Hollow,Fictional,2,,,,,,,,,,,,,,,
null,,confidence_buffer,888014,confidence_buffer,,null,,,,,,,,,,,,,,,,,,
2130.100000000093,,pt2_unique_rating,890145,Sierra Hollow,,50,,,2,,,,,,,,,,,,,,,
null,,confidence_buffer,890247,confidence_buffer,,null,,,,,,,,,,,,,,,,,,
1320.8999999999069,,pt2_memorable_rating,891569,Sierra Hollow,,50,,,2,,,,,,,,,,,,,,,
null,,confidence_buffer,891671,confidence_buffer,,null,,,,,,,,,,,,,,,,,,
2552.6999999997206,,recognition_phase,894225,Sierra Hollow,,52,,,,,,new,0,0.5,,,,,,,,,,
null,,confidence_buffer,894328,confidence_buffer,,null,,,,,,,,,,,,,,,,,,
null,,thebreak,894829,break,,null,,,,,,,,,,,,,,,,,,
4435.600000000093,,realistic_rating,899266,Crestwood,,52,Crestwood,Fictional,4,,,,,,,,,,,,,,,
null,,confidence_buffer,899368,confidence_buffer,,null,,,,,,,,,,,,,,,,,,
3896.2000000001863,,pt2_unique_rating,903265,Crestwood,,51,,,3,,,,,,,,,,,,,,,
null,,confidence_buffer,903368,confidence_buffer,,null,,,,,,,,,,,,,,,,,,
2680.6999999997206,,pt2_memorable_rating,906049,Crestwood,,51,,,3,,,,,,,,,,,,,,,
null,,confidence_buffer,906151,confidence_buffer,,null,,,,,,,,,,,,,,,,,,
2225.5,,recognition_phase,908377,Crestwood,,51,,,,,,new,0,0.4666666666666667,,,,,,,,,,
null,,confidence_buffer,908479,confidence_buffer,,null,,,,,,,,,,,,,,,,,,
null,,thebreak,908980,break,,null,,,,,,,,,,,,,,,,,,
5155.600000000093,,realistic_rating,914137,Redgrove,,50,Redgrove,Fictional,2,,,,,,,,,,,,,,,
null,,confidence_buffer,914239,confidence_buffer,,null,,,,,,,,,,,,,,,,,,
2009.8999999999069,,pt2_unique_rating,916249,Redgrove,,50,,,2,,,,,,,,,,,,,,,
null,,confidence_buffer,916351,confidence_buffer,,null,,,,,,,,,,,,,,,,,,
2128.899999999907,,pt2_memorable_rating,918481,Redgrove,,50,,,2,,,,,,,,,,,,,,,
null,,confidence_buffer,918583,confidence_buffer,,null,,,,,,,,,,,,,,,,,,
2936.7999999998137,,recognition_phase,921521,Redgrove,,51,,,,,,new,0,0.4375,,,,,,,,,,
null,,confidence_buffer,921623,confidence_buffer,,null,,,,,,,,,,,,,,,,,,
null,,thebreak,922124,break,,null,,,,,,,,,,,,,,,,,,
4748,,realistic_rating,926874,Delaro Park,,49,Delaro Park,Fictional,1,,,,,,,,,,,,,,,
null,,confidence_buffer,926976,confidence_buffer,,null,,,,,,,,,,,,,,,,,,
2552.3000000002794,,pt2_unique_rating,929529,Delaro Park,,49,,,1,,,,,,,,,,,,,,,
null,,confidence_buffer,929631,confidence_buffer,,null,,,,,,,,,,,,,,,,,,
1065.3000000002794,,pt2_memorable_rating,930698,Delaro Park,,49,,,1,,,,,,,,,,,,,,,
null,,confidence_buffer,930799,confidence_buffer,,null,,,,,,,,,,,,,,,,,,
2792.399999999907,,recognition_phase,933593,Delaro Park,,52,,,,,,new,1,0.47058823529411764,,,,,,,,,,
null,,confidence_buffer,933695,confidence_buffer,,null,,,,,,,,,,,,,,,,,,
null,,thebreak,934196,break,,null,,,,,,,,,,,,,,,,,,
4452.699999999721,,realistic_rating,938650,Bayshore Haven,,51,Bayshore Haven,Fictional,3,,,,,,,,,,,,,,,
null,,confidence_buffer,938752,confidence_buffer,,null,,,,,,,,,,,,,,,,,,
4792.800000000279,,pt2_unique_rating,943545,Bayshore Haven,,50,,,2,,,,,,,,,,,,,,,
null,,confidence_buffer,943648,confidence_buffer,,null,,,,,,,,,,,,,,,,,,
2376.1999999997206,,pt2_memorable_rating,946025,Bayshore Haven,,51,,,3,,,,,,,,,,,,,,,
null,,confidence_buffer,946127,confidence_buffer,,null,,,,,,,,,,,,,,,,,,
2537.6999999997206,,recognition_phase,948666,Bayshore Haven,,50,,,,,,old,1,0.5,,,,,,,,,,
null,,confidence_buffer,948768,confidence_buffer,,null,,,,,,,,,,,,,,,,,,
null,,thebreak,949269,break,,null,,,,,,,,,,,,,,,,,,
8778.700000000186,,realistic_rating,958049,Hawthorne Bluffs,,52,Hawthorne Bluffs,Fictional,4,,,,,,,,,,,,,,,
null,,confidence_buffer,958152,confidence_buffer,,null,,,,,,,,,,,,,,,,,,
2144.600000000093,,pt2_unique_rating,960298,Hawthorne Bluffs,,51,,,3,,,,,,,,,,,,,,,
null,,confidence_buffer,960401,confidence_buffer,,null,,,,,,,,,,,,,,,,,,
1822.8999999999069,,pt2_memorable_rating,962225,Hawthorne Bluffs,,51,,,3,,,,,,,,,,,,,,,
null,,confidence_buffer,962327,confidence_buffer,,null,,,,,,,,,,,,,,,,,,
3825,,recognition_phase,966153,Hawthorne Bluffs,,49,,,,,,old,0,0.47368421052631576,,,,,,,,,,
null,,confidence_buffer,966256,confidence_buffer,,null,,,,,,,,,,,,,,,,,,
null,,thebreak,966757,break,,null,,,,,,,,,,,,,,,,,,
3106.7999999998137,,realistic_rating,969865,Assateague Island,,49,Assateague Island,US,1,,,,,,,,,,,,,,,
null,,confidence_buffer,969968,confidence_buffer,,null,,,,,,,,,,,,,,,,,,
2136.399999999907,,pt2_unique_rating,972106,Assateague Island,,49,,,1,,,,,,,,,,,,,,,
null,,confidence_buffer,972208,confidence_buffer,,null,,,,,,,,,,,,,,,,,,
1496.6999999997206,,pt2_memorable_rating,973705,Assateague Island,,49,,,1,,,,,,,,,,,,,,,
null,,confidence_buffer,973809,confidence_buffer,,null,,,,,,,,,,,,,,,,,,
5606.699999999721,,recognition_phase,979417,Assateague Island,,50,,,,,,old,1,0.5,,,,,,,,,,
null,,confidence_buffer,979518,confidence_buffer,,null,,,,,,,,,,,,,,,,,,
null,,thebreak,980020,break,,null,,,,,,,,,,,,,,,,,,
2300.7999999998137,,realistic_rating,982322,Peoria,,53,Peoria,US,5,,,,,,,,,,,,,,,
null,,confidence_buffer,982424,confidence_buffer,,null,,,,,,,,,,,,,,,,,,
2855.899999999907,,pt2_unique_rating,985281,Peoria,,51,,,3,,,,,,,,,,,,,,,
null,,confidence_buffer,985383,confidence_buffer,,null,,,,,,,,,,,,,,,,,,
2329.399999999907,,pt2_memorable_rating,987713,Peoria,,52,,,4,,,,,,,,,,,,,,,
null,,confidence_buffer,987815,confidence_buffer,,null,,,,,,,,,,,,,,,,,,
2081.2000000001863,,recognition_phase,989897,Peoria,,49,,,,,,old,1,0.5238095238095238,,,,,,,,,,
null,,confidence_buffer,989999,confidence_buffer,,null,,,,,,,,,,,,,,,,,,
null,,thebreak,990500,break,,null,,,,,,,,,,,,,,,,,,
4636,,realistic_rating,995138,West Talora,,51,West Talora,Fictional,3,,,,,,,,,,,,,,,
null,,confidence_buffer,995240,confidence_buffer,,null,,,,,,,,,,,,,,,,,,
3767.5999999996275,,pt2_unique_rating,999009,West Talora,,50,,,2,,,,,,,,,,,,,,,
null,,confidence_buffer,999111,confidence_buffer,,null,,,,,,,,,,,,,,,,,,
2176.6999999997206,,pt2_memorable_rating,1001289,West Talora,,50,,,2,,,,,,,,,,,,,,,
null,,confidence_buffer,1001392,confidence_buffer,,null,,,,,,,,,,,,,,,,,,
2176.2000000001863,,recognition_phase,1003570,West Talora,,52,,,,,,new,1,0.5454545454545454,,,,,,,,,,
null,,confidence_buffer,1003673,confidence_buffer,,null,,,,,,,,,,,,,,,,,,
null,,thebreak,1004175,break,,null,,,,,,,,,,,,,,,,,,
6953.5999999996275,,realistic_rating,1011130,Westridge,,52,Westridge,Fictional,4,,,,,,,,,,,,,,,
null,,confidence_buffer,1011232,confidence_buffer,,null,,,,,,,,,,,,,,,,,,
3064.100000000093,,pt2_unique_rating,1014297,Westridge,,49,,,1,,,,,,,,,,,,,,,
null,,confidence_buffer,1014399,confidence_buffer,,null,,,,,,,,,,,,,,,,,,
2192.7000000001863,,pt2_memorable_rating,1016593,Westridge,,52,,,4,,,,,,,,,,,,,,,
null,,confidence_buffer,1016694,confidence_buffer,,null,,,,,,,,,,,,,,,,,,
3753.8000000002794,,recognition_phase,1020450,Westridge,,52,,,,,,new,0,0.5217391304347826,,,,,,,,,,
null,,confidence_buffer,1020551,confidence_buffer,,null,,,,,,,,,,,,,,,,,,
null,,thebreak,1021054,break,,null,,,,,,,,,,,,,,,,,,
4570.5,,realistic_rating,1025626,Hilo,,51,Hilo,US,3,,,,,,,,,,,,,,,
null,,confidence_buffer,1025728,confidence_buffer,,null,,,,,,,,,,,,,,,,,,
5256.399999999907,,pt2_unique_rating,1030985,Hilo,,51,,,3,,,,,,,,,,,,,,,
null,,confidence_buffer,1031087,confidence_buffer,,null,,,,,,,,,,,,,,,,,,
1520.7000000001863,,pt2_memorable_rating,1032609,Hilo,,51,,,3,,,,,,,,,,,,,,,
null,,confidence_buffer,1032711,confidence_buffer,,null,,,,,,,,,,,,,,,,,,
3049,,probe_rating,1035761,probe_rating,,53,,,,5,1,,,,,,,,,,,,,
null,,confidence_buffer,1035862,confidence_buffer,,null,,,,,,,,,,,,,,,,,,
3545.7000000001863,,recognition_phase,1039409,Hilo,,50,,,,,,old,0,0.5,,,,,,,,,,
null,,confidence_buffer,1039510,confidence_buffer,,null,,,,,,,,,,,,,,,,,,
null,,thebreak,1040011,break,,null,,,,,,,,,,,,,,,,,,
1917,,realistic_rating,1041930,Cleveland,,53,Cleveland,US,5,,,,,,,,,,,,,,,
null,,confidence_buffer,1042032,confidence_buffer,,null,,,,,,,,,,,,,,,,,,
6632.5,,pt2_unique_rating,1048666,Cleveland,,51,,,3,,,,,,,,,,,,,,,
null,,confidence_buffer,1048768,confidence_buffer,,null,,,,,,,,,,,,,,,,,,
3240.3000000002794,,pt2_memorable_rating,1052009,Cleveland,,53,,,5,,,,,,,,,,,,,,,
null,,confidence_buffer,1052110,confidence_buffer,,null,,,,,,,,,,,,,,,,,,
2353.899999999907,,recognition_phase,1054465,Cleveland,,49,,,,,,old,1,0.52,,,,,,,,,,
null,,confidence_buffer,1054568,confidence_buffer,,null,,,,,,,,,,,,,,,,,,
null,,thebreak,1055070,break,,null,,,,,,,,,,,,,,,,,,
9754.899999999907,,realistic_rating,1064826,Tamarisk Hills,,49,Tamarisk Hills,Fictional,1,,,,,,,,,,,,,,,
null,,confidence_buffer,1064927,confidence_buffer,,null,,,,,,,,,,,,,,,,,,
2544.899999999907,,pt2_unique_rating,1067473,Tamarisk Hills,,49,,,1,,,,,,,,,,,,,,,
null,,confidence_buffer,1067576,confidence_buffer,,null,,,,,,,,,,,,,,,,,,
816,,pt2_memorable_rating,1068393,Tamarisk Hills,,49,,,1,,,,,,,,,,,,,,,
null,,confidence_buffer,1068495,confidence_buffer,,null,,,,,,,,,,,,,,,,,,
4112.799999999814,,recognition_phase,1072609,Tamarisk Hills,,51,,,,,,new,1,0.5384615384615384,,,,,,,,,,
null,,confidence_buffer,1072711,confidence_buffer,,null,,,,,,,,,,,,,,,,,,
null,,thebreak,1073212,break,,null,,,,,,,,,,,,,,,,,,
4460.600000000093,,realistic_rating,1077674,Silverpine,,52,Silverpine,Fictional,4,,,,,,,,,,,,,,,
null,,confidence_buffer,1077777,confidence_buffer,,null,,,,,,,,,,,,,,,,,,
2511.8000000002794,,pt2_unique_rating,1080290,Silverpine,,51,,,3,,,,,,,,,,,,,,,
null,,confidence_buffer,1080392,confidence_buffer,,null,,,,,,,,,,,,,,,,,,
2272.600000000093,,pt2_memorable_rating,1082665,Silverpine,,52,,,4,,,,,,,,,,,,,,,
null,,confidence_buffer,1082768,confidence_buffer,,null,,,,,,,,,,,,,,,,,,
3256.5,,recognition_phase,1086026,Silverpine,,50,,,,,,old,0,0.5185185185185185,,,,,,,,,,
null,,confidence_buffer,1086128,confidence_buffer,,null,,,,,,,,,,,,,,,,,,
null,,thebreak,1086630,break,,null,,,,,,,,,,,,,,,,,,
1762.5999999996275,,realistic_rating,1088394,San Antonio,,53,San Antonio,US,5,,,,,,,,,,,,,,,
null,,confidence_buffer,1088496,confidence_buffer,,null,,,,,,,,,,,,,,,,,,
4272.600000000093,,pt2_unique_rating,1092769,San Antonio,,51,,,3,,,,,,,,,,,,,,,
null,,confidence_buffer,1092871,confidence_buffer,,null,,,,,,,,,,,,,,,,,,
1776.6000000000931,,probe_rating,1094649,probe_rating,,53,,,,5,1,,,,,,,,,,,,,
null,,confidence_buffer,1094751,confidence_buffer,,null,,,,,,,,,,,,,,,,,,
2665.7999999998137,,pt2_memorable_rating,1097417,San Antonio,,52,,,4,,,,,,,,,,,,,,,
null,,confidence_buffer,1097519,confidence_buffer,,null,,,,,,,,,,,,,,,,,,
1833.1000000000931,,recognition_phase,1099354,San Antonio,,49,,,,,,old,1,0.5357142857142857,,,,,,,,,,
null,,confidence_buffer,1099455,confidence_buffer,,null,,,,,,,,,,,,,,,,,,
null,,thebreak,1099957,break,,null,,,,,,,,,,,,,,,,,,
7595.600000000093,,realistic_rating,1107553,Gloucester,,52,Gloucester,US,4,,,,,,,,,,,,,,,
null,,confidence_buffer,1107655,confidence_buffer,,null,,,,,,,,,,,,,,,,,,
1593.2999999998137,,pt2_unique_rating,1109249,Gloucester,,52,,,4,,,,,,,,,,,,,,,
null,,confidence_buffer,1109351,confidence_buffer,,null,,,,,,,,,,,,,,,,,,
1528.9000000003725,,pt2_memorable_rating,1110881,Gloucester,,52,,,4,,,,,,,,,,,,,,,
null,,confidence_buffer,1110983,confidence_buffer,,null,,,,,,,,,,,,,,,,,,
1833.3999999999069,,recognition_phase,1112817,Gloucester,,49,,,,,,old,0,0.5172413793103449,,,,,,,,,,
null,,confidence_buffer,1112919,confidence_buffer,,null,,,,,,,,,,,,,,,,,,
null,,thebreak,1113421,break,,null,,,,,,,,,,,,,,,,,,
3452.100000000093,,realistic_rating,1116874,Gatlinburg,,53,Gatlinburg,US,5,,,,,,,,,,,,,,,
null,,confidence_buffer,1116976,confidence_buffer,,null,,,,,,,,,,,,,,,,,,
3504.399999999907,,pt2_unique_rating,1120482,Gatlinburg,,52,,,4,,,,,,,,,,,,,,,
null,,confidence_buffer,1120583,confidence_buffer,,null,,,,,,,,,,,,,,,,,,
2634.0999999996275,,pt2_memorable_rating,1123218,Gatlinburg,,52,,,4,,,,,,,,,,,,,,,
null,,confidence_buffer,1123320,confidence_buffer,,null,,,,,,,,,,,,,,,,,,
1928.3999999999069,,recognition_phase,1125249,Gatlinburg,,49,,,,,,old,0,0.5,,,,,,,,,,
null,,confidence_buffer,1125352,confidence_buffer,,null,,,,,,,,,,,,,,,,,,
null,,thebreak,1125853,break,,null,,,,,,,,,,,,,,,,,,
11227.700000000186,,realistic_rating,1137082,Pine Hollow,,50,Pine Hollow,Fictional,2,,,,,,,,,,,,,,,
null,,confidence_buffer,1137184,confidence_buffer,,null,,,,,,,,,,,,,,,,,,
2145,,pt2_unique_rating,1139330,Pine Hollow,,50,,,2,,,,,,,,,,,,,,,
null,,confidence_buffer,1139433,confidence_buffer,,null,,,,,,,,,,,,,,,,,,
1271.2999999998137,,pt2_memorable_rating,1140705,Pine Hollow,,50,,,2,,,,,,,,,,,,,,,
null,,confidence_buffer,1140807,confidence_buffer,,null,,,,,,,,,,,,,,,,,,
2457.2000000001863,,recognition_phase,1143265,Pine Hollow,,51,,,,,,new,1,0.5161290322580645,,,,,,,,,,
null,,confidence_buffer,1143368,confidence_buffer,,null,,,,,,,,,,,,,,,,,,
null,,thebreak,1143869,break,,null,,,,,,,,,,,,,,,,,,
5523.5,,realistic_rating,1149394,Brookmere,,50,Brookmere,Fictional,2,,,,,,,,,,,,,,,
null,,confidence_buffer,1149496,confidence_buffer,,null,,,,,,,,,,,,,,,,,,
6528.899999999907,,pt2_unique_rating,1156025,Brookmere,,51,,,3,,,,,,,,,,,,,,,
null,,confidence_buffer,1156127,confidence_buffer,,null,,,,,,,,,,,,,,,,,,
1809.7000000001863,,pt2_memorable_rating,1157938,Brookmere,,50,,,2,,,,,,,,,,,,,,,
null,,confidence_buffer,1158039,confidence_buffer,,null,,,,,,,,,,,,,,,,,,
1921.6999999997206,,probe_rating,1159962,probe_rating,,51,,,,3,1,,,,,,,,,,,,,
null,,confidence_buffer,1160063,confidence_buffer,,null,,,,,,,,,,,,,,,,,,
3984.7999999998137,,recognition_phase,1164049,Brookmere,,52,,,,,,new,1,0.53125,,,,,,,,,,
null,,confidence_buffer,1164151,confidence_buffer,,null,,,,,,,,,,,,,,,,,,
null,,thebreak,1164652,break,,null,,,,,,,,,,,,,,,,,,
11020,,realistic_rating,1175674,Highvale,,50,Highvale,Fictional,2,,,,,,,,,,,,,,,
null,,confidence_buffer,1175775,confidence_buffer,,null,,,,,,,,,,,,,,,,,,
1864.8000000002794,,pt2_unique_rating,1177641,Highvale,,50,,,2,,,,,,,,,,,,,,,
null,,confidence_buffer,1177743,confidence_buffer,,null,,,,,,,,,,,,,,,,,,
993.5,,pt2_memorable_rating,1178738,Highvale,,50,,,2,,,,,,,,,,,,,,,
null,,confidence_buffer,1178839,confidence_buffer,,null,,,,,,,,,,,,,,,,,,
2913.4000000003725,,recognition_phase,1181753,Highvale,,50,,,,,,old,1,0.5454545454545454,,,,,,,,,,
null,,confidence_buffer,1181855,confidence_buffer,,null,,,,,,,,,,,,,,,,,,
null,,thebreak,1182357,break,,null,,,,,,,,,,,,,,,,,,
6306.899999999907,,realistic_rating,1188665,Maravilla Springs,,52,Maravilla Springs,Fictional,4,,,,,,,,,,,,,,,
null,,confidence_buffer,1188767,confidence_buffer,,null,,,,,,,,,,,,,,,,,,
1793.6000000000931,,pt2_unique_rating,1190562,Maravilla Springs,,51,,,3,,,,,,,,,,,,,,,
null,,confidence_buffer,1190664,confidence_buffer,,null,,,,,,,,,,,,,,,,,,
2608.899999999907,,pt2_memorable_rating,1193274,Maravilla Springs,,52,,,4,,,,,,,,,,,,,,,
null,,confidence_buffer,1193375,confidence_buffer,,null,,,,,,,,,,,,,,,,,,
2545,,recognition_phase,1195922,Maravilla Springs,,50,,,,,,old,1,0.5588235294117647,,,,,,,,,,
null,,confidence_buffer,1196024,confidence_buffer,,null,,,,,,,,,,,,,,,,,,
null,,thebreak,1196525,break,,null,,,,,,,,,,,,,,,,,,
4931.799999999814,,realistic_rating,1201458,Millstone,,51,Millstone,Fictional,3,,,,,,,,,,,,,,,
null,,confidence_buffer,1201559,confidence_buffer,,null,,,,,,,,,,,,,,,,,,
2536.7000000001863,,pt2_unique_rating,1204097,Millstone,,50,,,2,,,,,,,,,,,,,,,
null,,confidence_buffer,1204200,confidence_buffer,,null,,,,,,,,,,,,,,,,,,
3952.7999999998137,,pt2_memorable_rating,1208153,Millstone,,51,,,3,,,,,,,,,,,,,,,
null,,confidence_buffer,1208256,confidence_buffer,,null,,,,,,,,,,,,,,,,,,
4856.899999999907,,recognition_phase,1213114,Millstone,,50,,,,,,old,1,0.5714285714285714,,,,,,,,,,
null,,confidence_buffer,1213215,confidence_buffer,,null,,,,,,,,,,,,,,,,,,
null,,thebreak,1213717,break,,null,,,,,,,,,,,,,,,,,,
6243.299999999814,,realistic_rating,1219961,Ashford Hills,,52,Ashford Hills,Fictional,4,,,,,,,,,,,,,,,
null,,confidence_buffer,1220064,confidence_buffer,,null,,,,,,,,,,,,,,,,,,
4296.600000000093,,pt2_unique_rating,1224362,Ashford Hills,,49,,,1,,,,,,,,,,,,,,,
null,,confidence_buffer,1224465,confidence_buffer,,null,,,,,,,,,,,,,,,,,,
3431.399999999907,,pt2_memorable_rating,1227898,Ashford Hills,,52,,,4,,,,,,,,,,,,,,,
null,,confidence_buffer,1228000,confidence_buffer,,null,,,,,,,,,,,,,,,,,,
3464.600000000093,,recognition_phase,1231466,Ashford Hills,,50,,,,,,old,1,0.5833333333333334,,,,,,,,,,
null,,confidence_buffer,1231567,confidence_buffer,,null,,,,,,,,,,,,,,,,,,
null,,thebreak,1232068,break,,null,,,,,,,,,,,,,,,,,,
7397,,realistic_rating,1239466,Solara Glen,,50,Solara Glen,Fictional,2,,,,,,,,,,,,,,,
null,,confidence_buffer,1239569,confidence_buffer,,null,,,,,,,,,,,,,,,,,,
2127.5,,pt2_unique_rating,1241698,Solara Glen,,50,,,2,,,,,,,,,,,,,,,
null,,confidence_buffer,1241799,confidence_buffer,,null,,,,,,,,,,,,,,,,,,
2745.5,,pt2_memorable_rating,1244546,Solara Glen,,49,,,1,,,,,,,,,,,,,,,
null,,confidence_buffer,1244648,confidence_buffer,,null,,,,,,,,,,,,,,,,,,
3544.2000000001863,,recognition_phase,1248193,Solara Glen,,51,,,,,,new,1,0.5945945945945946,,,,,,,,,,
null,,confidence_buffer,1248296,confidence_buffer,,null,,,,,,,,,,,,,,,,,,
null,,thebreak,1248797,break,,null,,,,,,,,,,,,,,,,,,
1731.2000000001863,,realistic_rating,1250530,Watkins Glen,,53,Watkins Glen,US,5,,,,,,,,,,,,,,,
null,,confidence_buffer,1250633,confidence_buffer,,null,,,,,,,,,,,,,,,,,,
1256,,probe_rating,1251889,probe_rating,,53,,,,5,1,,,,,,,,,,,,,
null,,confidence_buffer,1251992,confidence_buffer,,null,,,,,,,,,,,,,,,,,,
4512,,pt2_unique_rating,1256505,Watkins Glen,,51,,,3,,,,,,,,,,,,,,,
null,,confidence_buffer,1256608,confidence_buffer,,null,,,,,,,,,,,,,,,,,,
2367.8000000002794,,pt2_memorable_rating,1258977,Watkins Glen,,52,,,4,,,,,,,,,,,,,,,
null,,confidence_buffer,1259079,confidence_buffer,,null,,,,,,,,,,,,,,,,,,
2209.2999999998137,,recognition_phase,1261290,Watkins Glen,,49,,,,,,old,1,0.6052631578947368,,,,,,,,,,
null,,confidence_buffer,1261392,confidence_buffer,,null,,,,,,,,,,,,,,,,,,
null,,thebreak,1261893,break,,null,,,,,,,,,,,,,,,,,,
2819.2000000001863,,realistic_rating,1264714,Albuquerque,,53,Albuquerque,US,5,,,,,,,,,,,,,,,
null,,confidence_buffer,1264816,confidence_buffer,,null,,,,,,,,,,,,,,,,,,
3136.7000000001863,,pt2_unique_rating,1267953,Albuquerque,,52,,,4,,,,,,,,,,,,,,,
null,,confidence_buffer,1268056,confidence_buffer,,null,,,,,,,,,,,,,,,,,,
1672.7000000001863,,probe_rating,1269729,probe_rating,,51,,,,3,1,,,,,,,,,,,,,
null,,confidence_buffer,1269831,confidence_buffer,,null,,,,,,,,,,,,,,,,,,
2737.5,,pt2_memorable_rating,1272570,Albuquerque,,52,,,4,,,,,,,,,,,,,,,
null,,confidence_buffer,1272672,confidence_buffer,,null,,,,,,,,,,,,,,,,,,
1912.5999999996275,,recognition_phase,1274586,Albuquerque,,49,,,,,,old,0,0.5897435897435898,,,,,,,,,,
null,,confidence_buffer,1274688,confidence_buffer,,null,,,,,,,,,,,,,,,,,,
null,,thebreak,1275189,break,,null,,,,,,,,,,,,,,,,,,
5195.600000000093,,realistic_rating,1280385,Rosehollow,,51,Rosehollow,Fictional,3,,,,,,,,,,,,,,,
null,,confidence_buffer,1280487,confidence_buffer,,null,,,,,,,,,,,,,,,,,,
3906.4000000003725,,pt2_unique_rating,1284394,Rosehollow,,50,,,2,,,,,,,,,,,,,,,
null,,confidence_buffer,1284495,confidence_buffer,,null,,,,,,,,,,,,,,,,,,
1713.3999999999069,,pt2_memorable_rating,1286210,Rosehollow,,51,,,3,,,,,,,,,,,,,,,
null,,confidence_buffer,1286312,confidence_buffer,,null,,,,,,,,,,,,,,,,,,
3745.0999999996275,,recognition_phase,1290058,Rosehollow,,50,,,,,,old,0,0.575,,,,,,,,,,
null,,confidence_buffer,1290160,confidence_buffer,,null,,,,,,,,,,,,,,,,,,
null,,thebreak,1290661,break,,null,,,,,,,,,,,,,,,,,,
6883.699999999721,,realistic_rating,1297546,Willowford,,51,Willowford,Fictional,3,,,,,,,,,,,,,,,
null,,confidence_buffer,1297648,confidence_buffer,,null,,,,,,,,,,,,,,,,,,
2248.600000000093,,probe_rating,1299898,probe_rating,,52,,,,4,1,,,,,,,,,,,,,
null,,confidence_buffer,1300000,confidence_buffer,,null,,,,,,,,,,,,,,,,,,
3640.5,,pt2_unique_rating,1303642,Willowford,,51,,,3,,,,,,,,,,,,,,,
null,,confidence_buffer,1303744,confidence_buffer,,null,,,,,,,,,,,,,,,,,,
4105,,pt2_memorable_rating,1307850,Willowford,,51,,,3,,,,,,,,,,,,,,,
null,,confidence_buffer,1307952,confidence_buffer,,null,,,,,,,,,,,,,,,,,,
3297,,recognition_phase,1311250,Willowford,,52,,,,,,new,1,0.5853658536585366,,,,,,,,,,
null,,confidence_buffer,1311352,confidence_buffer,,null,,,,,,,,,,,,,,,,,,
null,,thebreak,1311854,break,,null,,,,,,,,,,,,,,,,,,
4273.899999999907,,realistic_rating,1316129,Ravenport,,52,Ravenport,Fictional,4,,,,,,,,,,,,,,,
null,,confidence_buffer,1316232,confidence_buffer,,null,,,,,,,,,,,,,,,,,,
2760.2999999998137,,pt2_unique_rating,1318994,Ravenport,,51,,,3,,,,,,,,,,,,,,,
null,,confidence_buffer,1319096,confidence_buffer,,null,,,,,,,,,,,,,,,,,,
2064.5999999996275,,pt2_memorable_rating,1321162,Ravenport,,52,,,4,,,,,,,,,,,,,,,
null,,confidence_buffer,1321265,confidence_buffer,,null,,,,,,,,,,,,,,,,,,
1871.8000000002794,,recognition_phase,1323138,Ravenport,,50,,,,,,old,1,0.5952380952380952,,,,,,,,,,
null,,confidence_buffer,1323239,confidence_buffer,,null,,,,,,,,,,,,,,,,,,
null,,thebreak,1323741,break,,null,,,,,,,,,,,,,,,,,,
5675.399999999907,,realistic_rating,1329418,Cody,,49,Cody,US,1,,,,,,,,,,,,,,,
null,,confidence_buffer,1329521,confidence_buffer,,null,,,,,,,,,,,,,,,,,,
1927.8999999999069,,pt2_unique_rating,1331449,Cody,,50,,,2,,,,,,,,,,,,,,,
null,,confidence_buffer,1331552,confidence_buffer,,null,,,,,,,,,,,,,,,,,,
3776.100000000093,,pt2_memorable_rating,1335329,Cody,,51,,,3,,,,,,,,,,,,,,,
null,,confidence_buffer,1335431,confidence_buffer,,null,,,,,,,,,,,,,,,,,,
1697.6999999997206,,recognition_phase,1337130,Cody,,51,,,,,,new,0,0.5813953488372093,,,,,,,,,,
null,,confidence_buffer,1337232,confidence_buffer,,null,,,,,,,,,,,,,,,,,,
null,,thebreak,1337734,break,,null,,,,,,,,,,,,,,,,,,
6051.299999999814,,realistic_rating,1343786,New Hope,,51,New Hope,US,3,,,,,,,,,,,,,,,
null,,confidence_buffer,1343888,confidence_buffer,,null,,,,,,,,,,,,,,,,,,
30424.600000000093,,pt2_unique_rating,1374314,New Hope,,49,,,1,,,,,,,,,,,,,,,
null,,confidence_buffer,1374415,confidence_buffer,,null,,,,,,,,,,,,,,,,,,
3209.100000000093,,pt2_memorable_rating,1377625,New Hope,,52,,,4,,,,,,,,,,,,,,,
null,,confidence_buffer,1377727,confidence_buffer,,null,,,,,,,,,,,,,,,,,,
3529,,recognition_phase,1381257,New Hope,,49,,,,,,old,1,0.5909090909090909,,,,,,,,,,
null,,confidence_buffer,1381359,confidence_buffer,,null,,,,,,,,,,,,,,,,,,
null,,thebreak,1381860,break,,null,,,,,,,,,,,,,,,,,,
7324.100000000093,,realistic_rating,1389186,Linden Trace,,50,Linden Trace,Fictional,2,,,,,,,,,,,,,,,
null,,confidence_buffer,1389289,confidence_buffer,,null,,,,,,,,,,,,,,,,,,
4152,,pt2_unique_rating,1393442,Linden Trace,,49,,,1,,,,,,,,,,,,,,,
null,,confidence_buffer,1393544,confidence_buffer,,null,,,,,,,,,,,,,,,,,,
2168,,pt2_memorable_rating,1395713,Linden Trace,,50,,,2,,,,,,,,,,,,,,,
null,,confidence_buffer,1395815,confidence_buffer,,null,,,,,,,,,,,,,,,,,,
3729.899999999907,,recognition_phase,1399546,Linden Trace,,52,,,,,,new,1,0.6,,,,,,,,,,
null,,confidence_buffer,1399648,confidence_buffer,,null,,,,,,,,,,,,,,,,,,
null,,thebreak,1400150,break,,null,,,,,,,,,,,,,,,,,,
8346.600000000093,,realistic_rating,1408498,Livingston,,52,Livingston,US,4,,,,,,,,,,,,,,,
null,,confidence_buffer,1408600,confidence_buffer,,null,,,,,,,,,,,,,,,,,,
3312.1999999997206,,pt2_unique_rating,1411914,Livingston,,51,,,3,,,,,,,,,,,,,,,
null,,confidence_buffer,1412016,confidence_buffer,,null,,,,,,,,,,,,,,,,,,
2577.100000000093,,pt2_memorable_rating,1414594,Livingston,,52,,,4,,,,,,,,,,,,,,,
null,,confidence_buffer,1414696,confidence_buffer,,null,,,,,,,,,,,,,,,,,,
5000.200000000186,,recognition_phase,1419698,Livingston,,52,,,,,,new,1,0.6086956521739131,,,,,,,,,,
null,,confidence_buffer,1419800,confidence_buffer,,null,,,,,,,,,,,,,,,,,,
null,,thebreak,1420301,break,,null,,,,,,,,,,,,,,,,,,
2299.899999999907,,realistic_rating,1422602,Huntsville,,53,Huntsville,US,5,,,,,,,,,,,,,,,
null,,confidence_buffer,1422703,confidence_buffer,,null,,,,,,,,,,,,,,,,,,
2649.2999999998137,,pt2_unique_rating,1425354,Huntsville,,51,,,3,,,,,,,,,,,,,,,
null,,confidence_buffer,1425456,confidence_buffer,,null,,,,,,,,,,,,,,,,,,
3552.5,,pt2_memorable_rating,1429010,Huntsville,,53,,,5,,,,,,,,,,,,,,,
null,,confidence_buffer,1429111,confidence_buffer,,null,,,,,,,,,,,,,,,,,,
2449.399999999907,,probe_rating,1431562,probe_rating,,49,,,,1,1,,,,,,,,,,,,,
null,,confidence_buffer,1431665,confidence_buffer,,null,,,,,,,,,,,,,,,,,,
1568.1000000000931,,recognition_phase,1433234,Huntsville,,49,,,,,,old,1,0.6170212765957447,,,,,,,,,,
null,,confidence_buffer,1433336,confidence_buffer,,null,,,,,,,,,,,,,,,,,,
null,,thebreak,1433838,break,,null,,,,,,,,,,,,,,,,,,
12850.80000000028,,realistic_rating,1446690,Cornwall,,52,Cornwall,US,4,,,,,,,,,,,,,,,
null,,confidence_buffer,1446792,confidence_buffer,,null,,,,,,,,,,,,,,,,,,
2888.5,,pt2_unique_rating,1449682,Cornwall,,52,,,4,,,,,,,,,,,,,,,
null,,confidence_buffer,1449784,confidence_buffer,,null,,,,,,,,,,,,,,,,,,
3305.2000000001863,,pt2_memorable_rating,1453090,Cornwall,,51,,,3,,,,,,,,,,,,,,,
null,,confidence_buffer,1453192,confidence_buffer,,null,,,,,,,,,,,,,,,,,,
3376.7000000001863,,probe_rating,1456570,probe_rating,,50,,,,2,1,,,,,,,,,,,,,
null,,confidence_buffer,1456672,confidence_buffer,,null,,,,,,,,,,,,,,,,,,
1376.6000000000931,,recognition_phase,1458050,Cornwall,,50,,,,,,old,0,0.6041666666666666,,,,,,,,,,
null,,confidence_buffer,1458152,confidence_buffer,,null,,,,,,,,,,,,,,,,,,
null,,thebreak,1458653,break,,null,,,,,,,,,,,,,,,,,,
4427,,realistic_rating,1463082,Medora,,49,Medora,US,1,,,,,,,,,,,,,,,
null,,confidence_buffer,1463184,confidence_buffer,,null,,,,,,,,,,,,,,,,,,
1920.2000000001863,,pt2_unique_rating,1465106,Medora,,49,,,1,,,,,,,,,,,,,,,
null,,confidence_buffer,1465209,confidence_buffer,,null,,,,,,,,,,,,,,,,,,
1680,,pt2_memorable_rating,1466890,Medora,,49,,,1,,,,,,,,,,,,,,,
null,,confidence_buffer,1466992,confidence_buffer,,null,,,,,,,,,,,,,,,,,,
4224.600000000093,,recognition_phase,1471218,Medora,,52,,,,,,new,0,0.5918367346938775,,,,,,,,,,
null,,confidence_buffer,1471321,confidence_buffer,,null,,,,,,,,,,,,,,,,,,
null,,thebreak,1471823,break,,null,,,,,,,,,,,,,,,,,,
3369.2000000001863,,realistic_rating,1475194,Orchard Bend,,52,Orchard Bend,Fictional,4,,,,,,,,,,,,,,,
null,,confidence_buffer,1475295,confidence_buffer,,null,,,,,,,,,,,,,,,,,,
3144.6999999997206,,pt2_unique_rating,1478441,Orchard Bend,,51,,,3,,,,,,,,,,,,,,,
null,,confidence_buffer,1478543,confidence_buffer,,null,,,,,,,,,,,,,,,,,,
2257.600000000093,,pt2_memorable_rating,1480802,Orchard Bend,,51,,,3,,,,,,,,,,,,,,,
null,,confidence_buffer,1480904,confidence_buffer,,null,,,,,,,,,,,,,,,,,,
4240.799999999814,,recognition_phase,1485146,Orchard Bend,,51,,,,,,new,1,0.6,,,,,,,,,,
null,,confidence_buffer,1485248,confidence_buffer,,null,,,,,,,,,,,,,,,,,,
null,,thebreak,1485750,break,,null,,,,,,,,,,,,,,,,,,
7034.4000000003725,,realistic_rating,1492786,Elmsbury,,50,Elmsbury,Fictional,2,,,,,,,,,,,,,,,
null,,confidence_buffer,1492889,confidence_buffer,,null,,,,,,,,,,,,,,,,,,
2079.7999999998137,,probe_rating,1494970,probe_rating,,52,,,,4,1,,,,,,,,,,,,,
null,,confidence_buffer,1495072,confidence_buffer,,null,,,,,,,,,,,,,,,,,,
5113.200000000186,,pt2_unique_rating,1500186,Elmsbury,,50,,,2,,,,,,,,,,,,,,,
null,,confidence_buffer,1500288,confidence_buffer,,null,,,,,,,,,,,,,,,,,,
3776.7000000001863,,pt2_memorable_rating,1504066,Elmsbury,,51,,,3,,,,,,,,,,,,,,,
null,,confidence_buffer,1504168,confidence_buffer,,null,,,,,,,,,,,,,,,,,,
2608.3000000002794,,recognition_phase,1506778,Elmsbury,,50,,,,,,old,1,0.6078431372549019,,,,,,,,,,
null,,confidence_buffer,1506880,confidence_buffer,,null,,,,,,,,,,,,,,,,,,
null,,thebreak,1507381,break,,null,,,,,,,,,,,,,,,,,,
8987.30000000028,,realistic_rating,1516370,Berkeley Springs,,52,Berkeley Springs,US,4,,,,,,,,,,,,,,,
null,,confidence_buffer,1516473,confidence_buffer,,null,,,,,,,,,,,,,,,,,,
2695.5,,pt2_unique_rating,1519170,Berkeley Springs,,50,,,2,,,,,,,,,,,,,,,
null,,confidence_buffer,1519272,confidence_buffer,,null,,,,,,,,,,,,,,,,,,
1576.8000000002794,,pt2_memorable_rating,1520850,Berkeley Springs,,51,,,3,,,,,,,,,,,,,,,
null,,confidence_buffer,1520952,confidence_buffer,,null,,,,,,,,,,,,,,,,,,
1944.7000000001863,,recognition_phase,1522898,Berkeley Springs,,49,,,,,,old,1,0.6153846153846154,,,,,,,,,,
null,,confidence_buffer,1523000,confidence_buffer,,null,,,,,,,,,,,,,,,,,,
null,,thebreak,1523501,break,,null,,,,,,,,,,,,,,,,,,
5012,,realistic_rating,1528514,Sisters,,49,Sisters,US,1,,,,,,,,,,,,,,,
null,,confidence_buffer,1528616,confidence_buffer,,null,,,,,,,,,,,,,,,,,,
2032.7999999998137,,pt2_unique_rating,1530650,Sisters,,49,,,1,,,,,,,,,,,,,,,
null,,confidence_buffer,1530752,confidence_buffer,,null,,,,,,,,,,,,,,,,,,
3759.7000000001863,,pt2_memorable_rating,1534513,Sisters,,51,,,3,,,,,,,,,,,,,,,
null,,confidence_buffer,1534615,confidence_buffer,,null,,,,,,,,,,,,,,,,,,
3000.7999999998137,,recognition_phase,1537617,Sisters,,51,,,,,,new,1,0.6226415094339622,,,,,,,,,,
null,,confidence_buffer,1537719,confidence_buffer,,null,,,,,,,,,,,,,,,,,,
null,,thebreak,1538221,break,,null,,,,,,,,,,,,,,,,,,
4995.600000000093,,realistic_rating,1543218,East Ladera,,51,East Ladera,Fictional,3,,,,,,,,,,,,,,,
null,,confidence_buffer,1543321,confidence_buffer,,null,,,,,,,,,,,,,,,,,,
1926.7999999998137,,pt2_unique_rating,1545249,East Ladera,,50,,,2,,,,,,,,,,,,,,,
null,,confidence_buffer,1545351,confidence_buffer,,null,,,,,,,,,,,,,,,,,,
1841.7999999998137,,pt2_memorable_rating,1547194,East Ladera,,50,,,2,,,,,,,,,,,,,,,
null,,confidence_buffer,1547296,confidence_buffer,,null,,,,,,,,,,,,,,,,,,
2184.7000000001863,,probe_rating,1549482,probe_rating,,49,,,,1,1,,,,,,,,,,,,,
null,,confidence_buffer,1549583,confidence_buffer,,null,,,,,,,,,,,,,,,,,,
3089.5,,recognition_phase,1552674,East Ladera,,51,,,,,,new,1,0.6296296296296297,,,,,,,,,,
null,,confidence_buffer,1552776,confidence_buffer,,null,,,,,,,,,,,,,,,,,,
null,,thebreak,1553278,break,,null,,,,,,,,,,,,,,,,,,
16939,,realistic_rating,1570218,Yukon,,53,Yukon,US,5,,,,,,,,,,,,,,,
null,,confidence_buffer,1570320,confidence_buffer,,null,,,,,,,,,,,,,,,,,,
2072.100000000093,,pt2_unique_rating,1572394,Yukon,,53,,,5,,,,,,,,,,,,,,,
null,,confidence_buffer,1572496,confidence_buffer,,null,,,,,,,,,,,,,,,,,,
1304.3999999999069,,pt2_memorable_rating,1573802,Yukon,,53,,,5,,,,,,,,,,,,,,,
null,,confidence_buffer,1573903,confidence_buffer,,null,,,,,,,,,,,,,,,,,,
2072.5,,recognition_phase,1575977,Yukon,,49,,,,,,old,1,0.6363636363636364,,,,,,,,,,
null,,confidence_buffer,1576079,confidence_buffer,,null,,,,,,,,,,,,,,,,,,
null,,thebreak,1576581,break,,null,,,,,,,,,,,,,,,,,,
5011.799999999814,,realistic_rating,1581594,Natchez,,50,Natchez,US,2,,,,,,,,,,,,,,,
null,,confidence_buffer,1581696,confidence_buffer,,null,,,,,,,,,,,,,,,,,,
2544,,pt2_unique_rating,1584241,Natchez,,50,,,2,,,,,,,,,,,,,,,
null,,confidence_buffer,1584343,confidence_buffer,,null,,,,,,,,,,,,,,,,,,
2697.2999999998137,,pt2_memorable_rating,1587042,Natchez,,49,,,1,,,,,,,,,,,,,,,
null,,confidence_buffer,1587144,confidence_buffer,,null,,,,,,,,,,,,,,,,,,
2928.7999999998137,,recognition_phase,1590074,Natchez,,50,,,,,,old,1,0.6428571428571429,,,,,,,,,,
null,,confidence_buffer,1590176,confidence_buffer,,null,,,,,,,,,,,,,,,,,,
null,,thebreak,1590678,break,,null,,,,,,,,,,,,,,,,,,
5995.100000000093,,realistic_rating,1596674,Newport,,53,Newport,US,5,,,,,,,,,,,,,,,
null,,confidence_buffer,1596777,confidence_buffer,,null,,,,,,,,,,,,,,,,,,
2719.8000000002794,,pt2_unique_rating,1599498,Newport,,51,,,3,,,,,,,,,,,,,,,
null,,confidence_buffer,1599600,confidence_buffer,,null,,,,,,,,,,,,,,,,,,
2352.4000000003725,,pt2_memorable_rating,1601954,Newport,,52,,,4,,,,,,,,,,,,,,,
null,,confidence_buffer,1602055,confidence_buffer,,null,,,,,,,,,,,,,,,,,,
1697.3999999999069,,recognition_phase,1603754,Newport,,49,,,,,,old,0,0.631578947368421,,,,,,,,,,
null,,confidence_buffer,1603856,confidence_buffer,,null,,,,,,,,,,,,,,,,,,
null,,thebreak,1604358,break,,null,,,,,,,,,,,,,,,,,,
3042.7999999998137,,realistic_rating,1607402,West Palm Beach,,53,West Palm Beach,US,5,,,,,,,,,,,,,,,
null,,confidence_buffer,1607505,confidence_buffer,,null,,,,,,,,,,,,,,,,,,
3319.7000000001863,,pt2_unique_rating,1610825,West Palm Beach,,51,,,3,,,,,,,,,,,,,,,
null,,confidence_buffer,1610927,confidence_buffer,,null,,,,,,,,,,,,,,,,,,
1937.5,,pt2_memorable_rating,1612865,West Palm Beach,,52,,,4,,,,,,,,,,,,,,,
null,,confidence_buffer,1612967,confidence_buffer,,null,,,,,,,,,,,,,,,,,,
2065.399999999907,,recognition_phase,1615034,West Palm Beach,,49,,,,,,old,0,0.6206896551724138,,,,,,,,,,
null,,confidence_buffer,1615135,confidence_buffer,,null,,,,,,,,,,,,,,,,,,
null,,thebreak,1615636,break,,null,,,,,,,,,,,,,,,,,,
3708.600000000093,,realistic_rating,1619346,Custer,,49,Custer,US,1,,,,,,,,,,,,,,,
null,,confidence_buffer,1619448,confidence_buffer,,null,,,,,,,,,,,,,,,,,,
1848.5,,probe_rating,1621298,probe_rating,,53,,,,5,1,,,,,,,,,,,,,
null,,confidence_buffer,1621400,confidence_buffer,,null,,,,,,,,,,,,,,,,,,
5616.600000000093,,pt2_unique_rating,1627018,Custer,,50,,,2,,,,,,,,,,,,,,,
null,,confidence_buffer,1627120,confidence_buffer,,null,,,,,,,,,,,,,,,,,,
3696.5,,pt2_memorable_rating,1630818,Custer,,50,,,2,,,,,,,,,,,,,,,
null,,confidence_buffer,1630920,confidence_buffer,,null,,,,,,,,,,,,,,,,,,
4072.7999999998137,,recognition_phase,1634994,Custer,,52,,,,,,new,1,0.6271186440677966,,,,,,,,,,
null,,confidence_buffer,1635095,confidence_buffer,,null,,,,,,,,,,,,,,,,,,
null,,thebreak,1635597,break,,null,,,,,,,,,,,,,,,,,,
2027.7000000001863,,realistic_rating,1637626,Boulder,,53,Boulder,US,5,,,,,,,,,,,,,,,
null,,confidence_buffer,1637728,confidence_buffer,,null,,,,,,,,,,,,,,,,,,
2496.5,,pt2_unique_rating,1640226,Boulder,,52,,,4,,,,,,,,,,,,,,,
null,,confidence_buffer,1640327,confidence_buffer,,null,,,,,,,,,,,,,,,,,,
1449.6000000000931,,probe_rating,1641778,probe_rating,,52,,,,4,1,,,,,,,,,,,,,
null,,confidence_buffer,1641881,confidence_buffer,,null,,,,,,,,,,,,,,,,,,
1648,,pt2_memorable_rating,1643530,Boulder,,52,,,4,,,,,,,,,,,,,,,
null,,confidence_buffer,1643632,confidence_buffer,,null,,,,,,,,,,,,,,,,,,
1856.3999999999069,,recognition_phase,1645490,Boulder,,49,,,,,,old,0,0.6166666666666667,,,,,,,,,,
null,,confidence_buffer,1645591,confidence_buffer,,null,,,,,,,,,,,,,,,,,,
null,,thebreak,1646093,break,,null,,,,,,,,,,,,,,,,,,
,,survey,1964194,survey-questions,,,,,,,,,,,none,high,no. i even paused my tv,i just went by the names i knew and most were old. some of the unfamiliar I would ask myself how it sounded as a city. But not really using a strategy,i didn't think of a thought process,i went with what i felt most individuals might like,something with an unusual spelling or sound,a plain ordinary city,i have not,not difficult. a little long in the second part going over 60 items.
