rt,responses,trial_type,time_elapsed,stimulus,button_pressed,key_press,name_trial,city_type,rating,probe,probe_accuracy,response,correct,accuracy,problems,smooth,distraction,strategies,familiar,memorable,unique,realistic,similar,comments
22248.299999952316,{worker_id:67f00b145cf2440ca37929d4},id_enter,22251,,,,,,,,,,,,,,,,,,,,,
39041.89999985695,,fullscreen,61297,fullscreen,0,,,,,,,,,,,,,,,,,,,
12442.799999952316,,intro_0,73744,instruct,,32,,,,,,,,,,,,,,,,,,
21164.200000047684,,intro_1,94910,instruct,,32,,,,,,,,,,,,,,,,,,
11387.900000095367,,intro_2,106300,instruct,,32,,,,,,,,,,,,,,,,,,
null,,instruct_dir_4,107801,instruct,,null,,,,,,,,,,,,,,,,,,
null,,thebreak,108304,break,,null,,,,,,,,,,,,,,,,,,
10686.200000047684,,familiar_rating,118992,Athens,,51,Athens,US,3,,,,,,,,,,,,,,,
null,,confidence_buffer,119095,confidence_buffer,,null,,,,,,,,,,,,,,,,,,
9390.599999904633,,probe_rating,128488,probe_rating,,51,,,,3,1,,,,,,,,,,,,,
null,,confidence_buffer,128591,confidence_buffer,,null,,,,,,,,,,,,,,,,,,
15904.400000095367,,unique_rating,144497,Athens,,51,,,3,,,,,,,,,,,,,,,
null,,confidence_buffer,144600,confidence_buffer,,null,,,,,,,,,,,,,,,,,,
9255.899999856949,,memorable_rating,153857,Athens,,52,,,4,,,,,,,,,,,,,,,
null,,confidence_buffer,153959,confidence_buffer,,null,,,,,,,,,,,,,,,,,,
null,,thebreak,154461,break,,null,,,,,,,,,,,,,,,,,,
10591.900000095367,,familiar_rating,165055,Gatlinburg,,50,Gatlinburg,US,2,,,,,,,,,,,,,,,
null,,confidence_buffer,165157,confidence_buffer,,null,,,,,,,,,,,,,,,,,,
4564.400000095367,,unique_rating,169723,Gatlinburg,,52,,,4,,,,,,,,,,,,,,,
null,,confidence_buffer,169825,confidence_buffer,,null,,,,,,,,,,,,,,,,,,
10889.200000047684,,memorable_rating,180716,Gatlinburg,,51,,,3,,,,,,,,,,,,,,,
null,,confidence_buffer,180818,confidence_buffer,,null,,,,,,,,,,,,,,,,,,
null,,thebreak,181319,break,,null,,,,,,,,,,,,,,,,,,
6336.400000095367,,familiar_rating,187656,Stonebrook,,52,Stonebrook,Fictional,4,,,,,,,,,,,,,,,
null,,confidence_buffer,187758,confidence_buffer,,null,,,,,,,,,,,,,,,,,,
3899.5999999046326,,unique_rating,191659,Stonebrook,,51,,,3,,,,,,,,,,,,,,,
null,,confidence_buffer,191761,confidence_buffer,,null,,,,,,,,,,,,,,,,,,
8311,,probe_rating,200074,probe_rating,,52,,,,4,1,,,,,,,,,,,,,
null,,confidence_buffer,200176,confidence_buffer,,null,,,,,,,,,,,,,,,,,,
7717.700000047684,,memorable_rating,207895,Stonebrook,,52,,,4,,,,,,,,,,,,,,,
null,,confidence_buffer,207997,confidence_buffer,,null,,,,,,,,,,,,,,,,,,
null,,thebreak,208500,break,,null,,,,,,,,,,,,,,,,,,
5810.399999856949,,familiar_rating,214312,New Verdan,,51,New Verdan,Fictional,3,,,,,,,,,,,,,,,
null,,confidence_buffer,214414,confidence_buffer,,null,,,,,,,,,,,,,,,,,,
3930.5,,probe_rating,218346,probe_rating,,51,,,,3,1,,,,,,,,,,,,,
null,,confidence_buffer,218449,confidence_buffer,,null,,,,,,,,,,,,,,,,,,
7261.599999904633,,unique_rating,225712,New Verdan,,51,,,3,,,,,,,,,,,,,,,
null,,confidence_buffer,225814,confidence_buffer,,null,,,,,,,,,,,,,,,,,,
2287.5,,memorable_rating,228103,New Verdan,,51,,,3,,,,,,,,,,,,,,,
null,,confidence_buffer,228205,confidence_buffer,,null,,,,,,,,,,,,,,,,,,
null,,thebreak,228707,break,,null,,,,,,,,,,,,,,,,,,
4810.599999904633,,familiar_rating,233519,Berkeley Springs,,51,Berkeley Springs,US,3,,,,,,,,,,,,,,,
null,,confidence_buffer,233621,confidence_buffer,,null,,,,,,,,,,,,,,,,,,
3007.9000000953674,,unique_rating,236631,Berkeley Springs,,50,,,2,,,,,,,,,,,,,,,
null,,confidence_buffer,236733,confidence_buffer,,null,,,,,,,,,,,,,,,,,,
2548.100000143051,,memorable_rating,239282,Berkeley Springs,,52,,,4,,,,,,,,,,,,,,,
null,,confidence_buffer,239385,confidence_buffer,,null,,,,,,,,,,,,,,,,,,
null,,thebreak,239886,break,,null,,,,,,,,,,,,,,,,,,
5675.099999904633,,familiar_rating,245562,Elmsbury,,51,Elmsbury,Fictional,3,,,,,,,,,,,,,,,
null,,confidence_buffer,245664,confidence_buffer,,null,,,,,,,,,,,,,,,,,,
4103,,unique_rating,249768,Elmsbury,,53,,,5,,,,,,,,,,,,,,,
null,,confidence_buffer,249870,confidence_buffer,,null,,,,,,,,,,,,,,,,,,
8713.600000143051,,memorable_rating,258585,Elmsbury,,51,,,3,,,,,,,,,,,,,,,
null,,confidence_buffer,258686,confidence_buffer,,null,,,,,,,,,,,,,,,,,,
null,,thebreak,259187,break,,null,,,,,,,,,,,,,,,,,,
17306.900000095367,,familiar_rating,276495,Barnard,,51,Barnard,US,3,,,,,,,,,,,,,,,
null,,confidence_buffer,276596,confidence_buffer,,null,,,,,,,,,,,,,,,,,,
3511.399999856949,,unique_rating,280109,Barnard,,52,,,4,,,,,,,,,,,,,,,
null,,confidence_buffer,280210,confidence_buffer,,null,,,,,,,,,,,,,,,,,,
3228.0999999046326,,memorable_rating,283440,Barnard,,52,,,4,,,,,,,,,,,,,,,
null,,confidence_buffer,283542,confidence_buffer,,null,,,,,,,,,,,,,,,,,,
null,,thebreak,284044,break,,null,,,,,,,,,,,,,,,,,,
4152.799999952316,,familiar_rating,288199,Highvale,,51,Highvale,Fictional,3,,,,,,,,,,,,,,,
null,,confidence_buffer,288301,confidence_buffer,,null,,,,,,,,,,,,,,,,,,
3594.100000143051,,unique_rating,291896,Highvale,,52,,,4,,,,,,,,,,,,,,,
null,,confidence_buffer,291999,confidence_buffer,,null,,,,,,,,,,,,,,,,,,
4210.700000047684,,memorable_rating,296211,Highvale,,51,,,3,,,,,,,,,,,,,,,
null,,confidence_buffer,296313,confidence_buffer,,null,,,,,,,,,,,,,,,,,,
null,,thebreak,296815,break,,null,,,,,,,,,,,,,,,,,,
4240.299999952316,,familiar_rating,301057,Lake of the Ozarks,,49,Lake of the Ozarks,US,1,,,,,,,,,,,,,,,
null,,confidence_buffer,301159,confidence_buffer,,null,,,,,,,,,,,,,,,,,,
9609.599999904633,,unique_rating,310770,Lake of the Ozarks,,52,,,4,,,,,,,,,,,,,,,
null,,confidence_buffer,310873,confidence_buffer,,null,,,,,,,,,,,,,,,,,,
8395,,memorable_rating,319269,Lake of the Ozarks,,51,,,3,,,,,,,,,,,,,,,
null,,confidence_buffer,319370,confidence_buffer,,null,,,,,,,,,,,,,,,,,,
null,,thebreak,319873,break,,null,,,,,,,,,,,,,,,,,,
5195.299999952316,,familiar_rating,325069,Huntsville,,50,Huntsville,US,2,,,,,,,,,,,,,,,
null,,confidence_buffer,325171,confidence_buffer,,null,,,,,,,,,,,,,,,,,,
4096.099999904633,,unique_rating,329269,Huntsville,,52,,,4,,,,,,,,,,,,,,,
null,,confidence_buffer,329371,confidence_buffer,,null,,,,,,,,,,,,,,,,,,
1606.9000000953674,,memorable_rating,330979,Huntsville,,51,,,3,,,,,,,,,,,,,,,
null,,confidence_buffer,331081,confidence_buffer,,null,,,,,,,,,,,,,,,,,,
null,,thebreak,331582,break,,null,,,,,,,,,,,,,,,,,,
11664.300000190735,,familiar_rating,343248,Hot Springs,,52,Hot Springs,US,4,,,,,,,,,,,,,,,
null,,confidence_buffer,343349,confidence_buffer,,null,,,,,,,,,,,,,,,,,,
4152.699999809265,,unique_rating,347504,Hot Springs,,49,,,1,,,,,,,,,,,,,,,
null,,confidence_buffer,347606,confidence_buffer,,null,,,,,,,,,,,,,,,,,,
1300.7000000476837,,memorable_rating,348907,Hot Springs,,52,,,4,,,,,,,,,,,,,,,
null,,confidence_buffer,349009,confidence_buffer,,null,,,,,,,,,,,,,,,,,,
null,,thebreak,349510,break,,null,,,,,,,,,,,,,,,,,,
2633.7000000476837,,familiar_rating,352145,Hanover,,52,Hanover,US,4,,,,,,,,,,,,,,,
null,,confidence_buffer,352248,confidence_buffer,,null,,,,,,,,,,,,,,,,,,
3129.5,,unique_rating,355379,Hanover,,51,,,3,,,,,,,,,,,,,,,
null,,confidence_buffer,355481,confidence_buffer,,null,,,,,,,,,,,,,,,,,,
2521.2000000476837,,memorable_rating,358004,Hanover,,52,,,4,,,,,,,,,,,,,,,
null,,confidence_buffer,358106,confidence_buffer,,null,,,,,,,,,,,,,,,,,,
null,,thebreak,358608,break,,null,,,,,,,,,,,,,,,,,,
12434,,familiar_rating,371043,Lakehaven,,50,Lakehaven,Fictional,2,,,,,,,,,,,,,,,
null,,confidence_buffer,371146,confidence_buffer,,null,,,,,,,,,,,,,,,,,,
2467.5,,unique_rating,373615,Lakehaven,,51,,,3,,,,,,,,,,,,,,,
null,,confidence_buffer,373716,confidence_buffer,,null,,,,,,,,,,,,,,,,,,
12688.799999952316,,memorable_rating,386407,Lakehaven,,50,,,2,,,,,,,,,,,,,,,
null,,confidence_buffer,386510,confidence_buffer,,null,,,,,,,,,,,,,,,,,,
null,,thebreak,387011,break,,null,,,,,,,,,,,,,,,,,,
7191.200000047684,,familiar_rating,394204,Shreveport,,49,Shreveport,US,1,,,,,,,,,,,,,,,
null,,confidence_buffer,394306,confidence_buffer,,null,,,,,,,,,,,,,,,,,,
4540.400000095367,,unique_rating,398847,Shreveport,,53,,,5,,,,,,,,,,,,,,,
null,,confidence_buffer,398949,confidence_buffer,,null,,,,,,,,,,,,,,,,,,
12008.700000047684,,memorable_rating,410959,Shreveport,,51,,,3,,,,,,,,,,,,,,,
null,,confidence_buffer,411061,confidence_buffer,,null,,,,,,,,,,,,,,,,,,
null,,thebreak,411563,break,,null,,,,,,,,,,,,,,,,,,
7150.400000095367,,familiar_rating,418714,Clearbrook,,50,Clearbrook,Fictional,2,,,,,,,,,,,,,,,
null,,confidence_buffer,418817,confidence_buffer,,null,,,,,,,,,,,,,,,,,,
3829.800000190735,,unique_rating,422648,Clearbrook,,51,,,3,,,,,,,,,,,,,,,
null,,confidence_buffer,422750,confidence_buffer,,null,,,,,,,,,,,,,,,,,,
5002.200000047684,,memorable_rating,427754,Clearbrook,,52,,,4,,,,,,,,,,,,,,,
null,,confidence_buffer,427856,confidence_buffer,,null,,,,,,,,,,,,,,,,,,
3261.5,,probe_rating,431119,probe_rating,,49,,,,1,1,,,,,,,,,,,,,
null,,confidence_buffer,431221,confidence_buffer,,null,,,,,,,,,,,,,,,,,,
null,,thebreak,431722,break,,null,,,,,,,,,,,,,,,,,,
11434.299999952316,,familiar_rating,443158,Hawthorne Bluffs,,50,Hawthorne Bluffs,Fictional,2,,,,,,,,,,,,,,,
null,,confidence_buffer,443260,confidence_buffer,,null,,,,,,,,,,,,,,,,,,
4678.099999904633,,unique_rating,447939,Hawthorne Bluffs,,53,,,5,,,,,,,,,,,,,,,
null,,confidence_buffer,448041,confidence_buffer,,null,,,,,,,,,,,,,,,,,,
2269.4000000953674,,memorable_rating,450312,Hawthorne Bluffs,,52,,,4,,,,,,,,,,,,,,,
null,,confidence_buffer,450419,confidence_buffer,,null,,,,,,,,,,,,,,,,,,
null,,thebreak,450920,break,,null,,,,,,,,,,,,,,,,,,
8861.099999904633,,familiar_rating,459783,Bisbee,,52,Bisbee,US,4,,,,,,,,,,,,,,,
null,,confidence_buffer,459885,confidence_buffer,,null,,,,,,,,,,,,,,,,,,
2336.9000000953674,,unique_rating,462224,Bisbee,,52,,,4,,,,,,,,,,,,,,,
null,,confidence_buffer,462326,confidence_buffer,,null,,,,,,,,,,,,,,,,,,
2432,,memorable_rating,464760,Bisbee,,51,,,3,,,,,,,,,,,,,,,
null,,confidence_buffer,464862,confidence_buffer,,null,,,,,,,,,,,,,,,,,,
null,,thebreak,465365,break,,null,,,,,,,,,,,,,,,,,,
9063.5,,familiar_rating,474430,Delaware City,,49,Delaware City,US,1,,,,,,,,,,,,,,,
null,,confidence_buffer,474532,confidence_buffer,,null,,,,,,,,,,,,,,,,,,
6409.700000047684,,unique_rating,480944,Delaware City,,52,,,4,,,,,,,,,,,,,,,
null,,confidence_buffer,481046,confidence_buffer,,null,,,,,,,,,,,,,,,,,,
2904.0999999046326,,probe_rating,483951,probe_rating,,49,,,,1,1,,,,,,,,,,,,,
null,,confidence_buffer,484054,confidence_buffer,,null,,,,,,,,,,,,,,,,,,
3020.399999856949,,memorable_rating,487076,Delaware City,,51,,,3,,,,,,,,,,,,,,,
null,,confidence_buffer,487177,confidence_buffer,,null,,,,,,,,,,,,,,,,,,
null,,thebreak,487680,break,,null,,,,,,,,,,,,,,,,,,
9070.5,,familiar_rating,496752,Coralridge,,51,Coralridge,Fictional,3,,,,,,,,,,,,,,,
null,,confidence_buffer,496855,confidence_buffer,,null,,,,,,,,,,,,,,,,,,
2481.7999999523163,,unique_rating,499339,Coralridge,,52,,,4,,,,,,,,,,,,,,,
null,,confidence_buffer,499441,confidence_buffer,,null,,,,,,,,,,,,,,,,,,
62.5,,memorable_rating,499505,Coralridge,,52,,,4,,,,,,,,,,,,,,,
null,,confidence_buffer,499612,confidence_buffer,,null,,,,,,,,,,,,,,,,,,
null,,thebreak,500113,break,,null,,,,,,,,,,,,,,,,,,
11254.599999904633,,familiar_rating,511369,Bayshore Haven,,50,Bayshore Haven,Fictional,2,,,,,,,,,,,,,,,
null,,confidence_buffer,511469,confidence_buffer,,null,,,,,,,,,,,,,,,,,,
3118.100000143051,,unique_rating,514588,Bayshore Haven,,52,,,4,,,,,,,,,,,,,,,
null,,confidence_buffer,514689,confidence_buffer,,null,,,,,,,,,,,,,,,,,,
4669.199999809265,,memorable_rating,519360,Bayshore Haven,,51,,,3,,,,,,,,,,,,,,,
null,,confidence_buffer,519462,confidence_buffer,,null,,,,,,,,,,,,,,,,,,
null,,thebreak,519964,break,,null,,,,,,,,,,,,,,,,,,
13140.700000047684,,familiar_rating,533106,Alliance,,52,Alliance,US,4,,,,,,,,,,,,,,,
null,,confidence_buffer,533209,confidence_buffer,,null,,,,,,,,,,,,,,,,,,
3005.4000000953674,,unique_rating,536216,Alliance,,52,,,4,,,,,,,,,,,,,,,
null,,confidence_buffer,536317,confidence_buffer,,null,,,,,,,,,,,,,,,,,,
4056.399999856949,,memorable_rating,540375,Alliance,,53,,,5,,,,,,,,,,,,,,,
null,,confidence_buffer,540477,confidence_buffer,,null,,,,,,,,,,,,,,,,,,
null,,thebreak,540978,break,,null,,,,,,,,,,,,,,,,,,
11095.899999856949,,familiar_rating,552075,East Ladera,,49,East Ladera,Fictional,1,,,,,,,,,,,,,,,
null,,confidence_buffer,552178,confidence_buffer,,null,,,,,,,,,,,,,,,,,,
16414.10000014305,,unique_rating,568594,East Ladera,,51,,,3,,,,,,,,,,,,,,,
null,,confidence_buffer,568695,confidence_buffer,,null,,,,,,,,,,,,,,,,,,
2572.2999999523163,,memorable_rating,571269,East Ladera,,52,,,4,,,,,,,,,,,,,,,
null,,confidence_buffer,571371,confidence_buffer,,null,,,,,,,,,,,,,,,,,,
null,,thebreak,571874,break,,null,,,,,,,,,,,,,,,,,,
9501.900000095367,,familiar_rating,581377,Northbridge,,52,Northbridge,Fictional,4,,,,,,,,,,,,,,,
null,,confidence_buffer,581479,confidence_buffer,,null,,,,,,,,,,,,,,,,,,
3466.399999856949,,unique_rating,584947,Northbridge,,51,,,3,,,,,,,,,,,,,,,
null,,confidence_buffer,585049,confidence_buffer,,null,,,,,,,,,,,,,,,,,,
3965.5999999046326,,memorable_rating,589016,Northbridge,,52,,,4,,,,,,,,,,,,,,,
null,,confidence_buffer,589118,confidence_buffer,,null,,,,,,,,,,,,,,,,,,
null,,thebreak,589620,break,,null,,,,,,,,,,,,,,,,,,
10074.400000095367,,familiar_rating,599696,Gloucester,,50,Gloucester,US,2,,,,,,,,,,,,,,,
null,,confidence_buffer,599798,confidence_buffer,,null,,,,,,,,,,,,,,,,,,
3115.5999999046326,,unique_rating,602915,Gloucester,,53,,,5,,,,,,,,,,,,,,,
null,,confidence_buffer,603017,confidence_buffer,,null,,,,,,,,,,,,,,,,,,
3767.5,,memorable_rating,606785,Gloucester,,51,,,3,,,,,,,,,,,,,,,
null,,confidence_buffer,606887,confidence_buffer,,null,,,,,,,,,,,,,,,,,,
null,,thebreak,607389,break,,null,,,,,,,,,,,,,,,,,,
5314,,familiar_rating,612705,Coeur d'Alene,,49,Coeur d'Alene,US,1,,,,,,,,,,,,,,,
null,,confidence_buffer,612807,confidence_buffer,,null,,,,,,,,,,,,,,,,,,
5642.799999952316,,unique_rating,618450,Coeur d'Alene,,53,,,5,,,,,,,,,,,,,,,
null,,confidence_buffer,618553,confidence_buffer,,null,,,,,,,,,,,,,,,,,,
4096.900000095367,,memorable_rating,622652,Coeur d'Alene,,50,,,2,,,,,,,,,,,,,,,
null,,confidence_buffer,622753,confidence_buffer,,null,,,,,,,,,,,,,,,,,,
5600.899999856949,,probe_rating,628356,probe_rating,,49,,,,1,1,,,,,,,,,,,,,
null,,confidence_buffer,628459,confidence_buffer,,null,,,,,,,,,,,,,,,,,,
null,,thebreak,628960,break,,null,,,,,,,,,,,,,,,,,,
4835.399999856949,,familiar_rating,633797,Pine Hollow,,51,Pine Hollow,Fictional,3,,,,,,,,,,,,,,,
null,,confidence_buffer,633899,confidence_buffer,,null,,,,,,,,,,,,,,,,,,
2768,,unique_rating,636669,Pine Hollow,,52,,,4,,,,,,,,,,,,,,,
null,,confidence_buffer,636771,confidence_buffer,,null,,,,,,,,,,,,,,,,,,
2436.7999999523163,,memorable_rating,639209,Pine Hollow,,51,,,3,,,,,,,,,,,,,,,
null,,confidence_buffer,639311,confidence_buffer,,null,,,,,,,,,,,,,,,,,,
null,,thebreak,639812,break,,null,,,,,,,,,,,,,,,,,,
9098.299999952316,,familiar_rating,648912,Cape May,,51,Cape May,US,3,,,,,,,,,,,,,,,
null,,confidence_buffer,649015,confidence_buffer,,null,,,,,,,,,,,,,,,,,,
5270.5,,unique_rating,654286,Cape May,,50,,,2,,,,,,,,,,,,,,,
null,,confidence_buffer,654388,confidence_buffer,,null,,,,,,,,,,,,,,,,,,
2864.7000000476837,,memorable_rating,657254,Cape May,,52,,,4,,,,,,,,,,,,,,,
null,,confidence_buffer,657356,confidence_buffer,,null,,,,,,,,,,,,,,,,,,
null,,thebreak,657857,break,,null,,,,,,,,,,,,,,,,,,
13467.799999952316,,familiar_rating,671327,Granton Ridge,,50,Granton Ridge,Fictional,2,,,,,,,,,,,,,,,
null,,confidence_buffer,671428,confidence_buffer,,null,,,,,,,,,,,,,,,,,,
1823.3999998569489,,unique_rating,673253,Granton Ridge,,52,,,4,,,,,,,,,,,,,,,
null,,confidence_buffer,673355,confidence_buffer,,null,,,,,,,,,,,,,,,,,,
5430.799999952316,,memorable_rating,678787,Granton Ridge,,51,,,3,,,,,,,,,,,,,,,
null,,confidence_buffer,678889,confidence_buffer,,null,,,,,,,,,,,,,,,,,,
2455.5999999046326,,probe_rating,681346,probe_rating,,52,,,,4,1,,,,,,,,,,,,,
null,,confidence_buffer,681448,confidence_buffer,,null,,,,,,,,,,,,,,,,,,
null,,thebreak,681950,break,,null,,,,,,,,,,,,,,,,,,
5705.700000047684,,familiar_rating,687657,Fairhaven,,51,Fairhaven,Fictional,3,,,,,,,,,,,,,,,
null,,confidence_buffer,687758,confidence_buffer,,null,,,,,,,,,,,,,,,,,,
1617.1000001430511,,unique_rating,689376,Fairhaven,,52,,,4,,,,,,,,,,,,,,,
null,,confidence_buffer,689479,confidence_buffer,,null,,,,,,,,,,,,,,,,,,
4191,,memorable_rating,693671,Fairhaven,,52,,,4,,,,,,,,,,,,,,,
null,,confidence_buffer,693774,confidence_buffer,,null,,,,,,,,,,,,,,,,,,
null,,thebreak,694275,break,,null,,,,,,,,,,,,,,,,,,
7270.299999952316,,familiar_rating,701547,Montelake,,50,Montelake,Fictional,2,,,,,,,,,,,,,,,
null,,confidence_buffer,701648,confidence_buffer,,null,,,,,,,,,,,,,,,,,,
2949.399999856949,,unique_rating,704598,Montelake,,52,,,4,,,,,,,,,,,,,,,
null,,confidence_buffer,704699,confidence_buffer,,null,,,,,,,,,,,,,,,,,,
1992.2999999523163,,probe_rating,706693,probe_rating,,52,,,,4,1,,,,,,,,,,,,,
null,,confidence_buffer,706796,confidence_buffer,,null,,,,,,,,,,,,,,,,,,
2212.7000000476837,,memorable_rating,709009,Montelake,,51,,,3,,,,,,,,,,,,,,,
null,,confidence_buffer,709112,confidence_buffer,,null,,,,,,,,,,,,,,,,,,
null,,thebreak,709614,break,,null,,,,,,,,,,,,,,,,,,
12932.900000095367,,intro_0,722548,instruct,,32,,,,,,,,,,,,,,,,,,
19825.10000014305,,intro_1,742374,instruct,,32,,,,,,,,,,,,,,,,,,
67674.70000004768,,intro_2,810050,instruct,,32,,,,,,,,,,,,,,,,,,
null,,instruct_dir_4,811552,instruct,,null,,,,,,,,,,,,,,,,,,
21525.200000047684,,realistic_rating,833078,Gatlinburg,,52,Gatlinburg,US,4,,,,,,,,,,,,,,,
null,,confidence_buffer,833181,confidence_buffer,,null,,,,,,,,,,,,,,,,,,
4701.600000143051,,pt2_unique_rating,837884,Gatlinburg,,52,,,4,,,,,,,,,,,,,,,
null,,confidence_buffer,837987,confidence_buffer,,null,,,,,,,,,,,,,,,,,,
2414,,pt2_memorable_rating,840402,Gatlinburg,,51,,,3,,,,,,,,,,,,,,,
null,,confidence_buffer,840504,confidence_buffer,,null,,,,,,,,,,,,,,,,,,
2968.5,,recognition_phase,843475,Gatlinburg,,49,,,,,,old,1,1,,,,,,,,,,
null,,confidence_buffer,843577,confidence_buffer,,null,,,,,,,,,,,,,,,,,,
null,,thebreak,844079,break,,null,,,,,,,,,,,,,,,,,,
5784.200000047684,,realistic_rating,849865,Brookmere,,52,Brookmere,Fictional,4,,,,,,,,,,,,,,,
null,,confidence_buffer,849967,confidence_buffer,,null,,,,,,,,,,,,,,,,,,
2597.699999809265,,pt2_unique_rating,852566,Brookmere,,51,,,3,,,,,,,,,,,,,,,
null,,confidence_buffer,852668,confidence_buffer,,null,,,,,,,,,,,,,,,,,,
3375,,pt2_memorable_rating,856045,Brookmere,,52,,,4,,,,,,,,,,,,,,,
null,,confidence_buffer,856147,confidence_buffer,,null,,,,,,,,,,,,,,,,,,
3109.2000000476837,,recognition_phase,859257,Brookmere,,52,,,,,,new,1,1,,,,,,,,,,
null,,confidence_buffer,859360,confidence_buffer,,null,,,,,,,,,,,,,,,,,,
null,,thebreak,859861,break,,null,,,,,,,,,,,,,,,,,,
5570,,realistic_rating,865432,Clearbrook,,51,Clearbrook,Fictional,3,,,,,,,,,,,,,,,
null,,confidence_buffer,865535,confidence_buffer,,null,,,,,,,,,,,,,,,,,,
2570.2999999523163,,pt2_unique_rating,868107,Clearbrook,,50,,,2,,,,,,,,,,,,,,,
null,,confidence_buffer,868209,confidence_buffer,,null,,,,,,,,,,,,,,,,,,
2497,,probe_rating,870707,probe_rating,,51,,,,3,1,,,,,,,,,,,,,
null,,confidence_buffer,870809,confidence_buffer,,null,,,,,,,,,,,,,,,,,,
3058.2999999523163,,pt2_memorable_rating,873869,Clearbrook,,52,,,4,,,,,,,,,,,,,,,
null,,confidence_buffer,873984,confidence_buffer,,null,,,,,,,,,,,,,,,,,,
2352.600000143051,,recognition_phase,876338,Clearbrook,,49,,,,,,old,1,1,,,,,,,,,,
null,,confidence_buffer,876440,confidence_buffer,,null,,,,,,,,,,,,,,,,,,
null,,thebreak,876941,break,,null,,,,,,,,,,,,,,,,,,
5540.900000095367,,realistic_rating,882483,Riverlyn,,51,Riverlyn,Fictional,3,,,,,,,,,,,,,,,
null,,confidence_buffer,882586,confidence_buffer,,null,,,,,,,,,,,,,,,,,,
1751,,pt2_unique_rating,884338,Riverlyn,,50,,,2,,,,,,,,,,,,,,,
null,,confidence_buffer,884441,confidence_buffer,,null,,,,,,,,,,,,,,,,,,
1529,,pt2_memorable_rating,885971,Riverlyn,,51,,,3,,,,,,,,,,,,,,,
null,,confidence_buffer,886074,confidence_buffer,,null,,,,,,,,,,,,,,,,,,
2990.2000000476837,,recognition_phase,889066,Riverlyn,,52,,,,,,new,1,1,,,,,,,,,,
null,,confidence_buffer,889167,confidence_buffer,,null,,,,,,,,,,,,,,,,,,
null,,thebreak,889668,break,,null,,,,,,,,,,,,,,,,,,
12623,,realistic_rating,902292,Falconridge,,51,Falconridge,Fictional,3,,,,,,,,,,,,,,,
null,,confidence_buffer,902393,confidence_buffer,,null,,,,,,,,,,,,,,,,,,
1528.6000001430511,,pt2_unique_rating,903923,Falconridge,,52,,,4,,,,,,,,,,,,,,,
null,,confidence_buffer,904025,confidence_buffer,,null,,,,,,,,,,,,,,,,,,
1282.5,,probe_rating,905309,probe_rating,,50,,,,2,1,,,,,,,,,,,,,
null,,confidence_buffer,905411,confidence_buffer,,null,,,,,,,,,,,,,,,,,,
2392,,pt2_memorable_rating,907805,Falconridge,,52,,,4,,,,,,,,,,,,,,,
null,,confidence_buffer,907907,confidence_buffer,,null,,,,,,,,,,,,,,,,,,
3324.9000000953674,,recognition_phase,911232,Falconridge,,52,,,,,,new,1,1,,,,,,,,,,
null,,confidence_buffer,911336,confidence_buffer,,null,,,,,,,,,,,,,,,,,,
null,,thebreak,911837,break,,null,,,,,,,,,,,,,,,,,,
4208.799999952316,,realistic_rating,916048,Hot Springs,,51,Hot Springs,US,3,,,,,,,,,,,,,,,
null,,confidence_buffer,916150,confidence_buffer,,null,,,,,,,,,,,,,,,,,,
1216,,pt2_unique_rating,917367,Hot Springs,,50,,,2,,,,,,,,,,,,,,,
null,,confidence_buffer,917469,confidence_buffer,,null,,,,,,,,,,,,,,,,,,
976.9000000953674,,pt2_memorable_rating,918448,Hot Springs,,51,,,3,,,,,,,,,,,,,,,
null,,confidence_buffer,918549,confidence_buffer,,null,,,,,,,,,,,,,,,,,,
1450.8999998569489,,recognition_phase,920002,Hot Springs,,49,,,,,,old,1,1,,,,,,,,,,
null,,confidence_buffer,920104,confidence_buffer,,null,,,,,,,,,,,,,,,,,,
null,,thebreak,920606,break,,null,,,,,,,,,,,,,,,,,,
4759.700000047684,,realistic_rating,925367,Bowling Green,,50,Bowling Green,US,2,,,,,,,,,,,,,,,
null,,confidence_buffer,925471,confidence_buffer,,null,,,,,,,,,,,,,,,,,,
3631.5999999046326,,pt2_unique_rating,929104,Bowling Green,,51,,,3,,,,,,,,,,,,,,,
null,,confidence_buffer,929206,confidence_buffer,,null,,,,,,,,,,,,,,,,,,
1076.0999999046326,,pt2_memorable_rating,930283,Bowling Green,,52,,,4,,,,,,,,,,,,,,,
null,,confidence_buffer,930385,confidence_buffer,,null,,,,,,,,,,,,,,,,,,
2487.399999856949,,recognition_phase,932874,Bowling Green,,52,,,,,,new,1,1,,,,,,,,,,
null,,confidence_buffer,932975,confidence_buffer,,null,,,,,,,,,,,,,,,,,,
null,,thebreak,933477,break,,null,,,,,,,,,,,,,,,,,,
8152.299999952316,,realistic_rating,941631,Orr,,50,Orr,US,2,,,,,,,,,,,,,,,
null,,confidence_buffer,941732,confidence_buffer,,null,,,,,,,,,,,,,,,,,,
1493,,pt2_unique_rating,943226,Orr,,52,,,4,,,,,,,,,,,,,,,
null,,confidence_buffer,943328,confidence_buffer,,null,,,,,,,,,,,,,,,,,,
995.7999999523163,,pt2_memorable_rating,944325,Orr,,52,,,4,,,,,,,,,,,,,,,
null,,confidence_buffer,944427,confidence_buffer,,null,,,,,,,,,,,,,,,,,,
2946.9000000953674,,recognition_phase,947376,Orr,,52,,,,,,new,1,1,,,,,,,,,,
null,,confidence_buffer,947477,confidence_buffer,,null,,,,,,,,,,,,,,,,,,
null,,thebreak,947979,break,,null,,,,,,,,,,,,,,,,,,
3618.2000000476837,,realistic_rating,951598,Cornwall,,51,Cornwall,US,3,,,,,,,,,,,,,,,
null,,confidence_buffer,951701,confidence_buffer,,null,,,,,,,,,,,,,,,,,,
1232,,pt2_unique_rating,952934,Cornwall,,50,,,2,,,,,,,,,,,,,,,
null,,confidence_buffer,953037,confidence_buffer,,null,,,,,,,,,,,,,,,,,,
4217.400000095367,,pt2_memorable_rating,957256,Cornwall,,52,,,4,,,,,,,,,,,,,,,
null,,confidence_buffer,957358,confidence_buffer,,null,,,,,,,,,,,,,,,,,,
2637.5,,recognition_phase,959997,Cornwall,,52,,,,,,new,1,1,,,,,,,,,,
null,,confidence_buffer,960100,confidence_buffer,,null,,,,,,,,,,,,,,,,,,
null,,thebreak,960602,break,,null,,,,,,,,,,,,,,,,,,
3813.899999856949,,realistic_rating,964417,Stonebrook,,52,Stonebrook,Fictional,4,,,,,,,,,,,,,,,
null,,confidence_buffer,964520,confidence_buffer,,null,,,,,,,,,,,,,,,,,,
3658.5999999046326,,pt2_unique_rating,968180,Stonebrook,,53,,,5,,,,,,,,,,,,,,,
null,,confidence_buffer,968282,confidence_buffer,,null,,,,,,,,,,,,,,,,,,
4916,,pt2_memorable_rating,973199,Stonebrook,,52,,,4,,,,,,,,,,,,,,,
null,,confidence_buffer,973302,confidence_buffer,,null,,,,,,,,,,,,,,,,,,
2985,,recognition_phase,976289,Stonebrook,,49,,,,,,old,1,1,,,,,,,,,,
null,,confidence_buffer,976391,confidence_buffer,,null,,,,,,,,,,,,,,,,,,
null,,thebreak,976892,break,,null,,,,,,,,,,,,,,,,,,
17886.89999985695,,realistic_rating,994781,Cape May,,52,Cape May,US,4,,,,,,,,,,,,,,,
null,,confidence_buffer,994882,confidence_buffer,,null,,,,,,,,,,,,,,,,,,
1363.0999999046326,,pt2_unique_rating,996247,Cape May,,51,,,3,,,,,,,,,,,,,,,
null,,confidence_buffer,996350,confidence_buffer,,null,,,,,,,,,,,,,,,,,,
3305.2000000476837,,pt2_memorable_rating,999656,Cape May,,53,,,5,,,,,,,,,,,,,,,
null,,confidence_buffer,999759,confidence_buffer,,null,,,,,,,,,,,,,,,,,,
4464.899999856949,,recognition_phase,1004225,Cape May,,49,,,,,,old,1,1,,,,,,,,,,
null,,confidence_buffer,1004328,confidence_buffer,,null,,,,,,,,,,,,,,,,,,
null,,thebreak,1004829,break,,null,,,,,,,,,,,,,,,,,,
3646.5999999046326,,realistic_rating,1008477,Abilene,,52,Abilene,US,4,,,,,,,,,,,,,,,
null,,confidence_buffer,1008579,confidence_buffer,,null,,,,,,,,,,,,,,,,,,
1477.2999999523163,,pt2_unique_rating,1010058,Abilene,,50,,,2,,,,,,,,,,,,,,,
null,,confidence_buffer,1010160,confidence_buffer,,null,,,,,,,,,,,,,,,,,,
646.2000000476837,,pt2_memorable_rating,1010808,Abilene,,51,,,3,,,,,,,,,,,,,,,
null,,confidence_buffer,1010910,confidence_buffer,,null,,,,,,,,,,,,,,,,,,
2087.5999999046326,,recognition_phase,1012999,Abilene,,52,,,,,,new,1,1,,,,,,,,,,
null,,confidence_buffer,1013101,confidence_buffer,,null,,,,,,,,,,,,,,,,,,
null,,thebreak,1013602,break,,null,,,,,,,,,,,,,,,,,,
2617,,realistic_rating,1016221,Willowford,,51,Willowford,Fictional,3,,,,,,,,,,,,,,,
null,,confidence_buffer,1016323,confidence_buffer,,null,,,,,,,,,,,,,,,,,,
1227.5,,pt2_unique_rating,1017552,Willowford,,50,,,2,,,,,,,,,,,,,,,
null,,confidence_buffer,1017655,confidence_buffer,,null,,,,,,,,,,,,,,,,,,
1779.7000000476837,,pt2_memorable_rating,1019436,Willowford,,52,,,4,,,,,,,,,,,,,,,
null,,confidence_buffer,1019539,confidence_buffer,,null,,,,,,,,,,,,,,,,,,
2013.7999999523163,,recognition_phase,1021554,Willowford,,52,,,,,,new,1,1,,,,,,,,,,
null,,confidence_buffer,1021656,confidence_buffer,,null,,,,,,,,,,,,,,,,,,
null,,thebreak,1022160,break,,null,,,,,,,,,,,,,,,,,,
1941.2999999523163,,realistic_rating,1024103,Coralridge,,51,Coralridge,Fictional,3,,,,,,,,,,,,,,,
null,,confidence_buffer,1024205,confidence_buffer,,null,,,,,,,,,,,,,,,,,,
937.7000000476837,,pt2_unique_rating,1025144,Coralridge,,52,,,4,,,,,,,,,,,,,,,
null,,confidence_buffer,1025247,confidence_buffer,,null,,,,,,,,,,,,,,,,,,
1381.3999998569489,,pt2_memorable_rating,1026629,Coralridge,,52,,,4,,,,,,,,,,,,,,,
null,,confidence_buffer,1026732,confidence_buffer,,null,,,,,,,,,,,,,,,,,,
1539.2000000476837,,recognition_phase,1028272,Coralridge,,49,,,,,,old,1,1,,,,,,,,,,
null,,confidence_buffer,1028374,confidence_buffer,,null,,,,,,,,,,,,,,,,,,
null,,thebreak,1028875,break,,null,,,,,,,,,,,,,,,,,,
4538.200000047684,,realistic_rating,1033415,New Verdan,,51,New Verdan,Fictional,3,,,,,,,,,,,,,,,
null,,confidence_buffer,1033517,confidence_buffer,,null,,,,,,,,,,,,,,,,,,
773.2999999523163,,pt2_unique_rating,1034292,New Verdan,,50,,,2,,,,,,,,,,,,,,,
null,,confidence_buffer,1034394,confidence_buffer,,null,,,,,,,,,,,,,,,,,,
1355.5,,pt2_memorable_rating,1035750,New Verdan,,52,,,4,,,,,,,,,,,,,,,
null,,confidence_buffer,1035853,confidence_buffer,,null,,,,,,,,,,,,,,,,,,
1798.5,,recognition_phase,1037653,New Verdan,,49,,,,,,old,1,1,,,,,,,,,,
null,,confidence_buffer,1037756,confidence_buffer,,null,,,,,,,,,,,,,,,,,,
null,,thebreak,1038257,break,,null,,,,,,,,,,,,,,,,,,
1925.6999998092651,,realistic_rating,1040185,Lake of the Ozarks,,52,Lake of the Ozarks,US,4,,,,,,,,,,,,,,,
null,,confidence_buffer,1040287,confidence_buffer,,null,,,,,,,,,,,,,,,,,,
3492.5999999046326,,pt2_unique_rating,1043781,Lake of the Ozarks,,53,,,5,,,,,,,,,,,,,,,
null,,confidence_buffer,1043883,confidence_buffer,,null,,,,,,,,,,,,,,,,,,
2972.899999856949,,pt2_memorable_rating,1046857,Lake of the Ozarks,,52,,,4,,,,,,,,,,,,,,,
null,,confidence_buffer,1046960,confidence_buffer,,null,,,,,,,,,,,,,,,,,,
1191.9000000953674,,recognition_phase,1048154,Lake of the Ozarks,,49,,,,,,old,1,1,,,,,,,,,,
null,,confidence_buffer,1048259,confidence_buffer,,null,,,,,,,,,,,,,,,,,,
null,,thebreak,1048760,break,,null,,,,,,,,,,,,,,,,,,
3000.7999999523163,,realistic_rating,1051763,Ironwood Heights,,52,Ironwood Heights,Fictional,4,,,,,,,,,,,,,,,
null,,confidence_buffer,1051865,confidence_buffer,,null,,,,,,,,,,,,,,,,,,
1966.4000000953674,,pt2_unique_rating,1053832,Ironwood Heights,,50,,,2,,,,,,,,,,,,,,,
null,,confidence_buffer,1053935,confidence_buffer,,null,,,,,,,,,,,,,,,,,,
683.7000000476837,,pt2_memorable_rating,1054620,Ironwood Heights,,51,,,3,,,,,,,,,,,,,,,
null,,confidence_buffer,1054722,confidence_buffer,,null,,,,,,,,,,,,,,,,,,
1817.9000000953674,,recognition_phase,1056542,Ironwood Heights,,52,,,,,,new,1,1,,,,,,,,,,
null,,confidence_buffer,1056645,confidence_buffer,,null,,,,,,,,,,,,,,,,,,
null,,thebreak,1057146,break,,null,,,,,,,,,,,,,,,,,,
10993,,realistic_rating,1068139,Coeur d'Alene,,51,Coeur d'Alene,US,3,,,,,,,,,,,,,,,
null,,confidence_buffer,1068241,confidence_buffer,,null,,,,,,,,,,,,,,,,,,
1673,,pt2_unique_rating,1069916,Coeur d'Alene,,52,,,4,,,,,,,,,,,,,,,
null,,confidence_buffer,1070018,confidence_buffer,,null,,,,,,,,,,,,,,,,,,
659.2000000476837,,pt2_memorable_rating,1070678,Coeur d'Alene,,50,,,2,,,,,,,,,,,,,,,
null,,confidence_buffer,1070781,confidence_buffer,,null,,,,,,,,,,,,,,,,,,
1629,,recognition_phase,1072412,Coeur d'Alene,,49,,,,,,old,1,1,,,,,,,,,,
null,,confidence_buffer,1072515,confidence_buffer,,null,,,,,,,,,,,,,,,,,,
null,,thebreak,1073017,break,,null,,,,,,,,,,,,,,,,,,
28357.300000190735,,realistic_rating,1101376,Ravenport,,52,Ravenport,Fictional,4,,,,,,,,,,,,,,,
null,,confidence_buffer,1101478,confidence_buffer,,null,,,,,,,,,,,,,,,,,,
1451,,pt2_unique_rating,1102931,Ravenport,,51,,,3,,,,,,,,,,,,,,,
null,,confidence_buffer,1103033,confidence_buffer,,null,,,,,,,,,,,,,,,,,,
3599.9000000953674,,pt2_memorable_rating,1106635,Ravenport,,53,,,5,,,,,,,,,,,,,,,
null,,confidence_buffer,1106736,confidence_buffer,,null,,,,,,,,,,,,,,,,,,
2270.2000000476837,,recognition_phase,1109007,Ravenport,,52,,,,,,new,1,1,,,,,,,,,,
null,,confidence_buffer,1109110,confidence_buffer,,null,,,,,,,,,,,,,,,,,,
null,,thebreak,1109611,break,,null,,,,,,,,,,,,,,,,,,
2494.2999999523163,,realistic_rating,1112107,Crestwood,,51,Crestwood,Fictional,3,,,,,,,,,,,,,,,
null,,confidence_buffer,1112210,confidence_buffer,,null,,,,,,,,,,,,,,,,,,
513.2000000476837,,pt2_unique_rating,1112724,Crestwood,,52,,,4,,,,,,,,,,,,,,,
null,,confidence_buffer,1112826,confidence_buffer,,null,,,,,,,,,,,,,,,,,,
728.5999999046326,,pt2_memorable_rating,1113557,Crestwood,,50,,,2,,,,,,,,,,,,,,,
null,,confidence_buffer,1113658,confidence_buffer,,null,,,,,,,,,,,,,,,,,,
1955.8999998569489,,recognition_phase,1115615,Crestwood,,52,,,,,,new,1,1,,,,,,,,,,
null,,confidence_buffer,1115717,confidence_buffer,,null,,,,,,,,,,,,,,,,,,
null,,thebreak,1116219,break,,null,,,,,,,,,,,,,,,,,,
3233.2999999523163,,realistic_rating,1119454,Claywater,,50,Claywater,Fictional,2,,,,,,,,,,,,,,,
null,,confidence_buffer,1119557,confidence_buffer,,null,,,,,,,,,,,,,,,,,,
1786.7999999523163,,probe_rating,1121345,probe_rating,,53,,,,5,1,,,,,,,,,,,,,
null,,confidence_buffer,1121447,confidence_buffer,,null,,,,,,,,,,,,,,,,,,
2374.899999856949,,pt2_unique_rating,1123824,Claywater,,52,,,4,,,,,,,,,,,,,,,
null,,confidence_buffer,1123926,confidence_buffer,,null,,,,,,,,,,,,,,,,,,
1346.0999999046326,,pt2_memorable_rating,1125274,Claywater,,51,,,3,,,,,,,,,,,,,,,
null,,confidence_buffer,1125376,confidence_buffer,,null,,,,,,,,,,,,,,,,,,
2015.0999999046326,,recognition_phase,1127392,Claywater,,52,,,,,,new,1,1,,,,,,,,,,
null,,confidence_buffer,1127495,confidence_buffer,,null,,,,,,,,,,,,,,,,,,
null,,thebreak,1127996,break,,null,,,,,,,,,,,,,,,,,,
1648.5,,realistic_rating,1129646,Barnard,,51,Barnard,US,3,,,,,,,,,,,,,,,
null,,confidence_buffer,1129749,confidence_buffer,,null,,,,,,,,,,,,,,,,,,
726.7000000476837,,pt2_unique_rating,1130477,Barnard,,52,,,4,,,,,,,,,,,,,,,
null,,confidence_buffer,1130578,confidence_buffer,,null,,,,,,,,,,,,,,,,,,
982.5,,pt2_memorable_rating,1131561,Barnard,,50,,,2,,,,,,,,,,,,,,,
null,,confidence_buffer,1131668,confidence_buffer,,null,,,,,,,,,,,,,,,,,,
1589.8999998569489,,probe_rating,1133259,probe_rating,,53,,,,5,1,,,,,,,,,,,,,
null,,confidence_buffer,1133362,confidence_buffer,,null,,,,,,,,,,,,,,,,,,
2085,,recognition_phase,1135448,Barnard,,49,,,,,,old,1,1,,,,,,,,,,
null,,confidence_buffer,1135550,confidence_buffer,,null,,,,,,,,,,,,,,,,,,
null,,thebreak,1136052,break,,null,,,,,,,,,,,,,,,,,,
5610.399999856949,,realistic_rating,1141664,Highvale,,52,Highvale,Fictional,4,,,,,,,,,,,,,,,
null,,confidence_buffer,1141767,confidence_buffer,,null,,,,,,,,,,,,,,,,,,
2680.5999999046326,,pt2_unique_rating,1144449,Highvale,,50,,,2,,,,,,,,,,,,,,,
null,,confidence_buffer,1144551,confidence_buffer,,null,,,,,,,,,,,,,,,,,,
1024.8999998569489,,pt2_memorable_rating,1145577,Highvale,,51,,,3,,,,,,,,,,,,,,,
null,,confidence_buffer,1145678,confidence_buffer,,null,,,,,,,,,,,,,,,,,,
1788.2000000476837,,recognition_phase,1147467,Highvale,,51,,,,,,new,0,0.9565217391304348,,,,,,,,,,
null,,confidence_buffer,1147570,confidence_buffer,,null,,,,,,,,,,,,,,,,,,
null,,thebreak,1148072,break,,null,,,,,,,,,,,,,,,,,,
6212,,realistic_rating,1154285,Delaware City,,52,Delaware City,US,4,,,,,,,,,,,,,,,
null,,confidence_buffer,1154387,confidence_buffer,,null,,,,,,,,,,,,,,,,,,
2319.7999999523163,,pt2_unique_rating,1156708,Delaware City,,51,,,3,,,,,,,,,,,,,,,
null,,confidence_buffer,1156814,confidence_buffer,,null,,,,,,,,,,,,,,,,,,
970,,pt2_memorable_rating,1157785,Delaware City,,53,,,5,,,,,,,,,,,,,,,
null,,confidence_buffer,1157887,confidence_buffer,,null,,,,,,,,,,,,,,,,,,
4210.5,,recognition_phase,1162100,Delaware City,,49,,,,,,old,1,0.9583333333333334,,,,,,,,,,
null,,confidence_buffer,1162202,confidence_buffer,,null,,,,,,,,,,,,,,,,,,
null,,thebreak,1162703,break,,null,,,,,,,,,,,,,,,,,,
1931.1000001430511,,realistic_rating,1164636,East Ladera,,52,East Ladera,Fictional,4,,,,,,,,,,,,,,,
null,,confidence_buffer,1164738,confidence_buffer,,null,,,,,,,,,,,,,,,,,,
765.7999999523163,,pt2_unique_rating,1165506,East Ladera,,53,,,5,,,,,,,,,,,,,,,
null,,confidence_buffer,1165607,confidence_buffer,,null,,,,,,,,,,,,,,,,,,
692.5999999046326,,pt2_memorable_rating,1166301,East Ladera,,51,,,3,,,,,,,,,,,,,,,
null,,confidence_buffer,1166402,confidence_buffer,,null,,,,,,,,,,,,,,,,,,
1377.6000001430511,,recognition_phase,1167781,East Ladera,,49,,,,,,old,1,0.96,,,,,,,,,,
null,,confidence_buffer,1167883,confidence_buffer,,null,,,,,,,,,,,,,,,,,,
null,,thebreak,1168385,break,,null,,,,,,,,,,,,,,,,,,
4469.099999904633,,realistic_rating,1172855,Westridge,,52,Westridge,Fictional,4,,,,,,,,,,,,,,,
null,,confidence_buffer,1172958,confidence_buffer,,null,,,,,,,,,,,,,,,,,,
613.7999999523163,,pt2_unique_rating,1173572,Westridge,,53,,,5,,,,,,,,,,,,,,,
null,,confidence_buffer,1173673,confidence_buffer,,null,,,,,,,,,,,,,,,,,,
574.4000000953674,,pt2_memorable_rating,1174249,Westridge,,51,,,3,,,,,,,,,,,,,,,
null,,confidence_buffer,1174356,confidence_buffer,,null,,,,,,,,,,,,,,,,,,
2132.2000000476837,,recognition_phase,1176489,Westridge,,52,,,,,,new,1,0.9615384615384616,,,,,,,,,,
null,,confidence_buffer,1176591,confidence_buffer,,null,,,,,,,,,,,,,,,,,,
null,,thebreak,1177094,break,,null,,,,,,,,,,,,,,,,,,
1369.7999999523163,,realistic_rating,1178465,Meadowspire,,52,Meadowspire,Fictional,4,,,,,,,,,,,,,,,
null,,confidence_buffer,1178567,confidence_buffer,,null,,,,,,,,,,,,,,,,,,
1269,,probe_rating,1179837,probe_rating,,53,,,,5,1,,,,,,,,,,,,,
null,,confidence_buffer,1179939,confidence_buffer,,null,,,,,,,,,,,,,,,,,,
723.7999999523163,,pt2_unique_rating,1180664,Meadowspire,,51,,,3,,,,,,,,,,,,,,,
null,,confidence_buffer,1180766,confidence_buffer,,null,,,,,,,,,,,,,,,,,,
1035.1000001430511,,pt2_memorable_rating,1181802,Meadowspire,,52,,,4,,,,,,,,,,,,,,,
null,,confidence_buffer,1181905,confidence_buffer,,null,,,,,,,,,,,,,,,,,,
1987.7000000476837,,recognition_phase,1183895,Meadowspire,,52,,,,,,new,1,0.9629629629629629,,,,,,,,,,
null,,confidence_buffer,1183997,confidence_buffer,,null,,,,,,,,,,,,,,,,,,
null,,thebreak,1184498,break,,null,,,,,,,,,,,,,,,,,,
2060.7999999523163,,realistic_rating,1186560,Watkins Glen,,51,Watkins Glen,US,3,,,,,,,,,,,,,,,
null,,confidence_buffer,1186663,confidence_buffer,,null,,,,,,,,,,,,,,,,,,
2637.699999809265,,pt2_unique_rating,1189302,Watkins Glen,,50,,,2,,,,,,,,,,,,,,,
null,,confidence_buffer,1189405,confidence_buffer,,null,,,,,,,,,,,,,,,,,,
2721.5,,pt2_memorable_rating,1192128,Watkins Glen,,53,,,5,,,,,,,,,,,,,,,
null,,confidence_buffer,1192229,confidence_buffer,,null,,,,,,,,,,,,,,,,,,
3582,,recognition_phase,1195811,Watkins Glen,,52,,,,,,new,1,0.9642857142857143,,,,,,,,,,
null,,confidence_buffer,1195914,confidence_buffer,,null,,,,,,,,,,,,,,,,,,
null,,thebreak,1196416,break,,null,,,,,,,,,,,,,,,,,,
1907.2000000476837,,realistic_rating,1198325,Bisbee,,51,Bisbee,US,3,,,,,,,,,,,,,,,
null,,confidence_buffer,1198427,confidence_buffer,,null,,,,,,,,,,,,,,,,,,
1563.3999998569489,,pt2_unique_rating,1199992,Bisbee,,52,,,4,,,,,,,,,,,,,,,
null,,confidence_buffer,1200095,confidence_buffer,,null,,,,,,,,,,,,,,,,,,
1393.5,,pt2_memorable_rating,1201490,Bisbee,,52,,,4,,,,,,,,,,,,,,,
null,,confidence_buffer,1201592,confidence_buffer,,null,,,,,,,,,,,,,,,,,,
1501.8999998569489,,recognition_phase,1203094,Bisbee,,49,,,,,,old,1,0.9655172413793104,,,,,,,,,,
null,,confidence_buffer,1203196,confidence_buffer,,null,,,,,,,,,,,,,,,,,,
null,,thebreak,1203697,break,,null,,,,,,,,,,,,,,,,,,
2010.9000000953674,,realistic_rating,1205710,Hawthorne Bluffs,,51,Hawthorne Bluffs,Fictional,3,,,,,,,,,,,,,,,
null,,confidence_buffer,1205820,confidence_buffer,,null,,,,,,,,,,,,,,,,,,
1361.5999999046326,,pt2_unique_rating,1207183,Hawthorne Bluffs,,52,,,4,,,,,,,,,,,,,,,
null,,confidence_buffer,1207285,confidence_buffer,,null,,,,,,,,,,,,,,,,,,
1046.2999999523163,,pt2_memorable_rating,1208332,Hawthorne Bluffs,,52,,,4,,,,,,,,,,,,,,,
null,,confidence_buffer,1208434,confidence_buffer,,null,,,,,,,,,,,,,,,,,,
1165.2000000476837,,recognition_phase,1209601,Hawthorne Bluffs,,49,,,,,,old,1,0.9666666666666667,,,,,,,,,,
null,,confidence_buffer,1209702,confidence_buffer,,null,,,,,,,,,,,,,,,,,,
null,,thebreak,1210205,break,,null,,,,,,,,,,,,,,,,,,
2205.399999856949,,realistic_rating,1212412,Lakehaven,,51,Lakehaven,Fictional,3,,,,,,,,,,,,,,,
null,,confidence_buffer,1212513,confidence_buffer,,null,,,,,,,,,,,,,,,,,,
1287.2000000476837,,pt2_unique_rating,1213801,Lakehaven,,52,,,4,,,,,,,,,,,,,,,
null,,confidence_buffer,1213902,confidence_buffer,,null,,,,,,,,,,,,,,,,,,
1722.5,,pt2_memorable_rating,1215625,Lakehaven,,52,,,4,,,,,,,,,,,,,,,
null,,confidence_buffer,1215727,confidence_buffer,,null,,,,,,,,,,,,,,,,,,
1100.9000000953674,,recognition_phase,1216830,Lakehaven,,49,,,,,,old,1,0.967741935483871,,,,,,,,,,
null,,confidence_buffer,1216941,confidence_buffer,,null,,,,,,,,,,,,,,,,,,
null,,thebreak,1217443,break,,null,,,,,,,,,,,,,,,,,,
1861.3000001907349,,realistic_rating,1219306,Huntsville,,50,Huntsville,US,2,,,,,,,,,,,,,,,
null,,confidence_buffer,1219408,confidence_buffer,,null,,,,,,,,,,,,,,,,,,
1459.9000000953674,,probe_rating,1220870,probe_rating,,52,,,,4,1,,,,,,,,,,,,,
null,,confidence_buffer,1220977,confidence_buffer,,null,,,,,,,,,,,,,,,,,,
1079,,pt2_unique_rating,1222057,Huntsville,,51,,,3,,,,,,,,,,,,,,,
null,,confidence_buffer,1222159,confidence_buffer,,null,,,,,,,,,,,,,,,,,,
1535.5,,pt2_memorable_rating,1223696,Huntsville,,52,,,4,,,,,,,,,,,,,,,
null,,confidence_buffer,1223799,confidence_buffer,,null,,,,,,,,,,,,,,,,,,
1734.9000000953674,,recognition_phase,1225535,Huntsville,,52,,,,,,new,0,0.9375,,,,,,,,,,
null,,confidence_buffer,1225638,confidence_buffer,,null,,,,,,,,,,,,,,,,,,
null,,thebreak,1226139,break,,null,,,,,,,,,,,,,,,,,,
3627.0999999046326,,realistic_rating,1229768,Shreveport,,51,Shreveport,US,3,,,,,,,,,,,,,,,
null,,confidence_buffer,1229870,confidence_buffer,,null,,,,,,,,,,,,,,,,,,
1013.2999999523163,,pt2_unique_rating,1230885,Shreveport,,52,,,4,,,,,,,,,,,,,,,
null,,confidence_buffer,1230988,confidence_buffer,,null,,,,,,,,,,,,,,,,,,
1051.2000000476837,,pt2_memorable_rating,1232040,Shreveport,,50,,,2,,,,,,,,,,,,,,,
null,,confidence_buffer,1232142,confidence_buffer,,null,,,,,,,,,,,,,,,,,,
1531.8999998569489,,recognition_phase,1233676,Shreveport,,49,,,,,,old,1,0.9393939393939394,,,,,,,,,,
null,,confidence_buffer,1233779,confidence_buffer,,null,,,,,,,,,,,,,,,,,,
null,,thebreak,1234281,break,,null,,,,,,,,,,,,,,,,,,
3574.399999856949,,realistic_rating,1237856,Tamarisk Hills,,51,Tamarisk Hills,Fictional,3,,,,,,,,,,,,,,,
null,,confidence_buffer,1237958,confidence_buffer,,null,,,,,,,,,,,,,,,,,,
2106.7999999523163,,pt2_unique_rating,1240065,Tamarisk Hills,,52,,,4,,,,,,,,,,,,,,,
null,,confidence_buffer,1240168,confidence_buffer,,null,,,,,,,,,,,,,,,,,,
1832.8999998569489,,pt2_memorable_rating,1242002,Tamarisk Hills,,52,,,4,,,,,,,,,,,,,,,
null,,confidence_buffer,1242105,confidence_buffer,,null,,,,,,,,,,,,,,,,,,
2261.2999999523163,,recognition_phase,1244368,Tamarisk Hills,,52,,,,,,new,1,0.9411764705882353,,,,,,,,,,
null,,confidence_buffer,1244470,confidence_buffer,,null,,,,,,,,,,,,,,,,,,
null,,thebreak,1244972,break,,null,,,,,,,,,,,,,,,,,,
4688.200000047684,,realistic_rating,1249662,Northbridge,,52,Northbridge,Fictional,4,,,,,,,,,,,,,,,
null,,confidence_buffer,1249764,confidence_buffer,,null,,,,,,,,,,,,,,,,,,
1526.2999999523163,,pt2_unique_rating,1251292,Northbridge,,53,,,5,,,,,,,,,,,,,,,
null,,confidence_buffer,1251394,confidence_buffer,,null,,,,,,,,,,,,,,,,,,
2106.4000000953674,,pt2_memorable_rating,1253502,Northbridge,,52,,,4,,,,,,,,,,,,,,,
null,,confidence_buffer,1253605,confidence_buffer,,null,,,,,,,,,,,,,,,,,,
1376.3999998569489,,probe_rating,1254983,probe_rating,,49,,,,1,1,,,,,,,,,,,,,
null,,confidence_buffer,1255086,confidence_buffer,,null,,,,,,,,,,,,,,,,,,
2167.7000000476837,,recognition_phase,1257255,Northbridge,,49,,,,,,old,1,0.9428571428571428,,,,,,,,,,
null,,confidence_buffer,1257356,confidence_buffer,,null,,,,,,,,,,,,,,,,,,
null,,thebreak,1257857,break,,null,,,,,,,,,,,,,,,,,,
3724.600000143051,,realistic_rating,1261583,Ashford Hills,,51,Ashford Hills,Fictional,3,,,,,,,,,,,,,,,
null,,confidence_buffer,1261685,confidence_buffer,,null,,,,,,,,,,,,,,,,,,
2841.7999999523163,,pt2_unique_rating,1264528,Ashford Hills,,49,,,1,,,,,,,,,,,,,,,
null,,confidence_buffer,1264630,confidence_buffer,,null,,,,,,,,,,,,,,,,,,
1318.7999999523163,,pt2_memorable_rating,1265950,Ashford Hills,,52,,,4,,,,,,,,,,,,,,,
null,,confidence_buffer,1266052,confidence_buffer,,null,,,,,,,,,,,,,,,,,,
3236,,recognition_phase,1269288,Ashford Hills,,52,,,,,,new,1,0.9444444444444444,,,,,,,,,,
null,,confidence_buffer,1269390,confidence_buffer,,null,,,,,,,,,,,,,,,,,,
null,,thebreak,1269892,break,,null,,,,,,,,,,,,,,,,,,
6336,,realistic_rating,1276230,Bayshore Haven,,51,Bayshore Haven,Fictional,3,,,,,,,,,,,,,,,
null,,confidence_buffer,1276334,confidence_buffer,,null,,,,,,,,,,,,,,,,,,
2520.899999856949,,probe_rating,1278856,probe_rating,,51,,,,3,1,,,,,,,,,,,,,
null,,confidence_buffer,1278958,confidence_buffer,,null,,,,,,,,,,,,,,,,,,
1478.2000000476837,,pt2_unique_rating,1280438,Bayshore Haven,,50,,,2,,,,,,,,,,,,,,,
null,,confidence_buffer,1280540,confidence_buffer,,null,,,,,,,,,,,,,,,,,,
1194.3999998569489,,pt2_memorable_rating,1281736,Bayshore Haven,,52,,,4,,,,,,,,,,,,,,,
null,,confidence_buffer,1281838,confidence_buffer,,null,,,,,,,,,,,,,,,,,,
1508.9000000953674,,recognition_phase,1283349,Bayshore Haven,,50,,,,,,old,1,0.9459459459459459,,,,,,,,,,
null,,confidence_buffer,1283450,confidence_buffer,,null,,,,,,,,,,,,,,,,,,
null,,thebreak,1283955,break,,null,,,,,,,,,,,,,,,,,,
3228.100000143051,,realistic_rating,1287184,Newport,,51,Newport,US,3,,,,,,,,,,,,,,,
null,,confidence_buffer,1287287,confidence_buffer,,null,,,,,,,,,,,,,,,,,,
735,,pt2_unique_rating,1288022,Newport,,52,,,4,,,,,,,,,,,,,,,
null,,confidence_buffer,1288124,confidence_buffer,,null,,,,,,,,,,,,,,,,,,
1296.0999999046326,,pt2_memorable_rating,1289422,Newport,,50,,,2,,,,,,,,,,,,,,,
null,,confidence_buffer,1289524,confidence_buffer,,null,,,,,,,,,,,,,,,,,,
1278.5,,probe_rating,1290804,probe_rating,,49,,,,1,1,,,,,,,,,,,,,
null,,confidence_buffer,1290906,confidence_buffer,,null,,,,,,,,,,,,,,,,,,
3307.699999809265,,recognition_phase,1294215,Newport,,52,,,,,,new,1,0.9473684210526315,,,,,,,,,,
null,,confidence_buffer,1294317,confidence_buffer,,null,,,,,,,,,,,,,,,,,,
null,,thebreak,1294819,break,,null,,,,,,,,,,,,,,,,,,
3724.5999999046326,,realistic_rating,1298545,Fairhaven,,51,Fairhaven,Fictional,3,,,,,,,,,,,,,,,
null,,confidence_buffer,1298646,confidence_buffer,,null,,,,,,,,,,,,,,,,,,
1063.7000000476837,,probe_rating,1299712,probe_rating,,50,,,,2,1,,,,,,,,,,,,,
null,,confidence_buffer,1299814,confidence_buffer,,null,,,,,,,,,,,,,,,,,,
1315.8999998569489,,pt2_unique_rating,1301131,Fairhaven,,52,,,4,,,,,,,,,,,,,,,
null,,confidence_buffer,1301233,confidence_buffer,,null,,,,,,,,,,,,,,,,,,
700.7999999523163,,pt2_memorable_rating,1301935,Fairhaven,,51,,,3,,,,,,,,,,,,,,,
null,,confidence_buffer,1302037,confidence_buffer,,null,,,,,,,,,,,,,,,,,,
1552,,recognition_phase,1303590,Fairhaven,,49,,,,,,old,1,0.9487179487179487,,,,,,,,,,
null,,confidence_buffer,1303692,confidence_buffer,,null,,,,,,,,,,,,,,,,,,
null,,thebreak,1304194,break,,null,,,,,,,,,,,,,,,,,,
11434.400000095367,,realistic_rating,1315630,Park City,,51,Park City,US,3,,,,,,,,,,,,,,,
null,,confidence_buffer,1315732,confidence_buffer,,null,,,,,,,,,,,,,,,,,,
1260.7999999523163,,pt2_unique_rating,1316994,Park City,,52,,,4,,,,,,,,,,,,,,,
null,,confidence_buffer,1317096,confidence_buffer,,null,,,,,,,,,,,,,,,,,,
948.9000000953674,,pt2_memorable_rating,1318047,Park City,,50,,,2,,,,,,,,,,,,,,,
null,,confidence_buffer,1318150,confidence_buffer,,null,,,,,,,,,,,,,,,,,,
4848.099999904633,,recognition_phase,1322999,Park City,,50,,,,,,old,0,0.925,,,,,,,,,,
null,,confidence_buffer,1323102,confidence_buffer,,null,,,,,,,,,,,,,,,,,,
null,,thebreak,1323604,break,,null,,,,,,,,,,,,,,,,,,
2494.699999809265,,realistic_rating,1326101,Montelake,,51,Montelake,Fictional,3,,,,,,,,,,,,,,,
null,,confidence_buffer,1326203,confidence_buffer,,null,,,,,,,,,,,,,,,,,,
1078.5999999046326,,probe_rating,1327283,probe_rating,,51,,,,3,1,,,,,,,,,,,,,
null,,confidence_buffer,1327384,confidence_buffer,,null,,,,,,,,,,,,,,,,,,
711,,pt2_unique_rating,1328096,Montelake,,52,,,4,,,,,,,,,,,,,,,
null,,confidence_buffer,1328198,confidence_buffer,,null,,,,,,,,,,,,,,,,,,
1430.0999999046326,,pt2_memorable_rating,1329630,Montelake,,50,,,2,,,,,,,,,,,,,,,
null,,confidence_buffer,1329731,confidence_buffer,,null,,,,,,,,,,,,,,,,,,
1682.1000001430511,,recognition_phase,1331414,Montelake,,52,,,,,,new,0,0.9024390243902439,,,,,,,,,,
null,,confidence_buffer,1331516,confidence_buffer,,null,,,,,,,,,,,,,,,,,,
null,,thebreak,1332018,break,,null,,,,,,,,,,,,,,,,,,
6366.5,,realistic_rating,1338386,Granton Ridge,,50,Granton Ridge,Fictional,2,,,,,,,,,,,,,,,
null,,confidence_buffer,1338488,confidence_buffer,,null,,,,,,,,,,,,,,,,,,
527.7000000476837,,pt2_unique_rating,1339017,Granton Ridge,,49,,,1,,,,,,,,,,,,,,,
null,,confidence_buffer,1339120,confidence_buffer,,null,,,,,,,,,,,,,,,,,,
939.4000000953674,,pt2_memorable_rating,1340061,Granton Ridge,,51,,,3,,,,,,,,,,,,,,,
null,,confidence_buffer,1340163,confidence_buffer,,null,,,,,,,,,,,,,,,,,,
4756.099999904633,,recognition_phase,1344921,Granton Ridge,,50,,,,,,old,1,0.9047619047619048,,,,,,,,,,
null,,confidence_buffer,1345023,confidence_buffer,,null,,,,,,,,,,,,,,,,,,
null,,thebreak,1345525,break,,null,,,,,,,,,,,,,,,,,,
2036.8999998569489,,realistic_rating,1347564,Baymarsh,,51,Baymarsh,Fictional,3,,,,,,,,,,,,,,,
null,,confidence_buffer,1347667,confidence_buffer,,null,,,,,,,,,,,,,,,,,,
621.7000000476837,,pt2_unique_rating,1348290,Baymarsh,,52,,,4,,,,,,,,,,,,,,,
null,,confidence_buffer,1348392,confidence_buffer,,null,,,,,,,,,,,,,,,,,,
961.6000001430511,,pt2_memorable_rating,1349355,Baymarsh,,50,,,2,,,,,,,,,,,,,,,
null,,confidence_buffer,1349457,confidence_buffer,,null,,,,,,,,,,,,,,,,,,
2153.4000000953674,,recognition_phase,1351612,Baymarsh,,52,,,,,,new,1,0.9069767441860465,,,,,,,,,,
null,,confidence_buffer,1351728,confidence_buffer,,null,,,,,,,,,,,,,,,,,,
null,,thebreak,1352230,break,,null,,,,,,,,,,,,,,,,,,
2942.5,,realistic_rating,1355174,Bar Harbor,,52,Bar Harbor,US,4,,,,,,,,,,,,,,,
null,,confidence_buffer,1355277,confidence_buffer,,null,,,,,,,,,,,,,,,,,,
553.4000000953674,,pt2_unique_rating,1355831,Bar Harbor,,51,,,3,,,,,,,,,,,,,,,
null,,confidence_buffer,1355934,confidence_buffer,,null,,,,,,,,,,,,,,,,,,
1717.8000001907349,,pt2_memorable_rating,1357653,Bar Harbor,,50,,,2,,,,,,,,,,,,,,,
null,,confidence_buffer,1357755,confidence_buffer,,null,,,,,,,,,,,,,,,,,,
1720.0999999046326,,probe_rating,1359477,probe_rating,,53,,,,5,1,,,,,,,,,,,,,
null,,confidence_buffer,1359579,confidence_buffer,,null,,,,,,,,,,,,,,,,,,
2340.899999856949,,recognition_phase,1361921,Bar Harbor,,52,,,,,,new,1,0.9090909090909091,,,,,,,,,,
null,,confidence_buffer,1362034,confidence_buffer,,null,,,,,,,,,,,,,,,,,,
null,,thebreak,1362536,break,,null,,,,,,,,,,,,,,,,,,
1752.1000001430511,,realistic_rating,1364290,Carmel,,51,Carmel,US,3,,,,,,,,,,,,,,,
null,,confidence_buffer,1364392,confidence_buffer,,null,,,,,,,,,,,,,,,,,,
1080.5,,pt2_unique_rating,1365473,Carmel,,52,,,4,,,,,,,,,,,,,,,
null,,confidence_buffer,1365574,confidence_buffer,,null,,,,,,,,,,,,,,,,,,
783.5,,pt2_memorable_rating,1366359,Carmel,,50,,,2,,,,,,,,,,,,,,,
null,,confidence_buffer,1366460,confidence_buffer,,null,,,,,,,,,,,,,,,,,,
2265.0999999046326,,recognition_phase,1368727,Carmel,,52,,,,,,new,1,0.9111111111111111,,,,,,,,,,
null,,confidence_buffer,1368830,confidence_buffer,,null,,,,,,,,,,,,,,,,,,
null,,thebreak,1369331,break,,null,,,,,,,,,,,,,,,,,,
2194.9000000953674,,realistic_rating,1371527,Hanover,,51,Hanover,US,3,,,,,,,,,,,,,,,
null,,confidence_buffer,1371629,confidence_buffer,,null,,,,,,,,,,,,,,,,,,
1822.3999998569489,,pt2_unique_rating,1373453,Hanover,,50,,,2,,,,,,,,,,,,,,,
null,,confidence_buffer,1373554,confidence_buffer,,null,,,,,,,,,,,,,,,,,,
1724.9000000953674,,pt2_memorable_rating,1375281,Hanover,,52,,,4,,,,,,,,,,,,,,,
null,,confidence_buffer,1375382,confidence_buffer,,null,,,,,,,,,,,,,,,,,,
1248.4000000953674,,recognition_phase,1376632,Hanover,,49,,,,,,old,1,0.9130434782608695,,,,,,,,,,
null,,confidence_buffer,1376735,confidence_buffer,,null,,,,,,,,,,,,,,,,,,
null,,thebreak,1377237,break,,null,,,,,,,,,,,,,,,,,,
1729.5,,realistic_rating,1378967,Okoboji,,51,Okoboji,US,3,,,,,,,,,,,,,,,
null,,confidence_buffer,1379069,confidence_buffer,,null,,,,,,,,,,,,,,,,,,
706.3999998569489,,pt2_unique_rating,1379777,Okoboji,,52,,,4,,,,,,,,,,,,,,,
null,,confidence_buffer,1379879,confidence_buffer,,null,,,,,,,,,,,,,,,,,,
842.1000001430511,,pt2_memorable_rating,1380723,Okoboji,,51,,,3,,,,,,,,,,,,,,,
null,,confidence_buffer,1380826,confidence_buffer,,null,,,,,,,,,,,,,,,,,,
2013.4000000953674,,recognition_phase,1382841,Okoboji,,52,,,,,,new,1,0.9148936170212766,,,,,,,,,,
null,,confidence_buffer,1382943,confidence_buffer,,null,,,,,,,,,,,,,,,,,,
null,,thebreak,1383444,break,,null,,,,,,,,,,,,,,,,,,
1496.6999998092651,,realistic_rating,1384942,Pine Hollow,,51,Pine Hollow,Fictional,3,,,,,,,,,,,,,,,
null,,confidence_buffer,1385044,confidence_buffer,,null,,,,,,,,,,,,,,,,,,
1825.7000000476837,,pt2_unique_rating,1386871,Pine Hollow,,52,,,4,,,,,,,,,,,,,,,
null,,confidence_buffer,1386973,confidence_buffer,,null,,,,,,,,,,,,,,,,,,
1141.1000001430511,,pt2_memorable_rating,1388116,Pine Hollow,,51,,,3,,,,,,,,,,,,,,,
null,,confidence_buffer,1388218,confidence_buffer,,null,,,,,,,,,,,,,,,,,,
1682.1000001430511,,recognition_phase,1389901,Pine Hollow,,49,,,,,,old,1,0.9166666666666666,,,,,,,,,,
null,,confidence_buffer,1390005,confidence_buffer,,null,,,,,,,,,,,,,,,,,,
null,,thebreak,1390506,break,,null,,,,,,,,,,,,,,,,,,
1464.2999999523163,,realistic_rating,1391972,Hilo,,52,Hilo,US,4,,,,,,,,,,,,,,,
null,,confidence_buffer,1392075,confidence_buffer,,null,,,,,,,,,,,,,,,,,,
633.5,,pt2_unique_rating,1392711,Hilo,,51,,,3,,,,,,,,,,,,,,,
null,,confidence_buffer,1392813,confidence_buffer,,null,,,,,,,,,,,,,,,,,,
1392,,pt2_memorable_rating,1394207,Hilo,,52,,,4,,,,,,,,,,,,,,,
null,,confidence_buffer,1394309,confidence_buffer,,null,,,,,,,,,,,,,,,,,,
2001.5,,recognition_phase,1396312,Hilo,,52,,,,,,new,1,0.9183673469387755,,,,,,,,,,
null,,confidence_buffer,1396415,confidence_buffer,,null,,,,,,,,,,,,,,,,,,
null,,thebreak,1396916,break,,null,,,,,,,,,,,,,,,,,,
1715.8999998569489,,realistic_rating,1398633,Sisters,,51,Sisters,US,3,,,,,,,,,,,,,,,
null,,confidence_buffer,1398735,confidence_buffer,,null,,,,,,,,,,,,,,,,,,
1919.7999999523163,,pt2_unique_rating,1400656,Sisters,,53,,,5,,,,,,,,,,,,,,,
null,,confidence_buffer,1400758,confidence_buffer,,null,,,,,,,,,,,,,,,,,,
1958.7999999523163,,pt2_memorable_rating,1402718,Sisters,,53,,,5,,,,,,,,,,,,,,,
null,,confidence_buffer,1402819,confidence_buffer,,null,,,,,,,,,,,,,,,,,,
3615.5,,recognition_phase,1406435,Sisters,,52,,,,,,new,1,0.92,,,,,,,,,,
null,,confidence_buffer,1406536,confidence_buffer,,null,,,,,,,,,,,,,,,,,,
null,,thebreak,1407037,break,,null,,,,,,,,,,,,,,,,,,
35619.700000047684,,realistic_rating,1442659,West Talora,,52,West Talora,Fictional,4,,,,,,,,,,,,,,,
null,,confidence_buffer,1442761,confidence_buffer,,null,,,,,,,,,,,,,,,,,,
1576.5999999046326,,pt2_unique_rating,1444339,West Talora,,53,,,5,,,,,,,,,,,,,,,
null,,confidence_buffer,1444441,confidence_buffer,,null,,,,,,,,,,,,,,,,,,
1115.3000001907349,,pt2_memorable_rating,1445558,West Talora,,51,,,3,,,,,,,,,,,,,,,
null,,confidence_buffer,1445660,confidence_buffer,,null,,,,,,,,,,,,,,,,,,
3516.5,,recognition_phase,1449179,West Talora,,52,,,,,,new,1,0.9215686274509803,,,,,,,,,,
null,,confidence_buffer,1449280,confidence_buffer,,null,,,,,,,,,,,,,,,,,,
null,,thebreak,1449782,break,,null,,,,,,,,,,,,,,,,,,
3422.4000000953674,,realistic_rating,1453206,Elmsbury,,52,Elmsbury,Fictional,4,,,,,,,,,,,,,,,
null,,confidence_buffer,1453308,confidence_buffer,,null,,,,,,,,,,,,,,,,,,
794.7999999523163,,pt2_unique_rating,1454105,Elmsbury,,51,,,3,,,,,,,,,,,,,,,
null,,confidence_buffer,1454207,confidence_buffer,,null,,,,,,,,,,,,,,,,,,
2203.4000000953674,,pt2_memorable_rating,1456411,Elmsbury,,53,,,5,,,,,,,,,,,,,,,
null,,confidence_buffer,1456513,confidence_buffer,,null,,,,,,,,,,,,,,,,,,
2922,,recognition_phase,1459436,Elmsbury,,49,,,,,,old,1,0.9230769230769231,,,,,,,,,,
null,,confidence_buffer,1459538,confidence_buffer,,null,,,,,,,,,,,,,,,,,,
null,,thebreak,1460039,break,,null,,,,,,,,,,,,,,,,,,
51241.799999952316,,realistic_rating,1511283,Sammamish,,52,Sammamish,US,4,,,,,,,,,,,,,,,
null,,confidence_buffer,1511385,confidence_buffer,,null,,,,,,,,,,,,,,,,,,
830.0999999046326,,pt2_unique_rating,1512217,Sammamish,,53,,,5,,,,,,,,,,,,,,,
null,,confidence_buffer,1512319,confidence_buffer,,null,,,,,,,,,,,,,,,,,,
1338.4000000953674,,pt2_memorable_rating,1513659,Sammamish,,52,,,4,,,,,,,,,,,,,,,
null,,confidence_buffer,1513760,confidence_buffer,,null,,,,,,,,,,,,,,,,,,
1807.0999999046326,,recognition_phase,1515569,Sammamish,,52,,,,,,new,1,0.9245283018867925,,,,,,,,,,
null,,confidence_buffer,1515672,confidence_buffer,,null,,,,,,,,,,,,,,,,,,
null,,thebreak,1516175,break,,null,,,,,,,,,,,,,,,,,,
2138.5,,realistic_rating,1518315,Manistee,,51,Manistee,US,3,,,,,,,,,,,,,,,
null,,confidence_buffer,1518417,confidence_buffer,,null,,,,,,,,,,,,,,,,,,
383.09999990463257,,pt2_unique_rating,1518801,Manistee,,50,,,2,,,,,,,,,,,,,,,
null,,confidence_buffer,1518903,confidence_buffer,,null,,,,,,,,,,,,,,,,,,
1118,,pt2_memorable_rating,1520022,Manistee,,52,,,4,,,,,,,,,,,,,,,
null,,confidence_buffer,1520125,confidence_buffer,,null,,,,,,,,,,,,,,,,,,
1030.2000000476837,,recognition_phase,1521157,Manistee,,52,,,,,,new,1,0.9259259259259259,,,,,,,,,,
null,,confidence_buffer,1521259,confidence_buffer,,null,,,,,,,,,,,,,,,,,,
null,,thebreak,1521761,break,,null,,,,,,,,,,,,,,,,,,
1720.3999998569489,,realistic_rating,1523483,Cleveland,,51,Cleveland,US,3,,,,,,,,,,,,,,,
null,,confidence_buffer,1523585,confidence_buffer,,null,,,,,,,,,,,,,,,,,,
2486.0999999046326,,pt2_unique_rating,1526072,Cleveland,,50,,,2,,,,,,,,,,,,,,,
null,,confidence_buffer,1526175,confidence_buffer,,null,,,,,,,,,,,,,,,,,,
1006.8999998569489,,pt2_memorable_rating,1527184,Cleveland,,51,,,3,,,,,,,,,,,,,,,
null,,confidence_buffer,1527286,confidence_buffer,,null,,,,,,,,,,,,,,,,,,
2057.4000000953674,,recognition_phase,1529345,Cleveland,,51,,,,,,new,1,0.9272727272727272,,,,,,,,,,
null,,confidence_buffer,1529448,confidence_buffer,,null,,,,,,,,,,,,,,,,,,
null,,thebreak,1529950,break,,null,,,,,,,,,,,,,,,,,,
3626.5999999046326,,realistic_rating,1533578,Maravilla Springs,,51,Maravilla Springs,Fictional,3,,,,,,,,,,,,,,,
null,,confidence_buffer,1533680,confidence_buffer,,null,,,,,,,,,,,,,,,,,,
441.19999980926514,,pt2_unique_rating,1534123,Maravilla Springs,,52,,,4,,,,,,,,,,,,,,,
null,,confidence_buffer,1534225,confidence_buffer,,null,,,,,,,,,,,,,,,,,,
676.2999999523163,,pt2_memorable_rating,1534903,Maravilla Springs,,50,,,2,,,,,,,,,,,,,,,
null,,confidence_buffer,1535006,confidence_buffer,,null,,,,,,,,,,,,,,,,,,
1225.8000001907349,,recognition_phase,1536234,Maravilla Springs,,52,,,,,,new,1,0.9285714285714286,,,,,,,,,,
null,,confidence_buffer,1536337,confidence_buffer,,null,,,,,,,,,,,,,,,,,,
null,,thebreak,1536839,break,,null,,,,,,,,,,,,,,,,,,
3101.2999999523163,,realistic_rating,1539942,Athens,,52,Athens,US,4,,,,,,,,,,,,,,,
null,,confidence_buffer,1540044,confidence_buffer,,null,,,,,,,,,,,,,,,,,,
1910.9000000953674,,pt2_unique_rating,1541956,Athens,,52,,,4,,,,,,,,,,,,,,,
null,,confidence_buffer,1542059,confidence_buffer,,null,,,,,,,,,,,,,,,,,,
584,,pt2_memorable_rating,1542645,Athens,,53,,,5,,,,,,,,,,,,,,,
null,,confidence_buffer,1542748,confidence_buffer,,null,,,,,,,,,,,,,,,,,,
2638.2000000476837,,recognition_phase,1545387,Athens,,49,,,,,,old,1,0.9298245614035088,,,,,,,,,,
null,,confidence_buffer,1545490,confidence_buffer,,null,,,,,,,,,,,,,,,,,,
null,,thebreak,1545992,break,,null,,,,,,,,,,,,,,,,,,
1550.2999999523163,,realistic_rating,1547544,Alliance,,52,Alliance,US,4,,,,,,,,,,,,,,,
null,,confidence_buffer,1547646,confidence_buffer,,null,,,,,,,,,,,,,,,,,,
864.2000000476837,,pt2_unique_rating,1548511,Alliance,,51,,,3,,,,,,,,,,,,,,,
null,,confidence_buffer,1548614,confidence_buffer,,null,,,,,,,,,,,,,,,,,,
654.2000000476837,,pt2_memorable_rating,1549270,Alliance,,50,,,2,,,,,,,,,,,,,,,
null,,confidence_buffer,1549387,confidence_buffer,,null,,,,,,,,,,,,,,,,,,
3327.4000000953674,,recognition_phase,1552716,Alliance,,49,,,,,,old,1,0.9310344827586207,,,,,,,,,,
null,,confidence_buffer,1552818,confidence_buffer,,null,,,,,,,,,,,,,,,,,,
null,,thebreak,1553320,break,,null,,,,,,,,,,,,,,,,,,
2253.2000000476837,,realistic_rating,1555575,Gloucester,,52,Gloucester,US,4,,,,,,,,,,,,,,,
null,,confidence_buffer,1555676,confidence_buffer,,null,,,,,,,,,,,,,,,,,,
664.4000000953674,,pt2_unique_rating,1556342,Gloucester,,53,,,5,,,,,,,,,,,,,,,
null,,confidence_buffer,1556443,confidence_buffer,,null,,,,,,,,,,,,,,,,,,
299.39999985694885,,pt2_memorable_rating,1556744,Gloucester,,51,,,3,,,,,,,,,,,,,,,
null,,confidence_buffer,1556846,confidence_buffer,,null,,,,,,,,,,,,,,,,,,
1157.5,,recognition_phase,1558005,Gloucester,,49,,,,,,old,1,0.9322033898305084,,,,,,,,,,
null,,confidence_buffer,1558107,confidence_buffer,,null,,,,,,,,,,,,,,,,,,
null,,thebreak,1558609,break,,null,,,,,,,,,,,,,,,,,,
3416.9000000953674,,realistic_rating,1562027,Berkeley Springs,,52,Berkeley Springs,US,4,,,,,,,,,,,,,,,
null,,confidence_buffer,1562130,confidence_buffer,,null,,,,,,,,,,,,,,,,,,
1912.9000000953674,,pt2_unique_rating,1564045,Berkeley Springs,,53,,,5,,,,,,,,,,,,,,,
null,,confidence_buffer,1564147,confidence_buffer,,null,,,,,,,,,,,,,,,,,,
315.80000019073486,,pt2_memorable_rating,1564464,Berkeley Springs,,51,,,3,,,,,,,,,,,,,,,
null,,confidence_buffer,1564565,confidence_buffer,,null,,,,,,,,,,,,,,,,,,
2494.9000000953674,,recognition_phase,1567062,Berkeley Springs,,51,,,,,,new,0,0.9166666666666666,,,,,,,,,,
null,,confidence_buffer,1567164,confidence_buffer,,null,,,,,,,,,,,,,,,,,,
null,,thebreak,1567666,break,,null,,,,,,,,,,,,,,,,,,
,,survey,1912077,survey-questions,,,,,,,,,,,none,high,I was not doing anything else,I tried to keep the most names as possible as I could in my head,I recalled if I've met the word somewhere before,I checked how easy the word is to keep in my head,I analyzed how the name feels very new to me and unusual,With this, my intentions were to access how possible it will be for a city to be called that name,No,None
