rt,responses,trial_type,time_elapsed,stimulus,button_pressed,key_press,name_trial,city_type,rating,probe,probe_accuracy,response,correct,accuracy,problems,smooth,distraction,strategies,familiar,memorable,unique,realistic,similar,comments
27300.80000001192,{worker_id:67ef5dc5261e31542d9e13e5},id_enter,27303,,,,,,,,,,,,,,,,,,,,,
11902.799999952316,,fullscreen,39208,fullscreen,0,,,,,,,,,,,,,,,,,,,
16916.599999964237,,intro_0,56125,instruct,,32,,,,,,,,,,,,,,,,,,
40080.5,,intro_1,96209,instruct,,32,,,,,,,,,,,,,,,,,,
47862.10000002384,,intro_2,144071,instruct,,32,,,,,,,,,,,,,,,,,,
null,,instruct_dir_4,145573,instruct,,null,,,,,,,,,,,,,,,,,,
null,,thebreak,146074,break,,null,,,,,,,,,,,,,,,,,,
19458,,familiar_rating,165533,Juniper Creek,,50,Juniper Creek,Fictional,2,,,,,,,,,,,,,,,
null,,confidence_buffer,165635,confidence_buffer,,null,,,,,,,,,,,,,,,,,,
12717,,unique_rating,178352,Juniper Creek,,52,,,4,,,,,,,,,,,,,,,
null,,confidence_buffer,178454,confidence_buffer,,null,,,,,,,,,,,,,,,,,,
4645.299999952316,,memorable_rating,183100,Juniper Creek,,51,,,3,,,,,,,,,,,,,,,
null,,confidence_buffer,183201,confidence_buffer,,null,,,,,,,,,,,,,,,,,,
null,,thebreak,183703,break,,null,,,,,,,,,,,,,,,,,,
6423.300000011921,,familiar_rating,190127,Gardnerville,,51,Gardnerville,US,3,,,,,,,,,,,,,,,
null,,confidence_buffer,190229,confidence_buffer,,null,,,,,,,,,,,,,,,,,,
6966.900000035763,,unique_rating,197196,Gardnerville,,52,,,4,,,,,,,,,,,,,,,
null,,confidence_buffer,197298,confidence_buffer,,null,,,,,,,,,,,,,,,,,,
3198,,memorable_rating,200497,Gardnerville,,52,,,4,,,,,,,,,,,,,,,
null,,confidence_buffer,200598,confidence_buffer,,null,,,,,,,,,,,,,,,,,,
null,,thebreak,201100,break,,null,,,,,,,,,,,,,,,,,,
9179.600000023842,,familiar_rating,210280,Watkins Glen,,49,Watkins Glen,US,1,,,,,,,,,,,,,,,
null,,confidence_buffer,210381,confidence_buffer,,null,,,,,,,,,,,,,,,,,,
6374.599999964237,,unique_rating,216757,Watkins Glen,,53,,,5,,,,,,,,,,,,,,,
null,,confidence_buffer,216858,confidence_buffer,,null,,,,,,,,,,,,,,,,,,
2449.699999988079,,memorable_rating,219309,Watkins Glen,,52,,,4,,,,,,,,,,,,,,,
null,,confidence_buffer,219410,confidence_buffer,,null,,,,,,,,,,,,,,,,,,
null,,thebreak,219911,break,,null,,,,,,,,,,,,,,,,,,
5820.900000035763,,familiar_rating,225733,Maravilla Springs,,50,Maravilla Springs,Fictional,2,,,,,,,,,,,,,,,
null,,confidence_buffer,225834,confidence_buffer,,null,,,,,,,,,,,,,,,,,,
4951.600000023842,,unique_rating,230787,Maravilla Springs,,52,,,4,,,,,,,,,,,,,,,
null,,confidence_buffer,230887,confidence_buffer,,null,,,,,,,,,,,,,,,,,,
4012.2000000476837,,memorable_rating,234900,Maravilla Springs,,52,,,4,,,,,,,,,,,,,,,
null,,confidence_buffer,235001,confidence_buffer,,null,,,,,,,,,,,,,,,,,,
null,,thebreak,235503,break,,null,,,,,,,,,,,,,,,,,,
3898.300000011921,,familiar_rating,239402,Boulder,,49,Boulder,US,1,,,,,,,,,,,,,,,
null,,confidence_buffer,239503,confidence_buffer,,null,,,,,,,,,,,,,,,,,,
3364.900000035763,,unique_rating,242869,Boulder,,53,,,5,,,,,,,,,,,,,,,
null,,confidence_buffer,242971,confidence_buffer,,null,,,,,,,,,,,,,,,,,,
3029.800000011921,,memorable_rating,246002,Boulder,,52,,,4,,,,,,,,,,,,,,,
null,,confidence_buffer,246103,confidence_buffer,,null,,,,,,,,,,,,,,,,,,
null,,thebreak,246604,break,,null,,,,,,,,,,,,,,,,,,
3779.699999988079,,familiar_rating,250385,Abilene,,50,Abilene,US,2,,,,,,,,,,,,,,,
null,,confidence_buffer,250486,confidence_buffer,,null,,,,,,,,,,,,,,,,,,
2836.100000023842,,unique_rating,253323,Abilene,,51,,,3,,,,,,,,,,,,,,,
null,,confidence_buffer,253425,confidence_buffer,,null,,,,,,,,,,,,,,,,,,
15329.800000011921,,probe_rating,268755,probe_rating,,49,,,,1,1,,,,,,,,,,,,,
null,,confidence_buffer,268857,confidence_buffer,,null,,,,,,,,,,,,,,,,,,
3342.199999988079,,memorable_rating,272200,Abilene,,52,,,4,,,,,,,,,,,,,,,
null,,confidence_buffer,272302,confidence_buffer,,null,,,,,,,,,,,,,,,,,,
null,,thebreak,272805,break,,null,,,,,,,,,,,,,,,,,,
3615.699999988079,,familiar_rating,276422,Bayshore Haven,,50,Bayshore Haven,Fictional,2,,,,,,,,,,,,,,,
null,,confidence_buffer,276523,confidence_buffer,,null,,,,,,,,,,,,,,,,,,
3206.399999976158,,unique_rating,279730,Bayshore Haven,,53,,,5,,,,,,,,,,,,,,,
null,,confidence_buffer,279832,confidence_buffer,,null,,,,,,,,,,,,,,,,,,
1929.5,,memorable_rating,281762,Bayshore Haven,,52,,,4,,,,,,,,,,,,,,,
null,,confidence_buffer,281863,confidence_buffer,,null,,,,,,,,,,,,,,,,,,
null,,thebreak,282365,break,,null,,,,,,,,,,,,,,,,,,
3197.400000035763,,familiar_rating,285563,Riverlyn,,51,Riverlyn,Fictional,3,,,,,,,,,,,,,,,
null,,confidence_buffer,285664,confidence_buffer,,null,,,,,,,,,,,,,,,,,,
1972.9000000357628,,unique_rating,287638,Riverlyn,,52,,,4,,,,,,,,,,,,,,,
null,,confidence_buffer,287739,confidence_buffer,,null,,,,,,,,,,,,,,,,,,
2436.400000035763,,memorable_rating,290177,Riverlyn,,52,,,4,,,,,,,,,,,,,,,
null,,confidence_buffer,290288,confidence_buffer,,null,,,,,,,,,,,,,,,,,,
null,,thebreak,290790,break,,null,,,,,,,,,,,,,,,,,,
4371.699999988079,,familiar_rating,295162,Gatlinburg,,49,Gatlinburg,US,1,,,,,,,,,,,,,,,
null,,confidence_buffer,295264,confidence_buffer,,null,,,,,,,,,,,,,,,,,,
14443.100000023842,,probe_rating,309708,probe_rating,,53,,,,5,1,,,,,,,,,,,,,
null,,confidence_buffer,309809,confidence_buffer,,null,,,,,,,,,,,,,,,,,,
3662,,unique_rating,313472,Gatlinburg,,53,,,5,,,,,,,,,,,,,,,
null,,confidence_buffer,313573,confidence_buffer,,null,,,,,,,,,,,,,,,,,,
2904.300000011921,,memorable_rating,316478,Gatlinburg,,52,,,4,,,,,,,,,,,,,,,
null,,confidence_buffer,316579,confidence_buffer,,null,,,,,,,,,,,,,,,,,,
null,,thebreak,317080,break,,null,,,,,,,,,,,,,,,,,,
4071.099999964237,,familiar_rating,321152,Clearbrook,,50,Clearbrook,Fictional,2,,,,,,,,,,,,,,,
null,,confidence_buffer,321268,confidence_buffer,,null,,,,,,,,,,,,,,,,,,
3574.900000035763,,unique_rating,324844,Clearbrook,,52,,,4,,,,,,,,,,,,,,,
null,,confidence_buffer,324959,confidence_buffer,,null,,,,,,,,,,,,,,,,,,
1499.8999999761581,,memorable_rating,326460,Clearbrook,,52,,,4,,,,,,,,,,,,,,,
null,,confidence_buffer,326562,confidence_buffer,,null,,,,,,,,,,,,,,,,,,
null,,thebreak,327063,break,,null,,,,,,,,,,,,,,,,,,
5385.800000011921,,familiar_rating,332450,Healdsburg,,50,Healdsburg,US,2,,,,,,,,,,,,,,,
null,,confidence_buffer,332551,confidence_buffer,,null,,,,,,,,,,,,,,,,,,
3058.199999988079,,unique_rating,335610,Healdsburg,,53,,,5,,,,,,,,,,,,,,,
null,,confidence_buffer,335712,confidence_buffer,,null,,,,,,,,,,,,,,,,,,
1805.699999988079,,memorable_rating,337519,Healdsburg,,52,,,4,,,,,,,,,,,,,,,
null,,confidence_buffer,337619,confidence_buffer,,null,,,,,,,,,,,,,,,,,,
null,,thebreak,338121,break,,null,,,,,,,,,,,,,,,,,,
3635.899999976158,,familiar_rating,341758,Ashford Hills,,51,Ashford Hills,Fictional,3,,,,,,,,,,,,,,,
null,,confidence_buffer,341859,confidence_buffer,,null,,,,,,,,,,,,,,,,,,
2225.7999999523163,,unique_rating,344086,Ashford Hills,,51,,,3,,,,,,,,,,,,,,,
null,,confidence_buffer,344196,confidence_buffer,,null,,,,,,,,,,,,,,,,,,
1910.300000011921,,memorable_rating,346107,Ashford Hills,,52,,,4,,,,,,,,,,,,,,,
null,,confidence_buffer,346208,confidence_buffer,,null,,,,,,,,,,,,,,,,,,
null,,thebreak,346709,break,,null,,,,,,,,,,,,,,,,,,
4267.599999964237,,familiar_rating,350978,Granton Ridge,,50,Granton Ridge,Fictional,2,,,,,,,,,,,,,,,
null,,confidence_buffer,351079,confidence_buffer,,null,,,,,,,,,,,,,,,,,,
4875.800000011921,,unique_rating,355956,Granton Ridge,,51,,,3,,,,,,,,,,,,,,,
null,,confidence_buffer,356057,confidence_buffer,,null,,,,,,,,,,,,,,,,,,
1836.1000000238419,,memorable_rating,357893,Granton Ridge,,51,,,3,,,,,,,,,,,,,,,
null,,confidence_buffer,357995,confidence_buffer,,null,,,,,,,,,,,,,,,,,,
6292.700000047684,,probe_rating,364289,probe_rating,,49,,,,1,1,,,,,,,,,,,,,
null,,confidence_buffer,364397,confidence_buffer,,null,,,,,,,,,,,,,,,,,,
null,,thebreak,364898,break,,null,,,,,,,,,,,,,,,,,,
3417.199999988079,,familiar_rating,368316,Hanover,,49,Hanover,US,1,,,,,,,,,,,,,,,
null,,confidence_buffer,368419,confidence_buffer,,null,,,,,,,,,,,,,,,,,,
2925.5,,unique_rating,371345,Hanover,,53,,,5,,,,,,,,,,,,,,,
null,,confidence_buffer,371447,confidence_buffer,,null,,,,,,,,,,,,,,,,,,
2065.100000023842,,memorable_rating,373513,Hanover,,52,,,4,,,,,,,,,,,,,,,
null,,confidence_buffer,373614,confidence_buffer,,null,,,,,,,,,,,,,,,,,,
null,,thebreak,374115,break,,null,,,,,,,,,,,,,,,,,,
2982.800000011921,,familiar_rating,377099,Claywater,,50,Claywater,Fictional,2,,,,,,,,,,,,,,,
null,,confidence_buffer,377200,confidence_buffer,,null,,,,,,,,,,,,,,,,,,
3423.100000023842,,unique_rating,380624,Claywater,,53,,,5,,,,,,,,,,,,,,,
null,,confidence_buffer,380725,confidence_buffer,,null,,,,,,,,,,,,,,,,,,
1725,,memorable_rating,382451,Claywater,,52,,,4,,,,,,,,,,,,,,,
null,,confidence_buffer,382551,confidence_buffer,,null,,,,,,,,,,,,,,,,,,
null,,thebreak,383052,break,,null,,,,,,,,,,,,,,,,,,
4272.399999976158,,familiar_rating,387326,Bar Harbor,,51,Bar Harbor,US,3,,,,,,,,,,,,,,,
null,,confidence_buffer,387427,confidence_buffer,,null,,,,,,,,,,,,,,,,,,
2023,,unique_rating,389450,Bar Harbor,,53,,,5,,,,,,,,,,,,,,,
null,,confidence_buffer,389562,confidence_buffer,,null,,,,,,,,,,,,,,,,,,
1930.199999988079,,memorable_rating,391493,Bar Harbor,,52,,,4,,,,,,,,,,,,,,,
null,,confidence_buffer,391595,confidence_buffer,,null,,,,,,,,,,,,,,,,,,
null,,thebreak,392096,break,,null,,,,,,,,,,,,,,,,,,
4881.100000023842,,familiar_rating,396978,Leesburg,,49,Leesburg,US,1,,,,,,,,,,,,,,,
null,,confidence_buffer,397079,confidence_buffer,,null,,,,,,,,,,,,,,,,,,
1991,,unique_rating,399071,Leesburg,,52,,,4,,,,,,,,,,,,,,,
null,,confidence_buffer,399172,confidence_buffer,,null,,,,,,,,,,,,,,,,,,
1630,,memorable_rating,400803,Leesburg,,51,,,3,,,,,,,,,,,,,,,
null,,confidence_buffer,400905,confidence_buffer,,null,,,,,,,,,,,,,,,,,,
null,,thebreak,401406,break,,null,,,,,,,,,,,,,,,,,,
3623.2000000476837,,familiar_rating,405030,Hilo,,51,Hilo,US,3,,,,,,,,,,,,,,,
null,,confidence_buffer,405131,confidence_buffer,,null,,,,,,,,,,,,,,,,,,
1773.6000000238419,,unique_rating,406906,Hilo,,53,,,5,,,,,,,,,,,,,,,
null,,confidence_buffer,407007,confidence_buffer,,null,,,,,,,,,,,,,,,,,,
6399.300000011921,,probe_rating,413407,probe_rating,,51,,,,3,1,,,,,,,,,,,,,
null,,confidence_buffer,413509,confidence_buffer,,null,,,,,,,,,,,,,,,,,,
2398.899999976158,,memorable_rating,415908,Hilo,,51,,,3,,,,,,,,,,,,,,,
null,,confidence_buffer,416010,confidence_buffer,,null,,,,,,,,,,,,,,,,,,
null,,thebreak,416512,break,,null,,,,,,,,,,,,,,,,,,
4776.399999976158,,familiar_rating,421289,Delaware City,,51,Delaware City,US,3,,,,,,,,,,,,,,,
null,,confidence_buffer,421392,confidence_buffer,,null,,,,,,,,,,,,,,,,,,
4552.5,,unique_rating,425945,Delaware City,,52,,,4,,,,,,,,,,,,,,,
null,,confidence_buffer,426046,confidence_buffer,,null,,,,,,,,,,,,,,,,,,
1516.800000011921,,memorable_rating,427563,Delaware City,,52,,,4,,,,,,,,,,,,,,,
null,,confidence_buffer,427665,confidence_buffer,,null,,,,,,,,,,,,,,,,,,
null,,thebreak,428167,break,,null,,,,,,,,,,,,,,,,,,
3203.600000023842,,familiar_rating,431371,Bowling Green,,49,Bowling Green,US,1,,,,,,,,,,,,,,,
null,,confidence_buffer,431481,confidence_buffer,,null,,,,,,,,,,,,,,,,,,
8944.100000023842,,probe_rating,440425,probe_rating,,50,,,,2,1,,,,,,,,,,,,,
null,,confidence_buffer,440527,confidence_buffer,,null,,,,,,,,,,,,,,,,,,
2180.399999976158,,unique_rating,442709,Bowling Green,,52,,,4,,,,,,,,,,,,,,,
null,,confidence_buffer,442810,confidence_buffer,,null,,,,,,,,,,,,,,,,,,
1849.300000011921,,memorable_rating,444660,Bowling Green,,52,,,4,,,,,,,,,,,,,,,
null,,confidence_buffer,444762,confidence_buffer,,null,,,,,,,,,,,,,,,,,,
null,,thebreak,445266,break,,null,,,,,,,,,,,,,,,,,,
2891.599999964237,,familiar_rating,448159,West Talora,,50,West Talora,Fictional,2,,,,,,,,,,,,,,,
null,,confidence_buffer,448260,confidence_buffer,,null,,,,,,,,,,,,,,,,,,
2020.0999999642372,,unique_rating,450281,West Talora,,52,,,4,,,,,,,,,,,,,,,
null,,confidence_buffer,450382,confidence_buffer,,null,,,,,,,,,,,,,,,,,,
3143.100000023842,,memorable_rating,453526,West Talora,,52,,,4,,,,,,,,,,,,,,,
null,,confidence_buffer,453631,confidence_buffer,,null,,,,,,,,,,,,,,,,,,
null,,thebreak,454133,break,,null,,,,,,,,,,,,,,,,,,
3326.099999964237,,familiar_rating,457460,Peoria,,51,Peoria,US,3,,,,,,,,,,,,,,,
null,,confidence_buffer,457561,confidence_buffer,,null,,,,,,,,,,,,,,,,,,
1930.9000000357628,,unique_rating,459493,Peoria,,53,,,5,,,,,,,,,,,,,,,
null,,confidence_buffer,459594,confidence_buffer,,null,,,,,,,,,,,,,,,,,,
6713.300000011921,,memorable_rating,466308,Peoria,,52,,,4,,,,,,,,,,,,,,,
null,,confidence_buffer,466409,confidence_buffer,,null,,,,,,,,,,,,,,,,,,
null,,thebreak,466911,break,,null,,,,,,,,,,,,,,,,,,
5836.599999964237,,familiar_rating,472748,Hawthorne Bluffs,,49,Hawthorne Bluffs,Fictional,1,,,,,,,,,,,,,,,
null,,confidence_buffer,472850,confidence_buffer,,null,,,,,,,,,,,,,,,,,,
2466.5,,unique_rating,475317,Hawthorne Bluffs,,53,,,5,,,,,,,,,,,,,,,
null,,confidence_buffer,475419,confidence_buffer,,null,,,,,,,,,,,,,,,,,,
1652.199999988079,,memorable_rating,477072,Hawthorne Bluffs,,52,,,4,,,,,,,,,,,,,,,
null,,confidence_buffer,477174,confidence_buffer,,null,,,,,,,,,,,,,,,,,,
null,,thebreak,477675,break,,null,,,,,,,,,,,,,,,,,,
10982.200000047684,,familiar_rating,488658,Sammamish,,49,Sammamish,US,1,,,,,,,,,,,,,,,
null,,confidence_buffer,488759,confidence_buffer,,null,,,,,,,,,,,,,,,,,,
2035,,unique_rating,490794,Sammamish,,53,,,5,,,,,,,,,,,,,,,
null,,confidence_buffer,490896,confidence_buffer,,null,,,,,,,,,,,,,,,,,,
2190.400000035763,,memorable_rating,493087,Sammamish,,52,,,4,,,,,,,,,,,,,,,
null,,confidence_buffer,493188,confidence_buffer,,null,,,,,,,,,,,,,,,,,,
null,,thebreak,493690,break,,null,,,,,,,,,,,,,,,,,,
5186.300000011921,,familiar_rating,498877,Montelake,,50,Montelake,Fictional,2,,,,,,,,,,,,,,,
null,,confidence_buffer,498978,confidence_buffer,,null,,,,,,,,,,,,,,,,,,
2016.300000011921,,unique_rating,500995,Montelake,,52,,,4,,,,,,,,,,,,,,,
null,,confidence_buffer,501096,confidence_buffer,,null,,,,,,,,,,,,,,,,,,
2203.300000011921,,memorable_rating,503300,Montelake,,52,,,4,,,,,,,,,,,,,,,
null,,confidence_buffer,503401,confidence_buffer,,null,,,,,,,,,,,,,,,,,,
null,,thebreak,503902,break,,null,,,,,,,,,,,,,,,,,,
3978.5,,familiar_rating,507882,Silverpine,,51,Silverpine,Fictional,3,,,,,,,,,,,,,,,
null,,confidence_buffer,507983,confidence_buffer,,null,,,,,,,,,,,,,,,,,,
1965.6000000238419,,unique_rating,509950,Silverpine,,53,,,5,,,,,,,,,,,,,,,
null,,confidence_buffer,510051,confidence_buffer,,null,,,,,,,,,,,,,,,,,,
2491.399999976158,,memorable_rating,512543,Silverpine,,52,,,4,,,,,,,,,,,,,,,
null,,confidence_buffer,512653,confidence_buffer,,null,,,,,,,,,,,,,,,,,,
null,,thebreak,513154,break,,null,,,,,,,,,,,,,,,,,,
4505.399999976158,,familiar_rating,517661,Baymarsh,,49,Baymarsh,Fictional,1,,,,,,,,,,,,,,,
null,,confidence_buffer,517762,confidence_buffer,,null,,,,,,,,,,,,,,,,,,
2132.399999976158,,unique_rating,519895,Baymarsh,,52,,,4,,,,,,,,,,,,,,,
null,,confidence_buffer,519997,confidence_buffer,,null,,,,,,,,,,,,,,,,,,
2013.1000000238419,,memorable_rating,522011,Baymarsh,,52,,,4,,,,,,,,,,,,,,,
null,,confidence_buffer,522112,confidence_buffer,,null,,,,,,,,,,,,,,,,,,
null,,thebreak,522613,break,,null,,,,,,,,,,,,,,,,,,
4223.200000047684,,familiar_rating,526837,Elmsbury,,50,Elmsbury,Fictional,2,,,,,,,,,,,,,,,
null,,confidence_buffer,526939,confidence_buffer,,null,,,,,,,,,,,,,,,,,,
3669.199999988079,,unique_rating,530609,Elmsbury,,52,,,4,,,,,,,,,,,,,,,
null,,confidence_buffer,530710,confidence_buffer,,null,,,,,,,,,,,,,,,,,,
1789.199999988079,,memorable_rating,532500,Elmsbury,,51,,,3,,,,,,,,,,,,,,,
null,,confidence_buffer,532601,confidence_buffer,,null,,,,,,,,,,,,,,,,,,
null,,thebreak,533102,break,,null,,,,,,,,,,,,,,,,,,
5258.400000035763,,familiar_rating,538362,Delaro Park,,49,Delaro Park,Fictional,1,,,,,,,,,,,,,,,
null,,confidence_buffer,538464,confidence_buffer,,null,,,,,,,,,,,,,,,,,,
2339.7999999523163,,unique_rating,540805,Delaro Park,,53,,,5,,,,,,,,,,,,,,,
null,,confidence_buffer,540907,confidence_buffer,,null,,,,,,,,,,,,,,,,,,
8128.400000035763,,probe_rating,549036,probe_rating,,52,,,,4,1,,,,,,,,,,,,,
null,,confidence_buffer,549137,confidence_buffer,,null,,,,,,,,,,,,,,,,,,
2422.600000023842,,memorable_rating,551561,Delaro Park,,52,,,4,,,,,,,,,,,,,,,
null,,confidence_buffer,551662,confidence_buffer,,null,,,,,,,,,,,,,,,,,,
null,,thebreak,552172,break,,null,,,,,,,,,,,,,,,,,,
3384.5,,familiar_rating,555557,Shreveport,,49,Shreveport,US,1,,,,,,,,,,,,,,,
null,,confidence_buffer,555659,confidence_buffer,,null,,,,,,,,,,,,,,,,,,
3213.100000023842,,unique_rating,558873,Shreveport,,53,,,5,,,,,,,,,,,,,,,
null,,confidence_buffer,558974,confidence_buffer,,null,,,,,,,,,,,,,,,,,,
2835.900000035763,,memorable_rating,561811,Shreveport,,52,,,4,,,,,,,,,,,,,,,
null,,confidence_buffer,561912,confidence_buffer,,null,,,,,,,,,,,,,,,,,,
null,,thebreak,562414,break,,null,,,,,,,,,,,,,,,,,,
18902.80000001192,,intro_0,581317,instruct,,32,,,,,,,,,,,,,,,,,,
95468.30000001192,,intro_1,676786,instruct,,32,,,,,,,,,,,,,,,,,,
62656.69999998808,,intro_2,739443,instruct,,32,,,,,,,,,,,,,,,,,,
null,,instruct_dir_4,740944,instruct,,null,,,,,,,,,,,,,,,,,,
20322.399999976158,,realistic_rating,761267,Manistee,,52,Manistee,US,4,,,,,,,,,,,,,,,
null,,confidence_buffer,761368,confidence_buffer,,null,,,,,,,,,,,,,,,,,,
3008.199999988079,,pt2_unique_rating,764377,Manistee,,52,,,4,,,,,,,,,,,,,,,
null,,confidence_buffer,764478,confidence_buffer,,null,,,,,,,,,,,,,,,,,,
2125,,pt2_memorable_rating,766604,Manistee,,51,,,3,,,,,,,,,,,,,,,
null,,confidence_buffer,766705,confidence_buffer,,null,,,,,,,,,,,,,,,,,,
4605.100000023842,,recognition_phase,771311,Manistee,,49,,,,,,old,0,0,,,,,,,,,,
null,,confidence_buffer,771412,confidence_buffer,,null,,,,,,,,,,,,,,,,,,
null,,thebreak,771913,break,,null,,,,,,,,,,,,,,,,,,
10323.699999988079,,realistic_rating,782237,Claywater,,50,Claywater,Fictional,2,,,,,,,,,,,,,,,
null,,confidence_buffer,782339,confidence_buffer,,null,,,,,,,,,,,,,,,,,,
2413.5,,pt2_unique_rating,784753,Claywater,,53,,,5,,,,,,,,,,,,,,,
null,,confidence_buffer,784854,confidence_buffer,,null,,,,,,,,,,,,,,,,,,
1953.0999999642372,,pt2_memorable_rating,786807,Claywater,,52,,,4,,,,,,,,,,,,,,,
null,,confidence_buffer,786909,confidence_buffer,,null,,,,,,,,,,,,,,,,,,
2768.399999976158,,recognition_phase,789678,Claywater,,52,,,,,,new,0,0,,,,,,,,,,
null,,confidence_buffer,789780,confidence_buffer,,null,,,,,,,,,,,,,,,,,,
null,,thebreak,790281,break,,null,,,,,,,,,,,,,,,,,,
4711.400000035763,,realistic_rating,794993,Baymarsh,,49,Baymarsh,Fictional,1,,,,,,,,,,,,,,,
null,,confidence_buffer,795094,confidence_buffer,,null,,,,,,,,,,,,,,,,,,
1886.199999988079,,pt2_unique_rating,796981,Baymarsh,,53,,,5,,,,,,,,,,,,,,,
null,,confidence_buffer,797082,confidence_buffer,,null,,,,,,,,,,,,,,,,,,
2909.600000023842,,pt2_memorable_rating,799992,Baymarsh,,52,,,4,,,,,,,,,,,,,,,
null,,confidence_buffer,800093,confidence_buffer,,null,,,,,,,,,,,,,,,,,,
9666.100000023842,,probe_rating,809760,probe_rating,,50,,,,2,1,,,,,,,,,,,,,
null,,confidence_buffer,809862,confidence_buffer,,null,,,,,,,,,,,,,,,,,,
3681.399999976158,,recognition_phase,813544,Baymarsh,,49,,,,,,old,1,0.3333333333333333,,,,,,,,,,
null,,confidence_buffer,813646,confidence_buffer,,null,,,,,,,,,,,,,,,,,,
null,,thebreak,814147,break,,null,,,,,,,,,,,,,,,,,,
4341.600000023842,,realistic_rating,818489,Folly Beach,,49,Folly Beach,US,1,,,,,,,,,,,,,,,
null,,confidence_buffer,818592,confidence_buffer,,null,,,,,,,,,,,,,,,,,,
1864.1000000238419,,pt2_unique_rating,820456,Folly Beach,,53,,,5,,,,,,,,,,,,,,,
null,,confidence_buffer,820558,confidence_buffer,,null,,,,,,,,,,,,,,,,,,
1656.2000000476837,,pt2_memorable_rating,822215,Folly Beach,,52,,,4,,,,,,,,,,,,,,,
null,,confidence_buffer,822316,confidence_buffer,,null,,,,,,,,,,,,,,,,,,
4117.699999988079,,recognition_phase,826434,Folly Beach,,52,,,,,,new,1,0.5,,,,,,,,,,
null,,confidence_buffer,826536,confidence_buffer,,null,,,,,,,,,,,,,,,,,,
null,,thebreak,827037,break,,null,,,,,,,,,,,,,,,,,,
3432.300000011921,,realistic_rating,830470,Redgrove,,50,Redgrove,Fictional,2,,,,,,,,,,,,,,,
null,,confidence_buffer,830571,confidence_buffer,,null,,,,,,,,,,,,,,,,,,
2439.300000011921,,pt2_unique_rating,833011,Redgrove,,52,,,4,,,,,,,,,,,,,,,
null,,confidence_buffer,833113,confidence_buffer,,null,,,,,,,,,,,,,,,,,,
1337.300000011921,,pt2_memorable_rating,834451,Redgrove,,52,,,4,,,,,,,,,,,,,,,
null,,confidence_buffer,834552,confidence_buffer,,null,,,,,,,,,,,,,,,,,,
3415.100000023842,,recognition_phase,837968,Redgrove,,50,,,,,,old,0,0.4,,,,,,,,,,
null,,confidence_buffer,838069,confidence_buffer,,null,,,,,,,,,,,,,,,,,,
null,,thebreak,838571,break,,null,,,,,,,,,,,,,,,,,,
3282,,realistic_rating,841853,Delaware City,,51,Delaware City,US,3,,,,,,,,,,,,,,,
null,,confidence_buffer,841955,confidence_buffer,,null,,,,,,,,,,,,,,,,,,
1987.699999988079,,pt2_unique_rating,843943,Delaware City,,52,,,4,,,,,,,,,,,,,,,
null,,confidence_buffer,844045,confidence_buffer,,null,,,,,,,,,,,,,,,,,,
3691,,pt2_memorable_rating,847737,Delaware City,,52,,,4,,,,,,,,,,,,,,,
null,,confidence_buffer,847838,confidence_buffer,,null,,,,,,,,,,,,,,,,,,
3022.300000011921,,recognition_phase,850861,Delaware City,,49,,,,,,old,1,0.5,,,,,,,,,,
null,,confidence_buffer,850962,confidence_buffer,,null,,,,,,,,,,,,,,,,,,
null,,thebreak,851464,break,,null,,,,,,,,,,,,,,,,,,
8013,,realistic_rating,859477,West Talora,,51,West Talora,Fictional,3,,,,,,,,,,,,,,,
null,,confidence_buffer,859579,confidence_buffer,,null,,,,,,,,,,,,,,,,,,
2892,,pt2_unique_rating,862471,West Talora,,52,,,4,,,,,,,,,,,,,,,
null,,confidence_buffer,862573,confidence_buffer,,null,,,,,,,,,,,,,,,,,,
1186.9000000357628,,pt2_memorable_rating,863761,West Talora,,52,,,4,,,,,,,,,,,,,,,
null,,confidence_buffer,863862,confidence_buffer,,null,,,,,,,,,,,,,,,,,,
3190.099999964237,,recognition_phase,867053,West Talora,,51,,,,,,new,0,0.42857142857142855,,,,,,,,,,
null,,confidence_buffer,867155,confidence_buffer,,null,,,,,,,,,,,,,,,,,,
null,,thebreak,867655,break,,null,,,,,,,,,,,,,,,,,,
2700.699999988079,,realistic_rating,870357,Willowford,,50,Willowford,Fictional,2,,,,,,,,,,,,,,,
null,,confidence_buffer,870458,confidence_buffer,,null,,,,,,,,,,,,,,,,,,
1491.6000000238419,,pt2_unique_rating,871951,Willowford,,52,,,4,,,,,,,,,,,,,,,
null,,confidence_buffer,872053,confidence_buffer,,null,,,,,,,,,,,,,,,,,,
1183.8999999761581,,pt2_memorable_rating,873237,Willowford,,52,,,4,,,,,,,,,,,,,,,
null,,confidence_buffer,873338,confidence_buffer,,null,,,,,,,,,,,,,,,,,,
3317.2000000476837,,recognition_phase,876657,Willowford,,52,,,,,,new,1,0.5,,,,,,,,,,
null,,confidence_buffer,876758,confidence_buffer,,null,,,,,,,,,,,,,,,,,,
null,,thebreak,877260,break,,null,,,,,,,,,,,,,,,,,,
6124.199999988079,,realistic_rating,883385,Gloucester,,50,Gloucester,US,2,,,,,,,,,,,,,,,
null,,confidence_buffer,883486,confidence_buffer,,null,,,,,,,,,,,,,,,,,,
1215,,pt2_unique_rating,884702,Gloucester,,51,,,3,,,,,,,,,,,,,,,
null,,confidence_buffer,884803,confidence_buffer,,null,,,,,,,,,,,,,,,,,,
1018.6000000238419,,pt2_memorable_rating,885823,Gloucester,,52,,,4,,,,,,,,,,,,,,,
null,,confidence_buffer,885924,confidence_buffer,,null,,,,,,,,,,,,,,,,,,
2980,,recognition_phase,888905,Gloucester,,52,,,,,,new,1,0.5555555555555556,,,,,,,,,,
null,,confidence_buffer,889006,confidence_buffer,,null,,,,,,,,,,,,,,,,,,
null,,thebreak,889507,break,,null,,,,,,,,,,,,,,,,,,
5066.5,,realistic_rating,894575,Hanover,,50,Hanover,US,2,,,,,,,,,,,,,,,
null,,confidence_buffer,894678,confidence_buffer,,null,,,,,,,,,,,,,,,,,,
1266.5,,pt2_unique_rating,895945,Hanover,,51,,,3,,,,,,,,,,,,,,,
null,,confidence_buffer,896046,confidence_buffer,,null,,,,,,,,,,,,,,,,,,
1048.800000011921,,pt2_memorable_rating,897096,Hanover,,51,,,3,,,,,,,,,,,,,,,
null,,confidence_buffer,897197,confidence_buffer,,null,,,,,,,,,,,,,,,,,,
2701.199999988079,,recognition_phase,899899,Hanover,,50,,,,,,old,1,0.6,,,,,,,,,,
null,,confidence_buffer,900000,confidence_buffer,,null,,,,,,,,,,,,,,,,,,
null,,thebreak,900502,break,,null,,,,,,,,,,,,,,,,,,
2751.300000011921,,realistic_rating,903254,Ashford Hills,,51,Ashford Hills,Fictional,3,,,,,,,,,,,,,,,
null,,confidence_buffer,903363,confidence_buffer,,null,,,,,,,,,,,,,,,,,,
1223.800000011921,,pt2_unique_rating,904587,Ashford Hills,,52,,,4,,,,,,,,,,,,,,,
null,,confidence_buffer,904695,confidence_buffer,,null,,,,,,,,,,,,,,,,,,
1096.5999999642372,,pt2_memorable_rating,905793,Ashford Hills,,52,,,4,,,,,,,,,,,,,,,
null,,confidence_buffer,905895,confidence_buffer,,null,,,,,,,,,,,,,,,,,,
3023.400000035763,,recognition_phase,908919,Ashford Hills,,50,,,,,,old,1,0.6363636363636364,,,,,,,,,,
null,,confidence_buffer,909020,confidence_buffer,,null,,,,,,,,,,,,,,,,,,
null,,thebreak,909521,break,,null,,,,,,,,,,,,,,,,,,
5138.599999964237,,realistic_rating,914660,Boulder,,50,Boulder,US,2,,,,,,,,,,,,,,,
null,,confidence_buffer,914761,confidence_buffer,,null,,,,,,,,,,,,,,,,,,
1159.300000011921,,pt2_unique_rating,915921,Boulder,,51,,,3,,,,,,,,,,,,,,,
null,,confidence_buffer,916022,confidence_buffer,,null,,,,,,,,,,,,,,,,,,
1225.699999988079,,pt2_memorable_rating,917248,Boulder,,51,,,3,,,,,,,,,,,,,,,
null,,confidence_buffer,917349,confidence_buffer,,null,,,,,,,,,,,,,,,,,,
1401.699999988079,,recognition_phase,918752,Boulder,,50,,,,,,old,1,0.6666666666666666,,,,,,,,,,
null,,confidence_buffer,918853,confidence_buffer,,null,,,,,,,,,,,,,,,,,,
null,,thebreak,919355,break,,null,,,,,,,,,,,,,,,,,,
1957.9000000357628,,realistic_rating,921313,Natchez,,50,Natchez,US,2,,,,,,,,,,,,,,,
null,,confidence_buffer,921415,confidence_buffer,,null,,,,,,,,,,,,,,,,,,
1398.1000000238419,,pt2_unique_rating,922814,Natchez,,51,,,3,,,,,,,,,,,,,,,
null,,confidence_buffer,922915,confidence_buffer,,null,,,,,,,,,,,,,,,,,,
959.6999999880791,,pt2_memorable_rating,923875,Natchez,,51,,,3,,,,,,,,,,,,,,,
null,,confidence_buffer,923977,confidence_buffer,,null,,,,,,,,,,,,,,,,,,
2371.699999988079,,recognition_phase,926349,Natchez,,52,,,,,,new,1,0.6923076923076923,,,,,,,,,,
null,,confidence_buffer,926451,confidence_buffer,,null,,,,,,,,,,,,,,,,,,
null,,thebreak,926952,break,,null,,,,,,,,,,,,,,,,,,
6596.100000023842,,realistic_rating,933549,Montelake,,51,Montelake,Fictional,3,,,,,,,,,,,,,,,
null,,confidence_buffer,933650,confidence_buffer,,null,,,,,,,,,,,,,,,,,,
62154.69999998808,,pt2_unique_rating,995806,Montelake,,50,,,2,,,,,,,,,,,,,,,
null,,confidence_buffer,995907,confidence_buffer,,null,,,,,,,,,,,,,,,,,,
4910.800000011921,,probe_rating,1000819,probe_rating,,53,,,,5,1,,,,,,,,,,,,,
null,,confidence_buffer,1000921,confidence_buffer,,null,,,,,,,,,,,,,,,,,,
1852,,pt2_memorable_rating,1002773,Montelake,,51,,,3,,,,,,,,,,,,,,,
null,,confidence_buffer,1002875,confidence_buffer,,null,,,,,,,,,,,,,,,,,,
3870.800000011921,,recognition_phase,1006746,Montelake,,51,,,,,,new,0,0.6428571428571429,,,,,,,,,,
null,,confidence_buffer,1006847,confidence_buffer,,null,,,,,,,,,,,,,,,,,,
null,,thebreak,1007348,break,,null,,,,,,,,,,,,,,,,,,
2856,,realistic_rating,1010205,Coralridge,,50,Coralridge,Fictional,2,,,,,,,,,,,,,,,
null,,confidence_buffer,1010306,confidence_buffer,,null,,,,,,,,,,,,,,,,,,
1779.300000011921,,pt2_unique_rating,1012086,Coralridge,,53,,,5,,,,,,,,,,,,,,,
null,,confidence_buffer,1012195,confidence_buffer,,null,,,,,,,,,,,,,,,,,,
1180.5,,pt2_memorable_rating,1013377,Coralridge,,52,,,4,,,,,,,,,,,,,,,
null,,confidence_buffer,1013478,confidence_buffer,,null,,,,,,,,,,,,,,,,,,
1806.5999999642372,,recognition_phase,1015285,Coralridge,,52,,,,,,new,1,0.6666666666666666,,,,,,,,,,
null,,confidence_buffer,1015387,confidence_buffer,,null,,,,,,,,,,,,,,,,,,
null,,thebreak,1015888,break,,null,,,,,,,,,,,,,,,,,,
2727,,realistic_rating,1018616,Sammamish,,50,Sammamish,US,2,,,,,,,,,,,,,,,
null,,confidence_buffer,1018718,confidence_buffer,,null,,,,,,,,,,,,,,,,,,
1772.699999988079,,pt2_unique_rating,1020491,Sammamish,,52,,,4,,,,,,,,,,,,,,,
null,,confidence_buffer,1020593,confidence_buffer,,null,,,,,,,,,,,,,,,,,,
1332.6000000238419,,pt2_memorable_rating,1021927,Sammamish,,51,,,3,,,,,,,,,,,,,,,
null,,confidence_buffer,1022028,confidence_buffer,,null,,,,,,,,,,,,,,,,,,
2816.800000011921,,recognition_phase,1024845,Sammamish,,50,,,,,,old,1,0.6875,,,,,,,,,,
null,,confidence_buffer,1024947,confidence_buffer,,null,,,,,,,,,,,,,,,,,,
null,,thebreak,1025448,break,,null,,,,,,,,,,,,,,,,,,
2424.5,,realistic_rating,1027874,Peoria,,50,Peoria,US,2,,,,,,,,,,,,,,,
null,,confidence_buffer,1027979,confidence_buffer,,null,,,,,,,,,,,,,,,,,,
1333.300000011921,,pt2_unique_rating,1029313,Peoria,,52,,,4,,,,,,,,,,,,,,,
null,,confidence_buffer,1029426,confidence_buffer,,null,,,,,,,,,,,,,,,,,,
1188.1000000238419,,pt2_memorable_rating,1030615,Peoria,,52,,,4,,,,,,,,,,,,,,,
null,,confidence_buffer,1030717,confidence_buffer,,null,,,,,,,,,,,,,,,,,,
1367.699999988079,,recognition_phase,1032085,Peoria,,49,,,,,,old,1,0.7058823529411765,,,,,,,,,,
null,,confidence_buffer,1032187,confidence_buffer,,null,,,,,,,,,,,,,,,,,,
null,,thebreak,1032689,break,,null,,,,,,,,,,,,,,,,,,
2672.899999976158,,realistic_rating,1035362,Shreveport,,50,Shreveport,US,2,,,,,,,,,,,,,,,
null,,confidence_buffer,1035464,confidence_buffer,,null,,,,,,,,,,,,,,,,,,
1159.800000011921,,pt2_unique_rating,1036625,Shreveport,,51,,,3,,,,,,,,,,,,,,,
null,,confidence_buffer,1036726,confidence_buffer,,null,,,,,,,,,,,,,,,,,,
1179.5999999642372,,pt2_memorable_rating,1037907,Shreveport,,51,,,3,,,,,,,,,,,,,,,
null,,confidence_buffer,1038008,confidence_buffer,,null,,,,,,,,,,,,,,,,,,
1499.800000011921,,recognition_phase,1039509,Shreveport,,50,,,,,,old,1,0.7222222222222222,,,,,,,,,,
null,,confidence_buffer,1039610,confidence_buffer,,null,,,,,,,,,,,,,,,,,,
null,,thebreak,1040112,break,,null,,,,,,,,,,,,,,,,,,
18658.69999998808,,realistic_rating,1058771,Linden Trace,,50,Linden Trace,Fictional,2,,,,,,,,,,,,,,,
null,,confidence_buffer,1058872,confidence_buffer,,null,,,,,,,,,,,,,,,,,,
1453.300000011921,,pt2_unique_rating,1060327,Linden Trace,,52,,,4,,,,,,,,,,,,,,,
null,,confidence_buffer,1060428,confidence_buffer,,null,,,,,,,,,,,,,,,,,,
1064,,pt2_memorable_rating,1061493,Linden Trace,,51,,,3,,,,,,,,,,,,,,,
null,,confidence_buffer,1061594,confidence_buffer,,null,,,,,,,,,,,,,,,,,,
8669.5,,recognition_phase,1070264,Linden Trace,,52,,,,,,new,1,0.7368421052631579,,,,,,,,,,
null,,confidence_buffer,1070365,confidence_buffer,,null,,,,,,,,,,,,,,,,,,
null,,thebreak,1070866,break,,null,,,,,,,,,,,,,,,,,,
6755.5,,realistic_rating,1077623,Okoboji,,49,Okoboji,US,1,,,,,,,,,,,,,,,
null,,confidence_buffer,1077724,confidence_buffer,,null,,,,,,,,,,,,,,,,,,
2516.7999999523163,,pt2_unique_rating,1080242,Okoboji,,53,,,5,,,,,,,,,,,,,,,
null,,confidence_buffer,1080343,confidence_buffer,,null,,,,,,,,,,,,,,,,,,
1860.5,,pt2_memorable_rating,1082204,Okoboji,,52,,,4,,,,,,,,,,,,,,,
null,,confidence_buffer,1082305,confidence_buffer,,null,,,,,,,,,,,,,,,,,,
6051.699999988079,,recognition_phase,1088357,Okoboji,,52,,,,,,new,1,0.75,,,,,,,,,,
null,,confidence_buffer,1088459,confidence_buffer,,null,,,,,,,,,,,,,,,,,,
null,,thebreak,1088961,break,,null,,,,,,,,,,,,,,,,,,
2628.899999976158,,realistic_rating,1091590,Juniper Creek,,50,Juniper Creek,Fictional,2,,,,,,,,,,,,,,,
null,,confidence_buffer,1091691,confidence_buffer,,null,,,,,,,,,,,,,,,,,,
918.1000000238419,,pt2_unique_rating,1092610,Juniper Creek,,51,,,3,,,,,,,,,,,,,,,
null,,confidence_buffer,1092711,confidence_buffer,,null,,,,,,,,,,,,,,,,,,
919.8000000119209,,pt2_memorable_rating,1093631,Juniper Creek,,51,,,3,,,,,,,,,,,,,,,
null,,confidence_buffer,1093733,confidence_buffer,,null,,,,,,,,,,,,,,,,,,
2007,,recognition_phase,1095740,Juniper Creek,,49,,,,,,old,1,0.7619047619047619,,,,,,,,,,
null,,confidence_buffer,1095842,confidence_buffer,,null,,,,,,,,,,,,,,,,,,
null,,thebreak,1096343,break,,null,,,,,,,,,,,,,,,,,,
2618.100000023842,,realistic_rating,1098962,Granton Ridge,,50,Granton Ridge,Fictional,2,,,,,,,,,,,,,,,
null,,confidence_buffer,1099063,confidence_buffer,,null,,,,,,,,,,,,,,,,,,
939.9000000357628,,pt2_unique_rating,1100004,Granton Ridge,,51,,,3,,,,,,,,,,,,,,,
null,,confidence_buffer,1100105,confidence_buffer,,null,,,,,,,,,,,,,,,,,,
1290.300000011921,,pt2_memorable_rating,1101396,Granton Ridge,,51,,,3,,,,,,,,,,,,,,,
null,,confidence_buffer,1101497,confidence_buffer,,null,,,,,,,,,,,,,,,,,,
1759.5,,recognition_phase,1103257,Granton Ridge,,50,,,,,,old,1,0.7727272727272727,,,,,,,,,,
null,,confidence_buffer,1103359,confidence_buffer,,null,,,,,,,,,,,,,,,,,,
null,,thebreak,1103860,break,,null,,,,,,,,,,,,,,,,,,
2367.199999988079,,realistic_rating,1106228,Millstone,,51,Millstone,Fictional,3,,,,,,,,,,,,,,,
null,,confidence_buffer,1106329,confidence_buffer,,null,,,,,,,,,,,,,,,,,,
1171.300000011921,,pt2_unique_rating,1107501,Millstone,,52,,,4,,,,,,,,,,,,,,,
null,,confidence_buffer,1107603,confidence_buffer,,null,,,,,,,,,,,,,,,,,,
1096.5,,pt2_memorable_rating,1108700,Millstone,,51,,,3,,,,,,,,,,,,,,,
null,,confidence_buffer,1108802,confidence_buffer,,null,,,,,,,,,,,,,,,,,,
1367,,recognition_phase,1110170,Millstone,,51,,,,,,new,1,0.782608695652174,,,,,,,,,,
null,,confidence_buffer,1110271,confidence_buffer,,null,,,,,,,,,,,,,,,,,,
null,,thebreak,1110772,break,,null,,,,,,,,,,,,,,,,,,
3421.900000035763,,realistic_rating,1114194,East Ladera,,50,East Ladera,Fictional,2,,,,,,,,,,,,,,,
null,,confidence_buffer,1114296,confidence_buffer,,null,,,,,,,,,,,,,,,,,,
1202.300000011921,,pt2_unique_rating,1115499,East Ladera,,51,,,3,,,,,,,,,,,,,,,
null,,confidence_buffer,1115606,confidence_buffer,,null,,,,,,,,,,,,,,,,,,
943.6999999880791,,pt2_memorable_rating,1116550,East Ladera,,52,,,4,,,,,,,,,,,,,,,
null,,confidence_buffer,1116651,confidence_buffer,,null,,,,,,,,,,,,,,,,,,
1045.9000000357628,,recognition_phase,1117698,East Ladera,,51,,,,,,new,1,0.7916666666666666,,,,,,,,,,
null,,confidence_buffer,1117800,confidence_buffer,,null,,,,,,,,,,,,,,,,,,
null,,thebreak,1118300,break,,null,,,,,,,,,,,,,,,,,,
3313.699999988079,,realistic_rating,1121615,Golden Trace,,51,Golden Trace,Fictional,3,,,,,,,,,,,,,,,
null,,confidence_buffer,1121717,confidence_buffer,,null,,,,,,,,,,,,,,,,,,
1572.9000000357628,,pt2_unique_rating,1123290,Golden Trace,,52,,,4,,,,,,,,,,,,,,,
null,,confidence_buffer,1123392,confidence_buffer,,null,,,,,,,,,,,,,,,,,,
2805.099999964237,,pt2_memorable_rating,1126197,Golden Trace,,52,,,4,,,,,,,,,,,,,,,
null,,confidence_buffer,1126298,confidence_buffer,,null,,,,,,,,,,,,,,,,,,
2530.899999976158,,recognition_phase,1128830,Golden Trace,,49,,,,,,old,0,0.76,,,,,,,,,,
null,,confidence_buffer,1128931,confidence_buffer,,null,,,,,,,,,,,,,,,,,,
null,,thebreak,1129432,break,,null,,,,,,,,,,,,,,,,,,
3290.300000011921,,realistic_rating,1132723,Leesburg,,50,Leesburg,US,2,,,,,,,,,,,,,,,
null,,confidence_buffer,1132824,confidence_buffer,,null,,,,,,,,,,,,,,,,,,
1006.8000000119209,,pt2_unique_rating,1133832,Leesburg,,51,,,3,,,,,,,,,,,,,,,
null,,confidence_buffer,1133934,confidence_buffer,,null,,,,,,,,,,,,,,,,,,
1157.699999988079,,pt2_memorable_rating,1135092,Leesburg,,51,,,3,,,,,,,,,,,,,,,
null,,confidence_buffer,1135194,confidence_buffer,,null,,,,,,,,,,,,,,,,,,
4571.800000011921,,recognition_phase,1139766,Leesburg,,49,,,,,,old,1,0.7692307692307693,,,,,,,,,,
null,,confidence_buffer,1139868,confidence_buffer,,null,,,,,,,,,,,,,,,,,,
null,,thebreak,1140369,break,,null,,,,,,,,,,,,,,,,,,
2052,,realistic_rating,1142422,Riverlyn,,51,Riverlyn,Fictional,3,,,,,,,,,,,,,,,
null,,confidence_buffer,1142526,confidence_buffer,,null,,,,,,,,,,,,,,,,,,
1273.5,,pt2_unique_rating,1143800,Riverlyn,,50,,,2,,,,,,,,,,,,,,,
null,,confidence_buffer,1143901,confidence_buffer,,null,,,,,,,,,,,,,,,,,,
1252.2999999523163,,pt2_memorable_rating,1145154,Riverlyn,,51,,,3,,,,,,,,,,,,,,,
null,,confidence_buffer,1145255,confidence_buffer,,null,,,,,,,,,,,,,,,,,,
3698.5,,recognition_phase,1148954,Riverlyn,,50,,,,,,old,1,0.7777777777777778,,,,,,,,,,
null,,confidence_buffer,1149056,confidence_buffer,,null,,,,,,,,,,,,,,,,,,
null,,thebreak,1149558,break,,null,,,,,,,,,,,,,,,,,,
2444.399999976158,,realistic_rating,1152003,Bayshore Haven,,51,Bayshore Haven,Fictional,3,,,,,,,,,,,,,,,
null,,confidence_buffer,1152105,confidence_buffer,,null,,,,,,,,,,,,,,,,,,
1159.1000000238419,,pt2_unique_rating,1153265,Bayshore Haven,,52,,,4,,,,,,,,,,,,,,,
null,,confidence_buffer,1153365,confidence_buffer,,null,,,,,,,,,,,,,,,,,,
1149.0999999642372,,pt2_memorable_rating,1154515,Bayshore Haven,,52,,,4,,,,,,,,,,,,,,,
null,,confidence_buffer,1154616,confidence_buffer,,null,,,,,,,,,,,,,,,,,,
3634.199999988079,,recognition_phase,1158251,Bayshore Haven,,50,,,,,,old,1,0.7857142857142857,,,,,,,,,,
null,,confidence_buffer,1158352,confidence_buffer,,null,,,,,,,,,,,,,,,,,,
null,,thebreak,1158854,break,,null,,,,,,,,,,,,,,,,,,
5509.199999988079,,realistic_rating,1164364,Cleveland,,51,Cleveland,US,3,,,,,,,,,,,,,,,
null,,confidence_buffer,1164465,confidence_buffer,,null,,,,,,,,,,,,,,,,,,
1851.8999999761581,,pt2_unique_rating,1166318,Cleveland,,52,,,4,,,,,,,,,,,,,,,
null,,confidence_buffer,1166419,confidence_buffer,,null,,,,,,,,,,,,,,,,,,
1004.5,,pt2_memorable_rating,1167424,Cleveland,,52,,,4,,,,,,,,,,,,,,,
null,,confidence_buffer,1167525,confidence_buffer,,null,,,,,,,,,,,,,,,,,,
6859.699999988079,,probe_rating,1174386,probe_rating,,49,,,,1,1,,,,,,,,,,,,,
null,,confidence_buffer,1174487,confidence_buffer,,null,,,,,,,,,,,,,,,,,,
1743.0999999642372,,recognition_phase,1176231,Cleveland,,49,,,,,,old,0,0.7586206896551724,,,,,,,,,,
null,,confidence_buffer,1176333,confidence_buffer,,null,,,,,,,,,,,,,,,,,,
null,,thebreak,1176834,break,,null,,,,,,,,,,,,,,,,,,
4841.399999976158,,realistic_rating,1181676,Cornwall,,49,Cornwall,US,1,,,,,,,,,,,,,,,
null,,confidence_buffer,1181778,confidence_buffer,,null,,,,,,,,,,,,,,,,,,
2270.899999976158,,pt2_unique_rating,1184050,Cornwall,,53,,,5,,,,,,,,,,,,,,,
null,,confidence_buffer,1184151,confidence_buffer,,null,,,,,,,,,,,,,,,,,,
696.7999999523163,,pt2_memorable_rating,1184848,Cornwall,,52,,,4,,,,,,,,,,,,,,,
null,,confidence_buffer,1184950,confidence_buffer,,null,,,,,,,,,,,,,,,,,,
2540.800000011921,,recognition_phase,1187491,Cornwall,,52,,,,,,new,1,0.7666666666666667,,,,,,,,,,
null,,confidence_buffer,1187593,confidence_buffer,,null,,,,,,,,,,,,,,,,,,
null,,thebreak,1188095,break,,null,,,,,,,,,,,,,,,,,,
1982.6000000238419,,realistic_rating,1190078,Silverpine,,51,Silverpine,Fictional,3,,,,,,,,,,,,,,,
null,,confidence_buffer,1190179,confidence_buffer,,null,,,,,,,,,,,,,,,,,,
1214.5,,pt2_unique_rating,1191394,Silverpine,,50,,,2,,,,,,,,,,,,,,,
null,,confidence_buffer,1191496,confidence_buffer,,null,,,,,,,,,,,,,,,,,,
666.3999999761581,,pt2_memorable_rating,1192163,Silverpine,,51,,,3,,,,,,,,,,,,,,,
null,,confidence_buffer,1192264,confidence_buffer,,null,,,,,,,,,,,,,,,,,,
2482.599999964237,,recognition_phase,1194748,Silverpine,,49,,,,,,old,1,0.7741935483870968,,,,,,,,,,
null,,confidence_buffer,1194850,confidence_buffer,,null,,,,,,,,,,,,,,,,,,
null,,thebreak,1195351,break,,null,,,,,,,,,,,,,,,,,,
4921.899999976158,,realistic_rating,1200273,Albuquerque,,49,Albuquerque,US,1,,,,,,,,,,,,,,,
null,,confidence_buffer,1200374,confidence_buffer,,null,,,,,,,,,,,,,,,,,,
8547.600000023842,,probe_rating,1208923,probe_rating,,52,,,,4,1,,,,,,,,,,,,,
null,,confidence_buffer,1209024,confidence_buffer,,null,,,,,,,,,,,,,,,,,,
2757.2000000476837,,pt2_unique_rating,1211782,Albuquerque,,52,,,4,,,,,,,,,,,,,,,
null,,confidence_buffer,1211884,confidence_buffer,,null,,,,,,,,,,,,,,,,,,
737.3999999761581,,pt2_memorable_rating,1212623,Albuquerque,,51,,,3,,,,,,,,,,,,,,,
null,,confidence_buffer,1212724,confidence_buffer,,null,,,,,,,,,,,,,,,,,,
4677.399999976158,,recognition_phase,1217403,Albuquerque,,52,,,,,,new,1,0.78125,,,,,,,,,,
null,,confidence_buffer,1217504,confidence_buffer,,null,,,,,,,,,,,,,,,,,,
null,,thebreak,1218006,break,,null,,,,,,,,,,,,,,,,,,
2787.099999964237,,realistic_rating,1220793,Bar Harbor,,51,Bar Harbor,US,3,,,,,,,,,,,,,,,
null,,confidence_buffer,1220895,confidence_buffer,,null,,,,,,,,,,,,,,,,,,
4352.400000035763,,pt2_unique_rating,1225248,Bar Harbor,,52,,,4,,,,,,,,,,,,,,,
null,,confidence_buffer,1225355,confidence_buffer,,null,,,,,,,,,,,,,,,,,,
788.6999999880791,,pt2_memorable_rating,1226144,Bar Harbor,,52,,,4,,,,,,,,,,,,,,,
null,,confidence_buffer,1226258,confidence_buffer,,null,,,,,,,,,,,,,,,,,,
1703.9000000357628,,recognition_phase,1227962,Bar Harbor,,49,,,,,,old,1,0.7878787878787878,,,,,,,,,,
null,,confidence_buffer,1228064,confidence_buffer,,null,,,,,,,,,,,,,,,,,,
null,,thebreak,1228566,break,,null,,,,,,,,,,,,,,,,,,
3654.300000011921,,realistic_rating,1232221,Gardnerville,,52,Gardnerville,US,4,,,,,,,,,,,,,,,
null,,confidence_buffer,1232322,confidence_buffer,,null,,,,,,,,,,,,,,,,,,
1145,,pt2_unique_rating,1233468,Gardnerville,,51,,,3,,,,,,,,,,,,,,,
null,,confidence_buffer,1233569,confidence_buffer,,null,,,,,,,,,,,,,,,,,,
965.1000000238419,,pt2_memorable_rating,1234535,Gardnerville,,52,,,4,,,,,,,,,,,,,,,
null,,confidence_buffer,1234637,confidence_buffer,,null,,,,,,,,,,,,,,,,,,
1498.300000011921,,recognition_phase,1236136,Gardnerville,,49,,,,,,old,1,0.7941176470588235,,,,,,,,,,
null,,confidence_buffer,1236238,confidence_buffer,,null,,,,,,,,,,,,,,,,,,
null,,thebreak,1236739,break,,null,,,,,,,,,,,,,,,,,,
2512.199999988079,,realistic_rating,1239252,Hawthorne Bluffs,,50,Hawthorne Bluffs,Fictional,2,,,,,,,,,,,,,,,
null,,confidence_buffer,1239353,confidence_buffer,,null,,,,,,,,,,,,,,,,,,
1465.199999988079,,pt2_unique_rating,1240819,Hawthorne Bluffs,,52,,,4,,,,,,,,,,,,,,,
null,,confidence_buffer,1240921,confidence_buffer,,null,,,,,,,,,,,,,,,,,,
1157.3999999761581,,pt2_memorable_rating,1242079,Hawthorne Bluffs,,52,,,4,,,,,,,,,,,,,,,
null,,confidence_buffer,1242180,confidence_buffer,,null,,,,,,,,,,,,,,,,,,
2069.900000035763,,recognition_phase,1244251,Hawthorne Bluffs,,52,,,,,,new,0,0.7714285714285715,,,,,,,,,,
null,,confidence_buffer,1244352,confidence_buffer,,null,,,,,,,,,,,,,,,,,,
null,,thebreak,1244854,break,,null,,,,,,,,,,,,,,,,,,
3866,,realistic_rating,1248720,Bowling Green,,52,Bowling Green,US,4,,,,,,,,,,,,,,,
null,,confidence_buffer,1248822,confidence_buffer,,null,,,,,,,,,,,,,,,,,,
1271.2000000476837,,pt2_unique_rating,1250094,Bowling Green,,52,,,4,,,,,,,,,,,,,,,
null,,confidence_buffer,1250195,confidence_buffer,,null,,,,,,,,,,,,,,,,,,
945,,pt2_memorable_rating,1251141,Bowling Green,,52,,,4,,,,,,,,,,,,,,,
null,,confidence_buffer,1251243,confidence_buffer,,null,,,,,,,,,,,,,,,,,,
2888.100000023842,,recognition_phase,1254132,Bowling Green,,49,,,,,,old,1,0.7777777777777778,,,,,,,,,,
null,,confidence_buffer,1254233,confidence_buffer,,null,,,,,,,,,,,,,,,,,,
null,,thebreak,1254734,break,,null,,,,,,,,,,,,,,,,,,
3361.400000035763,,realistic_rating,1258096,Oakridge,,50,Oakridge,Fictional,2,,,,,,,,,,,,,,,
null,,confidence_buffer,1258197,confidence_buffer,,null,,,,,,,,,,,,,,,,,,
2138.5,,pt2_unique_rating,1260336,Oakridge,,53,,,5,,,,,,,,,,,,,,,
null,,confidence_buffer,1260438,confidence_buffer,,null,,,,,,,,,,,,,,,,,,
1148.6000000238419,,pt2_memorable_rating,1261587,Oakridge,,52,,,4,,,,,,,,,,,,,,,
null,,confidence_buffer,1261689,confidence_buffer,,null,,,,,,,,,,,,,,,,,,
2830.300000011921,,recognition_phase,1264520,Oakridge,,52,,,,,,new,1,0.7837837837837838,,,,,,,,,,
null,,confidence_buffer,1264621,confidence_buffer,,null,,,,,,,,,,,,,,,,,,
null,,thebreak,1265123,break,,null,,,,,,,,,,,,,,,,,,
3137.699999988079,,realistic_rating,1268261,Delaro Park,,52,Delaro Park,Fictional,4,,,,,,,,,,,,,,,
null,,confidence_buffer,1268363,confidence_buffer,,null,,,,,,,,,,,,,,,,,,
1295,,pt2_unique_rating,1269658,Delaro Park,,52,,,4,,,,,,,,,,,,,,,
null,,confidence_buffer,1269760,confidence_buffer,,null,,,,,,,,,,,,,,,,,,
844.8999999761581,,pt2_memorable_rating,1270606,Delaro Park,,51,,,3,,,,,,,,,,,,,,,
null,,confidence_buffer,1270707,confidence_buffer,,null,,,,,,,,,,,,,,,,,,
1718,,recognition_phase,1272426,Delaro Park,,50,,,,,,old,1,0.7894736842105263,,,,,,,,,,
null,,confidence_buffer,1272527,confidence_buffer,,null,,,,,,,,,,,,,,,,,,
null,,thebreak,1273029,break,,null,,,,,,,,,,,,,,,,,,
3063.199999988079,,realistic_rating,1276093,Clearbrook,,51,Clearbrook,Fictional,3,,,,,,,,,,,,,,,
null,,confidence_buffer,1276194,confidence_buffer,,null,,,,,,,,,,,,,,,,,,
1084.3999999761581,,pt2_unique_rating,1277279,Clearbrook,,52,,,4,,,,,,,,,,,,,,,
null,,confidence_buffer,1277381,confidence_buffer,,null,,,,,,,,,,,,,,,,,,
3418.199999988079,,pt2_memorable_rating,1280800,Clearbrook,,52,,,4,,,,,,,,,,,,,,,
null,,confidence_buffer,1280901,confidence_buffer,,null,,,,,,,,,,,,,,,,,,
67.29999995231628,,recognition_phase,1280970,Clearbrook,,52,,,,,,new,0,0.7692307692307693,,,,,,,,,,
null,,confidence_buffer,1281071,confidence_buffer,,null,,,,,,,,,,,,,,,,,,
null,,thebreak,1281573,break,,null,,,,,,,,,,,,,,,,,,
9832.899999976158,,realistic_rating,1291406,Elmsbury,,51,Elmsbury,Fictional,3,,,,,,,,,,,,,,,
null,,confidence_buffer,1291508,confidence_buffer,,null,,,,,,,,,,,,,,,,,,
1208.800000011921,,pt2_unique_rating,1292718,Elmsbury,,52,,,4,,,,,,,,,,,,,,,
null,,confidence_buffer,1292819,confidence_buffer,,null,,,,,,,,,,,,,,,,,,
1682.6000000238419,,pt2_memorable_rating,1294503,Elmsbury,,50,,,2,,,,,,,,,,,,,,,
null,,confidence_buffer,1294604,confidence_buffer,,null,,,,,,,,,,,,,,,,,,
3223.800000011921,,recognition_phase,1297829,Elmsbury,,50,,,,,,old,1,0.775,,,,,,,,,,
null,,confidence_buffer,1297930,confidence_buffer,,null,,,,,,,,,,,,,,,,,,
null,,thebreak,1298432,break,,null,,,,,,,,,,,,,,,,,,
2439.800000011921,,realistic_rating,1300873,Hilo,,52,Hilo,US,4,,,,,,,,,,,,,,,
null,,confidence_buffer,1300974,confidence_buffer,,null,,,,,,,,,,,,,,,,,,
1268.5999999642372,,pt2_unique_rating,1302243,Hilo,,51,,,3,,,,,,,,,,,,,,,
null,,confidence_buffer,1302346,confidence_buffer,,null,,,,,,,,,,,,,,,,,,
1116.699999988079,,pt2_memorable_rating,1303463,Hilo,,52,,,4,,,,,,,,,,,,,,,
null,,confidence_buffer,1303564,confidence_buffer,,null,,,,,,,,,,,,,,,,,,
1860.199999988079,,recognition_phase,1305425,Hilo,,49,,,,,,old,1,0.7804878048780488,,,,,,,,,,
null,,confidence_buffer,1305527,confidence_buffer,,null,,,,,,,,,,,,,,,,,,
null,,thebreak,1306028,break,,null,,,,,,,,,,,,,,,,,,
3966.800000011921,,realistic_rating,1309996,Lakehaven,,51,Lakehaven,Fictional,3,,,,,,,,,,,,,,,
null,,confidence_buffer,1310097,confidence_buffer,,null,,,,,,,,,,,,,,,,,,
994,,pt2_unique_rating,1311092,Lakehaven,,51,,,3,,,,,,,,,,,,,,,
null,,confidence_buffer,1311193,confidence_buffer,,null,,,,,,,,,,,,,,,,,,
1175.5,,pt2_memorable_rating,1312369,Lakehaven,,52,,,4,,,,,,,,,,,,,,,
null,,confidence_buffer,1312471,confidence_buffer,,null,,,,,,,,,,,,,,,,,,
8072,,probe_rating,1320543,probe_rating,,53,,,,5,1,,,,,,,,,,,,,
null,,confidence_buffer,1320645,confidence_buffer,,null,,,,,,,,,,,,,,,,,,
2781.7999999523163,,recognition_phase,1323428,Lakehaven,,49,,,,,,old,0,0.7619047619047619,,,,,,,,,,
null,,confidence_buffer,1323529,confidence_buffer,,null,,,,,,,,,,,,,,,,,,
null,,thebreak,1324030,break,,null,,,,,,,,,,,,,,,,,,
1525.199999988079,,realistic_rating,1325556,Gatlinburg,,50,Gatlinburg,US,2,,,,,,,,,,,,,,,
null,,confidence_buffer,1325658,confidence_buffer,,null,,,,,,,,,,,,,,,,,,
1622.699999988079,,pt2_unique_rating,1327281,Gatlinburg,,51,,,3,,,,,,,,,,,,,,,
null,,confidence_buffer,1327383,confidence_buffer,,null,,,,,,,,,,,,,,,,,,
1175,,pt2_memorable_rating,1328558,Gatlinburg,,52,,,4,,,,,,,,,,,,,,,
null,,confidence_buffer,1328660,confidence_buffer,,null,,,,,,,,,,,,,,,,,,
2629,,recognition_phase,1331290,Gatlinburg,,52,,,,,,new,0,0.7441860465116279,,,,,,,,,,
null,,confidence_buffer,1331391,confidence_buffer,,null,,,,,,,,,,,,,,,,,,
null,,thebreak,1331893,break,,null,,,,,,,,,,,,,,,,,,
2824.199999988079,,realistic_rating,1334718,Medora,,51,Medora,US,3,,,,,,,,,,,,,,,
null,,confidence_buffer,1334820,confidence_buffer,,null,,,,,,,,,,,,,,,,,,
1257.5,,pt2_unique_rating,1336078,Medora,,52,,,4,,,,,,,,,,,,,,,
null,,confidence_buffer,1336179,confidence_buffer,,null,,,,,,,,,,,,,,,,,,
979.8000000119209,,pt2_memorable_rating,1337160,Medora,,52,,,4,,,,,,,,,,,,,,,
null,,confidence_buffer,1337261,confidence_buffer,,null,,,,,,,,,,,,,,,,,,
2061.600000023842,,recognition_phase,1339324,Medora,,51,,,,,,new,1,0.75,,,,,,,,,,
null,,confidence_buffer,1339425,confidence_buffer,,null,,,,,,,,,,,,,,,,,,
null,,thebreak,1339926,break,,null,,,,,,,,,,,,,,,,,,
5788.399999976158,,realistic_rating,1345715,Crestwood,,51,Crestwood,Fictional,3,,,,,,,,,,,,,,,
null,,confidence_buffer,1345817,confidence_buffer,,null,,,,,,,,,,,,,,,,,,
1067.0999999642372,,pt2_unique_rating,1346885,Crestwood,,52,,,4,,,,,,,,,,,,,,,
null,,confidence_buffer,1346987,confidence_buffer,,null,,,,,,,,,,,,,,,,,,
7660.900000035763,,probe_rating,1354648,probe_rating,,53,,,,5,1,,,,,,,,,,,,,
null,,confidence_buffer,1354750,confidence_buffer,,null,,,,,,,,,,,,,,,,,,
4342.399999976158,,pt2_memorable_rating,1359093,Crestwood,,51,,,3,,,,,,,,,,,,,,,
null,,confidence_buffer,1359194,confidence_buffer,,null,,,,,,,,,,,,,,,,,,
2924.699999988079,,recognition_phase,1362120,Crestwood,,51,,,,,,new,1,0.7555555555555555,,,,,,,,,,
null,,confidence_buffer,1362220,confidence_buffer,,null,,,,,,,,,,,,,,,,,,
null,,thebreak,1362722,break,,null,,,,,,,,,,,,,,,,,,
3763.599999964237,,realistic_rating,1366486,Maravilla Springs,,50,Maravilla Springs,Fictional,2,,,,,,,,,,,,,,,
null,,confidence_buffer,1366603,confidence_buffer,,null,,,,,,,,,,,,,,,,,,
9348.800000011921,,probe_rating,1375952,probe_rating,,51,,,,3,1,,,,,,,,,,,,,
null,,confidence_buffer,1376054,confidence_buffer,,null,,,,,,,,,,,,,,,,,,
1492.199999988079,,pt2_unique_rating,1377546,Maravilla Springs,,52,,,4,,,,,,,,,,,,,,,
null,,confidence_buffer,1377648,confidence_buffer,,null,,,,,,,,,,,,,,,,,,
1225,,pt2_memorable_rating,1378873,Maravilla Springs,,52,,,4,,,,,,,,,,,,,,,
null,,confidence_buffer,1378975,confidence_buffer,,null,,,,,,,,,,,,,,,,,,
3943.199999988079,,recognition_phase,1382919,Maravilla Springs,,51,,,,,,new,0,0.7391304347826086,,,,,,,,,,
null,,confidence_buffer,1383020,confidence_buffer,,null,,,,,,,,,,,,,,,,,,
null,,thebreak,1383520,break,,null,,,,,,,,,,,,,,,,,,
3066.900000035763,,realistic_rating,1386588,Custer,,50,Custer,US,2,,,,,,,,,,,,,,,
null,,confidence_buffer,1386690,confidence_buffer,,null,,,,,,,,,,,,,,,,,,
931.0999999642372,,pt2_unique_rating,1387621,Custer,,51,,,3,,,,,,,,,,,,,,,
null,,confidence_buffer,1387723,confidence_buffer,,null,,,,,,,,,,,,,,,,,,
986,,pt2_memorable_rating,1388710,Custer,,52,,,4,,,,,,,,,,,,,,,
null,,confidence_buffer,1388811,confidence_buffer,,null,,,,,,,,,,,,,,,,,,
3814.199999988079,,recognition_phase,1392626,Custer,,51,,,,,,new,1,0.7446808510638298,,,,,,,,,,
null,,confidence_buffer,1392728,confidence_buffer,,null,,,,,,,,,,,,,,,,,,
null,,thebreak,1393230,break,,null,,,,,,,,,,,,,,,,,,
5432.199999988079,,realistic_rating,1398663,Sisters,,49,Sisters,US,1,,,,,,,,,,,,,,,
null,,confidence_buffer,1398764,confidence_buffer,,null,,,,,,,,,,,,,,,,,,
3527.199999988079,,pt2_unique_rating,1402292,Sisters,,53,,,5,,,,,,,,,,,,,,,
null,,confidence_buffer,1402393,confidence_buffer,,null,,,,,,,,,,,,,,,,,,
3503.2999999523163,,pt2_memorable_rating,1405897,Sisters,,53,,,5,,,,,,,,,,,,,,,
null,,confidence_buffer,1405998,confidence_buffer,,null,,,,,,,,,,,,,,,,,,
4168.199999988079,,recognition_phase,1410167,Sisters,,52,,,,,,new,1,0.75,,,,,,,,,,
null,,confidence_buffer,1410268,confidence_buffer,,null,,,,,,,,,,,,,,,,,,
null,,thebreak,1410769,break,,null,,,,,,,,,,,,,,,,,,
2436.099999964237,,realistic_rating,1413206,Solara Glen,,50,Solara Glen,Fictional,2,,,,,,,,,,,,,,,
null,,confidence_buffer,1413307,confidence_buffer,,null,,,,,,,,,,,,,,,,,,
1412.699999988079,,pt2_unique_rating,1414721,Solara Glen,,51,,,3,,,,,,,,,,,,,,,
null,,confidence_buffer,1414822,confidence_buffer,,null,,,,,,,,,,,,,,,,,,
922.2000000476837,,pt2_memorable_rating,1415745,Solara Glen,,52,,,4,,,,,,,,,,,,,,,
null,,confidence_buffer,1415850,confidence_buffer,,null,,,,,,,,,,,,,,,,,,
2492.5,,recognition_phase,1418344,Solara Glen,,52,,,,,,new,1,0.7551020408163265,,,,,,,,,,
null,,confidence_buffer,1418444,confidence_buffer,,null,,,,,,,,,,,,,,,,,,
null,,thebreak,1418947,break,,null,,,,,,,,,,,,,,,,,,
3101.600000023842,,realistic_rating,1422049,Orchard Bend,,50,Orchard Bend,Fictional,2,,,,,,,,,,,,,,,
null,,confidence_buffer,1422150,confidence_buffer,,null,,,,,,,,,,,,,,,,,,
1055.3999999761581,,pt2_unique_rating,1423207,Orchard Bend,,51,,,3,,,,,,,,,,,,,,,
null,,confidence_buffer,1423308,confidence_buffer,,null,,,,,,,,,,,,,,,,,,
1351.199999988079,,pt2_memorable_rating,1424660,Orchard Bend,,52,,,4,,,,,,,,,,,,,,,
null,,confidence_buffer,1424766,confidence_buffer,,null,,,,,,,,,,,,,,,,,,
3498.699999988079,,recognition_phase,1428265,Orchard Bend,,51,,,,,,new,1,0.76,,,,,,,,,,
null,,confidence_buffer,1428366,confidence_buffer,,null,,,,,,,,,,,,,,,,,,
null,,thebreak,1428867,break,,null,,,,,,,,,,,,,,,,,,
2205.800000011921,,realistic_rating,1431074,Healdsburg,,51,Healdsburg,US,3,,,,,,,,,,,,,,,
null,,confidence_buffer,1431176,confidence_buffer,,null,,,,,,,,,,,,,,,,,,
1390.300000011921,,pt2_unique_rating,1432567,Healdsburg,,52,,,4,,,,,,,,,,,,,,,
null,,confidence_buffer,1432669,confidence_buffer,,null,,,,,,,,,,,,,,,,,,
977.4000000357628,,pt2_memorable_rating,1433647,Healdsburg,,51,,,3,,,,,,,,,,,,,,,
null,,confidence_buffer,1433748,confidence_buffer,,null,,,,,,,,,,,,,,,,,,
2328.300000011921,,recognition_phase,1436077,Healdsburg,,50,,,,,,old,1,0.7647058823529411,,,,,,,,,,
null,,confidence_buffer,1436179,confidence_buffer,,null,,,,,,,,,,,,,,,,,,
null,,thebreak,1436680,break,,null,,,,,,,,,,,,,,,,,,
2396,,realistic_rating,1439076,Cedarwyn,,50,Cedarwyn,Fictional,2,,,,,,,,,,,,,,,
null,,confidence_buffer,1439178,confidence_buffer,,null,,,,,,,,,,,,,,,,,,
2407.899999976158,,pt2_unique_rating,1441587,Cedarwyn,,53,,,5,,,,,,,,,,,,,,,
null,,confidence_buffer,1441688,confidence_buffer,,null,,,,,,,,,,,,,,,,,,
1225.300000011921,,pt2_memorable_rating,1442914,Cedarwyn,,52,,,4,,,,,,,,,,,,,,,
null,,confidence_buffer,1443015,confidence_buffer,,null,,,,,,,,,,,,,,,,,,
2521,,recognition_phase,1445536,Cedarwyn,,52,,,,,,new,1,0.7692307692307693,,,,,,,,,,
null,,confidence_buffer,1445637,confidence_buffer,,null,,,,,,,,,,,,,,,,,,
null,,thebreak,1446138,break,,null,,,,,,,,,,,,,,,,,,
5944.5,,realistic_rating,1452084,Watkins Glen,,51,Watkins Glen,US,3,,,,,,,,,,,,,,,
null,,confidence_buffer,1452185,confidence_buffer,,null,,,,,,,,,,,,,,,,,,
2252.800000011921,,pt2_unique_rating,1454439,Watkins Glen,,51,,,3,,,,,,,,,,,,,,,
null,,confidence_buffer,1454540,confidence_buffer,,null,,,,,,,,,,,,,,,,,,
1307.6000000238419,,pt2_memorable_rating,1455849,Watkins Glen,,52,,,4,,,,,,,,,,,,,,,
null,,confidence_buffer,1455950,confidence_buffer,,null,,,,,,,,,,,,,,,,,,
2176.800000011921,,recognition_phase,1458128,Watkins Glen,,50,,,,,,old,1,0.7735849056603774,,,,,,,,,,
null,,confidence_buffer,1458229,confidence_buffer,,null,,,,,,,,,,,,,,,,,,
null,,thebreak,1458731,break,,null,,,,,,,,,,,,,,,,,,
5705.900000035763,,realistic_rating,1464438,Summershade,,50,Summershade,Fictional,2,,,,,,,,,,,,,,,
null,,confidence_buffer,1464539,confidence_buffer,,null,,,,,,,,,,,,,,,,,,
2278.300000011921,,pt2_unique_rating,1466818,Summershade,,51,,,3,,,,,,,,,,,,,,,
null,,confidence_buffer,1466933,confidence_buffer,,null,,,,,,,,,,,,,,,,,,
1218.800000011921,,pt2_memorable_rating,1468152,Summershade,,51,,,3,,,,,,,,,,,,,,,
null,,confidence_buffer,1468253,confidence_buffer,,null,,,,,,,,,,,,,,,,,,
2535,,recognition_phase,1470789,Summershade,,52,,,,,,new,1,0.7777777777777778,,,,,,,,,,
null,,confidence_buffer,1470891,confidence_buffer,,null,,,,,,,,,,,,,,,,,,
null,,thebreak,1471393,break,,null,,,,,,,,,,,,,,,,,,
2377.400000035763,,realistic_rating,1473771,Racine,,50,Racine,US,2,,,,,,,,,,,,,,,
null,,confidence_buffer,1473872,confidence_buffer,,null,,,,,,,,,,,,,,,,,,
1465.300000011921,,pt2_unique_rating,1475338,Racine,,51,,,3,,,,,,,,,,,,,,,
null,,confidence_buffer,1475439,confidence_buffer,,null,,,,,,,,,,,,,,,,,,
1859.7999999523163,,pt2_memorable_rating,1477299,Racine,,52,,,4,,,,,,,,,,,,,,,
null,,confidence_buffer,1477400,confidence_buffer,,null,,,,,,,,,,,,,,,,,,
2048.199999988079,,recognition_phase,1479449,Racine,,52,,,,,,new,1,0.7818181818181819,,,,,,,,,,
null,,confidence_buffer,1479551,confidence_buffer,,null,,,,,,,,,,,,,,,,,,
null,,thebreak,1480053,break,,null,,,,,,,,,,,,,,,,,,
2903.300000011921,,realistic_rating,1482957,Abilene,,52,Abilene,US,4,,,,,,,,,,,,,,,
null,,confidence_buffer,1483059,confidence_buffer,,null,,,,,,,,,,,,,,,,,,
3798.599999964237,,pt2_unique_rating,1486858,Abilene,,52,,,4,,,,,,,,,,,,,,,
null,,confidence_buffer,1486960,confidence_buffer,,null,,,,,,,,,,,,,,,,,,
3361.199999988079,,pt2_memorable_rating,1490322,Abilene,,51,,,3,,,,,,,,,,,,,,,
null,,confidence_buffer,1490423,confidence_buffer,,null,,,,,,,,,,,,,,,,,,
2398.2000000476837,,recognition_phase,1492822,Abilene,,49,,,,,,old,1,0.7857142857142857,,,,,,,,,,
null,,confidence_buffer,1492923,confidence_buffer,,null,,,,,,,,,,,,,,,,,,
null,,thebreak,1493425,break,,null,,,,,,,,,,,,,,,,,,
5096.899999976158,,realistic_rating,1498523,Coeur d'Alene,,50,Coeur d'Alene,US,2,,,,,,,,,,,,,,,
null,,confidence_buffer,1498624,confidence_buffer,,null,,,,,,,,,,,,,,,,,,
2856.100000023842,,pt2_unique_rating,1501481,Coeur d'Alene,,51,,,3,,,,,,,,,,,,,,,
null,,confidence_buffer,1501582,confidence_buffer,,null,,,,,,,,,,,,,,,,,,
1467.7000000476837,,pt2_memorable_rating,1503051,Coeur d'Alene,,52,,,4,,,,,,,,,,,,,,,
null,,confidence_buffer,1503152,confidence_buffer,,null,,,,,,,,,,,,,,,,,,
5711.100000023842,,recognition_phase,1508864,Coeur d'Alene,,50,,,,,,old,0,0.7719298245614035,,,,,,,,,,
null,,confidence_buffer,1508966,confidence_buffer,,null,,,,,,,,,,,,,,,,,,
null,,thebreak,1509467,break,,null,,,,,,,,,,,,,,,,,,
3924.699999988079,,realistic_rating,1513393,Hot Springs,,50,Hot Springs,US,2,,,,,,,,,,,,,,,
null,,confidence_buffer,1513494,confidence_buffer,,null,,,,,,,,,,,,,,,,,,
2904,,pt2_unique_rating,1516399,Hot Springs,,51,,,3,,,,,,,,,,,,,,,
null,,confidence_buffer,1516499,confidence_buffer,,null,,,,,,,,,,,,,,,,,,
1154.3999999761581,,pt2_memorable_rating,1517654,Hot Springs,,52,,,4,,,,,,,,,,,,,,,
null,,confidence_buffer,1517763,confidence_buffer,,null,,,,,,,,,,,,,,,,,,
7572.900000035763,,probe_rating,1525337,probe_rating,,51,,,,3,1,,,,,,,,,,,,,
null,,confidence_buffer,1525438,confidence_buffer,,null,,,,,,,,,,,,,,,,,,
3669.2999999523163,,recognition_phase,1529109,Hot Springs,,51,,,,,,new,1,0.7758620689655172,,,,,,,,,,
null,,confidence_buffer,1529210,confidence_buffer,,null,,,,,,,,,,,,,,,,,,
null,,thebreak,1529711,break,,null,,,,,,,,,,,,,,,,,,
9547.5,,realistic_rating,1539260,North Arroya,,51,North Arroya,Fictional,3,,,,,,,,,,,,,,,
null,,confidence_buffer,1539361,confidence_buffer,,null,,,,,,,,,,,,,,,,,,
6546.600000023842,,probe_rating,1545908,probe_rating,,51,,,,3,1,,,,,,,,,,,,,
null,,confidence_buffer,1546010,confidence_buffer,,null,,,,,,,,,,,,,,,,,,
1751.5999999642372,,pt2_unique_rating,1547762,North Arroya,,51,,,3,,,,,,,,,,,,,,,
null,,confidence_buffer,1547864,confidence_buffer,,null,,,,,,,,,,,,,,,,,,
1316.5,,pt2_memorable_rating,1549181,North Arroya,,51,,,3,,,,,,,,,,,,,,,
null,,confidence_buffer,1549282,confidence_buffer,,null,,,,,,,,,,,,,,,,,,
4709.699999988079,,recognition_phase,1553993,North Arroya,,51,,,,,,new,1,0.7796610169491526,,,,,,,,,,
null,,confidence_buffer,1554094,confidence_buffer,,null,,,,,,,,,,,,,,,,,,
null,,thebreak,1554596,break,,null,,,,,,,,,,,,,,,,,,
3139.899999976158,,realistic_rating,1557736,Bisbee,,50,Bisbee,US,2,,,,,,,,,,,,,,,
null,,confidence_buffer,1557837,confidence_buffer,,null,,,,,,,,,,,,,,,,,,
2281.300000011921,,pt2_unique_rating,1560119,Bisbee,,53,,,5,,,,,,,,,,,,,,,
null,,confidence_buffer,1560220,confidence_buffer,,null,,,,,,,,,,,,,,,,,,
9047.5,,probe_rating,1569268,probe_rating,,53,,,,5,1,,,,,,,,,,,,,
null,,confidence_buffer,1569369,confidence_buffer,,null,,,,,,,,,,,,,,,,,,
3927.5,,pt2_memorable_rating,1573298,Bisbee,,52,,,4,,,,,,,,,,,,,,,
null,,confidence_buffer,1573399,confidence_buffer,,null,,,,,,,,,,,,,,,,,,
3115.100000023842,,recognition_phase,1576515,Bisbee,,52,,,,,,new,1,0.7833333333333333,,,,,,,,,,
null,,confidence_buffer,1576616,confidence_buffer,,null,,,,,,,,,,,,,,,,,,
null,,thebreak,1577118,break,,null,,,,,,,,,,,,,,,,,,
,,survey,1899110,survey-questions,,,,,,,,,,,none,high,No I only concentrated on the experiment.,I should mention them whiles completing the task so it helped me remember most of the cities.,Familiarity was if I had heard or seen the city before.,Memorable was if it was maybe names after individuals or some nature,How the names sounds,If the cities exist at all.,No, this is my first time participating in this study.,No difficulties.
