rt,responses,trial_type,time_elapsed,stimulus,button_pressed,key_press,name_trial,city_type,rating,probe,probe_accuracy,response,correct,accuracy,problems,smooth,distraction,strategies,familiar,memorable,unique,realistic,similar,comments
7779.19999999553,{worker_id:67e533d335012b61a7f37e8a},id_enter,7781,,,,,,,,,,,,,,,,,,,,,
1206.1999999955297,,fullscreen,8991,fullscreen,0,,,,,,,,,,,,,,,,,,,
1319.2000000029802,,intro_0,10312,instruct,,32,,,,,,,,,,,,,,,,,,
6772.9000000059605,,intro_1,17086,instruct,,32,,,,,,,,,,,,,,,,,,
5118.80000000447,,intro_2,22205,instruct,,32,,,,,,,,,,,,,,,,,,
null,,instruct_dir_4,23708,instruct,,null,,,,,,,,,,,,,,,,,,
null,,thebreak,24211,break,,null,,,,,,,,,,,,,,,,,,
3572.2999999970198,,familiar_rating,27786,Bowling Green,,50,Bowling Green,US,2,,,,,,,,,,,,,,,
null,,confidence_buffer,27890,confidence_buffer,,null,,,,,,,,,,,,,,,,,,
3344.1999999955297,,unique_rating,31235,Bowling Green,,51,,,3,,,,,,,,,,,,,,,
null,,confidence_buffer,31338,confidence_buffer,,null,,,,,,,,,,,,,,,,,,
6091,,memorable_rating,37430,Bowling Green,,49,,,1,,,,,,,,,,,,,,,
null,,confidence_buffer,37534,confidence_buffer,,null,,,,,,,,,,,,,,,,,,
null,,thebreak,38036,break,,null,,,,,,,,,,,,,,,,,,
2197.8000000044703,,familiar_rating,40236,North Arroya,,49,North Arroya,Fictional,1,,,,,,,,,,,,,,,
null,,confidence_buffer,40339,confidence_buffer,,null,,,,,,,,,,,,,,,,,,
3136.39999999851,,probe_rating,43477,probe_rating,,52,,,,4,1,,,,,,,,,,,,,
null,,confidence_buffer,43580,confidence_buffer,,null,,,,,,,,,,,,,,,,,,
1753.6999999955297,,unique_rating,45336,North Arroya,,49,,,1,,,,,,,,,,,,,,,
null,,confidence_buffer,45439,confidence_buffer,,null,,,,,,,,,,,,,,,,,,
1185.1000000014901,,memorable_rating,46625,North Arroya,,49,,,1,,,,,,,,,,,,,,,
null,,confidence_buffer,46728,confidence_buffer,,null,,,,,,,,,,,,,,,,,,
null,,thebreak,47230,break,,null,,,,,,,,,,,,,,,,,,
1852.5,,familiar_rating,49085,Cleveland,,53,Cleveland,US,5,,,,,,,,,,,,,,,
null,,confidence_buffer,49187,confidence_buffer,,null,,,,,,,,,,,,,,,,,,
1052.5999999940395,,unique_rating,50241,Cleveland,,53,,,5,,,,,,,,,,,,,,,
null,,confidence_buffer,50344,confidence_buffer,,null,,,,,,,,,,,,,,,,,,
1124.8000000044703,,memorable_rating,51470,Cleveland,,53,,,5,,,,,,,,,,,,,,,
null,,confidence_buffer,51573,confidence_buffer,,null,,,,,,,,,,,,,,,,,,
1484.6000000014901,,probe_rating,53059,probe_rating,,49,,,,1,1,,,,,,,,,,,,,
null,,confidence_buffer,53161,confidence_buffer,,null,,,,,,,,,,,,,,,,,,
null,,thebreak,53663,break,,null,,,,,,,,,,,,,,,,,,
4089.7000000029802,,familiar_rating,57755,Delaro Park,,50,Delaro Park,Fictional,2,,,,,,,,,,,,,,,
null,,confidence_buffer,57858,confidence_buffer,,null,,,,,,,,,,,,,,,,,,
2716.5,,unique_rating,60575,Delaro Park,,51,,,3,,,,,,,,,,,,,,,
null,,confidence_buffer,60678,confidence_buffer,,null,,,,,,,,,,,,,,,,,,
1170.3999999985099,,memorable_rating,61850,Delaro Park,,51,,,3,,,,,,,,,,,,,,,
null,,confidence_buffer,61954,confidence_buffer,,null,,,,,,,,,,,,,,,,,,
null,,thebreak,62457,break,,null,,,,,,,,,,,,,,,,,,
1716.7999999970198,,familiar_rating,64175,Yukon,,49,Yukon,US,1,,,,,,,,,,,,,,,
null,,confidence_buffer,64279,confidence_buffer,,null,,,,,,,,,,,,,,,,,,
1799.6999999955297,,unique_rating,66080,Yukon,,49,,,1,,,,,,,,,,,,,,,
null,,confidence_buffer,66183,confidence_buffer,,null,,,,,,,,,,,,,,,,,,
1337.7999999970198,,memorable_rating,67523,Yukon,,50,,,2,,,,,,,,,,,,,,,
null,,confidence_buffer,67625,confidence_buffer,,null,,,,,,,,,,,,,,,,,,
null,,thebreak,68127,break,,null,,,,,,,,,,,,,,,,,,
3201.5,,familiar_rating,71330,Golden Trace,,49,Golden Trace,Fictional,1,,,,,,,,,,,,,,,
null,,confidence_buffer,71432,confidence_buffer,,null,,,,,,,,,,,,,,,,,,
946.6000000014901,,unique_rating,72380,Golden Trace,,50,,,2,,,,,,,,,,,,,,,
null,,confidence_buffer,72483,confidence_buffer,,null,,,,,,,,,,,,,,,,,,
855.8999999985099,,memorable_rating,73341,Golden Trace,,53,,,5,,,,,,,,,,,,,,,
null,,confidence_buffer,73444,confidence_buffer,,null,,,,,,,,,,,,,,,,,,
null,,thebreak,73947,break,,null,,,,,,,,,,,,,,,,,,
5196,,familiar_rating,79145,Gloucester,,53,Gloucester,US,5,,,,,,,,,,,,,,,
null,,confidence_buffer,79247,confidence_buffer,,null,,,,,,,,,,,,,,,,,,
2056.8000000044703,,unique_rating,81305,Gloucester,,51,,,3,,,,,,,,,,,,,,,
null,,confidence_buffer,81408,confidence_buffer,,null,,,,,,,,,,,,,,,,,,
2280.5,,probe_rating,83690,probe_rating,,51,,,,3,1,,,,,,,,,,,,,
null,,confidence_buffer,83793,confidence_buffer,,null,,,,,,,,,,,,,,,,,,
1216.5999999940395,,memorable_rating,85011,Gloucester,,53,,,5,,,,,,,,,,,,,,,
null,,confidence_buffer,85113,confidence_buffer,,null,,,,,,,,,,,,,,,,,,
null,,thebreak,85616,break,,null,,,,,,,,,,,,,,,,,,
2647.5,,familiar_rating,88265,Delaware City,,53,Delaware City,US,5,,,,,,,,,,,,,,,
null,,confidence_buffer,88368,confidence_buffer,,null,,,,,,,,,,,,,,,,,,
1545.5999999940395,,unique_rating,89915,Delaware City,,53,,,5,,,,,,,,,,,,,,,
null,,confidence_buffer,90018,confidence_buffer,,null,,,,,,,,,,,,,,,,,,
1111.1999999955297,,memorable_rating,91131,Delaware City,,53,,,5,,,,,,,,,,,,,,,
null,,confidence_buffer,91233,confidence_buffer,,null,,,,,,,,,,,,,,,,,,
null,,thebreak,91736,break,,null,,,,,,,,,,,,,,,,,,
2692.7999999970198,,familiar_rating,94430,Solara Glen,,50,Solara Glen,Fictional,2,,,,,,,,,,,,,,,
null,,confidence_buffer,94534,confidence_buffer,,null,,,,,,,,,,,,,,,,,,
1124.6000000014901,,unique_rating,95660,Solara Glen,,49,,,1,,,,,,,,,,,,,,,
null,,confidence_buffer,95763,confidence_buffer,,null,,,,,,,,,,,,,,,,,,
930.5,,memorable_rating,96695,Solara Glen,,51,,,3,,,,,,,,,,,,,,,
null,,confidence_buffer,96798,confidence_buffer,,null,,,,,,,,,,,,,,,,,,
null,,thebreak,97299,break,,null,,,,,,,,,,,,,,,,,,
2603.2999999970198,,familiar_rating,99904,Riverlyn,,49,Riverlyn,Fictional,1,,,,,,,,,,,,,,,
null,,confidence_buffer,100007,confidence_buffer,,null,,,,,,,,,,,,,,,,,,
1636.9000000059605,,unique_rating,101645,Riverlyn,,49,,,1,,,,,,,,,,,,,,,
null,,confidence_buffer,101747,confidence_buffer,,null,,,,,,,,,,,,,,,,,,
1276.6999999955297,,memorable_rating,103026,Riverlyn,,53,,,5,,,,,,,,,,,,,,,
null,,confidence_buffer,103128,confidence_buffer,,null,,,,,,,,,,,,,,,,,,
null,,thebreak,103631,break,,null,,,,,,,,,,,,,,,,,,
1163.3000000044703,,familiar_rating,104795,Claywater,,50,Claywater,Fictional,2,,,,,,,,,,,,,,,
null,,confidence_buffer,104899,confidence_buffer,,null,,,,,,,,,,,,,,,,,,
1695.2000000029802,,unique_rating,106595,Claywater,,52,,,4,,,,,,,,,,,,,,,
null,,confidence_buffer,106698,confidence_buffer,,null,,,,,,,,,,,,,,,,,,
2355.3000000044703,,memorable_rating,109055,Claywater,,51,,,3,,,,,,,,,,,,,,,
null,,confidence_buffer,109159,confidence_buffer,,null,,,,,,,,,,,,,,,,,,
null,,thebreak,109661,break,,null,,,,,,,,,,,,,,,,,,
1687.2000000029802,,familiar_rating,111350,Sitka,,49,Sitka,US,1,,,,,,,,,,,,,,,
null,,confidence_buffer,111453,confidence_buffer,,null,,,,,,,,,,,,,,,,,,
1319.7000000029802,,unique_rating,112775,Sitka,,53,,,5,,,,,,,,,,,,,,,
null,,confidence_buffer,112878,confidence_buffer,,null,,,,,,,,,,,,,,,,,,
1951.3999999985099,,memorable_rating,114831,Sitka,,53,,,5,,,,,,,,,,,,,,,
null,,confidence_buffer,114933,confidence_buffer,,null,,,,,,,,,,,,,,,,,,
null,,thebreak,115436,break,,null,,,,,,,,,,,,,,,,,,
2182.2999999970198,,familiar_rating,117620,Hot Springs,,50,Hot Springs,US,2,,,,,,,,,,,,,,,
null,,confidence_buffer,117724,confidence_buffer,,null,,,,,,,,,,,,,,,,,,
1770.6999999955297,,unique_rating,119496,Hot Springs,,51,,,3,,,,,,,,,,,,,,,
null,,confidence_buffer,119599,confidence_buffer,,null,,,,,,,,,,,,,,,,,,
1303.8999999985099,,memorable_rating,120905,Hot Springs,,52,,,4,,,,,,,,,,,,,,,
null,,confidence_buffer,121008,confidence_buffer,,null,,,,,,,,,,,,,,,,,,
null,,thebreak,121511,break,,null,,,,,,,,,,,,,,,,,,
1448.3999999985099,,familiar_rating,122961,Gatlinburg,,49,Gatlinburg,US,1,,,,,,,,,,,,,,,
null,,confidence_buffer,123062,confidence_buffer,,null,,,,,,,,,,,,,,,,,,
1351.3000000044703,,unique_rating,124415,Gatlinburg,,53,,,5,,,,,,,,,,,,,,,
null,,confidence_buffer,124519,confidence_buffer,,null,,,,,,,,,,,,,,,,,,
931.5,,memorable_rating,125452,Gatlinburg,,49,,,1,,,,,,,,,,,,,,,
null,,confidence_buffer,125554,confidence_buffer,,null,,,,,,,,,,,,,,,,,,
null,,thebreak,126057,break,,null,,,,,,,,,,,,,,,,,,
4491,,familiar_rating,130550,Huntsville,,50,Huntsville,US,2,,,,,,,,,,,,,,,
null,,confidence_buffer,130652,confidence_buffer,,null,,,,,,,,,,,,,,,,,,
2491.39999999851,,unique_rating,133145,Huntsville,,51,,,3,,,,,,,,,,,,,,,
null,,confidence_buffer,133249,confidence_buffer,,null,,,,,,,,,,,,,,,,,,
810.3000000044703,,memorable_rating,134060,Huntsville,,52,,,4,,,,,,,,,,,,,,,
null,,confidence_buffer,134162,confidence_buffer,,null,,,,,,,,,,,,,,,,,,
null,,thebreak,134665,break,,null,,,,,,,,,,,,,,,,,,
3639.10000000149,,familiar_rating,138306,Shreveport,,49,Shreveport,US,1,,,,,,,,,,,,,,,
null,,confidence_buffer,138408,confidence_buffer,,null,,,,,,,,,,,,,,,,,,
2085.9000000059605,,unique_rating,140496,Shreveport,,53,,,5,,,,,,,,,,,,,,,
null,,confidence_buffer,140599,confidence_buffer,,null,,,,,,,,,,,,,,,,,,
750.3999999985099,,memorable_rating,141351,Shreveport,,51,,,3,,,,,,,,,,,,,,,
null,,confidence_buffer,141453,confidence_buffer,,null,,,,,,,,,,,,,,,,,,
null,,thebreak,141955,break,,null,,,,,,,,,,,,,,,,,,
5017.89999999851,,familiar_rating,146975,Park City,,50,Park City,US,2,,,,,,,,,,,,,,,
null,,confidence_buffer,147078,confidence_buffer,,null,,,,,,,,,,,,,,,,,,
870.7000000029802,,unique_rating,147950,Park City,,51,,,3,,,,,,,,,,,,,,,
null,,confidence_buffer,148053,confidence_buffer,,null,,,,,,,,,,,,,,,,,,
1245.3999999985099,,memorable_rating,149300,Park City,,52,,,4,,,,,,,,,,,,,,,
null,,confidence_buffer,149403,confidence_buffer,,null,,,,,,,,,,,,,,,,,,
null,,thebreak,149905,break,,null,,,,,,,,,,,,,,,,,,
1387.7000000029802,,familiar_rating,151294,Willowford,,50,Willowford,Fictional,2,,,,,,,,,,,,,,,
null,,confidence_buffer,151397,confidence_buffer,,null,,,,,,,,,,,,,,,,,,
1816.1999999955297,,unique_rating,153215,Willowford,,52,,,4,,,,,,,,,,,,,,,
null,,confidence_buffer,153317,confidence_buffer,,null,,,,,,,,,,,,,,,,,,
1756.6999999955297,,memorable_rating,155075,Willowford,,49,,,1,,,,,,,,,,,,,,,
null,,confidence_buffer,155179,confidence_buffer,,null,,,,,,,,,,,,,,,,,,
null,,thebreak,155681,break,,null,,,,,,,,,,,,,,,,,,
2527.7000000029802,,familiar_rating,158211,Duck,,49,Duck,US,1,,,,,,,,,,,,,,,
null,,confidence_buffer,158314,confidence_buffer,,null,,,,,,,,,,,,,,,,,,
1230.2999999970198,,unique_rating,159546,Duck,,53,,,5,,,,,,,,,,,,,,,
null,,confidence_buffer,159648,confidence_buffer,,null,,,,,,,,,,,,,,,,,,
886.2999999970198,,memorable_rating,160536,Duck,,51,,,3,,,,,,,,,,,,,,,
null,,confidence_buffer,160638,confidence_buffer,,null,,,,,,,,,,,,,,,,,,
null,,thebreak,161141,break,,null,,,,,,,,,,,,,,,,,,
2092.60000000149,,familiar_rating,163235,Carmel,,49,Carmel,US,1,,,,,,,,,,,,,,,
null,,confidence_buffer,163338,confidence_buffer,,null,,,,,,,,,,,,,,,,,,
1472.5999999940395,,unique_rating,164812,Carmel,,50,,,2,,,,,,,,,,,,,,,
null,,confidence_buffer,164915,confidence_buffer,,null,,,,,,,,,,,,,,,,,,
1334.8000000044703,,probe_rating,166251,probe_rating,,49,,,,1,1,,,,,,,,,,,,,
null,,confidence_buffer,166355,confidence_buffer,,null,,,,,,,,,,,,,,,,,,
1229.3000000044703,,memorable_rating,167586,Carmel,,52,,,4,,,,,,,,,,,,,,,
null,,confidence_buffer,167689,confidence_buffer,,null,,,,,,,,,,,,,,,,,,
null,,thebreak,168191,break,,null,,,,,,,,,,,,,,,,,,
1477.8999999985099,,familiar_rating,169671,Hawthorne Bluffs,,49,Hawthorne Bluffs,Fictional,1,,,,,,,,,,,,,,,
null,,confidence_buffer,169774,confidence_buffer,,null,,,,,,,,,,,,,,,,,,
974.5999999940395,,unique_rating,170750,Hawthorne Bluffs,,53,,,5,,,,,,,,,,,,,,,
null,,confidence_buffer,170854,confidence_buffer,,null,,,,,,,,,,,,,,,,,,
4365.10000000149,,memorable_rating,175220,Hawthorne Bluffs,,50,,,2,,,,,,,,,,,,,,,
null,,confidence_buffer,175323,confidence_buffer,,null,,,,,,,,,,,,,,,,,,
null,,thebreak,175825,break,,null,,,,,,,,,,,,,,,,,,
1134.6000000014901,,familiar_rating,176961,Northbridge,,51,Northbridge,Fictional,3,,,,,,,,,,,,,,,
null,,confidence_buffer,177064,confidence_buffer,,null,,,,,,,,,,,,,,,,,,
1230.7000000029802,,unique_rating,178296,Northbridge,,53,,,5,,,,,,,,,,,,,,,
null,,confidence_buffer,178399,confidence_buffer,,null,,,,,,,,,,,,,,,,,,
1080.1999999955297,,memorable_rating,179481,Northbridge,,52,,,4,,,,,,,,,,,,,,,
null,,confidence_buffer,179584,confidence_buffer,,null,,,,,,,,,,,,,,,,,,
null,,thebreak,180087,break,,null,,,,,,,,,,,,,,,,,,
1431.6000000014901,,familiar_rating,181520,East Ladera,,49,East Ladera,Fictional,1,,,,,,,,,,,,,,,
null,,confidence_buffer,181623,confidence_buffer,,null,,,,,,,,,,,,,,,,,,
1036.1000000014901,,unique_rating,182660,East Ladera,,50,,,2,,,,,,,,,,,,,,,
null,,confidence_buffer,182763,confidence_buffer,,null,,,,,,,,,,,,,,,,,,
1186.2999999970198,,memorable_rating,183951,East Ladera,,49,,,1,,,,,,,,,,,,,,,
null,,confidence_buffer,184053,confidence_buffer,,null,,,,,,,,,,,,,,,,,,
null,,thebreak,184555,break,,null,,,,,,,,,,,,,,,,,,
1118.5,,familiar_rating,185675,Sisters,,53,Sisters,US,5,,,,,,,,,,,,,,,
null,,confidence_buffer,185779,confidence_buffer,,null,,,,,,,,,,,,,,,,,,
2715.5,,unique_rating,188496,Sisters,,53,,,5,,,,,,,,,,,,,,,
null,,confidence_buffer,188598,confidence_buffer,,null,,,,,,,,,,,,,,,,,,
916.7000000029802,,memorable_rating,189516,Sisters,,53,,,5,,,,,,,,,,,,,,,
null,,confidence_buffer,189619,confidence_buffer,,null,,,,,,,,,,,,,,,,,,
null,,thebreak,190122,break,,null,,,,,,,,,,,,,,,,,,
1013.2000000029802,,familiar_rating,191137,New Verdan,,50,New Verdan,Fictional,2,,,,,,,,,,,,,,,
null,,confidence_buffer,191240,confidence_buffer,,null,,,,,,,,,,,,,,,,,,
794.7000000029802,,unique_rating,192036,New Verdan,,53,,,5,,,,,,,,,,,,,,,
null,,confidence_buffer,192139,confidence_buffer,,null,,,,,,,,,,,,,,,,,,
2385.2999999970198,,probe_rating,194525,probe_rating,,51,,,,3,1,,,,,,,,,,,,,
null,,confidence_buffer,194629,confidence_buffer,,null,,,,,,,,,,,,,,,,,,
1080.0999999940395,,memorable_rating,195710,New Verdan,,52,,,4,,,,,,,,,,,,,,,
null,,confidence_buffer,195813,confidence_buffer,,null,,,,,,,,,,,,,,,,,,
null,,thebreak,196315,break,,null,,,,,,,,,,,,,,,,,,
759.1999999955297,,familiar_rating,197075,Sunmere,,49,Sunmere,Fictional,1,,,,,,,,,,,,,,,
null,,confidence_buffer,197179,confidence_buffer,,null,,,,,,,,,,,,,,,,,,
1079.8999999985099,,unique_rating,198260,Sunmere,,53,,,5,,,,,,,,,,,,,,,
null,,confidence_buffer,198363,confidence_buffer,,null,,,,,,,,,,,,,,,,,,
946.7999999970198,,memorable_rating,199311,Sunmere,,50,,,2,,,,,,,,,,,,,,,
null,,confidence_buffer,199413,confidence_buffer,,null,,,,,,,,,,,,,,,,,,
null,,thebreak,199916,break,,null,,,,,,,,,,,,,,,,,,
2619.60000000149,,familiar_rating,202537,Sierra Hollow,,49,Sierra Hollow,Fictional,1,,,,,,,,,,,,,,,
null,,confidence_buffer,202640,confidence_buffer,,null,,,,,,,,,,,,,,,,,,
661.7000000029802,,unique_rating,203303,Sierra Hollow,,53,,,5,,,,,,,,,,,,,,,
null,,confidence_buffer,203406,confidence_buffer,,null,,,,,,,,,,,,,,,,,,
793.7000000029802,,memorable_rating,204201,Sierra Hollow,,51,,,3,,,,,,,,,,,,,,,
null,,confidence_buffer,204304,confidence_buffer,,null,,,,,,,,,,,,,,,,,,
null,,thebreak,204806,break,,null,,,,,,,,,,,,,,,,,,
2588.9000000059605,,familiar_rating,207397,Cedarwyn,,49,Cedarwyn,Fictional,1,,,,,,,,,,,,,,,
null,,confidence_buffer,207500,confidence_buffer,,null,,,,,,,,,,,,,,,,,,
1184.3999999985099,,unique_rating,208686,Cedarwyn,,53,,,5,,,,,,,,,,,,,,,
null,,confidence_buffer,208789,confidence_buffer,,null,,,,,,,,,,,,,,,,,,
1125,,memorable_rating,209915,Cedarwyn,,50,,,2,,,,,,,,,,,,,,,
null,,confidence_buffer,210018,confidence_buffer,,null,,,,,,,,,,,,,,,,,,
3120.89999999851,,probe_rating,213141,probe_rating,,49,,,,1,1,,,,,,,,,,,,,
null,,confidence_buffer,213244,confidence_buffer,,null,,,,,,,,,,,,,,,,,,
null,,thebreak,213747,break,,null,,,,,,,,,,,,,,,,,,
1641.7999999970198,,familiar_rating,215391,Assateague Island,,49,Assateague Island,US,1,,,,,,,,,,,,,,,
null,,confidence_buffer,215493,confidence_buffer,,null,,,,,,,,,,,,,,,,,,
3150.89999999851,,probe_rating,218645,probe_rating,,52,,,,4,1,,,,,,,,,,,,,
null,,confidence_buffer,218748,confidence_buffer,,null,,,,,,,,,,,,,,,,,,
11266.10000000149,,unique_rating,230015,Assateague Island,,50,,,2,,,,,,,,,,,,,,,
null,,confidence_buffer,230118,confidence_buffer,,null,,,,,,,,,,,,,,,,,,
1036.2000000029802,,memorable_rating,231156,Assateague Island,,50,,,2,,,,,,,,,,,,,,,
null,,confidence_buffer,231259,confidence_buffer,,null,,,,,,,,,,,,,,,,,,
null,,thebreak,231762,break,,null,,,,,,,,,,,,,,,,,,
97,,familiar_rating,231860,Briarfield,,53,Briarfield,Fictional,5,,,,,,,,,,,,,,,
null,,confidence_buffer,231963,confidence_buffer,,null,,,,,,,,,,,,,,,,,,
1441.8999999985099,,unique_rating,233406,Briarfield,,50,,,2,,,,,,,,,,,,,,,
null,,confidence_buffer,233510,confidence_buffer,,null,,,,,,,,,,,,,,,,,,
1154.8000000044703,,memorable_rating,234666,Briarfield,,49,,,1,,,,,,,,,,,,,,,
null,,confidence_buffer,234767,confidence_buffer,,null,,,,,,,,,,,,,,,,,,
null,,thebreak,235270,break,,null,,,,,,,,,,,,,,,,,,
3984.60000000149,,intro_0,239256,instruct,,32,,,,,,,,,,,,,,,,,,
5399.19999999553,,intro_1,244656,instruct,,32,,,,,,,,,,,,,,,,,,
6461.5999999940395,,intro_2,251118,instruct,,32,,,,,,,,,,,,,,,,,,
null,,instruct_dir_4,252620,instruct,,null,,,,,,,,,,,,,,,,,,
3074.2999999970198,,realistic_rating,255696,Hot Springs,,49,Hot Springs,US,1,,,,,,,,,,,,,,,
null,,confidence_buffer,255799,confidence_buffer,,null,,,,,,,,,,,,,,,,,,
1754.8000000044703,,pt2_unique_rating,257556,Hot Springs,,53,,,5,,,,,,,,,,,,,,,
null,,confidence_buffer,257659,confidence_buffer,,null,,,,,,,,,,,,,,,,,,
1200.1000000014901,,pt2_memorable_rating,258860,Hot Springs,,53,,,5,,,,,,,,,,,,,,,
null,,confidence_buffer,258962,confidence_buffer,,null,,,,,,,,,,,,,,,,,,
3917,,recognition_phase,262881,Hot Springs,,50,,,,,,old,1,1,,,,,,,,,,
null,,confidence_buffer,262984,confidence_buffer,,null,,,,,,,,,,,,,,,,,,
null,,thebreak,263487,break,,null,,,,,,,,,,,,,,,,,,
2572.60000000149,,realistic_rating,266061,Westridge,,51,Westridge,Fictional,3,,,,,,,,,,,,,,,
null,,confidence_buffer,266164,confidence_buffer,,null,,,,,,,,,,,,,,,,,,
5175.60000000149,,pt2_unique_rating,271341,Westridge,,52,,,4,,,,,,,,,,,,,,,
null,,confidence_buffer,271444,confidence_buffer,,null,,,,,,,,,,,,,,,,,,
2415.5999999940395,,probe_rating,273861,probe_rating,,53,,,,5,1,,,,,,,,,,,,,
null,,confidence_buffer,273964,confidence_buffer,,null,,,,,,,,,,,,,,,,,,
1530.2000000029802,,pt2_memorable_rating,275496,Westridge,,50,,,2,,,,,,,,,,,,,,,
null,,confidence_buffer,275597,confidence_buffer,,null,,,,,,,,,,,,,,,,,,
5386.70000000298,,recognition_phase,280986,Westridge,,51,,,,,,new,1,1,,,,,,,,,,
null,,confidence_buffer,281089,confidence_buffer,,null,,,,,,,,,,,,,,,,,,
null,,thebreak,281591,break,,null,,,,,,,,,,,,,,,,,,
1958.2000000029802,,realistic_rating,283551,Cornwall,,53,Cornwall,US,5,,,,,,,,,,,,,,,
null,,confidence_buffer,283654,confidence_buffer,,null,,,,,,,,,,,,,,,,,,
929.3000000044703,,pt2_unique_rating,284585,Cornwall,,50,,,2,,,,,,,,,,,,,,,
null,,confidence_buffer,284688,confidence_buffer,,null,,,,,,,,,,,,,,,,,,
886.3999999985099,,pt2_memorable_rating,285576,Cornwall,,52,,,4,,,,,,,,,,,,,,,
null,,confidence_buffer,285679,confidence_buffer,,null,,,,,,,,,,,,,,,,,,
2175.10000000149,,recognition_phase,287856,Cornwall,,52,,,,,,new,1,1,,,,,,,,,,
null,,confidence_buffer,287959,confidence_buffer,,null,,,,,,,,,,,,,,,,,,
null,,thebreak,288461,break,,null,,,,,,,,,,,,,,,,,,
1494.1000000014901,,realistic_rating,289956,Cody,,49,Cody,US,1,,,,,,,,,,,,,,,
null,,confidence_buffer,290060,confidence_buffer,,null,,,,,,,,,,,,,,,,,,
960.3000000044703,,pt2_unique_rating,291021,Cody,,50,,,2,,,,,,,,,,,,,,,
null,,confidence_buffer,291124,confidence_buffer,,null,,,,,,,,,,,,,,,,,,
1470.3999999985099,,pt2_memorable_rating,292596,Cody,,52,,,4,,,,,,,,,,,,,,,
null,,confidence_buffer,292699,confidence_buffer,,null,,,,,,,,,,,,,,,,,,
1711.1000000014901,,recognition_phase,294411,Cody,,52,,,,,,new,1,1,,,,,,,,,,
null,,confidence_buffer,294514,confidence_buffer,,null,,,,,,,,,,,,,,,,,,
null,,thebreak,295017,break,,null,,,,,,,,,,,,,,,,,,
2151.89999999851,,realistic_rating,297171,Natchez,,50,Natchez,US,2,,,,,,,,,,,,,,,
null,,confidence_buffer,297273,confidence_buffer,,null,,,,,,,,,,,,,,,,,,
1651.2999999970198,,pt2_unique_rating,298926,Natchez,,52,,,4,,,,,,,,,,,,,,,
null,,confidence_buffer,299030,confidence_buffer,,null,,,,,,,,,,,,,,,,,,
900.3999999985099,,pt2_memorable_rating,299931,Natchez,,50,,,2,,,,,,,,,,,,,,,
null,,confidence_buffer,300034,confidence_buffer,,null,,,,,,,,,,,,,,,,,,
1785.9000000059605,,recognition_phase,301821,Natchez,,52,,,,,,new,1,1,,,,,,,,,,
null,,confidence_buffer,301924,confidence_buffer,,null,,,,,,,,,,,,,,,,,,
null,,thebreak,302426,break,,null,,,,,,,,,,,,,,,,,,
1973.5999999940395,,realistic_rating,304402,Sunmere,,50,Sunmere,Fictional,2,,,,,,,,,,,,,,,
null,,confidence_buffer,304505,confidence_buffer,,null,,,,,,,,,,,,,,,,,,
989.5,,pt2_unique_rating,305496,Sunmere,,52,,,4,,,,,,,,,,,,,,,
null,,confidence_buffer,305599,confidence_buffer,,null,,,,,,,,,,,,,,,,,,
1095.5999999940395,,pt2_memorable_rating,306696,Sunmere,,50,,,2,,,,,,,,,,,,,,,
null,,confidence_buffer,306799,confidence_buffer,,null,,,,,,,,,,,,,,,,,,
1185.3999999985099,,recognition_phase,307986,Sunmere,,49,,,,,,old,1,1,,,,,,,,,,
null,,confidence_buffer,308089,confidence_buffer,,null,,,,,,,,,,,,,,,,,,
null,,thebreak,308592,break,,null,,,,,,,,,,,,,,,,,,
2092.7999999970198,,realistic_rating,310686,Bowling Green,,53,Bowling Green,US,5,,,,,,,,,,,,,,,
null,,confidence_buffer,310789,confidence_buffer,,null,,,,,,,,,,,,,,,,,,
1560.8000000044703,,pt2_unique_rating,312351,Bowling Green,,53,,,5,,,,,,,,,,,,,,,
null,,confidence_buffer,312454,confidence_buffer,,null,,,,,,,,,,,,,,,,,,
916,,pt2_memorable_rating,313371,Bowling Green,,50,,,2,,,,,,,,,,,,,,,
null,,confidence_buffer,313473,confidence_buffer,,null,,,,,,,,,,,,,,,,,,
1336.3000000044703,,recognition_phase,314811,Bowling Green,,49,,,,,,old,1,1,,,,,,,,,,
null,,confidence_buffer,314914,confidence_buffer,,null,,,,,,,,,,,,,,,,,,
null,,thebreak,315417,break,,null,,,,,,,,,,,,,,,,,,
1132.5999999940395,,realistic_rating,316551,Golden Trace,,51,Golden Trace,Fictional,3,,,,,,,,,,,,,,,
null,,confidence_buffer,316654,confidence_buffer,,null,,,,,,,,,,,,,,,,,,
1650,,pt2_unique_rating,318306,Golden Trace,,51,,,3,,,,,,,,,,,,,,,
null,,confidence_buffer,318409,confidence_buffer,,null,,,,,,,,,,,,,,,,,,
795,,pt2_memorable_rating,319205,Golden Trace,,52,,,4,,,,,,,,,,,,,,,
null,,confidence_buffer,319308,confidence_buffer,,null,,,,,,,,,,,,,,,,,,
1411.7999999970198,,recognition_phase,320721,Golden Trace,,49,,,,,,old,1,1,,,,,,,,,,
null,,confidence_buffer,320824,confidence_buffer,,null,,,,,,,,,,,,,,,,,,
null,,thebreak,321326,break,,null,,,,,,,,,,,,,,,,,,
1388.2000000029802,,realistic_rating,322716,Peoria,,50,Peoria,US,2,,,,,,,,,,,,,,,
null,,confidence_buffer,322819,confidence_buffer,,null,,,,,,,,,,,,,,,,,,
1995,,probe_rating,324816,probe_rating,,51,,,,3,1,,,,,,,,,,,,,
null,,confidence_buffer,324919,confidence_buffer,,null,,,,,,,,,,,,,,,,,,
1256.6000000014901,,pt2_unique_rating,326176,Peoria,,51,,,3,,,,,,,,,,,,,,,
null,,confidence_buffer,326278,confidence_buffer,,null,,,,,,,,,,,,,,,,,,
996.5,,pt2_memorable_rating,327276,Peoria,,53,,,5,,,,,,,,,,,,,,,
null,,confidence_buffer,327379,confidence_buffer,,null,,,,,,,,,,,,,,,,,,
4471,,recognition_phase,331852,Peoria,,52,,,,,,new,1,1,,,,,,,,,,
null,,confidence_buffer,331955,confidence_buffer,,null,,,,,,,,,,,,,,,,,,
null,,thebreak,332457,break,,null,,,,,,,,,,,,,,,,,,
3412.2000000029802,,realistic_rating,335871,Lake of the Ozarks,,50,Lake of the Ozarks,US,2,,,,,,,,,,,,,,,
null,,confidence_buffer,335974,confidence_buffer,,null,,,,,,,,,,,,,,,,,,
3525.5,,pt2_unique_rating,339501,Lake of the Ozarks,,52,,,4,,,,,,,,,,,,,,,
null,,confidence_buffer,339604,confidence_buffer,,null,,,,,,,,,,,,,,,,,,
721.8000000044703,,pt2_memorable_rating,340328,Lake of the Ozarks,,50,,,2,,,,,,,,,,,,,,,
null,,confidence_buffer,340430,confidence_buffer,,null,,,,,,,,,,,,,,,,,,
1425,,recognition_phase,341857,Lake of the Ozarks,,52,,,,,,new,1,1,,,,,,,,,,
null,,confidence_buffer,341960,confidence_buffer,,null,,,,,,,,,,,,,,,,,,
null,,thebreak,342462,break,,null,,,,,,,,,,,,,,,,,,
1042.0999999940395,,realistic_rating,343506,Custer,,50,Custer,US,2,,,,,,,,,,,,,,,
null,,confidence_buffer,343609,confidence_buffer,,null,,,,,,,,,,,,,,,,,,
841.1999999955297,,pt2_unique_rating,344451,Custer,,51,,,3,,,,,,,,,,,,,,,
null,,confidence_buffer,344555,confidence_buffer,,null,,,,,,,,,,,,,,,,,,
825.1000000014901,,pt2_memorable_rating,345381,Custer,,52,,,4,,,,,,,,,,,,,,,
null,,confidence_buffer,345485,confidence_buffer,,null,,,,,,,,,,,,,,,,,,
1589.7000000029802,,recognition_phase,347076,Custer,,52,,,,,,new,1,1,,,,,,,,,,
null,,confidence_buffer,347179,confidence_buffer,,null,,,,,,,,,,,,,,,,,,
null,,thebreak,347681,break,,null,,,,,,,,,,,,,,,,,,
1208.5999999940395,,realistic_rating,348892,Briarfield,,50,Briarfield,Fictional,2,,,,,,,,,,,,,,,
null,,confidence_buffer,348994,confidence_buffer,,null,,,,,,,,,,,,,,,,,,
854.8000000044703,,pt2_unique_rating,349851,Briarfield,,51,,,3,,,,,,,,,,,,,,,
null,,confidence_buffer,349954,confidence_buffer,,null,,,,,,,,,,,,,,,,,,
707,,pt2_memorable_rating,350663,Briarfield,,49,,,1,,,,,,,,,,,,,,,
null,,confidence_buffer,350765,confidence_buffer,,null,,,,,,,,,,,,,,,,,,
1214.6999999955297,,recognition_phase,351982,Briarfield,,52,,,,,,new,0,0.9166666666666666,,,,,,,,,,
null,,confidence_buffer,352084,confidence_buffer,,null,,,,,,,,,,,,,,,,,,
null,,thebreak,352586,break,,null,,,,,,,,,,,,,,,,,,
998.3999999985099,,realistic_rating,353586,Ironwood Heights,,50,Ironwood Heights,Fictional,2,,,,,,,,,,,,,,,
null,,confidence_buffer,353690,confidence_buffer,,null,,,,,,,,,,,,,,,,,,
735,,pt2_unique_rating,354426,Ironwood Heights,,51,,,3,,,,,,,,,,,,,,,
null,,confidence_buffer,354529,confidence_buffer,,null,,,,,,,,,,,,,,,,,,
871.7000000029802,,pt2_memorable_rating,355403,Ironwood Heights,,50,,,2,,,,,,,,,,,,,,,
null,,confidence_buffer,355506,confidence_buffer,,null,,,,,,,,,,,,,,,,,,
2893.3000000044703,,recognition_phase,358401,Ironwood Heights,,52,,,,,,new,1,0.9230769230769231,,,,,,,,,,
null,,confidence_buffer,358504,confidence_buffer,,null,,,,,,,,,,,,,,,,,,
null,,thebreak,359007,break,,null,,,,,,,,,,,,,,,,,,
802.7000000029802,,realistic_rating,359811,Delaware City,,51,Delaware City,US,3,,,,,,,,,,,,,,,
null,,confidence_buffer,359914,confidence_buffer,,null,,,,,,,,,,,,,,,,,,
660.7000000029802,,pt2_unique_rating,360576,Delaware City,,50,,,2,,,,,,,,,,,,,,,
null,,confidence_buffer,360679,confidence_buffer,,null,,,,,,,,,,,,,,,,,,
1680.6999999955297,,probe_rating,362362,probe_rating,,53,,,,5,1,,,,,,,,,,,,,
null,,confidence_buffer,362465,confidence_buffer,,null,,,,,,,,,,,,,,,,,,
1079.6000000014901,,pt2_memorable_rating,363546,Delaware City,,51,,,3,,,,,,,,,,,,,,,
null,,confidence_buffer,363650,confidence_buffer,,null,,,,,,,,,,,,,,,,,,
1185.7000000029802,,recognition_phase,364837,Delaware City,,49,,,,,,old,1,0.9285714285714286,,,,,,,,,,
null,,confidence_buffer,364939,confidence_buffer,,null,,,,,,,,,,,,,,,,,,
null,,thebreak,365442,break,,null,,,,,,,,,,,,,,,,,,
1162.8999999985099,,realistic_rating,366606,Fairhaven,,50,Fairhaven,Fictional,2,,,,,,,,,,,,,,,
null,,confidence_buffer,366709,confidence_buffer,,null,,,,,,,,,,,,,,,,,,
901.1000000014901,,pt2_unique_rating,367611,Fairhaven,,52,,,4,,,,,,,,,,,,,,,
null,,confidence_buffer,367713,confidence_buffer,,null,,,,,,,,,,,,,,,,,,
616.7999999970198,,pt2_memorable_rating,368332,Fairhaven,,51,,,3,,,,,,,,,,,,,,,
null,,confidence_buffer,368434,confidence_buffer,,null,,,,,,,,,,,,,,,,,,
2235.4000000059605,,recognition_phase,370671,Fairhaven,,50,,,,,,old,0,0.8666666666666667,,,,,,,,,,
null,,confidence_buffer,370775,confidence_buffer,,null,,,,,,,,,,,,,,,,,,
null,,thebreak,371277,break,,null,,,,,,,,,,,,,,,,,,
668,,realistic_rating,371947,Crestwood,,51,Crestwood,Fictional,3,,,,,,,,,,,,,,,
null,,confidence_buffer,372050,confidence_buffer,,null,,,,,,,,,,,,,,,,,,
675.2000000029802,,pt2_unique_rating,372727,Crestwood,,52,,,4,,,,,,,,,,,,,,,
null,,confidence_buffer,372829,confidence_buffer,,null,,,,,,,,,,,,,,,,,,
1052.2000000029802,,pt2_memorable_rating,373883,Crestwood,,49,,,1,,,,,,,,,,,,,,,
null,,confidence_buffer,373986,confidence_buffer,,null,,,,,,,,,,,,,,,,,,
1244,,probe_rating,375231,probe_rating,,49,,,,1,1,,,,,,,,,,,,,
null,,confidence_buffer,375335,confidence_buffer,,null,,,,,,,,,,,,,,,,,,
584.6999999955297,,recognition_phase,375921,Crestwood,,50,,,,,,old,0,0.8125,,,,,,,,,,
null,,confidence_buffer,376024,confidence_buffer,,null,,,,,,,,,,,,,,,,,,
null,,thebreak,376526,break,,null,,,,,,,,,,,,,,,,,,
1718,,realistic_rating,378246,Yukon,,53,Yukon,US,5,,,,,,,,,,,,,,,
null,,confidence_buffer,378349,confidence_buffer,,null,,,,,,,,,,,,,,,,,,
631.2000000029802,,pt2_unique_rating,378982,Yukon,,51,,,3,,,,,,,,,,,,,,,
null,,confidence_buffer,379084,confidence_buffer,,null,,,,,,,,,,,,,,,,,,
916.4000000059605,,pt2_memorable_rating,380002,Yukon,,52,,,4,,,,,,,,,,,,,,,
null,,confidence_buffer,380105,confidence_buffer,,null,,,,,,,,,,,,,,,,,,
1499.1000000014901,,recognition_phase,381606,Yukon,,49,,,,,,old,1,0.8235294117647058,,,,,,,,,,
null,,confidence_buffer,381708,confidence_buffer,,null,,,,,,,,,,,,,,,,,,
null,,thebreak,382211,break,,null,,,,,,,,,,,,,,,,,,
834.3999999985099,,realistic_rating,383046,New Hope,,50,New Hope,US,2,,,,,,,,,,,,,,,
null,,confidence_buffer,383150,confidence_buffer,,null,,,,,,,,,,,,,,,,,,
750,,pt2_unique_rating,383901,New Hope,,51,,,3,,,,,,,,,,,,,,,
null,,confidence_buffer,384004,confidence_buffer,,null,,,,,,,,,,,,,,,,,,
1066.0999999940395,,pt2_memorable_rating,385072,New Hope,,49,,,1,,,,,,,,,,,,,,,
null,,confidence_buffer,385174,confidence_buffer,,null,,,,,,,,,,,,,,,,,,
2370.39999999851,,recognition_phase,387546,New Hope,,52,,,,,,new,1,0.8333333333333334,,,,,,,,,,
null,,confidence_buffer,387649,confidence_buffer,,null,,,,,,,,,,,,,,,,,,
null,,thebreak,388152,break,,null,,,,,,,,,,,,,,,,,,
758.2000000029802,,realistic_rating,388911,Silverpine,,51,Silverpine,Fictional,3,,,,,,,,,,,,,,,
null,,confidence_buffer,389015,confidence_buffer,,null,,,,,,,,,,,,,,,,,,
1065.1000000014901,,pt2_unique_rating,390081,Silverpine,,50,,,2,,,,,,,,,,,,,,,
null,,confidence_buffer,390185,confidence_buffer,,null,,,,,,,,,,,,,,,,,,
1395.5,,probe_rating,391582,probe_rating,,53,,,,5,1,,,,,,,,,,,,,
null,,confidence_buffer,391686,confidence_buffer,,null,,,,,,,,,,,,,,,,,,
629.0999999940395,,pt2_memorable_rating,392316,Silverpine,,51,,,3,,,,,,,,,,,,,,,
null,,confidence_buffer,392419,confidence_buffer,,null,,,,,,,,,,,,,,,,,,
691.3000000044703,,recognition_phase,393112,Silverpine,,50,,,,,,old,0,0.7894736842105263,,,,,,,,,,
null,,confidence_buffer,393216,confidence_buffer,,null,,,,,,,,,,,,,,,,,,
null,,thebreak,393718,break,,null,,,,,,,,,,,,,,,,,,
1506.1000000014901,,realistic_rating,395226,Orchard Bend,,52,Orchard Bend,Fictional,4,,,,,,,,,,,,,,,
null,,confidence_buffer,395328,confidence_buffer,,null,,,,,,,,,,,,,,,,,,
646.3000000044703,,pt2_unique_rating,395976,Orchard Bend,,51,,,3,,,,,,,,,,,,,,,
null,,confidence_buffer,396078,confidence_buffer,,null,,,,,,,,,,,,,,,,,,
1321.7999999970198,,probe_rating,397402,probe_rating,,50,,,,2,1,,,,,,,,,,,,,
null,,confidence_buffer,397504,confidence_buffer,,null,,,,,,,,,,,,,,,,,,
692.0999999940395,,pt2_memorable_rating,398198,Orchard Bend,,51,,,3,,,,,,,,,,,,,,,
null,,confidence_buffer,398300,confidence_buffer,,null,,,,,,,,,,,,,,,,,,
630,,recognition_phase,398932,Orchard Bend,,52,,,,,,new,1,0.8,,,,,,,,,,
null,,confidence_buffer,399035,confidence_buffer,,null,,,,,,,,,,,,,,,,,,
null,,thebreak,399538,break,,null,,,,,,,,,,,,,,,,,,
1551.7999999970198,,realistic_rating,401091,Carmel,,49,Carmel,US,1,,,,,,,,,,,,,,,
null,,confidence_buffer,401195,confidence_buffer,,null,,,,,,,,,,,,,,,,,,
899.3999999985099,,pt2_unique_rating,402096,Carmel,,50,,,2,,,,,,,,,,,,,,,
null,,confidence_buffer,402199,confidence_buffer,,null,,,,,,,,,,,,,,,,,,
977.5,,pt2_memorable_rating,403178,Carmel,,53,,,5,,,,,,,,,,,,,,,
null,,confidence_buffer,403281,confidence_buffer,,null,,,,,,,,,,,,,,,,,,
3104,,recognition_phase,406386,Carmel,,51,,,,,,new,0,0.7619047619047619,,,,,,,,,,
null,,confidence_buffer,406489,confidence_buffer,,null,,,,,,,,,,,,,,,,,,
null,,thebreak,406992,break,,null,,,,,,,,,,,,,,,,,,
1148.1999999955297,,realistic_rating,408141,Willowford,,49,Willowford,Fictional,1,,,,,,,,,,,,,,,
null,,confidence_buffer,408245,confidence_buffer,,null,,,,,,,,,,,,,,,,,,
719.6000000014901,,pt2_unique_rating,408966,Willowford,,50,,,2,,,,,,,,,,,,,,,
null,,confidence_buffer,409069,confidence_buffer,,null,,,,,,,,,,,,,,,,,,
901.4000000059605,,pt2_memorable_rating,409972,Willowford,,52,,,4,,,,,,,,,,,,,,,
null,,confidence_buffer,410074,confidence_buffer,,null,,,,,,,,,,,,,,,,,,
2400.39999999851,,recognition_phase,412476,Willowford,,50,,,,,,old,1,0.7727272727272727,,,,,,,,,,
null,,confidence_buffer,412579,confidence_buffer,,null,,,,,,,,,,,,,,,,,,
null,,thebreak,413082,break,,null,,,,,,,,,,,,,,,,,,
1208.2999999970198,,realistic_rating,414292,Delaro Park,,51,Delaro Park,Fictional,3,,,,,,,,,,,,,,,
null,,confidence_buffer,414395,confidence_buffer,,null,,,,,,,,,,,,,,,,,,
706.7999999970198,,pt2_unique_rating,415103,Delaro Park,,53,,,5,,,,,,,,,,,,,,,
null,,confidence_buffer,415206,confidence_buffer,,null,,,,,,,,,,,,,,,,,,
659.2000000029802,,pt2_memorable_rating,415867,Delaro Park,,49,,,1,,,,,,,,,,,,,,,
null,,confidence_buffer,415970,confidence_buffer,,null,,,,,,,,,,,,,,,,,,
2205.60000000149,,recognition_phase,418177,Delaro Park,,52,,,,,,new,0,0.7391304347826086,,,,,,,,,,
null,,confidence_buffer,418280,confidence_buffer,,null,,,,,,,,,,,,,,,,,,
null,,thebreak,418783,break,,null,,,,,,,,,,,,,,,,,,
741.6000000014901,,realistic_rating,419526,Driftwood Bay,,51,Driftwood Bay,Fictional,3,,,,,,,,,,,,,,,
null,,confidence_buffer,419629,confidence_buffer,,null,,,,,,,,,,,,,,,,,,
932.1000000014901,,pt2_unique_rating,420563,Driftwood Bay,,50,,,2,,,,,,,,,,,,,,,
null,,confidence_buffer,420664,confidence_buffer,,null,,,,,,,,,,,,,,,,,,
782.3999999985099,,pt2_memorable_rating,421448,Driftwood Bay,,49,,,1,,,,,,,,,,,,,,,
null,,confidence_buffer,421551,confidence_buffer,,null,,,,,,,,,,,,,,,,,,
1184,,recognition_phase,422737,Driftwood Bay,,52,,,,,,new,1,0.75,,,,,,,,,,
null,,confidence_buffer,422840,confidence_buffer,,null,,,,,,,,,,,,,,,,,,
null,,thebreak,423342,break,,null,,,,,,,,,,,,,,,,,,
697.7999999970198,,realistic_rating,424042,Park City,,51,Park City,US,3,,,,,,,,,,,,,,,
null,,confidence_buffer,424144,confidence_buffer,,null,,,,,,,,,,,,,,,,,,
915.5,,pt2_unique_rating,425061,Park City,,50,,,2,,,,,,,,,,,,,,,
null,,confidence_buffer,425164,confidence_buffer,,null,,,,,,,,,,,,,,,,,,
1215.5,,pt2_memorable_rating,426381,Park City,,49,,,1,,,,,,,,,,,,,,,
null,,confidence_buffer,426484,confidence_buffer,,null,,,,,,,,,,,,,,,,,,
3225.60000000149,,recognition_phase,429711,Park City,,49,,,,,,old,1,0.76,,,,,,,,,,
null,,confidence_buffer,429814,confidence_buffer,,null,,,,,,,,,,,,,,,,,,
null,,thebreak,430317,break,,null,,,,,,,,,,,,,,,,,,
772.8999999985099,,realistic_rating,431091,Gloucester,,51,Gloucester,US,3,,,,,,,,,,,,,,,
null,,confidence_buffer,431194,confidence_buffer,,null,,,,,,,,,,,,,,,,,,
795.6999999955297,,pt2_unique_rating,431991,Gloucester,,52,,,4,,,,,,,,,,,,,,,
null,,confidence_buffer,432093,confidence_buffer,,null,,,,,,,,,,,,,,,,,,
646.2999999970198,,pt2_memorable_rating,432741,Gloucester,,51,,,3,,,,,,,,,,,,,,,
null,,confidence_buffer,432844,confidence_buffer,,null,,,,,,,,,,,,,,,,,,
1185.1999999955297,,recognition_phase,434031,Gloucester,,49,,,,,,old,1,0.7692307692307693,,,,,,,,,,
null,,confidence_buffer,434134,confidence_buffer,,null,,,,,,,,,,,,,,,,,,
null,,thebreak,434637,break,,null,,,,,,,,,,,,,,,,,,
1435.3999999985099,,realistic_rating,436074,Hilo,,53,Hilo,US,5,,,,,,,,,,,,,,,
null,,confidence_buffer,436177,confidence_buffer,,null,,,,,,,,,,,,,,,,,,
927.6999999955297,,pt2_unique_rating,437106,Hilo,,52,,,4,,,,,,,,,,,,,,,
null,,confidence_buffer,437209,confidence_buffer,,null,,,,,,,,,,,,,,,,,,
930.8999999985099,,pt2_memorable_rating,438142,Hilo,,50,,,2,,,,,,,,,,,,,,,
null,,confidence_buffer,438245,confidence_buffer,,null,,,,,,,,,,,,,,,,,,
1544.2999999970198,,recognition_phase,439791,Hilo,,51,,,,,,new,1,0.7777777777777778,,,,,,,,,,
null,,confidence_buffer,439894,confidence_buffer,,null,,,,,,,,,,,,,,,,,,
null,,thebreak,440396,break,,null,,,,,,,,,,,,,,,,,,
984,,realistic_rating,441382,Hollendale,,52,Hollendale,Fictional,4,,,,,,,,,,,,,,,
null,,confidence_buffer,441485,confidence_buffer,,null,,,,,,,,,,,,,,,,,,
855.1000000014901,,pt2_unique_rating,442341,Hollendale,,50,,,2,,,,,,,,,,,,,,,
null,,confidence_buffer,442444,confidence_buffer,,null,,,,,,,,,,,,,,,,,,
1171.2999999970198,,pt2_memorable_rating,443616,Hollendale,,51,,,3,,,,,,,,,,,,,,,
null,,confidence_buffer,443719,confidence_buffer,,null,,,,,,,,,,,,,,,,,,
1725.5,,recognition_phase,445446,Hollendale,,51,,,,,,new,1,0.7857142857142857,,,,,,,,,,
null,,confidence_buffer,445549,confidence_buffer,,null,,,,,,,,,,,,,,,,,,
null,,thebreak,446051,break,,null,,,,,,,,,,,,,,,,,,
685.6000000014901,,realistic_rating,446738,Bisbee,,52,Bisbee,US,4,,,,,,,,,,,,,,,
null,,confidence_buffer,446842,confidence_buffer,,null,,,,,,,,,,,,,,,,,,
764.4000000059605,,pt2_unique_rating,447607,Bisbee,,50,,,2,,,,,,,,,,,,,,,
null,,confidence_buffer,447710,confidence_buffer,,null,,,,,,,,,,,,,,,,,,
615.2000000029802,,pt2_memorable_rating,448327,Bisbee,,51,,,3,,,,,,,,,,,,,,,
null,,confidence_buffer,448429,confidence_buffer,,null,,,,,,,,,,,,,,,,,,
2611.2000000029802,,recognition_phase,451041,Bisbee,,52,,,,,,new,1,0.7931034482758621,,,,,,,,,,
null,,confidence_buffer,451145,confidence_buffer,,null,,,,,,,,,,,,,,,,,,
null,,thebreak,451647,break,,null,,,,,,,,,,,,,,,,,,
457.59999999403954,,realistic_rating,452106,North Arroya,,51,North Arroya,Fictional,3,,,,,,,,,,,,,,,
null,,confidence_buffer,452210,confidence_buffer,,null,,,,,,,,,,,,,,,,,,
1094.6999999955297,,pt2_unique_rating,453306,North Arroya,,50,,,2,,,,,,,,,,,,,,,
null,,confidence_buffer,453409,confidence_buffer,,null,,,,,,,,,,,,,,,,,,
2070.8000000044703,,pt2_memorable_rating,455482,North Arroya,,52,,,4,,,,,,,,,,,,,,,
null,,confidence_buffer,455585,confidence_buffer,,null,,,,,,,,,,,,,,,,,,
1334.8999999985099,,recognition_phase,456921,North Arroya,,49,,,,,,old,1,0.8,,,,,,,,,,
null,,confidence_buffer,457025,confidence_buffer,,null,,,,,,,,,,,,,,,,,,
null,,thebreak,457527,break,,null,,,,,,,,,,,,,,,,,,
1208.3999999985099,,realistic_rating,458737,Tamarisk Hills,,50,Tamarisk Hills,Fictional,2,,,,,,,,,,,,,,,
null,,confidence_buffer,458840,confidence_buffer,,null,,,,,,,,,,,,,,,,,,
5624.79999999702,,pt2_unique_rating,464466,Tamarisk Hills,,52,,,4,,,,,,,,,,,,,,,
null,,confidence_buffer,464568,confidence_buffer,,null,,,,,,,,,,,,,,,,,,
706.9000000059605,,pt2_memorable_rating,465277,Tamarisk Hills,,50,,,2,,,,,,,,,,,,,,,
null,,confidence_buffer,465380,confidence_buffer,,null,,,,,,,,,,,,,,,,,,
1619.8000000044703,,recognition_phase,467001,Tamarisk Hills,,52,,,,,,new,1,0.8064516129032258,,,,,,,,,,
null,,confidence_buffer,467104,confidence_buffer,,null,,,,,,,,,,,,,,,,,,
null,,thebreak,467606,break,,null,,,,,,,,,,,,,,,,,,
2213.9000000059605,,realistic_rating,469822,West Palm Beach,,49,West Palm Beach,US,1,,,,,,,,,,,,,,,
null,,confidence_buffer,469925,confidence_buffer,,null,,,,,,,,,,,,,,,,,,
3360.1999999955297,,pt2_unique_rating,473287,West Palm Beach,,51,,,3,,,,,,,,,,,,,,,
null,,confidence_buffer,473390,confidence_buffer,,null,,,,,,,,,,,,,,,,,,
1185.2999999970198,,pt2_memorable_rating,474577,West Palm Beach,,52,,,4,,,,,,,,,,,,,,,
null,,confidence_buffer,474680,confidence_buffer,,null,,,,,,,,,,,,,,,,,,
1425.7999999970198,,recognition_phase,476107,West Palm Beach,,52,,,,,,new,1,0.8125,,,,,,,,,,
null,,confidence_buffer,476210,confidence_buffer,,null,,,,,,,,,,,,,,,,,,
null,,thebreak,476713,break,,null,,,,,,,,,,,,,,,,,,
1058.2999999970198,,realistic_rating,477773,Brookmere,,50,Brookmere,Fictional,2,,,,,,,,,,,,,,,
null,,confidence_buffer,477875,confidence_buffer,,null,,,,,,,,,,,,,,,,,,
2234.2000000029802,,pt2_unique_rating,480111,Brookmere,,53,,,5,,,,,,,,,,,,,,,
null,,confidence_buffer,480214,confidence_buffer,,null,,,,,,,,,,,,,,,,,,
825.2000000029802,,pt2_memorable_rating,481041,Brookmere,,50,,,2,,,,,,,,,,,,,,,
null,,confidence_buffer,481145,confidence_buffer,,null,,,,,,,,,,,,,,,,,,
1454.7999999970198,,recognition_phase,482601,Brookmere,,52,,,,,,new,1,0.8181818181818182,,,,,,,,,,
null,,confidence_buffer,482704,confidence_buffer,,null,,,,,,,,,,,,,,,,,,
null,,thebreak,483206,break,,null,,,,,,,,,,,,,,,,,,
1283.5,,realistic_rating,484491,Shreveport,,50,Shreveport,US,2,,,,,,,,,,,,,,,
null,,confidence_buffer,484594,confidence_buffer,,null,,,,,,,,,,,,,,,,,,
586.3999999985099,,pt2_unique_rating,485182,Shreveport,,51,,,3,,,,,,,,,,,,,,,
null,,confidence_buffer,485285,confidence_buffer,,null,,,,,,,,,,,,,,,,,,
1394.7999999970198,,pt2_memorable_rating,486682,Shreveport,,52,,,4,,,,,,,,,,,,,,,
null,,confidence_buffer,486785,confidence_buffer,,null,,,,,,,,,,,,,,,,,,
1546,,recognition_phase,488332,Shreveport,,50,,,,,,old,1,0.8235294117647058,,,,,,,,,,
null,,confidence_buffer,488434,confidence_buffer,,null,,,,,,,,,,,,,,,,,,
null,,thebreak,488936,break,,null,,,,,,,,,,,,,,,,,,
1073.2999999970198,,realistic_rating,490011,Cedarwyn,,52,Cedarwyn,Fictional,4,,,,,,,,,,,,,,,
null,,confidence_buffer,490114,confidence_buffer,,null,,,,,,,,,,,,,,,,,,
450.80000000447035,,pt2_unique_rating,490566,Cedarwyn,,51,,,3,,,,,,,,,,,,,,,
null,,confidence_buffer,490669,confidence_buffer,,null,,,,,,,,,,,,,,,,,,
765.6000000014901,,pt2_memorable_rating,491436,Cedarwyn,,50,,,2,,,,,,,,,,,,,,,
null,,confidence_buffer,491539,confidence_buffer,,null,,,,,,,,,,,,,,,,,,
1200,,recognition_phase,492740,Cedarwyn,,50,,,,,,old,1,0.8285714285714286,,,,,,,,,,
null,,confidence_buffer,492842,confidence_buffer,,null,,,,,,,,,,,,,,,,,,
null,,thebreak,493344,break,,null,,,,,,,,,,,,,,,,,,
1464.5,,realistic_rating,494810,Duck,,53,Duck,US,5,,,,,,,,,,,,,,,
null,,confidence_buffer,494912,confidence_buffer,,null,,,,,,,,,,,,,,,,,,
1742.3999999985099,,probe_rating,496656,probe_rating,,52,,,,4,1,,,,,,,,,,,,,
null,,confidence_buffer,496760,confidence_buffer,,null,,,,,,,,,,,,,,,,,,
2265.3000000044703,,pt2_unique_rating,499027,Duck,,50,,,2,,,,,,,,,,,,,,,
null,,confidence_buffer,499129,confidence_buffer,,null,,,,,,,,,,,,,,,,,,
1142,,pt2_memorable_rating,500272,Duck,,52,,,4,,,,,,,,,,,,,,,
null,,confidence_buffer,500376,confidence_buffer,,null,,,,,,,,,,,,,,,,,,
794.7000000029802,,recognition_phase,501172,Duck,,49,,,,,,old,1,0.8333333333333334,,,,,,,,,,
null,,confidence_buffer,501275,confidence_buffer,,null,,,,,,,,,,,,,,,,,,
null,,thebreak,501778,break,,null,,,,,,,,,,,,,,,,,,
1011.7000000029802,,realistic_rating,502791,Redgrove,,51,Redgrove,Fictional,3,,,,,,,,,,,,,,,
null,,confidence_buffer,502894,confidence_buffer,,null,,,,,,,,,,,,,,,,,,
930.5999999940395,,pt2_unique_rating,503827,Redgrove,,52,,,4,,,,,,,,,,,,,,,
null,,confidence_buffer,503930,confidence_buffer,,null,,,,,,,,,,,,,,,,,,
1740,,pt2_memorable_rating,505671,Redgrove,,50,,,2,,,,,,,,,,,,,,,
null,,confidence_buffer,505775,confidence_buffer,,null,,,,,,,,,,,,,,,,,,
1545,,recognition_phase,507321,Redgrove,,52,,,,,,new,1,0.8378378378378378,,,,,,,,,,
null,,confidence_buffer,507424,confidence_buffer,,null,,,,,,,,,,,,,,,,,,
null,,thebreak,507927,break,,null,,,,,,,,,,,,,,,,,,
1104.3999999985099,,realistic_rating,509033,Hanover,,51,Hanover,US,3,,,,,,,,,,,,,,,
null,,confidence_buffer,509136,confidence_buffer,,null,,,,,,,,,,,,,,,,,,
1814.7999999970198,,probe_rating,510952,probe_rating,,51,,,,3,1,,,,,,,,,,,,,
null,,confidence_buffer,511055,confidence_buffer,,null,,,,,,,,,,,,,,,,,,
689.5,,pt2_unique_rating,511746,Hanover,,50,,,2,,,,,,,,,,,,,,,
null,,confidence_buffer,511850,confidence_buffer,,null,,,,,,,,,,,,,,,,,,
390.1000000014901,,pt2_memorable_rating,512242,Hanover,,49,,,1,,,,,,,,,,,,,,,
null,,confidence_buffer,512344,confidence_buffer,,null,,,,,,,,,,,,,,,,,,
975.3999999985099,,recognition_phase,513321,Hanover,,52,,,,,,new,1,0.8421052631578947,,,,,,,,,,
null,,confidence_buffer,513425,confidence_buffer,,null,,,,,,,,,,,,,,,,,,
null,,thebreak,513927,break,,null,,,,,,,,,,,,,,,,,,
1642.7000000029802,,realistic_rating,515571,Stonebrook,,50,Stonebrook,Fictional,2,,,,,,,,,,,,,,,
null,,confidence_buffer,515673,confidence_buffer,,null,,,,,,,,,,,,,,,,,,
736,,pt2_unique_rating,516411,Stonebrook,,49,,,1,,,,,,,,,,,,,,,
null,,confidence_buffer,516514,confidence_buffer,,null,,,,,,,,,,,,,,,,,,
811.7000000029802,,pt2_memorable_rating,517327,Stonebrook,,51,,,3,,,,,,,,,,,,,,,
null,,confidence_buffer,517430,confidence_buffer,,null,,,,,,,,,,,,,,,,,,
6959.89999999851,,probe_rating,524391,probe_rating,,49,,,,1,1,,,,,,,,,,,,,
null,,confidence_buffer,524494,confidence_buffer,,null,,,,,,,,,,,,,,,,,,
735.3999999985099,,recognition_phase,525231,Stonebrook,,51,,,,,,new,1,0.8461538461538461,,,,,,,,,,
null,,confidence_buffer,525335,confidence_buffer,,null,,,,,,,,,,,,,,,,,,
null,,thebreak,525838,break,,null,,,,,,,,,,,,,,,,,,
802.3000000044703,,realistic_rating,526642,Sierra Hollow,,52,Sierra Hollow,Fictional,4,,,,,,,,,,,,,,,
null,,confidence_buffer,526745,confidence_buffer,,null,,,,,,,,,,,,,,,,,,
1005.1000000014901,,pt2_unique_rating,527752,Sierra Hollow,,50,,,2,,,,,,,,,,,,,,,
null,,confidence_buffer,527855,confidence_buffer,,null,,,,,,,,,,,,,,,,,,
1200,,probe_rating,529057,probe_rating,,50,,,,2,1,,,,,,,,,,,,,
null,,confidence_buffer,529160,confidence_buffer,,null,,,,,,,,,,,,,,,,,,
675.3000000044703,,pt2_memorable_rating,529837,Sierra Hollow,,52,,,4,,,,,,,,,,,,,,,
null,,confidence_buffer,529939,confidence_buffer,,null,,,,,,,,,,,,,,,,,,
1650.5,,recognition_phase,531592,Sierra Hollow,,49,,,,,,old,1,0.85,,,,,,,,,,
null,,confidence_buffer,531694,confidence_buffer,,null,,,,,,,,,,,,,,,,,,
null,,thebreak,532196,break,,null,,,,,,,,,,,,,,,,,,
1329.3999999985099,,realistic_rating,533527,Manistee,,53,Manistee,US,5,,,,,,,,,,,,,,,
null,,confidence_buffer,533630,confidence_buffer,,null,,,,,,,,,,,,,,,,,,
990.6000000014901,,pt2_unique_rating,534622,Manistee,,50,,,2,,,,,,,,,,,,,,,
null,,confidence_buffer,534725,confidence_buffer,,null,,,,,,,,,,,,,,,,,,
523.9000000059605,,pt2_memorable_rating,535251,Manistee,,51,,,3,,,,,,,,,,,,,,,
null,,confidence_buffer,535353,confidence_buffer,,null,,,,,,,,,,,,,,,,,,
735.7999999970198,,recognition_phase,536091,Manistee,,49,,,,,,old,0,0.8292682926829268,,,,,,,,,,
null,,confidence_buffer,536194,confidence_buffer,,null,,,,,,,,,,,,,,,,,,
null,,thebreak,536696,break,,null,,,,,,,,,,,,,,,,,,
1028.6000000014901,,realistic_rating,537726,Coralridge,,52,Coralridge,Fictional,4,,,,,,,,,,,,,,,
null,,confidence_buffer,537828,confidence_buffer,,null,,,,,,,,,,,,,,,,,,
917.1000000014901,,pt2_unique_rating,538747,Coralridge,,50,,,2,,,,,,,,,,,,,,,
null,,confidence_buffer,538850,confidence_buffer,,null,,,,,,,,,,,,,,,,,,
569.7999999970198,,pt2_memorable_rating,539421,Coralridge,,52,,,4,,,,,,,,,,,,,,,
null,,confidence_buffer,539524,confidence_buffer,,null,,,,,,,,,,,,,,,,,,
1711.1999999955297,,recognition_phase,541237,Coralridge,,51,,,,,,new,1,0.8333333333333334,,,,,,,,,,
null,,confidence_buffer,541340,confidence_buffer,,null,,,,,,,,,,,,,,,,,,
null,,thebreak,541843,break,,null,,,,,,,,,,,,,,,,,,
2211.60000000149,,realistic_rating,544056,Sisters,,51,Sisters,US,3,,,,,,,,,,,,,,,
null,,confidence_buffer,544158,confidence_buffer,,null,,,,,,,,,,,,,,,,,,
467.29999999701977,,pt2_unique_rating,544627,Sisters,,52,,,4,,,,,,,,,,,,,,,
null,,confidence_buffer,544731,confidence_buffer,,null,,,,,,,,,,,,,,,,,,
809.3999999985099,,pt2_memorable_rating,545542,Sisters,,50,,,2,,,,,,,,,,,,,,,
null,,confidence_buffer,545645,confidence_buffer,,null,,,,,,,,,,,,,,,,,,
1635.6000000014901,,recognition_phase,547282,Sisters,,49,,,,,,old,1,0.8372093023255814,,,,,,,,,,
null,,confidence_buffer,547385,confidence_buffer,,null,,,,,,,,,,,,,,,,,,
null,,thebreak,547886,break,,null,,,,,,,,,,,,,,,,,,
1388.3999999985099,,realistic_rating,549276,Northbridge,,52,Northbridge,Fictional,4,,,,,,,,,,,,,,,
null,,confidence_buffer,549379,confidence_buffer,,null,,,,,,,,,,,,,,,,,,
481.29999999701977,,pt2_unique_rating,549862,Northbridge,,51,,,3,,,,,,,,,,,,,,,
null,,confidence_buffer,549964,confidence_buffer,,null,,,,,,,,,,,,,,,,,,
719.2000000029802,,pt2_memorable_rating,550685,Northbridge,,49,,,1,,,,,,,,,,,,,,,
null,,confidence_buffer,550788,confidence_buffer,,null,,,,,,,,,,,,,,,,,,
1187.6000000014901,,recognition_phase,551977,Northbridge,,49,,,,,,old,1,0.8409090909090909,,,,,,,,,,
null,,confidence_buffer,552080,confidence_buffer,,null,,,,,,,,,,,,,,,,,,
null,,thebreak,552582,break,,null,,,,,,,,,,,,,,,,,,
1387.7999999970198,,realistic_rating,553971,Solara Glen,,52,Solara Glen,Fictional,4,,,,,,,,,,,,,,,
null,,confidence_buffer,554075,confidence_buffer,,null,,,,,,,,,,,,,,,,,,
555.5,,pt2_unique_rating,554632,Solara Glen,,50,,,2,,,,,,,,,,,,,,,
null,,confidence_buffer,554734,confidence_buffer,,null,,,,,,,,,,,,,,,,,,
721.6000000014901,,pt2_memorable_rating,555457,Solara Glen,,53,,,5,,,,,,,,,,,,,,,
null,,confidence_buffer,555560,confidence_buffer,,null,,,,,,,,,,,,,,,,,,
2189.6999999955297,,recognition_phase,557752,Solara Glen,,50,,,,,,old,1,0.8444444444444444,,,,,,,,,,
null,,confidence_buffer,557854,confidence_buffer,,null,,,,,,,,,,,,,,,,,,
null,,thebreak,558357,break,,null,,,,,,,,,,,,,,,,,,
1074.9000000059605,,realistic_rating,559434,Cleveland,,52,Cleveland,US,4,,,,,,,,,,,,,,,
null,,confidence_buffer,559536,confidence_buffer,,null,,,,,,,,,,,,,,,,,,
733.5999999940395,,pt2_unique_rating,560272,Cleveland,,50,,,2,,,,,,,,,,,,,,,
null,,confidence_buffer,560374,confidence_buffer,,null,,,,,,,,,,,,,,,,,,
1186.5,,pt2_memorable_rating,561562,Cleveland,,53,,,5,,,,,,,,,,,,,,,
null,,confidence_buffer,561665,confidence_buffer,,null,,,,,,,,,,,,,,,,,,
1320.6000000014901,,recognition_phase,562987,Cleveland,,49,,,,,,old,1,0.8478260869565217,,,,,,,,,,
null,,confidence_buffer,563090,confidence_buffer,,null,,,,,,,,,,,,,,,,,,
null,,thebreak,563592,break,,null,,,,,,,,,,,,,,,,,,
1088.5,,realistic_rating,564682,Abilene,,52,Abilene,US,4,,,,,,,,,,,,,,,
null,,confidence_buffer,564786,confidence_buffer,,null,,,,,,,,,,,,,,,,,,
509.09999999403954,,pt2_unique_rating,565297,Abilene,,50,,,2,,,,,,,,,,,,,,,
null,,confidence_buffer,565400,confidence_buffer,,null,,,,,,,,,,,,,,,,,,
779.8999999985099,,pt2_memorable_rating,566181,Abilene,,49,,,1,,,,,,,,,,,,,,,
null,,confidence_buffer,566284,confidence_buffer,,null,,,,,,,,,,,,,,,,,,
1156.8999999985099,,recognition_phase,567443,Abilene,,52,,,,,,new,1,0.851063829787234,,,,,,,,,,
null,,confidence_buffer,567546,confidence_buffer,,null,,,,,,,,,,,,,,,,,,
null,,thebreak,568048,break,,null,,,,,,,,,,,,,,,,,,
1192,,realistic_rating,569242,Watkins Glen,,50,Watkins Glen,US,2,,,,,,,,,,,,,,,
null,,confidence_buffer,569345,confidence_buffer,,null,,,,,,,,,,,,,,,,,,
638.7999999970198,,pt2_unique_rating,569985,Watkins Glen,,51,,,3,,,,,,,,,,,,,,,
null,,confidence_buffer,570087,confidence_buffer,,null,,,,,,,,,,,,,,,,,,
593,,pt2_memorable_rating,570682,Watkins Glen,,50,,,2,,,,,,,,,,,,,,,
null,,confidence_buffer,570785,confidence_buffer,,null,,,,,,,,,,,,,,,,,,
1004.6000000014901,,recognition_phase,571791,Watkins Glen,,52,,,,,,new,1,0.8541666666666666,,,,,,,,,,
null,,confidence_buffer,571894,confidence_buffer,,null,,,,,,,,,,,,,,,,,,
null,,thebreak,572397,break,,null,,,,,,,,,,,,,,,,,,
1027.5999999940395,,realistic_rating,573426,Sitka,,52,Sitka,US,4,,,,,,,,,,,,,,,
null,,confidence_buffer,573528,confidence_buffer,,null,,,,,,,,,,,,,,,,,,
512.7000000029802,,pt2_unique_rating,574043,Sitka,,50,,,2,,,,,,,,,,,,,,,
null,,confidence_buffer,574146,confidence_buffer,,null,,,,,,,,,,,,,,,,,,
1948.2000000029802,,probe_rating,576096,probe_rating,,51,,,,3,1,,,,,,,,,,,,,
null,,confidence_buffer,576199,confidence_buffer,,null,,,,,,,,,,,,,,,,,,
1743.1000000014901,,pt2_memorable_rating,577944,Sitka,,53,,,5,,,,,,,,,,,,,,,
null,,confidence_buffer,578046,confidence_buffer,,null,,,,,,,,,,,,,,,,,,
839.3000000044703,,recognition_phase,578887,Sitka,,50,,,,,,old,1,0.8571428571428571,,,,,,,,,,
null,,confidence_buffer,578989,confidence_buffer,,null,,,,,,,,,,,,,,,,,,
null,,thebreak,579492,break,,null,,,,,,,,,,,,,,,,,,
1162.6999999955297,,realistic_rating,580656,East Ladera,,52,East Ladera,Fictional,4,,,,,,,,,,,,,,,
null,,confidence_buffer,580759,confidence_buffer,,null,,,,,,,,,,,,,,,,,,
961.1000000014901,,pt2_unique_rating,581721,East Ladera,,49,,,1,,,,,,,,,,,,,,,
null,,confidence_buffer,581824,confidence_buffer,,null,,,,,,,,,,,,,,,,,,
511,,pt2_memorable_rating,582337,East Ladera,,50,,,2,,,,,,,,,,,,,,,
null,,confidence_buffer,582440,confidence_buffer,,null,,,,,,,,,,,,,,,,,,
1154.5,,recognition_phase,583596,East Ladera,,51,,,,,,new,0,0.84,,,,,,,,,,
null,,confidence_buffer,583698,confidence_buffer,,null,,,,,,,,,,,,,,,,,,
null,,thebreak,584201,break,,null,,,,,,,,,,,,,,,,,,
954.3999999985099,,realistic_rating,585157,Maplehurst,,52,Maplehurst,Fictional,4,,,,,,,,,,,,,,,
null,,confidence_buffer,585260,confidence_buffer,,null,,,,,,,,,,,,,,,,,,
856.2000000029802,,pt2_unique_rating,586117,Maplehurst,,50,,,2,,,,,,,,,,,,,,,
null,,confidence_buffer,586220,confidence_buffer,,null,,,,,,,,,,,,,,,,,,
1125.6000000014901,,pt2_memorable_rating,587347,Maplehurst,,49,,,1,,,,,,,,,,,,,,,
null,,confidence_buffer,587450,confidence_buffer,,null,,,,,,,,,,,,,,,,,,
1454.8000000044703,,recognition_phase,588906,Maplehurst,,52,,,,,,new,1,0.8431372549019608,,,,,,,,,,
null,,confidence_buffer,589010,confidence_buffer,,null,,,,,,,,,,,,,,,,,,
null,,thebreak,589511,break,,null,,,,,,,,,,,,,,,,,,
878.8000000044703,,realistic_rating,590392,Oakridge,,50,Oakridge,Fictional,2,,,,,,,,,,,,,,,
null,,confidence_buffer,590495,confidence_buffer,,null,,,,,,,,,,,,,,,,,,
1019.5,,pt2_unique_rating,591516,Oakridge,,51,,,3,,,,,,,,,,,,,,,
null,,confidence_buffer,591618,confidence_buffer,,null,,,,,,,,,,,,,,,,,,
646.6000000014901,,pt2_memorable_rating,592266,Oakridge,,50,,,2,,,,,,,,,,,,,,,
null,,confidence_buffer,592368,confidence_buffer,,null,,,,,,,,,,,,,,,,,,
1007.2000000029802,,recognition_phase,593377,Oakridge,,52,,,,,,new,1,0.8461538461538461,,,,,,,,,,
null,,confidence_buffer,593481,confidence_buffer,,null,,,,,,,,,,,,,,,,,,
null,,thebreak,593983,break,,null,,,,,,,,,,,,,,,,,,
680.7000000029802,,realistic_rating,594666,Claywater,,50,Claywater,Fictional,2,,,,,,,,,,,,,,,
null,,confidence_buffer,594769,confidence_buffer,,null,,,,,,,,,,,,,,,,,,
511.29999999701977,,pt2_unique_rating,595282,Claywater,,51,,,3,,,,,,,,,,,,,,,
null,,confidence_buffer,595385,confidence_buffer,,null,,,,,,,,,,,,,,,,,,
885.3000000044703,,pt2_memorable_rating,596272,Claywater,,49,,,1,,,,,,,,,,,,,,,
null,,confidence_buffer,596375,confidence_buffer,,null,,,,,,,,,,,,,,,,,,
989.5,,recognition_phase,597366,Claywater,,51,,,,,,new,0,0.8301886792452831,,,,,,,,,,
null,,confidence_buffer,597469,confidence_buffer,,null,,,,,,,,,,,,,,,,,,
null,,thebreak,597972,break,,null,,,,,,,,,,,,,,,,,,
1404.1999999955297,,realistic_rating,599377,New Verdan,,53,New Verdan,Fictional,5,,,,,,,,,,,,,,,
null,,confidence_buffer,599480,confidence_buffer,,null,,,,,,,,,,,,,,,,,,
556.8999999985099,,pt2_unique_rating,600038,New Verdan,,51,,,3,,,,,,,,,,,,,,,
null,,confidence_buffer,600141,confidence_buffer,,null,,,,,,,,,,,,,,,,,,
569.3000000044703,,pt2_memorable_rating,600711,New Verdan,,50,,,2,,,,,,,,,,,,,,,
null,,confidence_buffer,600814,confidence_buffer,,null,,,,,,,,,,,,,,,,,,
1096.1999999955297,,recognition_phase,601912,New Verdan,,52,,,,,,new,0,0.8148148148148148,,,,,,,,,,
null,,confidence_buffer,602015,confidence_buffer,,null,,,,,,,,,,,,,,,,,,
null,,thebreak,602516,break,,null,,,,,,,,,,,,,,,,,,
1235.6000000014901,,realistic_rating,603752,Assateague Island,,51,Assateague Island,US,3,,,,,,,,,,,,,,,
null,,confidence_buffer,603854,confidence_buffer,,null,,,,,,,,,,,,,,,,,,
31.600000001490116,,pt2_unique_rating,603886,Assateague Island,,50,,,2,,,,,,,,,,,,,,,
null,,confidence_buffer,603988,confidence_buffer,,null,,,,,,,,,,,,,,,,,,
1006.7000000029802,,pt2_memorable_rating,604996,Assateague Island,,49,,,1,,,,,,,,,,,,,,,
null,,confidence_buffer,605097,confidence_buffer,,null,,,,,,,,,,,,,,,,,,
1397.9000000059605,,recognition_phase,606496,Assateague Island,,49,,,,,,old,1,0.8181818181818182,,,,,,,,,,
null,,confidence_buffer,606597,confidence_buffer,,null,,,,,,,,,,,,,,,,,,
null,,thebreak,607099,break,,null,,,,,,,,,,,,,,,,,,
1001.8999999985099,,realistic_rating,608103,Hawthorne Bluffs,,51,Hawthorne Bluffs,Fictional,3,,,,,,,,,,,,,,,
null,,confidence_buffer,608204,confidence_buffer,,null,,,,,,,,,,,,,,,,,,
662.3999999985099,,pt2_unique_rating,608867,Hawthorne Bluffs,,52,,,4,,,,,,,,,,,,,,,
null,,confidence_buffer,608969,confidence_buffer,,null,,,,,,,,,,,,,,,,,,
771.0999999940395,,pt2_memorable_rating,609742,Hawthorne Bluffs,,50,,,2,,,,,,,,,,,,,,,
null,,confidence_buffer,609845,confidence_buffer,,null,,,,,,,,,,,,,,,,,,
1516.7999999970198,,recognition_phase,611364,Hawthorne Bluffs,,52,,,,,,new,0,0.8035714285714286,,,,,,,,,,
null,,confidence_buffer,611467,confidence_buffer,,null,,,,,,,,,,,,,,,,,,
null,,thebreak,611970,break,,null,,,,,,,,,,,,,,,,,,
859.8000000044703,,realistic_rating,612831,Huntsville,,50,Huntsville,US,2,,,,,,,,,,,,,,,
null,,confidence_buffer,612934,confidence_buffer,,null,,,,,,,,,,,,,,,,,,
708.1000000014901,,pt2_unique_rating,613643,Huntsville,,51,,,3,,,,,,,,,,,,,,,
null,,confidence_buffer,613745,confidence_buffer,,null,,,,,,,,,,,,,,,,,,
525.5,,pt2_memorable_rating,614271,Huntsville,,50,,,2,,,,,,,,,,,,,,,
null,,confidence_buffer,614374,confidence_buffer,,null,,,,,,,,,,,,,,,,,,
1908.5,,probe_rating,616284,probe_rating,,53,,,,5,1,,,,,,,,,,,,,
null,,confidence_buffer,616387,confidence_buffer,,null,,,,,,,,,,,,,,,,,,
840.6000000014901,,recognition_phase,617229,Huntsville,,51,,,,,,new,0,0.7894736842105263,,,,,,,,,,
null,,confidence_buffer,617333,confidence_buffer,,null,,,,,,,,,,,,,,,,,,
null,,thebreak,617835,break,,null,,,,,,,,,,,,,,,,,,
1667.7999999970198,,realistic_rating,619505,Gatlinburg,,51,Gatlinburg,US,3,,,,,,,,,,,,,,,
null,,confidence_buffer,619609,confidence_buffer,,null,,,,,,,,,,,,,,,,,,
391.5,,pt2_unique_rating,620003,Gatlinburg,,50,,,2,,,,,,,,,,,,,,,
null,,confidence_buffer,620105,confidence_buffer,,null,,,,,,,,,,,,,,,,,,
676.5,,pt2_memorable_rating,620783,Gatlinburg,,52,,,4,,,,,,,,,,,,,,,
null,,confidence_buffer,620886,confidence_buffer,,null,,,,,,,,,,,,,,,,,,
1979.1000000014901,,probe_rating,622867,probe_rating,,53,,,,5,1,,,,,,,,,,,,,
null,,confidence_buffer,622970,confidence_buffer,,null,,,,,,,,,,,,,,,,,,
626.1999999955297,,recognition_phase,623597,Gatlinburg,,49,,,,,,old,1,0.7931034482758621,,,,,,,,,,
null,,confidence_buffer,623699,confidence_buffer,,null,,,,,,,,,,,,,,,,,,
null,,thebreak,624201,break,,null,,,,,,,,,,,,,,,,,,
586.2000000029802,,realistic_rating,624788,Riverlyn,,51,Riverlyn,Fictional,3,,,,,,,,,,,,,,,
null,,confidence_buffer,624892,confidence_buffer,,null,,,,,,,,,,,,,,,,,,
432.69999999552965,,pt2_unique_rating,625326,Riverlyn,,50,,,2,,,,,,,,,,,,,,,
null,,confidence_buffer,625428,confidence_buffer,,null,,,,,,,,,,,,,,,,,,
807.8999999985099,,pt2_memorable_rating,626237,Riverlyn,,52,,,4,,,,,,,,,,,,,,,
null,,confidence_buffer,626339,confidence_buffer,,null,,,,,,,,,,,,,,,,,,
677.5,,recognition_phase,627017,Riverlyn,,50,,,,,,old,1,0.7966101694915254,,,,,,,,,,
null,,confidence_buffer,627119,confidence_buffer,,null,,,,,,,,,,,,,,,,,,
null,,thebreak,627620,break,,null,,,,,,,,,,,,,,,,,,
901.1999999955297,,realistic_rating,628522,Newport,,53,Newport,US,5,,,,,,,,,,,,,,,
null,,confidence_buffer,628625,confidence_buffer,,null,,,,,,,,,,,,,,,,,,
494.20000000298023,,pt2_unique_rating,629121,Newport,,50,,,2,,,,,,,,,,,,,,,
null,,confidence_buffer,629223,confidence_buffer,,null,,,,,,,,,,,,,,,,,,
627.5,,pt2_memorable_rating,629852,Newport,,52,,,4,,,,,,,,,,,,,,,
null,,confidence_buffer,629954,confidence_buffer,,null,,,,,,,,,,,,,,,,,,
1128,,recognition_phase,631084,Newport,,50,,,,,,old,0,0.7833333333333333,,,,,,,,,,
null,,confidence_buffer,631186,confidence_buffer,,null,,,,,,,,,,,,,,,,,,
null,,thebreak,631688,break,,null,,,,,,,,,,,,,,,,,,
,,survey,696665,survey-questions,,,,,,,,,,,none,high,I did not do anything else while doing the study,I did not use any strategy,I had none,I had none,I had none,I had none,No I have not,No comment
