rt,responses,trial_type,time_elapsed,stimulus,button_pressed,key_press,name_trial,city_type,rating,probe,probe_accuracy,response,correct,accuracy,problems,smooth,distraction,strategies,familiar,memorable,unique,realistic,similar,comments
11770.799999982119,{worker_id:67896face1c2b598c95a41ca},id_enter,11774,,,,,,,,,,,,,,,,,,,,,
20990,,fullscreen,32768,fullscreen,0,,,,,,,,,,,,,,,,,,,
20952.09999999404,,intro_0,53724,instruct,,32,,,,,,,,,,,,,,,,,,
23651.29999998212,,intro_1,77377,instruct,,32,,,,,,,,,,,,,,,,,,
6936.5999999940395,,intro_2,84314,instruct,,32,,,,,,,,,,,,,,,,,,
null,,instruct_dir_4,85815,instruct,,null,,,,,,,,,,,,,,,,,,
null,,thebreak,86316,break,,null,,,,,,,,,,,,,,,,,,
6685.9000000059605,,familiar_rating,93003,Millstone,,53,Millstone,Fictional,5,,,,,,,,,,,,,,,
null,,confidence_buffer,93104,confidence_buffer,,null,,,,,,,,,,,,,,,,,,
3754.9000000059605,,unique_rating,96860,Millstone,,50,,,2,,,,,,,,,,,,,,,
null,,confidence_buffer,96961,confidence_buffer,,null,,,,,,,,,,,,,,,,,,
4057,,memorable_rating,101019,Millstone,,53,,,5,,,,,,,,,,,,,,,
null,,confidence_buffer,101120,confidence_buffer,,null,,,,,,,,,,,,,,,,,,
null,,thebreak,101620,break,,null,,,,,,,,,,,,,,,,,,
2933.9000000059605,,familiar_rating,104555,Stonebrook,,52,Stonebrook,Fictional,4,,,,,,,,,,,,,,,
null,,confidence_buffer,104656,confidence_buffer,,null,,,,,,,,,,,,,,,,,,
2320.199999988079,,unique_rating,106977,Stonebrook,,53,,,5,,,,,,,,,,,,,,,
null,,confidence_buffer,107079,confidence_buffer,,null,,,,,,,,,,,,,,,,,,
4216.5,,memorable_rating,111296,Stonebrook,,51,,,3,,,,,,,,,,,,,,,
null,,confidence_buffer,111397,confidence_buffer,,null,,,,,,,,,,,,,,,,,,
null,,thebreak,111898,break,,null,,,,,,,,,,,,,,,,,,
4628,,familiar_rating,116526,East Ladera,,49,East Ladera,Fictional,1,,,,,,,,,,,,,,,
null,,confidence_buffer,116628,confidence_buffer,,null,,,,,,,,,,,,,,,,,,
14226,,unique_rating,130854,East Ladera,,50,,,2,,,,,,,,,,,,,,,
null,,confidence_buffer,130955,confidence_buffer,,null,,,,,,,,,,,,,,,,,,
3078.5,,memorable_rating,134034,East Ladera,,49,,,1,,,,,,,,,,,,,,,
null,,confidence_buffer,134135,confidence_buffer,,null,,,,,,,,,,,,,,,,,,
null,,thebreak,134636,break,,null,,,,,,,,,,,,,,,,,,
13841.300000011921,,familiar_rating,148478,Medora,,51,Medora,US,3,,,,,,,,,,,,,,,
null,,confidence_buffer,148580,confidence_buffer,,null,,,,,,,,,,,,,,,,,,
2761.4000000059605,,unique_rating,151342,Medora,,50,,,2,,,,,,,,,,,,,,,
null,,confidence_buffer,151443,confidence_buffer,,null,,,,,,,,,,,,,,,,,,
1952.7000000178814,,memorable_rating,153396,Medora,,52,,,4,,,,,,,,,,,,,,,
null,,confidence_buffer,153498,confidence_buffer,,null,,,,,,,,,,,,,,,,,,
null,,thebreak,154000,break,,null,,,,,,,,,,,,,,,,,,
4501.200000017881,,familiar_rating,158502,Golden Trace,,53,Golden Trace,Fictional,5,,,,,,,,,,,,,,,
null,,confidence_buffer,158604,confidence_buffer,,null,,,,,,,,,,,,,,,,,,
14221.699999988079,,unique_rating,172826,Golden Trace,,51,,,3,,,,,,,,,,,,,,,
null,,confidence_buffer,172928,confidence_buffer,,null,,,,,,,,,,,,,,,,,,
4149.299999982119,,memorable_rating,177078,Golden Trace,,52,,,4,,,,,,,,,,,,,,,
null,,confidence_buffer,177179,confidence_buffer,,null,,,,,,,,,,,,,,,,,,
null,,thebreak,177680,break,,null,,,,,,,,,,,,,,,,,,
14796.800000011921,,familiar_rating,192478,Leesburg,,50,Leesburg,US,2,,,,,,,,,,,,,,,
null,,confidence_buffer,192580,confidence_buffer,,null,,,,,,,,,,,,,,,,,,
5099.699999988079,,unique_rating,197680,Leesburg,,53,,,5,,,,,,,,,,,,,,,
null,,confidence_buffer,197782,confidence_buffer,,null,,,,,,,,,,,,,,,,,,
2575.4000000059605,,memorable_rating,200358,Leesburg,,53,,,5,,,,,,,,,,,,,,,
null,,confidence_buffer,200459,confidence_buffer,,null,,,,,,,,,,,,,,,,,,
null,,thebreak,200960,break,,null,,,,,,,,,,,,,,,,,,
12893.200000017881,,familiar_rating,213854,Hot Springs,,53,Hot Springs,US,5,,,,,,,,,,,,,,,
null,,confidence_buffer,213956,confidence_buffer,,null,,,,,,,,,,,,,,,,,,
1400.699999988079,,unique_rating,215358,Hot Springs,,52,,,4,,,,,,,,,,,,,,,
null,,confidence_buffer,215459,confidence_buffer,,null,,,,,,,,,,,,,,,,,,
1018.3000000119209,,memorable_rating,216478,Hot Springs,,52,,,4,,,,,,,,,,,,,,,
null,,confidence_buffer,216579,confidence_buffer,,null,,,,,,,,,,,,,,,,,,
null,,thebreak,217080,break,,null,,,,,,,,,,,,,,,,,,
13341.09999999404,,familiar_rating,230422,Custer,,50,Custer,US,2,,,,,,,,,,,,,,,
null,,confidence_buffer,230524,confidence_buffer,,null,,,,,,,,,,,,,,,,,,
2048.5,,unique_rating,232573,Custer,,52,,,4,,,,,,,,,,,,,,,
null,,confidence_buffer,232677,confidence_buffer,,null,,,,,,,,,,,,,,,,,,
1935.9000000059605,,memorable_rating,234614,Custer,,52,,,4,,,,,,,,,,,,,,,
null,,confidence_buffer,234715,confidence_buffer,,null,,,,,,,,,,,,,,,,,,
null,,thebreak,235217,break,,null,,,,,,,,,,,,,,,,,,
4308,,familiar_rating,239526,Gatlinburg,,49,Gatlinburg,US,1,,,,,,,,,,,,,,,
null,,confidence_buffer,239628,confidence_buffer,,null,,,,,,,,,,,,,,,,,,
4154.0999999940395,,unique_rating,243782,Gatlinburg,,52,,,4,,,,,,,,,,,,,,,
null,,confidence_buffer,243885,confidence_buffer,,null,,,,,,,,,,,,,,,,,,
2640.5999999940395,,memorable_rating,246526,Gatlinburg,,51,,,3,,,,,,,,,,,,,,,
null,,confidence_buffer,246627,confidence_buffer,,null,,,,,,,,,,,,,,,,,,
null,,thebreak,247128,break,,null,,,,,,,,,,,,,,,,,,
3564.300000011921,,familiar_rating,250693,Maravilla Springs,,53,Maravilla Springs,Fictional,5,,,,,,,,,,,,,,,
null,,confidence_buffer,250794,confidence_buffer,,null,,,,,,,,,,,,,,,,,,
1802.199999988079,,unique_rating,252597,Maravilla Springs,,52,,,4,,,,,,,,,,,,,,,
null,,confidence_buffer,252698,confidence_buffer,,null,,,,,,,,,,,,,,,,,,
15282.199999988079,,memorable_rating,267981,Maravilla Springs,,52,,,4,,,,,,,,,,,,,,,
null,,confidence_buffer,268082,confidence_buffer,,null,,,,,,,,,,,,,,,,,,
null,,thebreak,268584,break,,null,,,,,,,,,,,,,,,,,,
2450.5,,familiar_rating,271035,Clearbrook,,53,Clearbrook,Fictional,5,,,,,,,,,,,,,,,
null,,confidence_buffer,271136,confidence_buffer,,null,,,,,,,,,,,,,,,,,,
1260.7000000178814,,unique_rating,272397,Clearbrook,,52,,,4,,,,,,,,,,,,,,,
null,,confidence_buffer,272499,confidence_buffer,,null,,,,,,,,,,,,,,,,,,
50776.29999998212,,memorable_rating,323276,Clearbrook,,51,,,3,,,,,,,,,,,,,,,
null,,confidence_buffer,323377,confidence_buffer,,null,,,,,,,,,,,,,,,,,,
null,,thebreak,323878,break,,null,,,,,,,,,,,,,,,,,,
2142.100000023842,,familiar_rating,326021,Riverlyn,,53,Riverlyn,Fictional,5,,,,,,,,,,,,,,,
null,,confidence_buffer,326122,confidence_buffer,,null,,,,,,,,,,,,,,,,,,
1552.5,,unique_rating,327675,Riverlyn,,51,,,3,,,,,,,,,,,,,,,
null,,confidence_buffer,327776,confidence_buffer,,null,,,,,,,,,,,,,,,,,,
1795.300000011921,,memorable_rating,329572,Riverlyn,,52,,,4,,,,,,,,,,,,,,,
null,,confidence_buffer,329679,confidence_buffer,,null,,,,,,,,,,,,,,,,,,
null,,thebreak,330180,break,,null,,,,,,,,,,,,,,,,,,
3755.5999999940395,,familiar_rating,333936,Watkins Glen,,53,Watkins Glen,US,5,,,,,,,,,,,,,,,
null,,confidence_buffer,334037,confidence_buffer,,null,,,,,,,,,,,,,,,,,,
2038.5999999940395,,probe_rating,336076,probe_rating,,52,,,,4,0,,,,,,,,,,,,,
null,,confidence_buffer,336178,confidence_buffer,,null,,,,,,,,,,,,,,,,,,
2113.800000011921,,unique_rating,338292,Watkins Glen,,52,,,4,,,,,,,,,,,,,,,
null,,confidence_buffer,338393,confidence_buffer,,null,,,,,,,,,,,,,,,,,,
4978.799999982119,,memorable_rating,343372,Watkins Glen,,53,,,5,,,,,,,,,,,,,,,
null,,confidence_buffer,343474,confidence_buffer,,null,,,,,,,,,,,,,,,,,,
null,,thebreak,343976,break,,null,,,,,,,,,,,,,,,,,,
1637.5999999940395,,familiar_rating,345614,Claywater,,50,Claywater,Fictional,2,,,,,,,,,,,,,,,
null,,confidence_buffer,345716,confidence_buffer,,null,,,,,,,,,,,,,,,,,,
2023.699999988079,,unique_rating,347740,Claywater,,53,,,5,,,,,,,,,,,,,,,
null,,confidence_buffer,347842,confidence_buffer,,null,,,,,,,,,,,,,,,,,,
2712.600000023842,,memorable_rating,350555,Claywater,,51,,,3,,,,,,,,,,,,,,,
null,,confidence_buffer,350657,confidence_buffer,,null,,,,,,,,,,,,,,,,,,
null,,thebreak,351159,break,,null,,,,,,,,,,,,,,,,,,
11413,,familiar_rating,362573,Montelake,,53,Montelake,Fictional,5,,,,,,,,,,,,,,,
null,,confidence_buffer,362675,confidence_buffer,,null,,,,,,,,,,,,,,,,,,
1800.0999999940395,,unique_rating,364476,Montelake,,52,,,4,,,,,,,,,,,,,,,
null,,confidence_buffer,364578,confidence_buffer,,null,,,,,,,,,,,,,,,,,,
1757.199999988079,,memorable_rating,366336,Montelake,,53,,,5,,,,,,,,,,,,,,,
null,,confidence_buffer,366437,confidence_buffer,,null,,,,,,,,,,,,,,,,,,
null,,thebreak,366938,break,,null,,,,,,,,,,,,,,,,,,
4329.799999982119,,familiar_rating,371269,Livingston,,53,Livingston,US,5,,,,,,,,,,,,,,,
null,,confidence_buffer,371370,confidence_buffer,,null,,,,,,,,,,,,,,,,,,
1889.6000000238419,,unique_rating,373261,Livingston,,53,,,5,,,,,,,,,,,,,,,
null,,confidence_buffer,373362,confidence_buffer,,null,,,,,,,,,,,,,,,,,,
1932.3999999761581,,memorable_rating,375295,Livingston,,53,,,5,,,,,,,,,,,,,,,
null,,confidence_buffer,375396,confidence_buffer,,null,,,,,,,,,,,,,,,,,,
null,,thebreak,375897,break,,null,,,,,,,,,,,,,,,,,,
3182.2999999821186,,familiar_rating,379080,Driftwood Bay,,51,Driftwood Bay,Fictional,3,,,,,,,,,,,,,,,
null,,confidence_buffer,379181,confidence_buffer,,null,,,,,,,,,,,,,,,,,,
4752.799999982119,,probe_rating,383935,probe_rating,,52,,,,4,1,,,,,,,,,,,,,
null,,confidence_buffer,384036,confidence_buffer,,null,,,,,,,,,,,,,,,,,,
2098.0999999940395,,unique_rating,386135,Driftwood Bay,,53,,,5,,,,,,,,,,,,,,,
null,,confidence_buffer,386236,confidence_buffer,,null,,,,,,,,,,,,,,,,,,
1697.9000000059605,,memorable_rating,387935,Driftwood Bay,,51,,,3,,,,,,,,,,,,,,,
null,,confidence_buffer,388037,confidence_buffer,,null,,,,,,,,,,,,,,,,,,
null,,thebreak,388538,break,,null,,,,,,,,,,,,,,,,,,
2996,,familiar_rating,391535,Coeur d'Alene,,53,Coeur d'Alene,US,5,,,,,,,,,,,,,,,
null,,confidence_buffer,391638,confidence_buffer,,null,,,,,,,,,,,,,,,,,,
2303.2000000178814,,unique_rating,393941,Coeur d'Alene,,52,,,4,,,,,,,,,,,,,,,
null,,confidence_buffer,394043,confidence_buffer,,null,,,,,,,,,,,,,,,,,,
2311.300000011921,,memorable_rating,396355,Coeur d'Alene,,53,,,5,,,,,,,,,,,,,,,
null,,confidence_buffer,396456,confidence_buffer,,null,,,,,,,,,,,,,,,,,,
null,,thebreak,396956,break,,null,,,,,,,,,,,,,,,,,,
3135.5,,familiar_rating,400093,Cornwall,,50,Cornwall,US,2,,,,,,,,,,,,,,,
null,,confidence_buffer,400194,confidence_buffer,,null,,,,,,,,,,,,,,,,,,
3802,,unique_rating,403996,Cornwall,,53,,,5,,,,,,,,,,,,,,,
null,,confidence_buffer,404097,confidence_buffer,,null,,,,,,,,,,,,,,,,,,
1477.2999999821186,,memorable_rating,405575,Cornwall,,51,,,3,,,,,,,,,,,,,,,
null,,confidence_buffer,405678,confidence_buffer,,null,,,,,,,,,,,,,,,,,,
null,,thebreak,406179,break,,null,,,,,,,,,,,,,,,,,,
2208.5,,familiar_rating,408388,Delaware City,,52,Delaware City,US,4,,,,,,,,,,,,,,,
null,,confidence_buffer,408489,confidence_buffer,,null,,,,,,,,,,,,,,,,,,
1810.300000011921,,probe_rating,410300,probe_rating,,51,,,,3,1,,,,,,,,,,,,,
null,,confidence_buffer,410402,confidence_buffer,,null,,,,,,,,,,,,,,,,,,
1671.5,,unique_rating,412074,Delaware City,,53,,,5,,,,,,,,,,,,,,,
null,,confidence_buffer,412175,confidence_buffer,,null,,,,,,,,,,,,,,,,,,
1118.4000000059605,,memorable_rating,413295,Delaware City,,52,,,4,,,,,,,,,,,,,,,
null,,confidence_buffer,413396,confidence_buffer,,null,,,,,,,,,,,,,,,,,,
null,,thebreak,413897,break,,null,,,,,,,,,,,,,,,,,,
1856.9000000059605,,familiar_rating,415754,Gardnerville,,51,Gardnerville,US,3,,,,,,,,,,,,,,,
null,,confidence_buffer,415856,confidence_buffer,,null,,,,,,,,,,,,,,,,,,
2707.300000011921,,unique_rating,418564,Gardnerville,,53,,,5,,,,,,,,,,,,,,,
null,,confidence_buffer,418666,confidence_buffer,,null,,,,,,,,,,,,,,,,,,
1529.5,,memorable_rating,420196,Gardnerville,,53,,,5,,,,,,,,,,,,,,,
null,,confidence_buffer,420297,confidence_buffer,,null,,,,,,,,,,,,,,,,,,
null,,thebreak,420799,break,,null,,,,,,,,,,,,,,,,,,
1574,,familiar_rating,422374,Newport,,50,Newport,US,2,,,,,,,,,,,,,,,
null,,confidence_buffer,422476,confidence_buffer,,null,,,,,,,,,,,,,,,,,,
1543,,unique_rating,424019,Newport,,52,,,4,,,,,,,,,,,,,,,
null,,confidence_buffer,424121,confidence_buffer,,null,,,,,,,,,,,,,,,,,,
2853,,memorable_rating,426975,Newport,,53,,,5,,,,,,,,,,,,,,,
null,,confidence_buffer,427076,confidence_buffer,,null,,,,,,,,,,,,,,,,,,
2815.199999988079,,probe_rating,429892,probe_rating,,53,,,,5,1,,,,,,,,,,,,,
null,,confidence_buffer,429994,confidence_buffer,,null,,,,,,,,,,,,,,,,,,
null,,thebreak,430494,break,,null,,,,,,,,,,,,,,,,,,
2119.2000000178814,,familiar_rating,432614,Hanover,,52,Hanover,US,4,,,,,,,,,,,,,,,
null,,confidence_buffer,432716,confidence_buffer,,null,,,,,,,,,,,,,,,,,,
1855,,probe_rating,434572,probe_rating,,50,,,,2,1,,,,,,,,,,,,,
null,,confidence_buffer,434673,confidence_buffer,,null,,,,,,,,,,,,,,,,,,
1682.199999988079,,unique_rating,436356,Hanover,,52,,,4,,,,,,,,,,,,,,,
null,,confidence_buffer,436457,confidence_buffer,,null,,,,,,,,,,,,,,,,,,
1362.0999999940395,,memorable_rating,437820,Hanover,,51,,,3,,,,,,,,,,,,,,,
null,,confidence_buffer,437921,confidence_buffer,,null,,,,,,,,,,,,,,,,,,
null,,thebreak,438421,break,,null,,,,,,,,,,,,,,,,,,
1821.5,,familiar_rating,440244,Ashford Hills,,53,Ashford Hills,Fictional,5,,,,,,,,,,,,,,,
null,,confidence_buffer,440346,confidence_buffer,,null,,,,,,,,,,,,,,,,,,
1512.800000011921,,unique_rating,441859,Ashford Hills,,52,,,4,,,,,,,,,,,,,,,
null,,confidence_buffer,441961,confidence_buffer,,null,,,,,,,,,,,,,,,,,,
1331.699999988079,,memorable_rating,443293,Ashford Hills,,53,,,5,,,,,,,,,,,,,,,
null,,confidence_buffer,443401,confidence_buffer,,null,,,,,,,,,,,,,,,,,,
null,,thebreak,443901,break,,null,,,,,,,,,,,,,,,,,,
1552.2999999821186,,familiar_rating,445454,Sierra Hollow,,51,Sierra Hollow,Fictional,3,,,,,,,,,,,,,,,
null,,confidence_buffer,445558,confidence_buffer,,null,,,,,,,,,,,,,,,,,,
1733.300000011921,,unique_rating,447292,Sierra Hollow,,52,,,4,,,,,,,,,,,,,,,
null,,confidence_buffer,447393,confidence_buffer,,null,,,,,,,,,,,,,,,,,,
2010.300000011921,,memorable_rating,449404,Sierra Hollow,,51,,,3,,,,,,,,,,,,,,,
null,,confidence_buffer,449505,confidence_buffer,,null,,,,,,,,,,,,,,,,,,
null,,thebreak,450006,break,,null,,,,,,,,,,,,,,,,,,
3028.300000011921,,familiar_rating,453035,Cedarwyn,,49,Cedarwyn,Fictional,1,,,,,,,,,,,,,,,
null,,confidence_buffer,453137,confidence_buffer,,null,,,,,,,,,,,,,,,,,,
1634.800000011921,,unique_rating,454772,Cedarwyn,,51,,,3,,,,,,,,,,,,,,,
null,,confidence_buffer,454874,confidence_buffer,,null,,,,,,,,,,,,,,,,,,
2057.800000011921,,memorable_rating,456932,Cedarwyn,,50,,,2,,,,,,,,,,,,,,,
null,,confidence_buffer,457033,confidence_buffer,,null,,,,,,,,,,,,,,,,,,
null,,thebreak,457535,break,,null,,,,,,,,,,,,,,,,,,
1898.1000000238419,,familiar_rating,459434,Willowford,,53,Willowford,Fictional,5,,,,,,,,,,,,,,,
null,,confidence_buffer,459536,confidence_buffer,,null,,,,,,,,,,,,,,,,,,
1642.9000000059605,,unique_rating,461179,Willowford,,52,,,4,,,,,,,,,,,,,,,
null,,confidence_buffer,461281,confidence_buffer,,null,,,,,,,,,,,,,,,,,,
952.5,,memorable_rating,462234,Willowford,,52,,,4,,,,,,,,,,,,,,,
null,,confidence_buffer,462335,confidence_buffer,,null,,,,,,,,,,,,,,,,,,
null,,thebreak,462836,break,,null,,,,,,,,,,,,,,,,,,
1710.7000000178814,,familiar_rating,464547,Peoria,,52,Peoria,US,4,,,,,,,,,,,,,,,
null,,confidence_buffer,464649,confidence_buffer,,null,,,,,,,,,,,,,,,,,,
1670.4000000059605,,unique_rating,466320,Peoria,,50,,,2,,,,,,,,,,,,,,,
null,,confidence_buffer,466421,confidence_buffer,,null,,,,,,,,,,,,,,,,,,
1441.300000011921,,memorable_rating,467863,Peoria,,51,,,3,,,,,,,,,,,,,,,
null,,confidence_buffer,467964,confidence_buffer,,null,,,,,,,,,,,,,,,,,,
null,,thebreak,468466,break,,null,,,,,,,,,,,,,,,,,,
1535.5,,familiar_rating,470002,Lakehaven,,53,Lakehaven,Fictional,5,,,,,,,,,,,,,,,
null,,confidence_buffer,470104,confidence_buffer,,null,,,,,,,,,,,,,,,,,,
1889.699999988079,,unique_rating,471994,Lakehaven,,53,,,5,,,,,,,,,,,,,,,
null,,confidence_buffer,472095,confidence_buffer,,null,,,,,,,,,,,,,,,,,,
2072.199999988079,,memorable_rating,474168,Lakehaven,,52,,,4,,,,,,,,,,,,,,,
null,,confidence_buffer,474270,confidence_buffer,,null,,,,,,,,,,,,,,,,,,
null,,thebreak,474771,break,,null,,,,,,,,,,,,,,,,,,
2799.800000011921,,familiar_rating,477572,Bar Harbor,,53,Bar Harbor,US,5,,,,,,,,,,,,,,,
null,,confidence_buffer,477673,confidence_buffer,,null,,,,,,,,,,,,,,,,,,
1380.7999999821186,,unique_rating,479054,Bar Harbor,,51,,,3,,,,,,,,,,,,,,,
null,,confidence_buffer,479156,confidence_buffer,,null,,,,,,,,,,,,,,,,,,
1355.0999999940395,,memorable_rating,480512,Bar Harbor,,52,,,4,,,,,,,,,,,,,,,
null,,confidence_buffer,480613,confidence_buffer,,null,,,,,,,,,,,,,,,,,,
null,,thebreak,481114,break,,null,,,,,,,,,,,,,,,,,,
8966.300000011921,,intro_0,490080,instruct,,32,,,,,,,,,,,,,,,,,,
8111.5999999940395,,intro_1,498193,instruct,,32,,,,,,,,,,,,,,,,,,
19518,,intro_2,517711,instruct,,32,,,,,,,,,,,,,,,,,,
null,,instruct_dir_4,519213,instruct,,null,,,,,,,,,,,,,,,,,,
9577.5,,realistic_rating,528791,Park City,,53,Park City,US,5,,,,,,,,,,,,,,,
null,,confidence_buffer,528893,confidence_buffer,,null,,,,,,,,,,,,,,,,,,
2481.399999976158,,pt2_unique_rating,531374,Park City,,52,,,4,,,,,,,,,,,,,,,
null,,confidence_buffer,531479,confidence_buffer,,null,,,,,,,,,,,,,,,,,,
4239.200000017881,,pt2_memorable_rating,535719,Park City,,52,,,4,,,,,,,,,,,,,,,
null,,confidence_buffer,535821,confidence_buffer,,null,,,,,,,,,,,,,,,,,,
9305.59999999404,,recognition_phase,545127,Park City,,52,,,,,,new,1,1,,,,,,,,,,
null,,confidence_buffer,545229,confidence_buffer,,null,,,,,,,,,,,,,,,,,,
null,,thebreak,545730,break,,null,,,,,,,,,,,,,,,,,,
4200.100000023842,,realistic_rating,549931,Golden Trace,,53,Golden Trace,Fictional,5,,,,,,,,,,,,,,,
null,,confidence_buffer,550032,confidence_buffer,,null,,,,,,,,,,,,,,,,,,
1478.2000000178814,,pt2_unique_rating,551511,Golden Trace,,52,,,4,,,,,,,,,,,,,,,
null,,confidence_buffer,551612,confidence_buffer,,null,,,,,,,,,,,,,,,,,,
1886,,pt2_memorable_rating,553499,Golden Trace,,53,,,5,,,,,,,,,,,,,,,
null,,confidence_buffer,553600,confidence_buffer,,null,,,,,,,,,,,,,,,,,,
2398.199999988079,,recognition_phase,555999,Golden Trace,,49,,,,,,old,1,1,,,,,,,,,,
null,,confidence_buffer,556101,confidence_buffer,,null,,,,,,,,,,,,,,,,,,
null,,thebreak,556603,break,,null,,,,,,,,,,,,,,,,,,
3595.199999988079,,realistic_rating,560199,Maravilla Springs,,52,Maravilla Springs,Fictional,4,,,,,,,,,,,,,,,
null,,confidence_buffer,560300,confidence_buffer,,null,,,,,,,,,,,,,,,,,,
1558.4000000059605,,pt2_unique_rating,561859,Maravilla Springs,,53,,,5,,,,,,,,,,,,,,,
null,,confidence_buffer,561960,confidence_buffer,,null,,,,,,,,,,,,,,,,,,
1922.300000011921,,pt2_memorable_rating,563883,Maravilla Springs,,53,,,5,,,,,,,,,,,,,,,
null,,confidence_buffer,563993,confidence_buffer,,null,,,,,,,,,,,,,,,,,,
1989.1000000238419,,recognition_phase,565983,Maravilla Springs,,49,,,,,,old,1,1,,,,,,,,,,
null,,confidence_buffer,566084,confidence_buffer,,null,,,,,,,,,,,,,,,,,,
null,,thebreak,566584,break,,null,,,,,,,,,,,,,,,,,,
3473.7000000178814,,realistic_rating,570058,Crestwood,,51,Crestwood,Fictional,3,,,,,,,,,,,,,,,
null,,confidence_buffer,570160,confidence_buffer,,null,,,,,,,,,,,,,,,,,,
1790.5999999940395,,pt2_unique_rating,571951,Crestwood,,52,,,4,,,,,,,,,,,,,,,
null,,confidence_buffer,572052,confidence_buffer,,null,,,,,,,,,,,,,,,,,,
1366,,pt2_memorable_rating,573419,Crestwood,,50,,,2,,,,,,,,,,,,,,,
null,,confidence_buffer,573521,confidence_buffer,,null,,,,,,,,,,,,,,,,,,
4269.800000011921,,recognition_phase,577791,Crestwood,,49,,,,,,old,0,0.75,,,,,,,,,,
null,,confidence_buffer,577893,confidence_buffer,,null,,,,,,,,,,,,,,,,,,
null,,thebreak,578400,break,,null,,,,,,,,,,,,,,,,,,
4142.4000000059605,,realistic_rating,582543,Custer,,53,Custer,US,5,,,,,,,,,,,,,,,
null,,confidence_buffer,582645,confidence_buffer,,null,,,,,,,,,,,,,,,,,,
1537.0999999940395,,pt2_unique_rating,584182,Custer,,51,,,3,,,,,,,,,,,,,,,
null,,confidence_buffer,584284,confidence_buffer,,null,,,,,,,,,,,,,,,,,,
1454.300000011921,,pt2_memorable_rating,585739,Custer,,52,,,4,,,,,,,,,,,,,,,
null,,confidence_buffer,585841,confidence_buffer,,null,,,,,,,,,,,,,,,,,,
3705,,recognition_phase,589546,Custer,,51,,,,,,new,0,0.6,,,,,,,,,,
null,,confidence_buffer,589647,confidence_buffer,,null,,,,,,,,,,,,,,,,,,
null,,thebreak,590148,break,,null,,,,,,,,,,,,,,,,,,
2030.1000000238419,,realistic_rating,592179,Driftwood Bay,,50,Driftwood Bay,Fictional,2,,,,,,,,,,,,,,,
null,,confidence_buffer,592280,confidence_buffer,,null,,,,,,,,,,,,,,,,,,
1982.300000011921,,pt2_unique_rating,594263,Driftwood Bay,,52,,,4,,,,,,,,,,,,,,,
null,,confidence_buffer,594364,confidence_buffer,,null,,,,,,,,,,,,,,,,,,
2726.300000011921,,probe_rating,597091,probe_rating,,50,,,,2,1,,,,,,,,,,,,,
null,,confidence_buffer,597192,confidence_buffer,,null,,,,,,,,,,,,,,,,,,
1602,,pt2_memorable_rating,598795,Driftwood Bay,,52,,,4,,,,,,,,,,,,,,,
null,,confidence_buffer,598897,confidence_buffer,,null,,,,,,,,,,,,,,,,,,
3188.699999988079,,recognition_phase,602086,Driftwood Bay,,49,,,,,,old,1,0.6666666666666666,,,,,,,,,,
null,,confidence_buffer,602188,confidence_buffer,,null,,,,,,,,,,,,,,,,,,
null,,thebreak,602688,break,,null,,,,,,,,,,,,,,,,,,
2754.9000000059605,,realistic_rating,605444,Peoria,,51,Peoria,US,3,,,,,,,,,,,,,,,
null,,confidence_buffer,605545,confidence_buffer,,null,,,,,,,,,,,,,,,,,,
3984.5,,pt2_unique_rating,609530,Peoria,,53,,,5,,,,,,,,,,,,,,,
null,,confidence_buffer,609632,confidence_buffer,,null,,,,,,,,,,,,,,,,,,
945.6999999880791,,pt2_memorable_rating,610578,Peoria,,52,,,4,,,,,,,,,,,,,,,
null,,confidence_buffer,610679,confidence_buffer,,null,,,,,,,,,,,,,,,,,,
3863.4000000059605,,recognition_phase,614543,Peoria,,52,,,,,,new,0,0.5714285714285714,,,,,,,,,,
null,,confidence_buffer,614643,confidence_buffer,,null,,,,,,,,,,,,,,,,,,
null,,thebreak,615145,break,,null,,,,,,,,,,,,,,,,,,
2221.199999988079,,realistic_rating,617366,Sitka,,51,Sitka,US,3,,,,,,,,,,,,,,,
null,,confidence_buffer,617468,confidence_buffer,,null,,,,,,,,,,,,,,,,,,
2097.699999988079,,probe_rating,619567,probe_rating,,49,,,,1,1,,,,,,,,,,,,,
null,,confidence_buffer,619668,confidence_buffer,,null,,,,,,,,,,,,,,,,,,
1834.2000000178814,,pt2_unique_rating,621503,Sitka,,52,,,4,,,,,,,,,,,,,,,
null,,confidence_buffer,621604,confidence_buffer,,null,,,,,,,,,,,,,,,,,,
1040.9000000059605,,pt2_memorable_rating,622646,Sitka,,51,,,3,,,,,,,,,,,,,,,
null,,confidence_buffer,622747,confidence_buffer,,null,,,,,,,,,,,,,,,,,,
3070.7999999821186,,recognition_phase,625819,Sitka,,52,,,,,,new,1,0.625,,,,,,,,,,
null,,confidence_buffer,625920,confidence_buffer,,null,,,,,,,,,,,,,,,,,,
null,,thebreak,626421,break,,null,,,,,,,,,,,,,,,,,,
3240.899999976158,,realistic_rating,629663,Ashford Hills,,51,Ashford Hills,Fictional,3,,,,,,,,,,,,,,,
null,,confidence_buffer,629763,confidence_buffer,,null,,,,,,,,,,,,,,,,,,
1689.9000000059605,,pt2_unique_rating,631454,Ashford Hills,,52,,,4,,,,,,,,,,,,,,,
null,,confidence_buffer,631555,confidence_buffer,,null,,,,,,,,,,,,,,,,,,
1018.5999999940395,,pt2_memorable_rating,632574,Ashford Hills,,51,,,3,,,,,,,,,,,,,,,
null,,confidence_buffer,632675,confidence_buffer,,null,,,,,,,,,,,,,,,,,,
2930.7999999821186,,recognition_phase,635606,Ashford Hills,,49,,,,,,old,1,0.6666666666666666,,,,,,,,,,
null,,confidence_buffer,635708,confidence_buffer,,null,,,,,,,,,,,,,,,,,,
null,,thebreak,636210,break,,null,,,,,,,,,,,,,,,,,,
1700.800000011921,,realistic_rating,637911,Elmsbury,,51,Elmsbury,Fictional,3,,,,,,,,,,,,,,,
null,,confidence_buffer,638014,confidence_buffer,,null,,,,,,,,,,,,,,,,,,
3336.5,,pt2_unique_rating,641351,Elmsbury,,51,,,3,,,,,,,,,,,,,,,
null,,confidence_buffer,641452,confidence_buffer,,null,,,,,,,,,,,,,,,,,,
1578,,pt2_memorable_rating,643031,Elmsbury,,52,,,4,,,,,,,,,,,,,,,
null,,confidence_buffer,643132,confidence_buffer,,null,,,,,,,,,,,,,,,,,,
2066.5,,recognition_phase,645199,Elmsbury,,49,,,,,,old,0,0.6,,,,,,,,,,
null,,confidence_buffer,645300,confidence_buffer,,null,,,,,,,,,,,,,,,,,,
null,,thebreak,645810,break,,null,,,,,,,,,,,,,,,,,,
2007.9000000059605,,realistic_rating,647818,Stonebrook,,51,Stonebrook,Fictional,3,,,,,,,,,,,,,,,
null,,confidence_buffer,647920,confidence_buffer,,null,,,,,,,,,,,,,,,,,,
2629.7999999821186,,pt2_unique_rating,650551,Stonebrook,,50,,,2,,,,,,,,,,,,,,,
null,,confidence_buffer,650652,confidence_buffer,,null,,,,,,,,,,,,,,,,,,
1544.9000000059605,,pt2_memorable_rating,652198,Stonebrook,,52,,,4,,,,,,,,,,,,,,,
null,,confidence_buffer,652299,confidence_buffer,,null,,,,,,,,,,,,,,,,,,
1634.300000011921,,recognition_phase,653934,Stonebrook,,49,,,,,,old,1,0.6363636363636364,,,,,,,,,,
null,,confidence_buffer,654044,confidence_buffer,,null,,,,,,,,,,,,,,,,,,
null,,thebreak,654546,break,,null,,,,,,,,,,,,,,,,,,
2471.7000000178814,,realistic_rating,657018,Silverpine,,51,Silverpine,Fictional,3,,,,,,,,,,,,,,,
null,,confidence_buffer,657120,confidence_buffer,,null,,,,,,,,,,,,,,,,,,
1589.699999988079,,pt2_unique_rating,658710,Silverpine,,52,,,4,,,,,,,,,,,,,,,
null,,confidence_buffer,658812,confidence_buffer,,null,,,,,,,,,,,,,,,,,,
2117.7000000178814,,pt2_memorable_rating,660930,Silverpine,,53,,,5,,,,,,,,,,,,,,,
null,,confidence_buffer,661031,confidence_buffer,,null,,,,,,,,,,,,,,,,,,
8365.899999976158,,recognition_phase,669398,Silverpine,,52,,,,,,new,1,0.6666666666666666,,,,,,,,,,
null,,confidence_buffer,669499,confidence_buffer,,null,,,,,,,,,,,,,,,,,,
null,,thebreak,670000,break,,null,,,,,,,,,,,,,,,,,,
2356.600000023842,,realistic_rating,672358,Ironwood Heights,,51,Ironwood Heights,Fictional,3,,,,,,,,,,,,,,,
null,,confidence_buffer,672460,confidence_buffer,,null,,,,,,,,,,,,,,,,,,
1492.300000011921,,pt2_unique_rating,673952,Ironwood Heights,,52,,,4,,,,,,,,,,,,,,,
null,,confidence_buffer,674054,confidence_buffer,,null,,,,,,,,,,,,,,,,,,
1483.2000000178814,,pt2_memorable_rating,675538,Ironwood Heights,,50,,,2,,,,,,,,,,,,,,,
null,,confidence_buffer,675639,confidence_buffer,,null,,,,,,,,,,,,,,,,,,
1922.7000000178814,,recognition_phase,677562,Ironwood Heights,,52,,,,,,new,1,0.6923076923076923,,,,,,,,,,
null,,confidence_buffer,677664,confidence_buffer,,null,,,,,,,,,,,,,,,,,,
null,,thebreak,678165,break,,null,,,,,,,,,,,,,,,,,,
2287.4000000059605,,realistic_rating,680453,Willowford,,51,Willowford,Fictional,3,,,,,,,,,,,,,,,
null,,confidence_buffer,680563,confidence_buffer,,null,,,,,,,,,,,,,,,,,,
1894.6000000238419,,pt2_unique_rating,682458,Willowford,,52,,,4,,,,,,,,,,,,,,,
null,,confidence_buffer,682559,confidence_buffer,,null,,,,,,,,,,,,,,,,,,
1318,,pt2_memorable_rating,683878,Willowford,,50,,,2,,,,,,,,,,,,,,,
null,,confidence_buffer,683978,confidence_buffer,,null,,,,,,,,,,,,,,,,,,
2514.7000000178814,,recognition_phase,686494,Willowford,,51,,,,,,new,0,0.6428571428571429,,,,,,,,,,
null,,confidence_buffer,686595,confidence_buffer,,null,,,,,,,,,,,,,,,,,,
null,,thebreak,687097,break,,null,,,,,,,,,,,,,,,,,,
3553.0999999940395,,realistic_rating,690651,Millstone,,52,Millstone,Fictional,4,,,,,,,,,,,,,,,
null,,confidence_buffer,690752,confidence_buffer,,null,,,,,,,,,,,,,,,,,,
1049.7000000178814,,pt2_unique_rating,691802,Millstone,,51,,,3,,,,,,,,,,,,,,,
null,,confidence_buffer,691904,confidence_buffer,,null,,,,,,,,,,,,,,,,,,
1289.199999988079,,pt2_memorable_rating,693194,Millstone,,52,,,4,,,,,,,,,,,,,,,
null,,confidence_buffer,693295,confidence_buffer,,null,,,,,,,,,,,,,,,,,,
2273.9000000059605,,recognition_phase,695570,Millstone,,49,,,,,,old,1,0.6666666666666666,,,,,,,,,,
null,,confidence_buffer,695672,confidence_buffer,,null,,,,,,,,,,,,,,,,,,
null,,thebreak,696173,break,,null,,,,,,,,,,,,,,,,,,
3516.199999988079,,realistic_rating,699690,Medora,,52,Medora,US,4,,,,,,,,,,,,,,,
null,,confidence_buffer,699792,confidence_buffer,,null,,,,,,,,,,,,,,,,,,
845.4000000059605,,pt2_unique_rating,700638,Medora,,53,,,5,,,,,,,,,,,,,,,
null,,confidence_buffer,700740,confidence_buffer,,null,,,,,,,,,,,,,,,,,,
1472.0999999940395,,pt2_memorable_rating,702212,Medora,,51,,,3,,,,,,,,,,,,,,,
null,,confidence_buffer,702313,confidence_buffer,,null,,,,,,,,,,,,,,,,,,
1568.1000000238419,,recognition_phase,703882,Medora,,49,,,,,,old,1,0.6875,,,,,,,,,,
null,,confidence_buffer,703983,confidence_buffer,,null,,,,,,,,,,,,,,,,,,
null,,thebreak,704485,break,,null,,,,,,,,,,,,,,,,,,
2737.5,,realistic_rating,707223,Lakehaven,,52,Lakehaven,Fictional,4,,,,,,,,,,,,,,,
null,,confidence_buffer,707324,confidence_buffer,,null,,,,,,,,,,,,,,,,,,
2521.199999988079,,pt2_unique_rating,709846,Lakehaven,,53,,,5,,,,,,,,,,,,,,,
null,,confidence_buffer,709947,confidence_buffer,,null,,,,,,,,,,,,,,,,,,
2130.800000011921,,pt2_memorable_rating,712079,Lakehaven,,53,,,5,,,,,,,,,,,,,,,
null,,confidence_buffer,712180,confidence_buffer,,null,,,,,,,,,,,,,,,,,,
2313.800000011921,,recognition_phase,714495,Lakehaven,,49,,,,,,old,1,0.7058823529411765,,,,,,,,,,
null,,confidence_buffer,714596,confidence_buffer,,null,,,,,,,,,,,,,,,,,,
null,,thebreak,715098,break,,null,,,,,,,,,,,,,,,,,,
107481.39999997616,,realistic_rating,822580,Cornwall,,52,Cornwall,US,4,,,,,,,,,,,,,,,
null,,confidence_buffer,822682,confidence_buffer,,null,,,,,,,,,,,,,,,,,,
2446.4000000059605,,pt2_unique_rating,825129,Cornwall,,53,,,5,,,,,,,,,,,,,,,
null,,confidence_buffer,825230,confidence_buffer,,null,,,,,,,,,,,,,,,,,,
1945.5,,pt2_memorable_rating,827176,Cornwall,,52,,,4,,,,,,,,,,,,,,,
null,,confidence_buffer,827277,confidence_buffer,,null,,,,,,,,,,,,,,,,,,
1571.300000011921,,recognition_phase,828849,Cornwall,,49,,,,,,old,1,0.7222222222222222,,,,,,,,,,
null,,confidence_buffer,828950,confidence_buffer,,null,,,,,,,,,,,,,,,,,,
null,,thebreak,829451,break,,null,,,,,,,,,,,,,,,,,,
8364.5,,realistic_rating,837816,Alliance,,50,Alliance,US,2,,,,,,,,,,,,,,,
null,,confidence_buffer,837919,confidence_buffer,,null,,,,,,,,,,,,,,,,,,
2265.9000000059605,,pt2_unique_rating,840185,Alliance,,51,,,3,,,,,,,,,,,,,,,
null,,confidence_buffer,840286,confidence_buffer,,null,,,,,,,,,,,,,,,,,,
1401.300000011921,,pt2_memorable_rating,841688,Alliance,,50,,,2,,,,,,,,,,,,,,,
null,,confidence_buffer,841790,confidence_buffer,,null,,,,,,,,,,,,,,,,,,
3105.9000000059605,,recognition_phase,844896,Alliance,,52,,,,,,new,1,0.7368421052631579,,,,,,,,,,
null,,confidence_buffer,844997,confidence_buffer,,null,,,,,,,,,,,,,,,,,,
null,,thebreak,845499,break,,null,,,,,,,,,,,,,,,,,,
3165,,realistic_rating,848664,Watkins Glen,,53,Watkins Glen,US,5,,,,,,,,,,,,,,,
null,,confidence_buffer,848766,confidence_buffer,,null,,,,,,,,,,,,,,,,,,
1357.5,,pt2_unique_rating,850124,Watkins Glen,,51,,,3,,,,,,,,,,,,,,,
null,,confidence_buffer,850227,confidence_buffer,,null,,,,,,,,,,,,,,,,,,
1133.0999999940395,,pt2_memorable_rating,851360,Watkins Glen,,52,,,4,,,,,,,,,,,,,,,
null,,confidence_buffer,851463,confidence_buffer,,null,,,,,,,,,,,,,,,,,,
1645.300000011921,,recognition_phase,853109,Watkins Glen,,49,,,,,,old,1,0.75,,,,,,,,,,
null,,confidence_buffer,853210,confidence_buffer,,null,,,,,,,,,,,,,,,,,,
null,,thebreak,853711,break,,null,,,,,,,,,,,,,,,,,,
3856.800000011921,,realistic_rating,857569,Juniper Creek,,52,Juniper Creek,Fictional,4,,,,,,,,,,,,,,,
null,,confidence_buffer,857670,confidence_buffer,,null,,,,,,,,,,,,,,,,,,
2309.0999999940395,,pt2_unique_rating,859980,Juniper Creek,,51,,,3,,,,,,,,,,,,,,,
null,,confidence_buffer,860082,confidence_buffer,,null,,,,,,,,,,,,,,,,,,
1666,,pt2_memorable_rating,861749,Juniper Creek,,51,,,3,,,,,,,,,,,,,,,
null,,confidence_buffer,861850,confidence_buffer,,null,,,,,,,,,,,,,,,,,,
2974.4000000059605,,recognition_phase,864825,Juniper Creek,,52,,,,,,new,1,0.7619047619047619,,,,,,,,,,
null,,confidence_buffer,864926,confidence_buffer,,null,,,,,,,,,,,,,,,,,,
null,,thebreak,865427,break,,null,,,,,,,,,,,,,,,,,,
3288,,realistic_rating,868716,Yukon,,53,Yukon,US,5,,,,,,,,,,,,,,,
null,,confidence_buffer,868817,confidence_buffer,,null,,,,,,,,,,,,,,,,,,
4938.9000000059605,,pt2_unique_rating,873756,Yukon,,52,,,4,,,,,,,,,,,,,,,
null,,confidence_buffer,873858,confidence_buffer,,null,,,,,,,,,,,,,,,,,,
2906,,pt2_memorable_rating,876764,Yukon,,52,,,4,,,,,,,,,,,,,,,
null,,confidence_buffer,876865,confidence_buffer,,null,,,,,,,,,,,,,,,,,,
2921.9000000059605,,recognition_phase,879788,Yukon,,52,,,,,,new,1,0.7727272727272727,,,,,,,,,,
null,,confidence_buffer,879890,confidence_buffer,,null,,,,,,,,,,,,,,,,,,
null,,thebreak,880391,break,,null,,,,,,,,,,,,,,,,,,
2985.2999999821186,,realistic_rating,883377,Livingston,,51,Livingston,US,3,,,,,,,,,,,,,,,
null,,confidence_buffer,883478,confidence_buffer,,null,,,,,,,,,,,,,,,,,,
2408.9000000059605,,pt2_unique_rating,885888,Livingston,,52,,,4,,,,,,,,,,,,,,,
null,,confidence_buffer,885989,confidence_buffer,,null,,,,,,,,,,,,,,,,,,
1719.199999988079,,pt2_memorable_rating,887708,Livingston,,50,,,2,,,,,,,,,,,,,,,
null,,confidence_buffer,887810,confidence_buffer,,null,,,,,,,,,,,,,,,,,,
3613.5,,recognition_phase,891424,Livingston,,49,,,,,,old,1,0.782608695652174,,,,,,,,,,
null,,confidence_buffer,891525,confidence_buffer,,null,,,,,,,,,,,,,,,,,,
null,,thebreak,892028,break,,null,,,,,,,,,,,,,,,,,,
2963.399999976158,,realistic_rating,894992,Leesburg,,53,Leesburg,US,5,,,,,,,,,,,,,,,
null,,confidence_buffer,895093,confidence_buffer,,null,,,,,,,,,,,,,,,,,,
1970,,probe_rating,897064,probe_rating,,50,,,,2,1,,,,,,,,,,,,,
null,,confidence_buffer,897166,confidence_buffer,,null,,,,,,,,,,,,,,,,,,
1481.7999999821186,,pt2_unique_rating,898648,Leesburg,,52,,,4,,,,,,,,,,,,,,,
null,,confidence_buffer,898750,confidence_buffer,,null,,,,,,,,,,,,,,,,,,
2045.5999999940395,,pt2_memorable_rating,900796,Leesburg,,53,,,5,,,,,,,,,,,,,,,
null,,confidence_buffer,900898,confidence_buffer,,null,,,,,,,,,,,,,,,,,,
957.9000000059605,,recognition_phase,901856,Leesburg,,49,,,,,,old,1,0.7916666666666666,,,,,,,,,,
null,,confidence_buffer,901958,confidence_buffer,,null,,,,,,,,,,,,,,,,,,
null,,thebreak,902460,break,,null,,,,,,,,,,,,,,,,,,
2423.800000011921,,realistic_rating,904884,Claywater,,52,Claywater,Fictional,4,,,,,,,,,,,,,,,
null,,confidence_buffer,904995,confidence_buffer,,null,,,,,,,,,,,,,,,,,,
1339.7999999821186,,pt2_unique_rating,906336,Claywater,,51,,,3,,,,,,,,,,,,,,,
null,,confidence_buffer,906437,confidence_buffer,,null,,,,,,,,,,,,,,,,,,
1978,,pt2_memorable_rating,908416,Claywater,,53,,,5,,,,,,,,,,,,,,,
null,,confidence_buffer,908518,confidence_buffer,,null,,,,,,,,,,,,,,,,,,
1757.800000011921,,recognition_phase,910276,Claywater,,49,,,,,,old,1,0.8,,,,,,,,,,
null,,confidence_buffer,910377,confidence_buffer,,null,,,,,,,,,,,,,,,,,,
null,,thebreak,910878,break,,null,,,,,,,,,,,,,,,,,,
2137.5,,realistic_rating,913017,New Hope,,52,New Hope,US,4,,,,,,,,,,,,,,,
null,,confidence_buffer,913118,confidence_buffer,,null,,,,,,,,,,,,,,,,,,
1508.8999999761581,,pt2_unique_rating,914627,New Hope,,52,,,4,,,,,,,,,,,,,,,
null,,confidence_buffer,914729,confidence_buffer,,null,,,,,,,,,,,,,,,,,,
1266.4000000059605,,pt2_memorable_rating,915996,New Hope,,53,,,5,,,,,,,,,,,,,,,
null,,confidence_buffer,916097,confidence_buffer,,null,,,,,,,,,,,,,,,,,,
2978.5,,recognition_phase,919076,New Hope,,51,,,,,,new,1,0.8076923076923077,,,,,,,,,,
null,,confidence_buffer,919178,confidence_buffer,,null,,,,,,,,,,,,,,,,,,
null,,thebreak,919679,break,,null,,,,,,,,,,,,,,,,,,
2565.800000011921,,realistic_rating,922245,Solara Glen,,53,Solara Glen,Fictional,5,,,,,,,,,,,,,,,
null,,confidence_buffer,922346,confidence_buffer,,null,,,,,,,,,,,,,,,,,,
1597.5,,pt2_unique_rating,923944,Solara Glen,,50,,,2,,,,,,,,,,,,,,,
null,,confidence_buffer,924046,confidence_buffer,,null,,,,,,,,,,,,,,,,,,
1897.0999999940395,,pt2_memorable_rating,925943,Solara Glen,,52,,,4,,,,,,,,,,,,,,,
null,,confidence_buffer,926055,confidence_buffer,,null,,,,,,,,,,,,,,,,,,
3680.4000000059605,,recognition_phase,929736,Solara Glen,,52,,,,,,new,1,0.8148148148148148,,,,,,,,,,
null,,confidence_buffer,929838,confidence_buffer,,null,,,,,,,,,,,,,,,,,,
null,,thebreak,930340,break,,null,,,,,,,,,,,,,,,,,,
2231.7000000178814,,realistic_rating,932572,Hanover,,50,Hanover,US,2,,,,,,,,,,,,,,,
null,,confidence_buffer,932674,confidence_buffer,,null,,,,,,,,,,,,,,,,,,
1332.800000011921,,pt2_unique_rating,934007,Hanover,,52,,,4,,,,,,,,,,,,,,,
null,,confidence_buffer,934109,confidence_buffer,,null,,,,,,,,,,,,,,,,,,
1185.699999988079,,pt2_memorable_rating,935296,Hanover,,51,,,3,,,,,,,,,,,,,,,
null,,confidence_buffer,935397,confidence_buffer,,null,,,,,,,,,,,,,,,,,,
1359.2000000178814,,recognition_phase,936757,Hanover,,49,,,,,,old,1,0.8214285714285714,,,,,,,,,,
null,,confidence_buffer,936859,confidence_buffer,,null,,,,,,,,,,,,,,,,,,
null,,thebreak,937373,break,,null,,,,,,,,,,,,,,,,,,
2522.300000011921,,realistic_rating,939896,Sunmere,,51,Sunmere,Fictional,3,,,,,,,,,,,,,,,
null,,confidence_buffer,939998,confidence_buffer,,null,,,,,,,,,,,,,,,,,,
1864.2999999821186,,pt2_unique_rating,941863,Sunmere,,52,,,4,,,,,,,,,,,,,,,
null,,confidence_buffer,941964,confidence_buffer,,null,,,,,,,,,,,,,,,,,,
2090.7999999821186,,probe_rating,944056,probe_rating,,53,,,,5,1,,,,,,,,,,,,,
null,,confidence_buffer,944158,confidence_buffer,,null,,,,,,,,,,,,,,,,,,
1346.5999999940395,,pt2_memorable_rating,945505,Sunmere,,51,,,3,,,,,,,,,,,,,,,
null,,confidence_buffer,945606,confidence_buffer,,null,,,,,,,,,,,,,,,,,,
3409.5999999940395,,recognition_phase,949017,Sunmere,,52,,,,,,new,1,0.8275862068965517,,,,,,,,,,
null,,confidence_buffer,949118,confidence_buffer,,null,,,,,,,,,,,,,,,,,,
null,,thebreak,949620,break,,null,,,,,,,,,,,,,,,,,,
1903.5999999940395,,realistic_rating,951524,Delaware City,,53,Delaware City,US,5,,,,,,,,,,,,,,,
null,,confidence_buffer,951626,confidence_buffer,,null,,,,,,,,,,,,,,,,,,
1613,,pt2_unique_rating,953240,Delaware City,,53,,,5,,,,,,,,,,,,,,,
null,,confidence_buffer,953341,confidence_buffer,,null,,,,,,,,,,,,,,,,,,
815.1999999880791,,pt2_memorable_rating,954157,Delaware City,,51,,,3,,,,,,,,,,,,,,,
null,,confidence_buffer,954258,confidence_buffer,,null,,,,,,,,,,,,,,,,,,
3416.899999976158,,recognition_phase,957675,Delaware City,,49,,,,,,old,1,0.8333333333333334,,,,,,,,,,
null,,confidence_buffer,957778,confidence_buffer,,null,,,,,,,,,,,,,,,,,,
null,,thebreak,958279,break,,null,,,,,,,,,,,,,,,,,,
2205.9000000059605,,realistic_rating,960485,Hot Springs,,52,Hot Springs,US,4,,,,,,,,,,,,,,,
null,,confidence_buffer,960586,confidence_buffer,,null,,,,,,,,,,,,,,,,,,
1216.6000000238419,,pt2_unique_rating,961804,Hot Springs,,51,,,3,,,,,,,,,,,,,,,
null,,confidence_buffer,961905,confidence_buffer,,null,,,,,,,,,,,,,,,,,,
1350.199999988079,,pt2_memorable_rating,963256,Hot Springs,,53,,,5,,,,,,,,,,,,,,,
null,,confidence_buffer,963357,confidence_buffer,,null,,,,,,,,,,,,,,,,,,
2250.2000000178814,,recognition_phase,965608,Hot Springs,,49,,,,,,old,1,0.8387096774193549,,,,,,,,,,
null,,confidence_buffer,965710,confidence_buffer,,null,,,,,,,,,,,,,,,,,,
null,,thebreak,966212,break,,null,,,,,,,,,,,,,,,,,,
2263.2999999821186,,realistic_rating,968476,Summershade,,52,Summershade,Fictional,4,,,,,,,,,,,,,,,
null,,confidence_buffer,968578,confidence_buffer,,null,,,,,,,,,,,,,,,,,,
944.9000000059605,,pt2_unique_rating,969524,Summershade,,51,,,3,,,,,,,,,,,,,,,
null,,confidence_buffer,969625,confidence_buffer,,null,,,,,,,,,,,,,,,,,,
1257.5,,pt2_memorable_rating,970883,Summershade,,53,,,5,,,,,,,,,,,,,,,
null,,confidence_buffer,970984,confidence_buffer,,null,,,,,,,,,,,,,,,,,,
2774.7999999821186,,recognition_phase,973759,Summershade,,51,,,,,,new,1,0.84375,,,,,,,,,,
null,,confidence_buffer,973860,confidence_buffer,,null,,,,,,,,,,,,,,,,,,
null,,thebreak,974362,break,,null,,,,,,,,,,,,,,,,,,
2168.699999988079,,realistic_rating,976531,Montelake,,52,Montelake,Fictional,4,,,,,,,,,,,,,,,
null,,confidence_buffer,976632,confidence_buffer,,null,,,,,,,,,,,,,,,,,,
1602.5,,pt2_unique_rating,978235,Montelake,,53,,,5,,,,,,,,,,,,,,,
null,,confidence_buffer,978336,confidence_buffer,,null,,,,,,,,,,,,,,,,,,
2758.7000000178814,,pt2_memorable_rating,981095,Montelake,,52,,,4,,,,,,,,,,,,,,,
null,,confidence_buffer,981196,confidence_buffer,,null,,,,,,,,,,,,,,,,,,
2730,,recognition_phase,983927,Montelake,,52,,,,,,new,0,0.8181818181818182,,,,,,,,,,
null,,confidence_buffer,984028,confidence_buffer,,null,,,,,,,,,,,,,,,,,,
null,,thebreak,984530,break,,null,,,,,,,,,,,,,,,,,,
2784.600000023842,,realistic_rating,987315,Briarfield,,50,Briarfield,Fictional,2,,,,,,,,,,,,,,,
null,,confidence_buffer,987416,confidence_buffer,,null,,,,,,,,,,,,,,,,,,
1529.800000011921,,pt2_unique_rating,988947,Briarfield,,53,,,5,,,,,,,,,,,,,,,
null,,confidence_buffer,989048,confidence_buffer,,null,,,,,,,,,,,,,,,,,,
1986.199999988079,,pt2_memorable_rating,991035,Briarfield,,52,,,4,,,,,,,,,,,,,,,
null,,confidence_buffer,991137,confidence_buffer,,null,,,,,,,,,,,,,,,,,,
1697.5,,recognition_phase,992835,Briarfield,,52,,,,,,new,1,0.8235294117647058,,,,,,,,,,
null,,confidence_buffer,992938,confidence_buffer,,null,,,,,,,,,,,,,,,,,,
null,,thebreak,993438,break,,null,,,,,,,,,,,,,,,,,,
3108.100000023842,,realistic_rating,996547,Healdsburg,,50,Healdsburg,US,2,,,,,,,,,,,,,,,
null,,confidence_buffer,996649,confidence_buffer,,null,,,,,,,,,,,,,,,,,,
2585.800000011921,,pt2_unique_rating,999235,Healdsburg,,53,,,5,,,,,,,,,,,,,,,
null,,confidence_buffer,999336,confidence_buffer,,null,,,,,,,,,,,,,,,,,,
1229.3999999761581,,pt2_memorable_rating,1000566,Healdsburg,,51,,,3,,,,,,,,,,,,,,,
null,,confidence_buffer,1000668,confidence_buffer,,null,,,,,,,,,,,,,,,,,,
3146.399999976158,,recognition_phase,1003815,Healdsburg,,52,,,,,,new,1,0.8285714285714286,,,,,,,,,,
null,,confidence_buffer,1003916,confidence_buffer,,null,,,,,,,,,,,,,,,,,,
null,,thebreak,1004417,break,,null,,,,,,,,,,,,,,,,,,
7417.600000023842,,realistic_rating,1011835,Clearbrook,,51,Clearbrook,Fictional,3,,,,,,,,,,,,,,,
null,,confidence_buffer,1011937,confidence_buffer,,null,,,,,,,,,,,,,,,,,,
1809.300000011921,,pt2_unique_rating,1013747,Clearbrook,,53,,,5,,,,,,,,,,,,,,,
null,,confidence_buffer,1013848,confidence_buffer,,null,,,,,,,,,,,,,,,,,,
1398.300000011921,,pt2_memorable_rating,1015247,Clearbrook,,52,,,4,,,,,,,,,,,,,,,
null,,confidence_buffer,1015348,confidence_buffer,,null,,,,,,,,,,,,,,,,,,
2025.7000000178814,,recognition_phase,1017375,Clearbrook,,51,,,,,,new,0,0.8055555555555556,,,,,,,,,,
null,,confidence_buffer,1017476,confidence_buffer,,null,,,,,,,,,,,,,,,,,,
null,,thebreak,1017977,break,,null,,,,,,,,,,,,,,,,,,
2589,,realistic_rating,1020567,Gatlinburg,,53,Gatlinburg,US,5,,,,,,,,,,,,,,,
null,,confidence_buffer,1020668,confidence_buffer,,null,,,,,,,,,,,,,,,,,,
1658,,pt2_unique_rating,1022327,Gatlinburg,,51,,,3,,,,,,,,,,,,,,,
null,,confidence_buffer,1022428,confidence_buffer,,null,,,,,,,,,,,,,,,,,,
1786.300000011921,,pt2_memorable_rating,1024215,Gatlinburg,,53,,,5,,,,,,,,,,,,,,,
null,,confidence_buffer,1024316,confidence_buffer,,null,,,,,,,,,,,,,,,,,,
3162.0999999940395,,recognition_phase,1027479,Gatlinburg,,49,,,,,,old,1,0.8108108108108109,,,,,,,,,,
null,,confidence_buffer,1027580,confidence_buffer,,null,,,,,,,,,,,,,,,,,,
null,,thebreak,1028081,break,,null,,,,,,,,,,,,,,,,,,
1888.9000000059605,,realistic_rating,1029971,Highvale,,52,Highvale,Fictional,4,,,,,,,,,,,,,,,
null,,confidence_buffer,1030072,confidence_buffer,,null,,,,,,,,,,,,,,,,,,
2133.5,,pt2_unique_rating,1032207,Highvale,,53,,,5,,,,,,,,,,,,,,,
null,,confidence_buffer,1032308,confidence_buffer,,null,,,,,,,,,,,,,,,,,,
1438.300000011921,,pt2_memorable_rating,1033747,Highvale,,51,,,3,,,,,,,,,,,,,,,
null,,confidence_buffer,1033848,confidence_buffer,,null,,,,,,,,,,,,,,,,,,
1913.7999999821186,,recognition_phase,1035762,Highvale,,52,,,,,,new,1,0.8157894736842105,,,,,,,,,,
null,,confidence_buffer,1035865,confidence_buffer,,null,,,,,,,,,,,,,,,,,,
null,,thebreak,1036367,break,,null,,,,,,,,,,,,,,,,,,
2959.0999999940395,,realistic_rating,1039327,Cedarwyn,,50,Cedarwyn,Fictional,2,,,,,,,,,,,,,,,
null,,confidence_buffer,1039429,confidence_buffer,,null,,,,,,,,,,,,,,,,,,
1936.5,,probe_rating,1041366,probe_rating,,53,,,,5,1,,,,,,,,,,,,,
null,,confidence_buffer,1041468,confidence_buffer,,null,,,,,,,,,,,,,,,,,,
2565.800000011921,,pt2_unique_rating,1044035,Cedarwyn,,52,,,4,,,,,,,,,,,,,,,
null,,confidence_buffer,1044137,confidence_buffer,,null,,,,,,,,,,,,,,,,,,
2877.5999999940395,,pt2_memorable_rating,1047015,Cedarwyn,,52,,,4,,,,,,,,,,,,,,,
null,,confidence_buffer,1047116,confidence_buffer,,null,,,,,,,,,,,,,,,,,,
2633.5999999940395,,recognition_phase,1049751,Cedarwyn,,52,,,,,,new,0,0.7948717948717948,,,,,,,,,,
null,,confidence_buffer,1049852,confidence_buffer,,null,,,,,,,,,,,,,,,,,,
null,,thebreak,1050353,break,,null,,,,,,,,,,,,,,,,,,
4922,,realistic_rating,1055276,Hollendale,,53,Hollendale,Fictional,5,,,,,,,,,,,,,,,
null,,confidence_buffer,1055376,confidence_buffer,,null,,,,,,,,,,,,,,,,,,
2377.5,,pt2_unique_rating,1057755,Hollendale,,51,,,3,,,,,,,,,,,,,,,
null,,confidence_buffer,1057855,confidence_buffer,,null,,,,,,,,,,,,,,,,,,
1742.199999988079,,pt2_memorable_rating,1059598,Hollendale,,52,,,4,,,,,,,,,,,,,,,
null,,confidence_buffer,1059700,confidence_buffer,,null,,,,,,,,,,,,,,,,,,
1585.800000011921,,recognition_phase,1061287,Hollendale,,52,,,,,,new,1,0.8,,,,,,,,,,
null,,confidence_buffer,1061388,confidence_buffer,,null,,,,,,,,,,,,,,,,,,
null,,thebreak,1061889,break,,null,,,,,,,,,,,,,,,,,,
2784,,realistic_rating,1064674,Riverlyn,,50,Riverlyn,Fictional,2,,,,,,,,,,,,,,,
null,,confidence_buffer,1064775,confidence_buffer,,null,,,,,,,,,,,,,,,,,,
1670.0999999940395,,pt2_unique_rating,1066446,Riverlyn,,52,,,4,,,,,,,,,,,,,,,
null,,confidence_buffer,1066548,confidence_buffer,,null,,,,,,,,,,,,,,,,,,
1774.5,,pt2_memorable_rating,1068323,Riverlyn,,51,,,3,,,,,,,,,,,,,,,
null,,confidence_buffer,1068424,confidence_buffer,,null,,,,,,,,,,,,,,,,,,
1530,,recognition_phase,1069954,Riverlyn,,49,,,,,,old,1,0.8048780487804879,,,,,,,,,,
null,,confidence_buffer,1070056,confidence_buffer,,null,,,,,,,,,,,,,,,,,,
null,,thebreak,1070558,break,,null,,,,,,,,,,,,,,,,,,
3344.0999999940395,,realistic_rating,1073903,Orr,,51,Orr,US,3,,,,,,,,,,,,,,,
null,,confidence_buffer,1074005,confidence_buffer,,null,,,,,,,,,,,,,,,,,,
2261.199999988079,,pt2_unique_rating,1076266,Orr,,53,,,5,,,,,,,,,,,,,,,
null,,confidence_buffer,1076369,confidence_buffer,,null,,,,,,,,,,,,,,,,,,
934,,pt2_memorable_rating,1077303,Orr,,52,,,4,,,,,,,,,,,,,,,
null,,confidence_buffer,1077404,confidence_buffer,,null,,,,,,,,,,,,,,,,,,
1789.300000011921,,probe_rating,1079194,probe_rating,,53,,,,5,1,,,,,,,,,,,,,
null,,confidence_buffer,1079296,confidence_buffer,,null,,,,,,,,,,,,,,,,,,
2673.699999988079,,recognition_phase,1081970,Orr,,52,,,,,,new,1,0.8095238095238095,,,,,,,,,,
null,,confidence_buffer,1082071,confidence_buffer,,null,,,,,,,,,,,,,,,,,,
null,,thebreak,1082573,break,,null,,,,,,,,,,,,,,,,,,
2281.0999999940395,,realistic_rating,1084854,Albuquerque,,50,Albuquerque,US,2,,,,,,,,,,,,,,,
null,,confidence_buffer,1084956,confidence_buffer,,null,,,,,,,,,,,,,,,,,,
3773.2000000178814,,pt2_unique_rating,1088730,Albuquerque,,53,,,5,,,,,,,,,,,,,,,
null,,confidence_buffer,1088831,confidence_buffer,,null,,,,,,,,,,,,,,,,,,
1934.0999999940395,,pt2_memorable_rating,1090766,Albuquerque,,52,,,4,,,,,,,,,,,,,,,
null,,confidence_buffer,1090868,confidence_buffer,,null,,,,,,,,,,,,,,,,,,
2185.7000000178814,,probe_rating,1093054,probe_rating,,49,,,,1,1,,,,,,,,,,,,,
null,,confidence_buffer,1093155,confidence_buffer,,null,,,,,,,,,,,,,,,,,,
3889.5999999940395,,recognition_phase,1097046,Albuquerque,,52,,,,,,new,1,0.813953488372093,,,,,,,,,,
null,,confidence_buffer,1097148,confidence_buffer,,null,,,,,,,,,,,,,,,,,,
null,,thebreak,1097649,break,,null,,,,,,,,,,,,,,,,,,
2275.699999988079,,realistic_rating,1099926,Gardnerville,,53,Gardnerville,US,5,,,,,,,,,,,,,,,
null,,confidence_buffer,1100028,confidence_buffer,,null,,,,,,,,,,,,,,,,,,
1065.2999999821186,,pt2_unique_rating,1101094,Gardnerville,,52,,,4,,,,,,,,,,,,,,,
null,,confidence_buffer,1101195,confidence_buffer,,null,,,,,,,,,,,,,,,,,,
2561.800000011921,,probe_rating,1103758,probe_rating,,52,,,,4,1,,,,,,,,,,,,,
null,,confidence_buffer,1103860,confidence_buffer,,null,,,,,,,,,,,,,,,,,,
2309.199999988079,,pt2_memorable_rating,1106170,Gardnerville,,53,,,5,,,,,,,,,,,,,,,
null,,confidence_buffer,1106271,confidence_buffer,,null,,,,,,,,,,,,,,,,,,
1633.7999999821186,,recognition_phase,1107906,Gardnerville,,52,,,,,,new,0,0.7954545454545454,,,,,,,,,,
null,,confidence_buffer,1108007,confidence_buffer,,null,,,,,,,,,,,,,,,,,,
null,,thebreak,1108509,break,,null,,,,,,,,,,,,,,,,,,
3772.199999988079,,realistic_rating,1112282,Lake of the Ozarks,,51,Lake of the Ozarks,US,3,,,,,,,,,,,,,,,
null,,confidence_buffer,1112383,confidence_buffer,,null,,,,,,,,,,,,,,,,,,
1650,,pt2_unique_rating,1114034,Lake of the Ozarks,,52,,,4,,,,,,,,,,,,,,,
null,,confidence_buffer,1114135,confidence_buffer,,null,,,,,,,,,,,,,,,,,,
870,,pt2_memorable_rating,1115005,Lake of the Ozarks,,50,,,2,,,,,,,,,,,,,,,
null,,confidence_buffer,1115107,confidence_buffer,,null,,,,,,,,,,,,,,,,,,
1506.5999999940395,,recognition_phase,1116614,Lake of the Ozarks,,52,,,,,,new,1,0.8,,,,,,,,,,
null,,confidence_buffer,1116716,confidence_buffer,,null,,,,,,,,,,,,,,,,,,
null,,thebreak,1117218,break,,null,,,,,,,,,,,,,,,,,,
1694.4000000059605,,realistic_rating,1118913,Baymarsh,,51,Baymarsh,Fictional,3,,,,,,,,,,,,,,,
null,,confidence_buffer,1119015,confidence_buffer,,null,,,,,,,,,,,,,,,,,,
1378.800000011921,,pt2_unique_rating,1120394,Baymarsh,,53,,,5,,,,,,,,,,,,,,,
null,,confidence_buffer,1120507,confidence_buffer,,null,,,,,,,,,,,,,,,,,,
845.9000000059605,,pt2_memorable_rating,1121354,Baymarsh,,52,,,4,,,,,,,,,,,,,,,
null,,confidence_buffer,1121455,confidence_buffer,,null,,,,,,,,,,,,,,,,,,
3457.699999988079,,recognition_phase,1124914,Baymarsh,,50,,,,,,old,0,0.782608695652174,,,,,,,,,,
null,,confidence_buffer,1125015,confidence_buffer,,null,,,,,,,,,,,,,,,,,,
null,,thebreak,1125517,break,,null,,,,,,,,,,,,,,,,,,
2504.199999988079,,realistic_rating,1128022,Brookmere,,51,Brookmere,Fictional,3,,,,,,,,,,,,,,,
null,,confidence_buffer,1128124,confidence_buffer,,null,,,,,,,,,,,,,,,,,,
1448.4000000059605,,pt2_unique_rating,1129574,Brookmere,,53,,,5,,,,,,,,,,,,,,,
null,,confidence_buffer,1129683,confidence_buffer,,null,,,,,,,,,,,,,,,,,,
1013.7999999821186,,pt2_memorable_rating,1130697,Brookmere,,52,,,4,,,,,,,,,,,,,,,
null,,confidence_buffer,1130799,confidence_buffer,,null,,,,,,,,,,,,,,,,,,
1574.3999999761581,,recognition_phase,1132374,Brookmere,,52,,,,,,new,1,0.7872340425531915,,,,,,,,,,
null,,confidence_buffer,1132475,confidence_buffer,,null,,,,,,,,,,,,,,,,,,
null,,thebreak,1132977,break,,null,,,,,,,,,,,,,,,,,,
3367.9000000059605,,realistic_rating,1136345,North Arroya,,50,North Arroya,Fictional,2,,,,,,,,,,,,,,,
null,,confidence_buffer,1136447,confidence_buffer,,null,,,,,,,,,,,,,,,,,,
1133.7000000178814,,pt2_unique_rating,1137581,North Arroya,,49,,,1,,,,,,,,,,,,,,,
null,,confidence_buffer,1137683,confidence_buffer,,null,,,,,,,,,,,,,,,,,,
1938.2999999821186,,pt2_memorable_rating,1139622,North Arroya,,53,,,5,,,,,,,,,,,,,,,
null,,confidence_buffer,1139723,confidence_buffer,,null,,,,,,,,,,,,,,,,,,
1949.3999999761581,,recognition_phase,1141673,North Arroya,,52,,,,,,new,1,0.7916666666666666,,,,,,,,,,
null,,confidence_buffer,1141775,confidence_buffer,,null,,,,,,,,,,,,,,,,,,
null,,thebreak,1142276,break,,null,,,,,,,,,,,,,,,,,,
3044.699999988079,,realistic_rating,1145321,Newport,,52,Newport,US,4,,,,,,,,,,,,,,,
null,,confidence_buffer,1145423,confidence_buffer,,null,,,,,,,,,,,,,,,,,,
1122,,pt2_unique_rating,1146546,Newport,,52,,,4,,,,,,,,,,,,,,,
null,,confidence_buffer,1146647,confidence_buffer,,null,,,,,,,,,,,,,,,,,,
2539,,pt2_memorable_rating,1149187,Newport,,52,,,4,,,,,,,,,,,,,,,
null,,confidence_buffer,1149288,confidence_buffer,,null,,,,,,,,,,,,,,,,,,
1265.0999999940395,,recognition_phase,1150554,Newport,,49,,,,,,old,1,0.7959183673469388,,,,,,,,,,
null,,confidence_buffer,1150655,confidence_buffer,,null,,,,,,,,,,,,,,,,,,
null,,thebreak,1151157,break,,null,,,,,,,,,,,,,,,,,,
2787.800000011921,,realistic_rating,1153945,Sierra Hollow,,51,Sierra Hollow,Fictional,3,,,,,,,,,,,,,,,
null,,confidence_buffer,1154047,confidence_buffer,,null,,,,,,,,,,,,,,,,,,
2205.399999976158,,probe_rating,1156253,probe_rating,,53,,,,5,1,,,,,,,,,,,,,
null,,confidence_buffer,1156355,confidence_buffer,,null,,,,,,,,,,,,,,,,,,
2310,,pt2_unique_rating,1158665,Sierra Hollow,,53,,,5,,,,,,,,,,,,,,,
null,,confidence_buffer,1158767,confidence_buffer,,null,,,,,,,,,,,,,,,,,,
1529.9000000059605,,pt2_memorable_rating,1160298,Sierra Hollow,,51,,,3,,,,,,,,,,,,,,,
null,,confidence_buffer,1160399,confidence_buffer,,null,,,,,,,,,,,,,,,,,,
1347.2000000178814,,recognition_phase,1161747,Sierra Hollow,,49,,,,,,old,1,0.8,,,,,,,,,,
null,,confidence_buffer,1161849,confidence_buffer,,null,,,,,,,,,,,,,,,,,,
null,,thebreak,1162350,break,,null,,,,,,,,,,,,,,,,,,
1954.5999999940395,,realistic_rating,1164305,Racine,,52,Racine,US,4,,,,,,,,,,,,,,,
null,,confidence_buffer,1164407,confidence_buffer,,null,,,,,,,,,,,,,,,,,,
1237.800000011921,,pt2_unique_rating,1165645,Racine,,53,,,5,,,,,,,,,,,,,,,
null,,confidence_buffer,1165747,confidence_buffer,,null,,,,,,,,,,,,,,,,,,
1117.9000000059605,,pt2_memorable_rating,1166865,Racine,,51,,,3,,,,,,,,,,,,,,,
null,,confidence_buffer,1166967,confidence_buffer,,null,,,,,,,,,,,,,,,,,,
2137.7999999821186,,recognition_phase,1169105,Racine,,52,,,,,,new,1,0.803921568627451,,,,,,,,,,
null,,confidence_buffer,1169207,confidence_buffer,,null,,,,,,,,,,,,,,,,,,
null,,thebreak,1169707,break,,null,,,,,,,,,,,,,,,,,,
2437.2999999821186,,realistic_rating,1172145,Assateague Island,,50,Assateague Island,US,2,,,,,,,,,,,,,,,
null,,confidence_buffer,1172247,confidence_buffer,,null,,,,,,,,,,,,,,,,,,
2577.2999999821186,,probe_rating,1174825,probe_rating,,53,,,,5,0,,,,,,,,,,,,,
null,,confidence_buffer,1174927,confidence_buffer,,null,,,,,,,,,,,,,,,,,,
7353.4000000059605,,pt2_unique_rating,1182281,Assateague Island,,50,,,2,,,,,,,,,,,,,,,
null,,confidence_buffer,1182382,confidence_buffer,,null,,,,,,,,,,,,,,,,,,
1357.800000011921,,pt2_memorable_rating,1183741,Assateague Island,,52,,,4,,,,,,,,,,,,,,,
null,,confidence_buffer,1183842,confidence_buffer,,null,,,,,,,,,,,,,,,,,,
3101.9000000059605,,recognition_phase,1186945,Assateague Island,,50,,,,,,old,0,0.7884615384615384,,,,,,,,,,
null,,confidence_buffer,1187053,confidence_buffer,,null,,,,,,,,,,,,,,,,,,
null,,thebreak,1187554,break,,null,,,,,,,,,,,,,,,,,,
1766.2999999821186,,realistic_rating,1189321,Rosehollow,,52,Rosehollow,Fictional,4,,,,,,,,,,,,,,,
null,,confidence_buffer,1189422,confidence_buffer,,null,,,,,,,,,,,,,,,,,,
1778.800000011921,,pt2_unique_rating,1191202,Rosehollow,,49,,,1,,,,,,,,,,,,,,,
null,,confidence_buffer,1191303,confidence_buffer,,null,,,,,,,,,,,,,,,,,,
1781.699999988079,,pt2_memorable_rating,1193085,Rosehollow,,51,,,3,,,,,,,,,,,,,,,
null,,confidence_buffer,1193187,confidence_buffer,,null,,,,,,,,,,,,,,,,,,
1929.2999999821186,,probe_rating,1195117,probe_rating,,51,,,,3,1,,,,,,,,,,,,,
null,,confidence_buffer,1195218,confidence_buffer,,null,,,,,,,,,,,,,,,,,,
1754.5999999940395,,recognition_phase,1196973,Rosehollow,,52,,,,,,new,1,0.7924528301886793,,,,,,,,,,
null,,confidence_buffer,1197076,confidence_buffer,,null,,,,,,,,,,,,,,,,,,
null,,thebreak,1197578,break,,null,,,,,,,,,,,,,,,,,,
2326.4000000059605,,realistic_rating,1199905,Abilene,,50,Abilene,US,2,,,,,,,,,,,,,,,
null,,confidence_buffer,1200007,confidence_buffer,,null,,,,,,,,,,,,,,,,,,
2364.9000000059605,,probe_rating,1202373,probe_rating,,49,,,,1,1,,,,,,,,,,,,,
null,,confidence_buffer,1202476,confidence_buffer,,null,,,,,,,,,,,,,,,,,,
1461.9000000059605,,pt2_unique_rating,1203938,Abilene,,52,,,4,,,,,,,,,,,,,,,
null,,confidence_buffer,1204040,confidence_buffer,,null,,,,,,,,,,,,,,,,,,
1608.4000000059605,,pt2_memorable_rating,1205649,Abilene,,51,,,3,,,,,,,,,,,,,,,
null,,confidence_buffer,1205750,confidence_buffer,,null,,,,,,,,,,,,,,,,,,
3061.7999999821186,,recognition_phase,1208813,Abilene,,52,,,,,,new,1,0.7962962962962963,,,,,,,,,,
null,,confidence_buffer,1208914,confidence_buffer,,null,,,,,,,,,,,,,,,,,,
null,,thebreak,1209415,break,,null,,,,,,,,,,,,,,,,,,
2137.199999988079,,realistic_rating,1211553,West Palm Beach,,49,West Palm Beach,US,1,,,,,,,,,,,,,,,
null,,confidence_buffer,1211655,confidence_buffer,,null,,,,,,,,,,,,,,,,,,
1381.300000011921,,pt2_unique_rating,1213037,West Palm Beach,,53,,,5,,,,,,,,,,,,,,,
null,,confidence_buffer,1213138,confidence_buffer,,null,,,,,,,,,,,,,,,,,,
1803,,pt2_memorable_rating,1214942,West Palm Beach,,51,,,3,,,,,,,,,,,,,,,
null,,confidence_buffer,1215043,confidence_buffer,,null,,,,,,,,,,,,,,,,,,
1449.800000011921,,recognition_phase,1216493,West Palm Beach,,52,,,,,,new,1,0.8,,,,,,,,,,
null,,confidence_buffer,1216595,confidence_buffer,,null,,,,,,,,,,,,,,,,,,
null,,thebreak,1217096,break,,null,,,,,,,,,,,,,,,,,,
2147.4000000059605,,realistic_rating,1219244,East Ladera,,50,East Ladera,Fictional,2,,,,,,,,,,,,,,,
null,,confidence_buffer,1219346,confidence_buffer,,null,,,,,,,,,,,,,,,,,,
2566.5,,pt2_unique_rating,1221913,East Ladera,,53,,,5,,,,,,,,,,,,,,,
null,,confidence_buffer,1222014,confidence_buffer,,null,,,,,,,,,,,,,,,,,,
1378.5,,pt2_memorable_rating,1223394,East Ladera,,52,,,4,,,,,,,,,,,,,,,
null,,confidence_buffer,1223495,confidence_buffer,,null,,,,,,,,,,,,,,,,,,
2485.300000011921,,recognition_phase,1225981,East Ladera,,52,,,,,,new,0,0.7857142857142857,,,,,,,,,,
null,,confidence_buffer,1226082,confidence_buffer,,null,,,,,,,,,,,,,,,,,,
null,,thebreak,1226584,break,,null,,,,,,,,,,,,,,,,,,
2561.2000000178814,,realistic_rating,1229145,Berkeley Springs,,49,Berkeley Springs,US,1,,,,,,,,,,,,,,,
null,,confidence_buffer,1229246,confidence_buffer,,null,,,,,,,,,,,,,,,,,,
2485.5999999940395,,pt2_unique_rating,1231733,Berkeley Springs,,52,,,4,,,,,,,,,,,,,,,
null,,confidence_buffer,1231834,confidence_buffer,,null,,,,,,,,,,,,,,,,,,
1469.6000000238419,,pt2_memorable_rating,1233304,Berkeley Springs,,51,,,3,,,,,,,,,,,,,,,
null,,confidence_buffer,1233406,confidence_buffer,,null,,,,,,,,,,,,,,,,,,
2546.5,,recognition_phase,1235953,Berkeley Springs,,49,,,,,,old,0,0.7719298245614035,,,,,,,,,,
null,,confidence_buffer,1236054,confidence_buffer,,null,,,,,,,,,,,,,,,,,,
null,,thebreak,1236555,break,,null,,,,,,,,,,,,,,,,,,
2776.199999988079,,realistic_rating,1239332,Bar Harbor,,51,Bar Harbor,US,3,,,,,,,,,,,,,,,
null,,confidence_buffer,1239434,confidence_buffer,,null,,,,,,,,,,,,,,,,,,
1671.4000000059605,,pt2_unique_rating,1241106,Bar Harbor,,53,,,5,,,,,,,,,,,,,,,
null,,confidence_buffer,1241206,confidence_buffer,,null,,,,,,,,,,,,,,,,,,
1519.8999999761581,,pt2_memorable_rating,1242727,Bar Harbor,,52,,,4,,,,,,,,,,,,,,,
null,,confidence_buffer,1242828,confidence_buffer,,null,,,,,,,,,,,,,,,,,,
3216.0999999940395,,recognition_phase,1246045,Bar Harbor,,52,,,,,,new,0,0.7586206896551724,,,,,,,,,,
null,,confidence_buffer,1246145,confidence_buffer,,null,,,,,,,,,,,,,,,,,,
null,,thebreak,1246647,break,,null,,,,,,,,,,,,,,,,,,
2204.4000000059605,,realistic_rating,1248852,Coeur d'Alene,,51,Coeur d'Alene,US,3,,,,,,,,,,,,,,,
null,,confidence_buffer,1248953,confidence_buffer,,null,,,,,,,,,,,,,,,,,,
1782.7000000178814,,pt2_unique_rating,1250736,Coeur d'Alene,,53,,,5,,,,,,,,,,,,,,,
null,,confidence_buffer,1250837,confidence_buffer,,null,,,,,,,,,,,,,,,,,,
1254,,pt2_memorable_rating,1252092,Coeur d'Alene,,52,,,4,,,,,,,,,,,,,,,
null,,confidence_buffer,1252193,confidence_buffer,,null,,,,,,,,,,,,,,,,,,
1878.5999999940395,,recognition_phase,1254073,Coeur d'Alene,,52,,,,,,new,0,0.7457627118644068,,,,,,,,,,
null,,confidence_buffer,1254175,confidence_buffer,,null,,,,,,,,,,,,,,,,,,
null,,thebreak,1254676,break,,null,,,,,,,,,,,,,,,,,,
1926.699999988079,,realistic_rating,1256604,Carmel,,50,Carmel,US,2,,,,,,,,,,,,,,,
null,,confidence_buffer,1256705,confidence_buffer,,null,,,,,,,,,,,,,,,,,,
1329.7999999821186,,pt2_unique_rating,1258036,Carmel,,51,,,3,,,,,,,,,,,,,,,
null,,confidence_buffer,1258137,confidence_buffer,,null,,,,,,,,,,,,,,,,,,
1467,,pt2_memorable_rating,1259605,Carmel,,53,,,5,,,,,,,,,,,,,,,
null,,confidence_buffer,1259712,confidence_buffer,,null,,,,,,,,,,,,,,,,,,
2483.5999999940395,,recognition_phase,1262197,Carmel,,49,,,,,,old,0,0.7333333333333333,,,,,,,,,,
null,,confidence_buffer,1262298,confidence_buffer,,null,,,,,,,,,,,,,,,,,,
null,,thebreak,1262799,break,,null,,,,,,,,,,,,,,,,,,
,,survey,1773969,survey-questions,,,,,,,,,,,none,high,No,I related the names to some common or related names in the UK ,I rated it based on how it looks farmiliar ,They can be memorable but i do always pronoune it out before continuing it ,My thoughts and how it sounds ,Non ,No ,There are pretty too much of attention checks in which i might miss just one or two due to my keyboard malfunction 
