rt,responses,trial_type,time_elapsed,stimulus,button_pressed,key_press,name_trial,city_type,rating,probe,probe_accuracy,response,correct,accuracy,problems,smooth,distraction,strategies,familiar,memorable,unique,realistic,similar,comments
42338.10000000149,{worker_id:681a6990dcfc56c532e8348d},id_enter,42343,,,,,,,,,,,,,,,,,,,,,
12901.69999999553,,fullscreen,55253,fullscreen,0,,,,,,,,,,,,,,,,,,,
38558.5,,intro_0,93816,instruct,,32,,,,,,,,,,,,,,,,,,
40269.29999999702,,intro_1,134087,instruct,,32,,,,,,,,,,,,,,,,,,
5885.4000000059605,,intro_2,139974,instruct,,32,,,,,,,,,,,,,,,,,,
null,,instruct_dir_4,141476,instruct,,null,,,,,,,,,,,,,,,,,,
null,,thebreak,141982,break,,null,,,,,,,,,,,,,,,,,,
3750.89999999851,,familiar_rating,145735,East Ladera,,51,East Ladera,Fictional,3,,,,,,,,,,,,,,,
null,,confidence_buffer,145837,confidence_buffer,,null,,,,,,,,,,,,,,,,,,
5079,,unique_rating,150918,East Ladera,,52,,,4,,,,,,,,,,,,,,,
null,,confidence_buffer,151020,confidence_buffer,,null,,,,,,,,,,,,,,,,,,
2520.10000000149,,memorable_rating,153542,East Ladera,,52,,,4,,,,,,,,,,,,,,,
null,,confidence_buffer,153645,confidence_buffer,,null,,,,,,,,,,,,,,,,,,
null,,thebreak,154148,break,,null,,,,,,,,,,,,,,,,,,
3953.10000000149,,familiar_rating,158102,Okoboji,,50,Okoboji,US,2,,,,,,,,,,,,,,,
null,,confidence_buffer,158206,confidence_buffer,,null,,,,,,,,,,,,,,,,,,
2262.60000000149,,unique_rating,160470,Okoboji,,51,,,3,,,,,,,,,,,,,,,
null,,confidence_buffer,160573,confidence_buffer,,null,,,,,,,,,,,,,,,,,,
2839.5,,memorable_rating,163414,Okoboji,,49,,,1,,,,,,,,,,,,,,,
null,,confidence_buffer,163517,confidence_buffer,,null,,,,,,,,,,,,,,,,,,
null,,thebreak,164030,break,,null,,,,,,,,,,,,,,,,,,
1126.6000000014901,,familiar_rating,165158,Montelake,,49,Montelake,Fictional,1,,,,,,,,,,,,,,,
null,,confidence_buffer,165261,confidence_buffer,,null,,,,,,,,,,,,,,,,,,
2295.89999999851,,unique_rating,167558,Montelake,,50,,,2,,,,,,,,,,,,,,,
null,,confidence_buffer,167660,confidence_buffer,,null,,,,,,,,,,,,,,,,,,
1000.6000000014901,,memorable_rating,168662,Montelake,,50,,,2,,,,,,,,,,,,,,,
null,,confidence_buffer,168764,confidence_buffer,,null,,,,,,,,,,,,,,,,,,
null,,thebreak,169279,break,,null,,,,,,,,,,,,,,,,,,
1717.5,,familiar_rating,170998,Hollendale,,50,Hollendale,Fictional,2,,,,,,,,,,,,,,,
null,,confidence_buffer,171101,confidence_buffer,,null,,,,,,,,,,,,,,,,,,
1095.5,,unique_rating,172198,Hollendale,,50,,,2,,,,,,,,,,,,,,,
null,,confidence_buffer,172300,confidence_buffer,,null,,,,,,,,,,,,,,,,,,
808.2999999970198,,memorable_rating,173110,Hollendale,,50,,,2,,,,,,,,,,,,,,,
null,,confidence_buffer,173212,confidence_buffer,,null,,,,,,,,,,,,,,,,,,
null,,thebreak,173715,break,,null,,,,,,,,,,,,,,,,,,
801.6000000014901,,familiar_rating,174518,Assateague Island,,51,Assateague Island,US,3,,,,,,,,,,,,,,,
null,,confidence_buffer,174620,confidence_buffer,,null,,,,,,,,,,,,,,,,,,
632.5,,unique_rating,175254,Assateague Island,,51,,,3,,,,,,,,,,,,,,,
null,,confidence_buffer,175356,confidence_buffer,,null,,,,,,,,,,,,,,,,,,
504.20000000298023,,memorable_rating,175862,Assateague Island,,50,,,2,,,,,,,,,,,,,,,
null,,confidence_buffer,175964,confidence_buffer,,null,,,,,,,,,,,,,,,,,,
null,,thebreak,176467,break,,null,,,,,,,,,,,,,,,,,,
1153.4000000059605,,familiar_rating,177622,Highvale,,51,Highvale,Fictional,3,,,,,,,,,,,,,,,
null,,confidence_buffer,177724,confidence_buffer,,null,,,,,,,,,,,,,,,,,,
600.2000000029802,,unique_rating,178326,Highvale,,50,,,2,,,,,,,,,,,,,,,
null,,confidence_buffer,178436,confidence_buffer,,null,,,,,,,,,,,,,,,,,,
560.3999999985099,,memorable_rating,178998,Highvale,,51,,,3,,,,,,,,,,,,,,,
null,,confidence_buffer,179102,confidence_buffer,,null,,,,,,,,,,,,,,,,,,
null,,thebreak,179604,break,,null,,,,,,,,,,,,,,,,,,
96.10000000149012,,familiar_rating,179702,Huntsville,,50,Huntsville,US,2,,,,,,,,,,,,,,,
null,,confidence_buffer,179804,confidence_buffer,,null,,,,,,,,,,,,,,,,,,
519.8999999985099,,unique_rating,180326,Huntsville,,51,,,3,,,,,,,,,,,,,,,
null,,confidence_buffer,180428,confidence_buffer,,null,,,,,,,,,,,,,,,,,,
2664,,probe_rating,183094,probe_rating,,50,,,,2,1,,,,,,,,,,,,,
null,,confidence_buffer,183197,confidence_buffer,,null,,,,,,,,,,,,,,,,,,
15111.39999999851,,memorable_rating,198310,Huntsville,,51,,,3,,,,,,,,,,,,,,,
null,,confidence_buffer,198413,confidence_buffer,,null,,,,,,,,,,,,,,,,,,
null,,thebreak,198915,break,,null,,,,,,,,,,,,,,,,,,
1488.8000000044703,,familiar_rating,200406,Stonebrook,,51,Stonebrook,Fictional,3,,,,,,,,,,,,,,,
null,,confidence_buffer,200512,confidence_buffer,,null,,,,,,,,,,,,,,,,,,
1716.2000000029802,,unique_rating,202230,Stonebrook,,51,,,3,,,,,,,,,,,,,,,
null,,confidence_buffer,202331,confidence_buffer,,null,,,,,,,,,,,,,,,,,,
1048.7000000029802,,memorable_rating,203382,Stonebrook,,51,,,3,,,,,,,,,,,,,,,
null,,confidence_buffer,203484,confidence_buffer,,null,,,,,,,,,,,,,,,,,,
null,,thebreak,203986,break,,null,,,,,,,,,,,,,,,,,,
1602.1000000014901,,familiar_rating,205589,Solara Glen,,51,Solara Glen,Fictional,3,,,,,,,,,,,,,,,
null,,confidence_buffer,205692,confidence_buffer,,null,,,,,,,,,,,,,,,,,,
1367.8999999985099,,unique_rating,207061,Solara Glen,,51,,,3,,,,,,,,,,,,,,,
null,,confidence_buffer,207164,confidence_buffer,,null,,,,,,,,,,,,,,,,,,
1304,,memorable_rating,208470,Solara Glen,,51,,,3,,,,,,,,,,,,,,,
null,,confidence_buffer,208573,confidence_buffer,,null,,,,,,,,,,,,,,,,,,
null,,thebreak,209075,break,,null,,,,,,,,,,,,,,,,,,
1553,,familiar_rating,210629,Ravenport,,52,Ravenport,Fictional,4,,,,,,,,,,,,,,,
null,,confidence_buffer,210732,confidence_buffer,,null,,,,,,,,,,,,,,,,,,
984.1999999955297,,unique_rating,211717,Ravenport,,52,,,4,,,,,,,,,,,,,,,
null,,confidence_buffer,211819,confidence_buffer,,null,,,,,,,,,,,,,,,,,,
712.6000000014901,,memorable_rating,212533,Ravenport,,51,,,3,,,,,,,,,,,,,,,
null,,confidence_buffer,212636,confidence_buffer,,null,,,,,,,,,,,,,,,,,,
null,,thebreak,213139,break,,null,,,,,,,,,,,,,,,,,,
769.3999999985099,,familiar_rating,213909,Sitka,,52,Sitka,US,4,,,,,,,,,,,,,,,
null,,confidence_buffer,214012,confidence_buffer,,null,,,,,,,,,,,,,,,,,,
680,,unique_rating,214693,Sitka,,51,,,3,,,,,,,,,,,,,,,
null,,confidence_buffer,214796,confidence_buffer,,null,,,,,,,,,,,,,,,,,,
647.9000000059605,,memorable_rating,215445,Sitka,,52,,,4,,,,,,,,,,,,,,,
null,,confidence_buffer,215548,confidence_buffer,,null,,,,,,,,,,,,,,,,,,
null,,thebreak,216050,break,,null,,,,,,,,,,,,,,,,,,
1857.7999999970198,,familiar_rating,217909,Berkeley Springs,,52,Berkeley Springs,US,4,,,,,,,,,,,,,,,
null,,confidence_buffer,218011,confidence_buffer,,null,,,,,,,,,,,,,,,,,,
888.7999999970198,,unique_rating,218902,Berkeley Springs,,51,,,3,,,,,,,,,,,,,,,
null,,confidence_buffer,219004,confidence_buffer,,null,,,,,,,,,,,,,,,,,,
935.6999999955297,,memorable_rating,219941,Berkeley Springs,,50,,,2,,,,,,,,,,,,,,,
null,,confidence_buffer,220044,confidence_buffer,,null,,,,,,,,,,,,,,,,,,
null,,thebreak,220547,break,,null,,,,,,,,,,,,,,,,,,
1169.1000000014901,,familiar_rating,221717,Sisters,,50,Sisters,US,2,,,,,,,,,,,,,,,
null,,confidence_buffer,221828,confidence_buffer,,null,,,,,,,,,,,,,,,,,,
1535.5999999940395,,unique_rating,223366,Sisters,,52,,,4,,,,,,,,,,,,,,,
null,,confidence_buffer,223471,confidence_buffer,,null,,,,,,,,,,,,,,,,,,
9268.69999999553,,memorable_rating,232742,Sisters,,52,,,4,,,,,,,,,,,,,,,
null,,confidence_buffer,232844,confidence_buffer,,null,,,,,,,,,,,,,,,,,,
null,,thebreak,233347,break,,null,,,,,,,,,,,,,,,,,,
864.7000000029802,,familiar_rating,234213,Leesburg,,51,Leesburg,US,3,,,,,,,,,,,,,,,
null,,confidence_buffer,234316,confidence_buffer,,null,,,,,,,,,,,,,,,,,,
1767.3999999985099,,unique_rating,236085,Leesburg,,53,,,5,,,,,,,,,,,,,,,
null,,confidence_buffer,236188,confidence_buffer,,null,,,,,,,,,,,,,,,,,,
1032,,memorable_rating,237221,Leesburg,,51,,,3,,,,,,,,,,,,,,,
null,,confidence_buffer,237324,confidence_buffer,,null,,,,,,,,,,,,,,,,,,
null,,thebreak,237826,break,,null,,,,,,,,,,,,,,,,,,
1105.7000000029802,,familiar_rating,238933,Cornwall,,51,Cornwall,US,3,,,,,,,,,,,,,,,
null,,confidence_buffer,239035,confidence_buffer,,null,,,,,,,,,,,,,,,,,,
1688.7000000029802,,unique_rating,240725,Cornwall,,53,,,5,,,,,,,,,,,,,,,
null,,confidence_buffer,240827,confidence_buffer,,null,,,,,,,,,,,,,,,,,,
1128.2999999970198,,memorable_rating,241957,Cornwall,,51,,,3,,,,,,,,,,,,,,,
null,,confidence_buffer,242060,confidence_buffer,,null,,,,,,,,,,,,,,,,,,
null,,thebreak,242562,break,,null,,,,,,,,,,,,,,,,,,
1201.4000000059605,,familiar_rating,243765,Pine Hollow,,53,Pine Hollow,Fictional,5,,,,,,,,,,,,,,,
null,,confidence_buffer,243868,confidence_buffer,,null,,,,,,,,,,,,,,,,,,
2887.7000000029802,,unique_rating,246757,Pine Hollow,,50,,,2,,,,,,,,,,,,,,,
null,,confidence_buffer,246868,confidence_buffer,,null,,,,,,,,,,,,,,,,,,
1246.8999999985099,,memorable_rating,248117,Pine Hollow,,52,,,4,,,,,,,,,,,,,,,
null,,confidence_buffer,248219,confidence_buffer,,null,,,,,,,,,,,,,,,,,,
null,,thebreak,248722,break,,null,,,,,,,,,,,,,,,,,,
1281.8999999985099,,familiar_rating,250005,Maravilla Springs,,53,Maravilla Springs,Fictional,5,,,,,,,,,,,,,,,
null,,confidence_buffer,250120,confidence_buffer,,null,,,,,,,,,,,,,,,,,,
1931.2999999970198,,unique_rating,252053,Maravilla Springs,,52,,,4,,,,,,,,,,,,,,,
null,,confidence_buffer,252155,confidence_buffer,,null,,,,,,,,,,,,,,,,,,
2456.7000000029802,,memorable_rating,254613,Maravilla Springs,,53,,,5,,,,,,,,,,,,,,,
null,,confidence_buffer,254716,confidence_buffer,,null,,,,,,,,,,,,,,,,,,
null,,thebreak,255218,break,,null,,,,,,,,,,,,,,,,,,
3505.5,,familiar_rating,258725,Gloucester,,50,Gloucester,US,2,,,,,,,,,,,,,,,
null,,confidence_buffer,258828,confidence_buffer,,null,,,,,,,,,,,,,,,,,,
1447.2999999970198,,unique_rating,260277,Gloucester,,52,,,4,,,,,,,,,,,,,,,
null,,confidence_buffer,260380,confidence_buffer,,null,,,,,,,,,,,,,,,,,,
2167.7999999970198,,memorable_rating,262549,Gloucester,,52,,,4,,,,,,,,,,,,,,,
null,,confidence_buffer,262651,confidence_buffer,,null,,,,,,,,,,,,,,,,,,
null,,thebreak,263153,break,,null,,,,,,,,,,,,,,,,,,
1010.3999999985099,,familiar_rating,264165,Lakehaven,,50,Lakehaven,Fictional,2,,,,,,,,,,,,,,,
null,,confidence_buffer,264268,confidence_buffer,,null,,,,,,,,,,,,,,,,,,
1575.7000000029802,,unique_rating,265845,Lakehaven,,50,,,2,,,,,,,,,,,,,,,
null,,confidence_buffer,265948,confidence_buffer,,null,,,,,,,,,,,,,,,,,,
1783.2999999970198,,memorable_rating,267733,Lakehaven,,53,,,5,,,,,,,,,,,,,,,
null,,confidence_buffer,267835,confidence_buffer,,null,,,,,,,,,,,,,,,,,,
null,,thebreak,268338,break,,null,,,,,,,,,,,,,,,,,,
1233.6000000014901,,familiar_rating,269573,Maplehurst,,50,Maplehurst,Fictional,2,,,,,,,,,,,,,,,
null,,confidence_buffer,269676,confidence_buffer,,null,,,,,,,,,,,,,,,,,,
2888,,unique_rating,272565,Maplehurst,,51,,,3,,,,,,,,,,,,,,,
null,,confidence_buffer,272668,confidence_buffer,,null,,,,,,,,,,,,,,,,,,
1111.6000000014901,,memorable_rating,273781,Maplehurst,,52,,,4,,,,,,,,,,,,,,,
null,,confidence_buffer,273883,confidence_buffer,,null,,,,,,,,,,,,,,,,,,
null,,thebreak,274385,break,,null,,,,,,,,,,,,,,,,,,
1682.2000000029802,,familiar_rating,276069,Orr,,50,Orr,US,2,,,,,,,,,,,,,,,
null,,confidence_buffer,276171,confidence_buffer,,null,,,,,,,,,,,,,,,,,,
1255.6000000014901,,unique_rating,277429,Orr,,52,,,4,,,,,,,,,,,,,,,
null,,confidence_buffer,277532,confidence_buffer,,null,,,,,,,,,,,,,,,,,,
1223.3000000044703,,memorable_rating,278757,Orr,,53,,,5,,,,,,,,,,,,,,,
null,,confidence_buffer,278860,confidence_buffer,,null,,,,,,,,,,,,,,,,,,
null,,thebreak,279365,break,,null,,,,,,,,,,,,,,,,,,
734,,familiar_rating,280101,Gatlinburg,,51,Gatlinburg,US,3,,,,,,,,,,,,,,,
null,,confidence_buffer,280204,confidence_buffer,,null,,,,,,,,,,,,,,,,,,
1607.3999999985099,,unique_rating,281813,Gatlinburg,,50,,,2,,,,,,,,,,,,,,,
null,,confidence_buffer,281915,confidence_buffer,,null,,,,,,,,,,,,,,,,,,
1240.1000000014901,,memorable_rating,283157,Gatlinburg,,52,,,4,,,,,,,,,,,,,,,
null,,confidence_buffer,283259,confidence_buffer,,null,,,,,,,,,,,,,,,,,,
2711.6999999955297,,probe_rating,285972,probe_rating,,52,,,,4,1,,,,,,,,,,,,,
null,,confidence_buffer,286075,confidence_buffer,,null,,,,,,,,,,,,,,,,,,
null,,thebreak,286577,break,,null,,,,,,,,,,,,,,,,,,
3010.2000000029802,,familiar_rating,289589,Juniper Creek,,51,Juniper Creek,Fictional,3,,,,,,,,,,,,,,,
null,,confidence_buffer,289692,confidence_buffer,,null,,,,,,,,,,,,,,,,,,
18551.70000000298,,unique_rating,308245,Juniper Creek,,50,,,2,,,,,,,,,,,,,,,
null,,confidence_buffer,308347,confidence_buffer,,null,,,,,,,,,,,,,,,,,,
1256.2000000029802,,memorable_rating,309604,Juniper Creek,,52,,,4,,,,,,,,,,,,,,,
null,,confidence_buffer,309707,confidence_buffer,,null,,,,,,,,,,,,,,,,,,
null,,thebreak,310208,break,,null,,,,,,,,,,,,,,,,,,
1010.4000000059605,,familiar_rating,311220,Rosehollow,,51,Rosehollow,Fictional,3,,,,,,,,,,,,,,,
null,,confidence_buffer,311323,confidence_buffer,,null,,,,,,,,,,,,,,,,,,
3431.8000000044703,,probe_rating,314756,probe_rating,,50,,,,2,1,,,,,,,,,,,,,
null,,confidence_buffer,314869,confidence_buffer,,null,,,,,,,,,,,,,,,,,,
2781,,unique_rating,317652,Rosehollow,,52,,,4,,,,,,,,,,,,,,,
null,,confidence_buffer,317755,confidence_buffer,,null,,,,,,,,,,,,,,,,,,
1608.0999999940395,,memorable_rating,319364,Rosehollow,,51,,,3,,,,,,,,,,,,,,,
null,,confidence_buffer,319467,confidence_buffer,,null,,,,,,,,,,,,,,,,,,
null,,thebreak,319969,break,,null,,,,,,,,,,,,,,,,,,
1537.3999999985099,,familiar_rating,321508,Hanover,,49,Hanover,US,1,,,,,,,,,,,,,,,
null,,confidence_buffer,321610,confidence_buffer,,null,,,,,,,,,,,,,,,,,,
1208.5,,unique_rating,322820,Hanover,,51,,,3,,,,,,,,,,,,,,,
null,,confidence_buffer,322923,confidence_buffer,,null,,,,,,,,,,,,,,,,,,
1255.5,,memorable_rating,324180,Hanover,,52,,,4,,,,,,,,,,,,,,,
null,,confidence_buffer,324282,confidence_buffer,,null,,,,,,,,,,,,,,,,,,
null,,thebreak,324785,break,,null,,,,,,,,,,,,,,,,,,
1073.5,,familiar_rating,325860,Ashford Hills,,50,Ashford Hills,Fictional,2,,,,,,,,,,,,,,,
null,,confidence_buffer,325963,confidence_buffer,,null,,,,,,,,,,,,,,,,,,
3015.7000000029802,,unique_rating,328980,Ashford Hills,,50,,,2,,,,,,,,,,,,,,,
null,,confidence_buffer,329083,confidence_buffer,,null,,,,,,,,,,,,,,,,,,
1543.7999999970198,,memorable_rating,330628,Ashford Hills,,51,,,3,,,,,,,,,,,,,,,
null,,confidence_buffer,330731,confidence_buffer,,null,,,,,,,,,,,,,,,,,,
null,,thebreak,331233,break,,null,,,,,,,,,,,,,,,,,,
1233.2999999970198,,familiar_rating,332468,Folly Beach,,50,Folly Beach,US,2,,,,,,,,,,,,,,,
null,,confidence_buffer,332570,confidence_buffer,,null,,,,,,,,,,,,,,,,,,
2088.5,,unique_rating,334660,Folly Beach,,52,,,4,,,,,,,,,,,,,,,
null,,confidence_buffer,334763,confidence_buffer,,null,,,,,,,,,,,,,,,,,,
1847.6000000014901,,memorable_rating,336612,Folly Beach,,52,,,4,,,,,,,,,,,,,,,
null,,confidence_buffer,336713,confidence_buffer,,null,,,,,,,,,,,,,,,,,,
null,,thebreak,337216,break,,null,,,,,,,,,,,,,,,,,,
1826.6999999955297,,familiar_rating,339044,North Arroya,,50,North Arroya,Fictional,2,,,,,,,,,,,,,,,
null,,confidence_buffer,339147,confidence_buffer,,null,,,,,,,,,,,,,,,,,,
2311.39999999851,,probe_rating,341460,probe_rating,,49,,,,1,1,,,,,,,,,,,,,
null,,confidence_buffer,341563,confidence_buffer,,null,,,,,,,,,,,,,,,,,,
1671.3999999985099,,unique_rating,343236,North Arroya,,51,,,3,,,,,,,,,,,,,,,
null,,confidence_buffer,343338,confidence_buffer,,null,,,,,,,,,,,,,,,,,,
968.2999999970198,,memorable_rating,344308,North Arroya,,50,,,2,,,,,,,,,,,,,,,
null,,confidence_buffer,344410,confidence_buffer,,null,,,,,,,,,,,,,,,,,,
null,,thebreak,344913,break,,null,,,,,,,,,,,,,,,,,,
1601.6999999955297,,familiar_rating,346516,Hilo,,52,Hilo,US,4,,,,,,,,,,,,,,,
null,,confidence_buffer,346619,confidence_buffer,,null,,,,,,,,,,,,,,,,,,
903.5999999940395,,unique_rating,347524,Hilo,,51,,,3,,,,,,,,,,,,,,,
null,,confidence_buffer,347626,confidence_buffer,,null,,,,,,,,,,,,,,,,,,
2248.2000000029802,,memorable_rating,349876,Hilo,,52,,,4,,,,,,,,,,,,,,,
null,,confidence_buffer,349978,confidence_buffer,,null,,,,,,,,,,,,,,,,,,
null,,thebreak,350484,break,,null,,,,,,,,,,,,,,,,,,
1294.6000000014901,,familiar_rating,351780,Alliance,,51,Alliance,US,3,,,,,,,,,,,,,,,
null,,confidence_buffer,351883,confidence_buffer,,null,,,,,,,,,,,,,,,,,,
2983.5999999940395,,unique_rating,354868,Alliance,,51,,,3,,,,,,,,,,,,,,,
null,,confidence_buffer,354970,confidence_buffer,,null,,,,,,,,,,,,,,,,,,
1112,,memorable_rating,356084,Alliance,,51,,,3,,,,,,,,,,,,,,,
null,,confidence_buffer,356187,confidence_buffer,,null,,,,,,,,,,,,,,,,,,
null,,thebreak,356689,break,,null,,,,,,,,,,,,,,,,,,
40081.5,,intro_0,396771,instruct,,32,,,,,,,,,,,,,,,,,,
3342.6999999955297,,intro_1,400115,instruct,,32,,,,,,,,,,,,,,,,,,
3022.7000000029802,,intro_2,403139,instruct,,32,,,,,,,,,,,,,,,,,,
null,,instruct_dir_4,404642,instruct,,null,,,,,,,,,,,,,,,,,,
3584.10000000149,,realistic_rating,408227,Sammamish,,51,Sammamish,US,3,,,,,,,,,,,,,,,
null,,confidence_buffer,408330,confidence_buffer,,null,,,,,,,,,,,,,,,,,,
1399.6000000014901,,pt2_unique_rating,409731,Sammamish,,50,,,2,,,,,,,,,,,,,,,
null,,confidence_buffer,409834,confidence_buffer,,null,,,,,,,,,,,,,,,,,,
759.3999999985099,,pt2_memorable_rating,410595,Sammamish,,51,,,3,,,,,,,,,,,,,,,
null,,confidence_buffer,410706,confidence_buffer,,null,,,,,,,,,,,,,,,,,,
767.8999999985099,,recognition_phase,411475,Sammamish,,52,,,,,,new,1,1,,,,,,,,,,
null,,confidence_buffer,411578,confidence_buffer,,null,,,,,,,,,,,,,,,,,,
null,,thebreak,412081,break,,null,,,,,,,,,,,,,,,,,,
688.8000000044703,,realistic_rating,412771,Folly Beach,,50,Folly Beach,US,2,,,,,,,,,,,,,,,
null,,confidence_buffer,412875,confidence_buffer,,null,,,,,,,,,,,,,,,,,,
598.5,,pt2_unique_rating,413475,Folly Beach,,52,,,4,,,,,,,,,,,,,,,
null,,confidence_buffer,413587,confidence_buffer,,null,,,,,,,,,,,,,,,,,,
446.5,,pt2_memorable_rating,414035,Folly Beach,,51,,,3,,,,,,,,,,,,,,,
null,,confidence_buffer,414144,confidence_buffer,,null,,,,,,,,,,,,,,,,,,
1857.1999999955297,,probe_rating,416003,probe_rating,,52,,,,4,1,,,,,,,,,,,,,
null,,confidence_buffer,416106,confidence_buffer,,null,,,,,,,,,,,,,,,,,,
1031.1999999955297,,recognition_phase,417139,Folly Beach,,51,,,,,,new,0,0.5,,,,,,,,,,
null,,confidence_buffer,417242,confidence_buffer,,null,,,,,,,,,,,,,,,,,,
null,,thebreak,417744,break,,null,,,,,,,,,,,,,,,,,,
1313.6000000014901,,realistic_rating,419059,Stonebrook,,51,Stonebrook,Fictional,3,,,,,,,,,,,,,,,
null,,confidence_buffer,419162,confidence_buffer,,null,,,,,,,,,,,,,,,,,,
1671.8999999985099,,pt2_unique_rating,420835,Stonebrook,,52,,,4,,,,,,,,,,,,,,,
null,,confidence_buffer,420952,confidence_buffer,,null,,,,,,,,,,,,,,,,,,
1897.3999999985099,,pt2_memorable_rating,422851,Stonebrook,,51,,,3,,,,,,,,,,,,,,,
null,,confidence_buffer,422954,confidence_buffer,,null,,,,,,,,,,,,,,,,,,
1048.2000000029802,,recognition_phase,424003,Stonebrook,,52,,,,,,new,0,0.3333333333333333,,,,,,,,,,
null,,confidence_buffer,424106,confidence_buffer,,null,,,,,,,,,,,,,,,,,,
null,,thebreak,424608,break,,null,,,,,,,,,,,,,,,,,,
1601,,realistic_rating,426211,Lake of the Ozarks,,50,Lake of the Ozarks,US,2,,,,,,,,,,,,,,,
null,,confidence_buffer,426314,confidence_buffer,,null,,,,,,,,,,,,,,,,,,
3335.89999999851,,pt2_unique_rating,429651,Lake of the Ozarks,,51,,,3,,,,,,,,,,,,,,,
null,,confidence_buffer,429754,confidence_buffer,,null,,,,,,,,,,,,,,,,,,
870.9000000059605,,pt2_memorable_rating,430627,Lake of the Ozarks,,52,,,4,,,,,,,,,,,,,,,
null,,confidence_buffer,430728,confidence_buffer,,null,,,,,,,,,,,,,,,,,,
825,,recognition_phase,431555,Lake of the Ozarks,,50,,,,,,old,0,0.25,,,,,,,,,,
null,,confidence_buffer,431657,confidence_buffer,,null,,,,,,,,,,,,,,,,,,
null,,thebreak,432160,break,,null,,,,,,,,,,,,,,,,,,
3185.5,,realistic_rating,435347,Meadowspire,,50,Meadowspire,Fictional,2,,,,,,,,,,,,,,,
null,,confidence_buffer,435450,confidence_buffer,,null,,,,,,,,,,,,,,,,,,
791.8999999985099,,pt2_unique_rating,436243,Meadowspire,,52,,,4,,,,,,,,,,,,,,,
null,,confidence_buffer,436345,confidence_buffer,,null,,,,,,,,,,,,,,,,,,
792.0999999940395,,pt2_memorable_rating,437139,Meadowspire,,51,,,3,,,,,,,,,,,,,,,
null,,confidence_buffer,437242,confidence_buffer,,null,,,,,,,,,,,,,,,,,,
1015.6000000014901,,recognition_phase,438259,Meadowspire,,52,,,,,,new,1,0.4,,,,,,,,,,
null,,confidence_buffer,438362,confidence_buffer,,null,,,,,,,,,,,,,,,,,,
null,,thebreak,438865,break,,null,,,,,,,,,,,,,,,,,,
705,,realistic_rating,439571,Willowford,,51,Willowford,Fictional,3,,,,,,,,,,,,,,,
null,,confidence_buffer,439673,confidence_buffer,,null,,,,,,,,,,,,,,,,,,
1016.2999999970198,,pt2_unique_rating,440691,Willowford,,49,,,1,,,,,,,,,,,,,,,
null,,confidence_buffer,440794,confidence_buffer,,null,,,,,,,,,,,,,,,,,,
887.4000000059605,,pt2_memorable_rating,441683,Willowford,,51,,,3,,,,,,,,,,,,,,,
null,,confidence_buffer,441786,confidence_buffer,,null,,,,,,,,,,,,,,,,,,
919.6999999955297,,recognition_phase,442707,Willowford,,50,,,,,,old,0,0.3333333333333333,,,,,,,,,,
null,,confidence_buffer,442809,confidence_buffer,,null,,,,,,,,,,,,,,,,,,
null,,thebreak,443316,break,,null,,,,,,,,,,,,,,,,,,
349.20000000298023,,realistic_rating,443667,Highvale,,52,Highvale,Fictional,4,,,,,,,,,,,,,,,
null,,confidence_buffer,443770,confidence_buffer,,null,,,,,,,,,,,,,,,,,,
567.6000000014901,,pt2_unique_rating,444339,Highvale,,51,,,3,,,,,,,,,,,,,,,
null,,confidence_buffer,444441,confidence_buffer,,null,,,,,,,,,,,,,,,,,,
487.6000000014901,,pt2_memorable_rating,444931,Highvale,,52,,,4,,,,,,,,,,,,,,,
null,,confidence_buffer,445033,confidence_buffer,,null,,,,,,,,,,,,,,,,,,
552.5,,recognition_phase,445587,Highvale,,49,,,,,,old,1,0.42857142857142855,,,,,,,,,,
null,,confidence_buffer,445690,confidence_buffer,,null,,,,,,,,,,,,,,,,,,
null,,thebreak,446192,break,,null,,,,,,,,,,,,,,,,,,
1057.2000000029802,,realistic_rating,447251,Orr,,52,Orr,US,4,,,,,,,,,,,,,,,
null,,confidence_buffer,447353,confidence_buffer,,null,,,,,,,,,,,,,,,,,,
968,,pt2_unique_rating,448323,Orr,,51,,,3,,,,,,,,,,,,,,,
null,,confidence_buffer,448425,confidence_buffer,,null,,,,,,,,,,,,,,,,,,
440.1000000014901,,pt2_memorable_rating,448867,Orr,,52,,,4,,,,,,,,,,,,,,,
null,,confidence_buffer,448970,confidence_buffer,,null,,,,,,,,,,,,,,,,,,
486.80000000447035,,recognition_phase,449459,Orr,,51,,,,,,new,0,0.375,,,,,,,,,,
null,,confidence_buffer,449562,confidence_buffer,,null,,,,,,,,,,,,,,,,,,
null,,thebreak,450064,break,,null,,,,,,,,,,,,,,,,,,
625,,realistic_rating,450691,Hanover,,51,Hanover,US,3,,,,,,,,,,,,,,,
null,,confidence_buffer,450793,confidence_buffer,,null,,,,,,,,,,,,,,,,,,
568.5,,pt2_unique_rating,451363,Hanover,,52,,,4,,,,,,,,,,,,,,,
null,,confidence_buffer,451466,confidence_buffer,,null,,,,,,,,,,,,,,,,,,
519.5,,pt2_memorable_rating,451987,Hanover,,50,,,2,,,,,,,,,,,,,,,
null,,confidence_buffer,452089,confidence_buffer,,null,,,,,,,,,,,,,,,,,,
663.8999999985099,,recognition_phase,452755,Hanover,,52,,,,,,new,0,0.3333333333333333,,,,,,,,,,
null,,confidence_buffer,452857,confidence_buffer,,null,,,,,,,,,,,,,,,,,,
null,,thebreak,453360,break,,null,,,,,,,,,,,,,,,,,,
353.29999999701977,,realistic_rating,453715,Juniper Creek,,51,Juniper Creek,Fictional,3,,,,,,,,,,,,,,,
null,,confidence_buffer,453825,confidence_buffer,,null,,,,,,,,,,,,,,,,,,
1008.6000000014901,,pt2_unique_rating,454835,Juniper Creek,,52,,,4,,,,,,,,,,,,,,,
null,,confidence_buffer,454937,confidence_buffer,,null,,,,,,,,,,,,,,,,,,
1048.3999999985099,,pt2_memorable_rating,455987,Juniper Creek,,51,,,3,,,,,,,,,,,,,,,
null,,confidence_buffer,456089,confidence_buffer,,null,,,,,,,,,,,,,,,,,,
4151.70000000298,,recognition_phase,460243,Juniper Creek,,52,,,,,,new,0,0.3,,,,,,,,,,
null,,confidence_buffer,460345,confidence_buffer,,null,,,,,,,,,,,,,,,,,,
null,,thebreak,460848,break,,null,,,,,,,,,,,,,,,,,,
1009.4000000059605,,realistic_rating,461859,Maravilla Springs,,51,Maravilla Springs,Fictional,3,,,,,,,,,,,,,,,
null,,confidence_buffer,461961,confidence_buffer,,null,,,,,,,,,,,,,,,,,,
1159.7000000029802,,pt2_unique_rating,463123,Maravilla Springs,,49,,,1,,,,,,,,,,,,,,,
null,,confidence_buffer,463227,confidence_buffer,,null,,,,,,,,,,,,,,,,,,
2038.2999999970198,,probe_rating,465267,probe_rating,,53,,,,5,1,,,,,,,,,,,,,
null,,confidence_buffer,465369,confidence_buffer,,null,,,,,,,,,,,,,,,,,,
1047.6999999955297,,pt2_memorable_rating,466418,Maravilla Springs,,51,,,3,,,,,,,,,,,,,,,
null,,confidence_buffer,466521,confidence_buffer,,null,,,,,,,,,,,,,,,,,,
567.8999999985099,,recognition_phase,467090,Maravilla Springs,,50,,,,,,old,1,0.36363636363636365,,,,,,,,,,
null,,confidence_buffer,467194,confidence_buffer,,null,,,,,,,,,,,,,,,,,,
null,,thebreak,467704,break,,null,,,,,,,,,,,,,,,,,,
296.79999999701977,,realistic_rating,468003,Healdsburg,,52,Healdsburg,US,4,,,,,,,,,,,,,,,
null,,confidence_buffer,468105,confidence_buffer,,null,,,,,,,,,,,,,,,,,,
3431.6999999955297,,probe_rating,471538,probe_rating,,53,,,,5,1,,,,,,,,,,,,,
null,,confidence_buffer,471641,confidence_buffer,,null,,,,,,,,,,,,,,,,,,
5911.89999999851,,pt2_unique_rating,477555,Healdsburg,,51,,,3,,,,,,,,,,,,,,,
null,,confidence_buffer,477658,confidence_buffer,,null,,,,,,,,,,,,,,,,,,
1814.4000000059605,,pt2_memorable_rating,479474,Healdsburg,,50,,,2,,,,,,,,,,,,,,,
null,,confidence_buffer,479578,confidence_buffer,,null,,,,,,,,,,,,,,,,,,
774.6000000014901,,recognition_phase,480354,Healdsburg,,52,,,,,,new,1,0.4166666666666667,,,,,,,,,,
null,,confidence_buffer,480457,confidence_buffer,,null,,,,,,,,,,,,,,,,,,
null,,thebreak,480960,break,,null,,,,,,,,,,,,,,,,,,
945,,realistic_rating,481907,Assateague Island,,51,Assateague Island,US,3,,,,,,,,,,,,,,,
null,,confidence_buffer,482010,confidence_buffer,,null,,,,,,,,,,,,,,,,,,
1238.8999999985099,,pt2_unique_rating,483250,Assateague Island,,52,,,4,,,,,,,,,,,,,,,
null,,confidence_buffer,483352,confidence_buffer,,null,,,,,,,,,,,,,,,,,,
648.6000000014901,,pt2_memorable_rating,484002,Assateague Island,,50,,,2,,,,,,,,,,,,,,,
null,,confidence_buffer,484105,confidence_buffer,,null,,,,,,,,,,,,,,,,,,
679.6000000014901,,recognition_phase,484786,Assateague Island,,49,,,,,,old,1,0.46153846153846156,,,,,,,,,,
null,,confidence_buffer,484889,confidence_buffer,,null,,,,,,,,,,,,,,,,,,
null,,thebreak,485392,break,,null,,,,,,,,,,,,,,,,,,
1761.2000000029802,,realistic_rating,487154,Bayshore Haven,,51,Bayshore Haven,Fictional,3,,,,,,,,,,,,,,,
null,,confidence_buffer,487258,confidence_buffer,,null,,,,,,,,,,,,,,,,,,
3399.5,,pt2_unique_rating,490659,Bayshore Haven,,49,,,1,,,,,,,,,,,,,,,
null,,confidence_buffer,490762,confidence_buffer,,null,,,,,,,,,,,,,,,,,,
1191.1999999955297,,pt2_memorable_rating,491954,Bayshore Haven,,52,,,4,,,,,,,,,,,,,,,
null,,confidence_buffer,492064,confidence_buffer,,null,,,,,,,,,,,,,,,,,,
801,,recognition_phase,492866,Bayshore Haven,,50,,,,,,old,0,0.42857142857142855,,,,,,,,,,
null,,confidence_buffer,492969,confidence_buffer,,null,,,,,,,,,,,,,,,,,,
null,,thebreak,493472,break,,null,,,,,,,,,,,,,,,,,,
561,,realistic_rating,494034,Gatlinburg,,52,Gatlinburg,US,4,,,,,,,,,,,,,,,
null,,confidence_buffer,494137,confidence_buffer,,null,,,,,,,,,,,,,,,,,,
744.1000000014901,,pt2_unique_rating,494882,Gatlinburg,,50,,,2,,,,,,,,,,,,,,,
null,,confidence_buffer,494985,confidence_buffer,,null,,,,,,,,,,,,,,,,,,
647.7000000029802,,pt2_memorable_rating,495634,Gatlinburg,,52,,,4,,,,,,,,,,,,,,,
null,,confidence_buffer,495737,confidence_buffer,,null,,,,,,,,,,,,,,,,,,
1047.7000000029802,,recognition_phase,496786,Gatlinburg,,50,,,,,,old,1,0.4666666666666667,,,,,,,,,,
null,,confidence_buffer,496889,confidence_buffer,,null,,,,,,,,,,,,,,,,,,
null,,thebreak,497391,break,,null,,,,,,,,,,,,,,,,,,
1841.8999999985099,,realistic_rating,499234,Pine Hollow,,52,Pine Hollow,Fictional,4,,,,,,,,,,,,,,,
null,,confidence_buffer,499337,confidence_buffer,,null,,,,,,,,,,,,,,,,,,
1015.6000000014901,,pt2_unique_rating,500354,Pine Hollow,,51,,,3,,,,,,,,,,,,,,,
null,,confidence_buffer,500457,confidence_buffer,,null,,,,,,,,,,,,,,,,,,
807.5,,pt2_memorable_rating,501266,Pine Hollow,,50,,,2,,,,,,,,,,,,,,,
null,,confidence_buffer,501380,confidence_buffer,,null,,,,,,,,,,,,,,,,,,
1660.1000000014901,,recognition_phase,503042,Pine Hollow,,49,,,,,,old,1,0.5,,,,,,,,,,
null,,confidence_buffer,503145,confidence_buffer,,null,,,,,,,,,,,,,,,,,,
null,,thebreak,503647,break,,null,,,,,,,,,,,,,,,,,,
1905.1999999955297,,realistic_rating,505554,North Arroya,,51,North Arroya,Fictional,3,,,,,,,,,,,,,,,
null,,confidence_buffer,505657,confidence_buffer,,null,,,,,,,,,,,,,,,,,,
1543.3999999985099,,pt2_unique_rating,507202,North Arroya,,52,,,4,,,,,,,,,,,,,,,
null,,confidence_buffer,507305,confidence_buffer,,null,,,,,,,,,,,,,,,,,,
1335.8999999985099,,pt2_memorable_rating,508642,North Arroya,,51,,,3,,,,,,,,,,,,,,,
null,,confidence_buffer,508744,confidence_buffer,,null,,,,,,,,,,,,,,,,,,
1704.5,,probe_rating,510450,probe_rating,,52,,,,4,1,,,,,,,,,,,,,
null,,confidence_buffer,510553,confidence_buffer,,null,,,,,,,,,,,,,,,,,,
1943.1000000014901,,recognition_phase,512498,North Arroya,,50,,,,,,old,1,0.5294117647058824,,,,,,,,,,
null,,confidence_buffer,512601,confidence_buffer,,null,,,,,,,,,,,,,,,,,,
null,,thebreak,513103,break,,null,,,,,,,,,,,,,,,,,,
1009,,realistic_rating,514114,Ravenport,,51,Ravenport,Fictional,3,,,,,,,,,,,,,,,
null,,confidence_buffer,514217,confidence_buffer,,null,,,,,,,,,,,,,,,,,,
823.6999999955297,,pt2_unique_rating,515042,Ravenport,,52,,,4,,,,,,,,,,,,,,,
null,,confidence_buffer,515144,confidence_buffer,,null,,,,,,,,,,,,,,,,,,
1224.3999999985099,,pt2_memorable_rating,516370,Ravenport,,49,,,1,,,,,,,,,,,,,,,
null,,confidence_buffer,516473,confidence_buffer,,null,,,,,,,,,,,,,,,,,,
1255.5999999940395,,recognition_phase,517730,Ravenport,,51,,,,,,new,0,0.5,,,,,,,,,,
null,,confidence_buffer,517833,confidence_buffer,,null,,,,,,,,,,,,,,,,,,
null,,thebreak,518336,break,,null,,,,,,,,,,,,,,,,,,
1024.6000000014901,,realistic_rating,519362,Ashford Hills,,52,Ashford Hills,Fictional,4,,,,,,,,,,,,,,,
null,,confidence_buffer,519465,confidence_buffer,,null,,,,,,,,,,,,,,,,,,
1383,,pt2_unique_rating,520850,Ashford Hills,,50,,,2,,,,,,,,,,,,,,,
null,,confidence_buffer,520953,confidence_buffer,,null,,,,,,,,,,,,,,,,,,
1191.3999999985099,,pt2_memorable_rating,522146,Ashford Hills,,49,,,1,,,,,,,,,,,,,,,
null,,confidence_buffer,522251,confidence_buffer,,null,,,,,,,,,,,,,,,,,,
1061.2999999970198,,recognition_phase,523314,Ashford Hills,,52,,,,,,new,0,0.47368421052631576,,,,,,,,,,
null,,confidence_buffer,523417,confidence_buffer,,null,,,,,,,,,,,,,,,,,,
null,,thebreak,523920,break,,null,,,,,,,,,,,,,,,,,,
1696.8000000044703,,realistic_rating,525618,Sierra Hollow,,51,Sierra Hollow,Fictional,3,,,,,,,,,,,,,,,
null,,confidence_buffer,525721,confidence_buffer,,null,,,,,,,,,,,,,,,,,,
1271.3000000044703,,pt2_unique_rating,526994,Sierra Hollow,,49,,,1,,,,,,,,,,,,,,,
null,,confidence_buffer,527097,confidence_buffer,,null,,,,,,,,,,,,,,,,,,
1447.3000000044703,,pt2_memorable_rating,528546,Sierra Hollow,,51,,,3,,,,,,,,,,,,,,,
null,,confidence_buffer,528650,confidence_buffer,,null,,,,,,,,,,,,,,,,,,
2230.3000000044703,,recognition_phase,530882,Sierra Hollow,,49,,,,,,old,0,0.45,,,,,,,,,,
null,,confidence_buffer,530983,confidence_buffer,,null,,,,,,,,,,,,,,,,,,
null,,thebreak,531486,break,,null,,,,,,,,,,,,,,,,,,
1586.6000000014901,,realistic_rating,533074,Delaware City,,52,Delaware City,US,4,,,,,,,,,,,,,,,
null,,confidence_buffer,533177,confidence_buffer,,null,,,,,,,,,,,,,,,,,,
1495.6000000014901,,pt2_unique_rating,534674,Delaware City,,50,,,2,,,,,,,,,,,,,,,
null,,confidence_buffer,534777,confidence_buffer,,null,,,,,,,,,,,,,,,,,,
3543.60000000149,,pt2_memorable_rating,538322,Delaware City,,49,,,1,,,,,,,,,,,,,,,
null,,confidence_buffer,538425,confidence_buffer,,null,,,,,,,,,,,,,,,,,,
806.7000000029802,,recognition_phase,539234,Delaware City,,51,,,,,,new,1,0.47619047619047616,,,,,,,,,,
null,,confidence_buffer,539336,confidence_buffer,,null,,,,,,,,,,,,,,,,,,
null,,thebreak,539838,break,,null,,,,,,,,,,,,,,,,,,
945.7999999970198,,realistic_rating,540786,Oakridge,,52,Oakridge,Fictional,4,,,,,,,,,,,,,,,
null,,confidence_buffer,540900,confidence_buffer,,null,,,,,,,,,,,,,,,,,,
940.1000000014901,,pt2_unique_rating,541841,Oakridge,,51,,,3,,,,,,,,,,,,,,,
null,,confidence_buffer,541944,confidence_buffer,,null,,,,,,,,,,,,,,,,,,
839.8999999985099,,pt2_memorable_rating,542785,Oakridge,,50,,,2,,,,,,,,,,,,,,,
null,,confidence_buffer,542888,confidence_buffer,,null,,,,,,,,,,,,,,,,,,
728.1000000014901,,recognition_phase,543617,Oakridge,,49,,,,,,old,0,0.45454545454545453,,,,,,,,,,
null,,confidence_buffer,543721,confidence_buffer,,null,,,,,,,,,,,,,,,,,,
null,,thebreak,544223,break,,null,,,,,,,,,,,,,,,,,,
945.3000000044703,,realistic_rating,545170,Tamarisk Hills,,51,Tamarisk Hills,Fictional,3,,,,,,,,,,,,,,,
null,,confidence_buffer,545273,confidence_buffer,,null,,,,,,,,,,,,,,,,,,
806.6999999955297,,pt2_unique_rating,546081,Tamarisk Hills,,52,,,4,,,,,,,,,,,,,,,
null,,confidence_buffer,546184,confidence_buffer,,null,,,,,,,,,,,,,,,,,,
631.7999999970198,,pt2_memorable_rating,546817,Tamarisk Hills,,51,,,3,,,,,,,,,,,,,,,
null,,confidence_buffer,546920,confidence_buffer,,null,,,,,,,,,,,,,,,,,,
904,,recognition_phase,547826,Tamarisk Hills,,50,,,,,,old,0,0.43478260869565216,,,,,,,,,,
null,,confidence_buffer,547928,confidence_buffer,,null,,,,,,,,,,,,,,,,,,
null,,thebreak,548431,break,,null,,,,,,,,,,,,,,,,,,
1489.5,,realistic_rating,549922,Cedarwyn,,50,Cedarwyn,Fictional,2,,,,,,,,,,,,,,,
null,,confidence_buffer,550025,confidence_buffer,,null,,,,,,,,,,,,,,,,,,
1255.1000000014901,,pt2_unique_rating,551281,Cedarwyn,,51,,,3,,,,,,,,,,,,,,,
null,,confidence_buffer,551384,confidence_buffer,,null,,,,,,,,,,,,,,,,,,
791.7999999970198,,pt2_memorable_rating,552177,Cedarwyn,,52,,,4,,,,,,,,,,,,,,,
null,,confidence_buffer,552280,confidence_buffer,,null,,,,,,,,,,,,,,,,,,
1032,,recognition_phase,553313,Cedarwyn,,51,,,,,,new,1,0.4583333333333333,,,,,,,,,,
null,,confidence_buffer,553416,confidence_buffer,,null,,,,,,,,,,,,,,,,,,
null,,thebreak,553918,break,,null,,,,,,,,,,,,,,,,,,
1538.2000000029802,,realistic_rating,555458,Rosehollow,,49,Rosehollow,Fictional,1,,,,,,,,,,,,,,,
null,,confidence_buffer,555561,confidence_buffer,,null,,,,,,,,,,,,,,,,,,
1783.2999999970198,,pt2_unique_rating,557345,Rosehollow,,51,,,3,,,,,,,,,,,,,,,
null,,confidence_buffer,557460,confidence_buffer,,null,,,,,,,,,,,,,,,,,,
859.7999999970198,,pt2_memorable_rating,558321,Rosehollow,,52,,,4,,,,,,,,,,,,,,,
null,,confidence_buffer,558424,confidence_buffer,,null,,,,,,,,,,,,,,,,,,
6263.69999999553,,recognition_phase,564689,Rosehollow,,52,,,,,,new,0,0.44,,,,,,,,,,
null,,confidence_buffer,564792,confidence_buffer,,null,,,,,,,,,,,,,,,,,,
null,,thebreak,565295,break,,null,,,,,,,,,,,,,,,,,,
1281.2999999970198,,realistic_rating,566578,West Talora,,51,West Talora,Fictional,3,,,,,,,,,,,,,,,
null,,confidence_buffer,566680,confidence_buffer,,null,,,,,,,,,,,,,,,,,,
967.5,,pt2_unique_rating,567649,West Talora,,50,,,2,,,,,,,,,,,,,,,
null,,confidence_buffer,567752,confidence_buffer,,null,,,,,,,,,,,,,,,,,,
1143.8999999985099,,pt2_memorable_rating,568897,West Talora,,52,,,4,,,,,,,,,,,,,,,
null,,confidence_buffer,569008,confidence_buffer,,null,,,,,,,,,,,,,,,,,,
2559.5,,recognition_phase,571569,West Talora,,50,,,,,,old,0,0.4230769230769231,,,,,,,,,,
null,,confidence_buffer,571672,confidence_buffer,,null,,,,,,,,,,,,,,,,,,
null,,thebreak,572174,break,,null,,,,,,,,,,,,,,,,,,
2209.9000000059605,,realistic_rating,574385,Clearbrook,,50,Clearbrook,Fictional,2,,,,,,,,,,,,,,,
null,,confidence_buffer,574498,confidence_buffer,,null,,,,,,,,,,,,,,,,,,
973.3999999985099,,pt2_unique_rating,575473,Clearbrook,,52,,,4,,,,,,,,,,,,,,,
null,,confidence_buffer,575576,confidence_buffer,,null,,,,,,,,,,,,,,,,,,
1543.7999999970198,,pt2_memorable_rating,577121,Clearbrook,,49,,,1,,,,,,,,,,,,,,,
null,,confidence_buffer,577223,confidence_buffer,,null,,,,,,,,,,,,,,,,,,
904.5,,recognition_phase,578129,Clearbrook,,51,,,,,,new,1,0.4444444444444444,,,,,,,,,,
null,,confidence_buffer,578232,confidence_buffer,,null,,,,,,,,,,,,,,,,,,
null,,thebreak,578735,break,,null,,,,,,,,,,,,,,,,,,
544.7999999970198,,realistic_rating,579281,Maplehurst,,52,Maplehurst,Fictional,4,,,,,,,,,,,,,,,
null,,confidence_buffer,579384,confidence_buffer,,null,,,,,,,,,,,,,,,,,,
1031.7999999970198,,pt2_unique_rating,580417,Maplehurst,,53,,,5,,,,,,,,,,,,,,,
null,,confidence_buffer,580520,confidence_buffer,,null,,,,,,,,,,,,,,,,,,
999.8999999985099,,pt2_memorable_rating,581521,Maplehurst,,52,,,4,,,,,,,,,,,,,,,
null,,confidence_buffer,581623,confidence_buffer,,null,,,,,,,,,,,,,,,,,,
920.5,,recognition_phase,582545,Maplehurst,,51,,,,,,new,0,0.42857142857142855,,,,,,,,,,
null,,confidence_buffer,582648,confidence_buffer,,null,,,,,,,,,,,,,,,,,,
null,,thebreak,583150,break,,null,,,,,,,,,,,,,,,,,,
2081.60000000149,,realistic_rating,585233,Duck,,52,Duck,US,4,,,,,,,,,,,,,,,
null,,confidence_buffer,585336,confidence_buffer,,null,,,,,,,,,,,,,,,,,,
855.5,,pt2_unique_rating,586193,Duck,,51,,,3,,,,,,,,,,,,,,,
null,,confidence_buffer,586295,confidence_buffer,,null,,,,,,,,,,,,,,,,,,
792.3999999985099,,pt2_memorable_rating,587089,Duck,,50,,,2,,,,,,,,,,,,,,,
null,,confidence_buffer,587192,confidence_buffer,,null,,,,,,,,,,,,,,,,,,
2519.5,,recognition_phase,589713,Duck,,49,,,,,,old,0,0.41379310344827586,,,,,,,,,,
null,,confidence_buffer,589817,confidence_buffer,,null,,,,,,,,,,,,,,,,,,
null,,thebreak,590319,break,,null,,,,,,,,,,,,,,,,,,
2144.60000000149,,realistic_rating,592465,San Antonio,,51,San Antonio,US,3,,,,,,,,,,,,,,,
null,,confidence_buffer,592567,confidence_buffer,,null,,,,,,,,,,,,,,,,,,
1160.7999999970198,,pt2_unique_rating,593729,San Antonio,,52,,,4,,,,,,,,,,,,,,,
null,,confidence_buffer,593832,confidence_buffer,,null,,,,,,,,,,,,,,,,,,
679.3999999985099,,pt2_memorable_rating,594513,San Antonio,,51,,,3,,,,,,,,,,,,,,,
null,,confidence_buffer,594615,confidence_buffer,,null,,,,,,,,,,,,,,,,,,
1240.2000000029802,,recognition_phase,595857,San Antonio,,50,,,,,,old,0,0.4,,,,,,,,,,
null,,confidence_buffer,595960,confidence_buffer,,null,,,,,,,,,,,,,,,,,,
null,,thebreak,596462,break,,null,,,,,,,,,,,,,,,,,,
1153.7999999970198,,realistic_rating,597617,Sisters,,50,Sisters,US,2,,,,,,,,,,,,,,,
null,,confidence_buffer,597720,confidence_buffer,,null,,,,,,,,,,,,,,,,,,
1143.6999999955297,,pt2_unique_rating,598865,Sisters,,51,,,3,,,,,,,,,,,,,,,
null,,confidence_buffer,598968,confidence_buffer,,null,,,,,,,,,,,,,,,,,,
951,,pt2_memorable_rating,599921,Sisters,,52,,,4,,,,,,,,,,,,,,,
null,,confidence_buffer,600023,confidence_buffer,,null,,,,,,,,,,,,,,,,,,
1736.0999999940395,,probe_rating,601761,probe_rating,,52,,,,4,1,,,,,,,,,,,,,
null,,confidence_buffer,601864,confidence_buffer,,null,,,,,,,,,,,,,,,,,,
887.2999999970198,,recognition_phase,602753,Sisters,,51,,,,,,new,0,0.3870967741935484,,,,,,,,,,
null,,confidence_buffer,602856,confidence_buffer,,null,,,,,,,,,,,,,,,,,,
null,,thebreak,603358,break,,null,,,,,,,,,,,,,,,,,,
833.5,,realistic_rating,604193,Livingston,,50,Livingston,US,2,,,,,,,,,,,,,,,
null,,confidence_buffer,604296,confidence_buffer,,null,,,,,,,,,,,,,,,,,,
807.5,,pt2_unique_rating,605105,Livingston,,51,,,3,,,,,,,,,,,,,,,
null,,confidence_buffer,605207,confidence_buffer,,null,,,,,,,,,,,,,,,,,,
904.2000000029802,,pt2_memorable_rating,606113,Livingston,,52,,,4,,,,,,,,,,,,,,,
null,,confidence_buffer,606215,confidence_buffer,,null,,,,,,,,,,,,,,,,,,
631.9000000059605,,recognition_phase,606849,Livingston,,50,,,,,,old,0,0.375,,,,,,,,,,
null,,confidence_buffer,606952,confidence_buffer,,null,,,,,,,,,,,,,,,,,,
null,,thebreak,607455,break,,null,,,,,,,,,,,,,,,,,,
1600.6999999955297,,realistic_rating,609057,Montelake,,50,Montelake,Fictional,2,,,,,,,,,,,,,,,
null,,confidence_buffer,609161,confidence_buffer,,null,,,,,,,,,,,,,,,,,,
694.6000000014901,,pt2_unique_rating,609857,Montelake,,52,,,4,,,,,,,,,,,,,,,
null,,confidence_buffer,609959,confidence_buffer,,null,,,,,,,,,,,,,,,,,,
520.2999999970198,,pt2_memorable_rating,610481,Montelake,,51,,,3,,,,,,,,,,,,,,,
null,,confidence_buffer,610584,confidence_buffer,,null,,,,,,,,,,,,,,,,,,
1430.8000000044703,,recognition_phase,612017,Montelake,,52,,,,,,new,0,0.36363636363636365,,,,,,,,,,
null,,confidence_buffer,612122,confidence_buffer,,null,,,,,,,,,,,,,,,,,,
null,,thebreak,612624,break,,null,,,,,,,,,,,,,,,,,,
847.5999999940395,,realistic_rating,613473,Lakehaven,,50,Lakehaven,Fictional,2,,,,,,,,,,,,,,,
null,,confidence_buffer,613576,confidence_buffer,,null,,,,,,,,,,,,,,,,,,
695.9000000059605,,pt2_unique_rating,614273,Lakehaven,,52,,,4,,,,,,,,,,,,,,,
null,,confidence_buffer,614374,confidence_buffer,,null,,,,,,,,,,,,,,,,,,
537.2000000029802,,pt2_memorable_rating,614913,Lakehaven,,51,,,3,,,,,,,,,,,,,,,
null,,confidence_buffer,615016,confidence_buffer,,null,,,,,,,,,,,,,,,,,,
535,,recognition_phase,615553,Lakehaven,,50,,,,,,old,1,0.38235294117647056,,,,,,,,,,
null,,confidence_buffer,615655,confidence_buffer,,null,,,,,,,,,,,,,,,,,,
null,,thebreak,616158,break,,null,,,,,,,,,,,,,,,,,,
481.8999999985099,,realistic_rating,616641,Alliance,,52,Alliance,US,4,,,,,,,,,,,,,,,
null,,confidence_buffer,616744,confidence_buffer,,null,,,,,,,,,,,,,,,,,,
519.7000000029802,,pt2_unique_rating,617265,Alliance,,51,,,3,,,,,,,,,,,,,,,
null,,confidence_buffer,617367,confidence_buffer,,null,,,,,,,,,,,,,,,,,,
664.1000000014901,,pt2_memorable_rating,618033,Alliance,,52,,,4,,,,,,,,,,,,,,,
null,,confidence_buffer,618135,confidence_buffer,,null,,,,,,,,,,,,,,,,,,
424.20000000298023,,recognition_phase,618561,Alliance,,50,,,,,,old,1,0.4,,,,,,,,,,
null,,confidence_buffer,618664,confidence_buffer,,null,,,,,,,,,,,,,,,,,,
null,,thebreak,619166,break,,null,,,,,,,,,,,,,,,,,,
32.80000000447035,,realistic_rating,619200,Hollendale,,51,Hollendale,Fictional,3,,,,,,,,,,,,,,,
null,,confidence_buffer,619303,confidence_buffer,,null,,,,,,,,,,,,,,,,,,
600.1000000014901,,pt2_unique_rating,619905,Hollendale,,51,,,3,,,,,,,,,,,,,,,
null,,confidence_buffer,620007,confidence_buffer,,null,,,,,,,,,,,,,,,,,,
936.3000000044703,,pt2_memorable_rating,620945,Hollendale,,52,,,4,,,,,,,,,,,,,,,
null,,confidence_buffer,621048,confidence_buffer,,null,,,,,,,,,,,,,,,,,,
599.2000000029802,,recognition_phase,621649,Hollendale,,51,,,,,,new,0,0.3888888888888889,,,,,,,,,,
null,,confidence_buffer,621752,confidence_buffer,,null,,,,,,,,,,,,,,,,,,
null,,thebreak,622254,break,,null,,,,,,,,,,,,,,,,,,
865.1000000014901,,realistic_rating,623121,Solara Glen,,53,Solara Glen,Fictional,5,,,,,,,,,,,,,,,
null,,confidence_buffer,623224,confidence_buffer,,null,,,,,,,,,,,,,,,,,,
1479.1000000014901,,pt2_unique_rating,624705,Solara Glen,,52,,,4,,,,,,,,,,,,,,,
null,,confidence_buffer,624807,confidence_buffer,,null,,,,,,,,,,,,,,,,,,
952,,pt2_memorable_rating,625761,Solara Glen,,51,,,3,,,,,,,,,,,,,,,
null,,confidence_buffer,625863,confidence_buffer,,null,,,,,,,,,,,,,,,,,,
775.7999999970198,,recognition_phase,626641,Solara Glen,,50,,,,,,old,1,0.40540540540540543,,,,,,,,,,
null,,confidence_buffer,626742,confidence_buffer,,null,,,,,,,,,,,,,,,,,,
null,,thebreak,627245,break,,null,,,,,,,,,,,,,,,,,,
1442.2999999970198,,realistic_rating,628689,Newport,,52,Newport,US,4,,,,,,,,,,,,,,,
null,,confidence_buffer,628790,confidence_buffer,,null,,,,,,,,,,,,,,,,,,
1368.8999999985099,,pt2_unique_rating,630161,Newport,,50,,,2,,,,,,,,,,,,,,,
null,,confidence_buffer,630263,confidence_buffer,,null,,,,,,,,,,,,,,,,,,
759.8999999985099,,pt2_memorable_rating,631025,Newport,,52,,,4,,,,,,,,,,,,,,,
null,,confidence_buffer,631128,confidence_buffer,,null,,,,,,,,,,,,,,,,,,
1607.1000000014901,,recognition_phase,632736,Newport,,50,,,,,,old,0,0.39473684210526316,,,,,,,,,,
null,,confidence_buffer,632839,confidence_buffer,,null,,,,,,,,,,,,,,,,,,
null,,thebreak,633355,break,,null,,,,,,,,,,,,,,,,,,
676.1999999955297,,realistic_rating,634033,Shreveport,,52,Shreveport,US,4,,,,,,,,,,,,,,,
null,,confidence_buffer,634136,confidence_buffer,,null,,,,,,,,,,,,,,,,,,
951.3999999985099,,pt2_unique_rating,635088,Shreveport,,53,,,5,,,,,,,,,,,,,,,
null,,confidence_buffer,635191,confidence_buffer,,null,,,,,,,,,,,,,,,,,,
759.8999999985099,,pt2_memorable_rating,635952,Shreveport,,51,,,3,,,,,,,,,,,,,,,
null,,confidence_buffer,636055,confidence_buffer,,null,,,,,,,,,,,,,,,,,,
759.6000000014901,,recognition_phase,636816,Shreveport,,50,,,,,,old,0,0.38461538461538464,,,,,,,,,,
null,,confidence_buffer,636919,confidence_buffer,,null,,,,,,,,,,,,,,,,,,
null,,thebreak,637421,break,,null,,,,,,,,,,,,,,,,,,
802.1999999955297,,realistic_rating,638224,East Ladera,,51,East Ladera,Fictional,3,,,,,,,,,,,,,,,
null,,confidence_buffer,638328,confidence_buffer,,null,,,,,,,,,,,,,,,,,,
711.0999999940395,,pt2_unique_rating,639040,East Ladera,,52,,,4,,,,,,,,,,,,,,,
null,,confidence_buffer,639143,confidence_buffer,,null,,,,,,,,,,,,,,,,,,
567.6999999955297,,pt2_memorable_rating,639713,East Ladera,,51,,,3,,,,,,,,,,,,,,,
null,,confidence_buffer,639816,confidence_buffer,,null,,,,,,,,,,,,,,,,,,
775.2000000029802,,recognition_phase,640593,East Ladera,,50,,,,,,old,1,0.4,,,,,,,,,,
null,,confidence_buffer,640696,confidence_buffer,,null,,,,,,,,,,,,,,,,,,
null,,thebreak,641198,break,,null,,,,,,,,,,,,,,,,,,
641.6000000014901,,realistic_rating,641841,Cornwall,,51,Cornwall,US,3,,,,,,,,,,,,,,,
null,,confidence_buffer,641944,confidence_buffer,,null,,,,,,,,,,,,,,,,,,
2263,,probe_rating,644208,probe_rating,,52,,,,4,1,,,,,,,,,,,,,
null,,confidence_buffer,644312,confidence_buffer,,null,,,,,,,,,,,,,,,,,,
1046.7999999970198,,pt2_unique_rating,645360,Cornwall,,53,,,5,,,,,,,,,,,,,,,
null,,confidence_buffer,645464,confidence_buffer,,null,,,,,,,,,,,,,,,,,,
535.5,,pt2_memorable_rating,646001,Cornwall,,51,,,3,,,,,,,,,,,,,,,
null,,confidence_buffer,646103,confidence_buffer,,null,,,,,,,,,,,,,,,,,,
647.6000000014901,,recognition_phase,646753,Cornwall,,50,,,,,,old,1,0.4146341463414634,,,,,,,,,,
null,,confidence_buffer,646856,confidence_buffer,,null,,,,,,,,,,,,,,,,,,
null,,thebreak,647358,break,,null,,,,,,,,,,,,,,,,,,
1664.2000000029802,,realistic_rating,649024,Berkeley Springs,,49,Berkeley Springs,US,1,,,,,,,,,,,,,,,
null,,confidence_buffer,649127,confidence_buffer,,null,,,,,,,,,,,,,,,,,,
472.1000000014901,,pt2_unique_rating,649600,Berkeley Springs,,50,,,2,,,,,,,,,,,,,,,
null,,confidence_buffer,649703,confidence_buffer,,null,,,,,,,,,,,,,,,,,,
647.7999999970198,,pt2_memorable_rating,650353,Berkeley Springs,,51,,,3,,,,,,,,,,,,,,,
null,,confidence_buffer,650454,confidence_buffer,,null,,,,,,,,,,,,,,,,,,
536.3000000044703,,recognition_phase,650992,Berkeley Springs,,52,,,,,,new,0,0.40476190476190477,,,,,,,,,,
null,,confidence_buffer,651095,confidence_buffer,,null,,,,,,,,,,,,,,,,,,
null,,thebreak,651597,break,,null,,,,,,,,,,,,,,,,,,
225.59999999403954,,realistic_rating,651824,Bowling Green,,50,Bowling Green,US,2,,,,,,,,,,,,,,,
null,,confidence_buffer,651927,confidence_buffer,,null,,,,,,,,,,,,,,,,,,
743.7999999970198,,pt2_unique_rating,652672,Bowling Green,,51,,,3,,,,,,,,,,,,,,,
null,,confidence_buffer,652775,confidence_buffer,,null,,,,,,,,,,,,,,,,,,
599.5999999940395,,pt2_memorable_rating,653376,Bowling Green,,52,,,4,,,,,,,,,,,,,,,
null,,confidence_buffer,653479,confidence_buffer,,null,,,,,,,,,,,,,,,,,,
599.3999999985099,,recognition_phase,654080,Bowling Green,,51,,,,,,new,1,0.4186046511627907,,,,,,,,,,
null,,confidence_buffer,654183,confidence_buffer,,null,,,,,,,,,,,,,,,,,,
null,,thebreak,654685,break,,null,,,,,,,,,,,,,,,,,,
417.40000000596046,,realistic_rating,655104,Gloucester,,53,Gloucester,US,5,,,,,,,,,,,,,,,
null,,confidence_buffer,655206,confidence_buffer,,null,,,,,,,,,,,,,,,,,,
632.5,,pt2_unique_rating,655840,Gloucester,,51,,,3,,,,,,,,,,,,,,,
null,,confidence_buffer,655943,confidence_buffer,,null,,,,,,,,,,,,,,,,,,
775.9000000059605,,pt2_memorable_rating,656720,Gloucester,,50,,,2,,,,,,,,,,,,,,,
null,,confidence_buffer,656823,confidence_buffer,,null,,,,,,,,,,,,,,,,,,
1895.3999999985099,,recognition_phase,658720,Gloucester,,52,,,,,,new,0,0.4090909090909091,,,,,,,,,,
null,,confidence_buffer,658823,confidence_buffer,,null,,,,,,,,,,,,,,,,,,
null,,thebreak,659325,break,,null,,,,,,,,,,,,,,,,,,
577.2000000029802,,realistic_rating,659904,Linden Trace,,51,Linden Trace,Fictional,3,,,,,,,,,,,,,,,
null,,confidence_buffer,660007,confidence_buffer,,null,,,,,,,,,,,,,,,,,,
2391.3000000044703,,pt2_unique_rating,662400,Linden Trace,,52,,,4,,,,,,,,,,,,,,,
null,,confidence_buffer,662503,confidence_buffer,,null,,,,,,,,,,,,,,,,,,
631.6000000014901,,pt2_memorable_rating,663137,Linden Trace,,51,,,3,,,,,,,,,,,,,,,
null,,confidence_buffer,663248,confidence_buffer,,null,,,,,,,,,,,,,,,,,,
574.7000000029802,,recognition_phase,663824,Linden Trace,,50,,,,,,old,0,0.4,,,,,,,,,,
null,,confidence_buffer,663927,confidence_buffer,,null,,,,,,,,,,,,,,,,,,
null,,thebreak,664429,break,,null,,,,,,,,,,,,,,,,,,
657.5,,realistic_rating,665088,Barnard,,50,Barnard,US,2,,,,,,,,,,,,,,,
null,,confidence_buffer,665191,confidence_buffer,,null,,,,,,,,,,,,,,,,,,
439.79999999701977,,pt2_unique_rating,665632,Barnard,,52,,,4,,,,,,,,,,,,,,,
null,,confidence_buffer,665735,confidence_buffer,,null,,,,,,,,,,,,,,,,,,
1846.8999999985099,,probe_rating,667584,probe_rating,,53,,,,5,1,,,,,,,,,,,,,
null,,confidence_buffer,667687,confidence_buffer,,null,,,,,,,,,,,,,,,,,,
679.8999999985099,,pt2_memorable_rating,668368,Barnard,,51,,,3,,,,,,,,,,,,,,,
null,,confidence_buffer,668472,confidence_buffer,,null,,,,,,,,,,,,,,,,,,
502.8999999985099,,recognition_phase,668976,Barnard,,50,,,,,,old,0,0.391304347826087,,,,,,,,,,
null,,confidence_buffer,669079,confidence_buffer,,null,,,,,,,,,,,,,,,,,,
null,,thebreak,669591,break,,null,,,,,,,,,,,,,,,,,,
1127.7000000029802,,realistic_rating,670720,Racine,,50,Racine,US,2,,,,,,,,,,,,,,,
null,,confidence_buffer,670823,confidence_buffer,,null,,,,,,,,,,,,,,,,,,
423.70000000298023,,pt2_unique_rating,671248,Racine,,51,,,3,,,,,,,,,,,,,,,
null,,confidence_buffer,671351,confidence_buffer,,null,,,,,,,,,,,,,,,,,,
824,,pt2_memorable_rating,672176,Racine,,52,,,4,,,,,,,,,,,,,,,
null,,confidence_buffer,672279,confidence_buffer,,null,,,,,,,,,,,,,,,,,,
487.19999999552965,,recognition_phase,672768,Racine,,50,,,,,,old,0,0.3829787234042553,,,,,,,,,,
null,,confidence_buffer,672871,confidence_buffer,,null,,,,,,,,,,,,,,,,,,
null,,thebreak,673374,break,,null,,,,,,,,,,,,,,,,,,
464.8999999985099,,realistic_rating,673840,New Verdan,,53,New Verdan,Fictional,5,,,,,,,,,,,,,,,
null,,confidence_buffer,673944,confidence_buffer,,null,,,,,,,,,,,,,,,,,,
519.3000000044703,,pt2_unique_rating,674464,New Verdan,,51,,,3,,,,,,,,,,,,,,,
null,,confidence_buffer,674567,confidence_buffer,,null,,,,,,,,,,,,,,,,,,
407.29999999701977,,pt2_memorable_rating,674976,New Verdan,,51,,,3,,,,,,,,,,,,,,,
null,,confidence_buffer,675079,confidence_buffer,,null,,,,,,,,,,,,,,,,,,
471,,recognition_phase,675552,New Verdan,,50,,,,,,old,0,0.375,,,,,,,,,,
null,,confidence_buffer,675654,confidence_buffer,,null,,,,,,,,,,,,,,,,,,
null,,thebreak,676157,break,,null,,,,,,,,,,,,,,,,,,
514.2000000029802,,realistic_rating,676672,Hilo,,49,Hilo,US,1,,,,,,,,,,,,,,,
null,,confidence_buffer,676776,confidence_buffer,,null,,,,,,,,,,,,,,,,,,
1030.7999999970198,,pt2_unique_rating,677808,Hilo,,51,,,3,,,,,,,,,,,,,,,
null,,confidence_buffer,677911,confidence_buffer,,null,,,,,,,,,,,,,,,,,,
487.3999999985099,,pt2_memorable_rating,678400,Hilo,,52,,,4,,,,,,,,,,,,,,,
null,,confidence_buffer,678503,confidence_buffer,,null,,,,,,,,,,,,,,,,,,
471.5,,recognition_phase,678976,Hilo,,51,,,,,,new,0,0.3673469387755102,,,,,,,,,,
null,,confidence_buffer,679079,confidence_buffer,,null,,,,,,,,,,,,,,,,,,
null,,thebreak,679582,break,,null,,,,,,,,,,,,,,,,,,
528.2999999970198,,realistic_rating,680112,Huntsville,,51,Huntsville,US,3,,,,,,,,,,,,,,,
null,,confidence_buffer,680215,confidence_buffer,,null,,,,,,,,,,,,,,,,,,
615.5999999940395,,pt2_unique_rating,680832,Huntsville,,52,,,4,,,,,,,,,,,,,,,
null,,confidence_buffer,680935,confidence_buffer,,null,,,,,,,,,,,,,,,,,,
503.69999999552965,,pt2_memorable_rating,681440,Huntsville,,51,,,3,,,,,,,,,,,,,,,
null,,confidence_buffer,681544,confidence_buffer,,null,,,,,,,,,,,,,,,,,,
374.69999999552965,,recognition_phase,681920,Huntsville,,50,,,,,,old,1,0.38,,,,,,,,,,
null,,confidence_buffer,682022,confidence_buffer,,null,,,,,,,,,,,,,,,,,,
null,,thebreak,682525,break,,null,,,,,,,,,,,,,,,,,,
753.5,,realistic_rating,683280,Medora,,52,Medora,US,4,,,,,,,,,,,,,,,
null,,confidence_buffer,683383,confidence_buffer,,null,,,,,,,,,,,,,,,,,,
375.3999999985099,,probe_rating,683760,probe_rating,,51,,,,3,0,,,,,,,,,,,,,
null,,confidence_buffer,683863,confidence_buffer,,null,,,,,,,,,,,,,,,,,,
3128,,pt2_unique_rating,686992,Medora,,50,,,2,,,,,,,,,,,,,,,
null,,confidence_buffer,687095,confidence_buffer,,null,,,,,,,,,,,,,,,,,,
807.3999999985099,,pt2_memorable_rating,687904,Medora,,51,,,3,,,,,,,,,,,,,,,
null,,confidence_buffer,688007,confidence_buffer,,null,,,,,,,,,,,,,,,,,,
503.1000000014901,,recognition_phase,688512,Medora,,52,,,,,,new,1,0.39215686274509803,,,,,,,,,,
null,,confidence_buffer,688614,confidence_buffer,,null,,,,,,,,,,,,,,,,,,
null,,thebreak,689117,break,,null,,,,,,,,,,,,,,,,,,
593.3999999985099,,realistic_rating,689712,Brookmere,,50,Brookmere,Fictional,2,,,,,,,,,,,,,,,
null,,confidence_buffer,689815,confidence_buffer,,null,,,,,,,,,,,,,,,,,,
503.19999999552965,,pt2_unique_rating,690320,Brookmere,,51,,,3,,,,,,,,,,,,,,,
null,,confidence_buffer,690423,confidence_buffer,,null,,,,,,,,,,,,,,,,,,
535.2999999970198,,pt2_memorable_rating,690960,Brookmere,,52,,,4,,,,,,,,,,,,,,,
null,,confidence_buffer,691063,confidence_buffer,,null,,,,,,,,,,,,,,,,,,
1383.5999999940395,,recognition_phase,692448,Brookmere,,52,,,,,,new,1,0.40384615384615385,,,,,,,,,,
null,,confidence_buffer,692551,confidence_buffer,,null,,,,,,,,,,,,,,,,,,
null,,thebreak,693054,break,,null,,,,,,,,,,,,,,,,,,
1712.7000000029802,,realistic_rating,694768,Westridge,,49,Westridge,Fictional,1,,,,,,,,,,,,,,,
null,,confidence_buffer,694871,confidence_buffer,,null,,,,,,,,,,,,,,,,,,
935.1000000014901,,pt2_unique_rating,695808,Westridge,,51,,,3,,,,,,,,,,,,,,,
null,,confidence_buffer,695911,confidence_buffer,,null,,,,,,,,,,,,,,,,,,
791.7999999970198,,pt2_memorable_rating,696704,Westridge,,52,,,4,,,,,,,,,,,,,,,
null,,confidence_buffer,696806,confidence_buffer,,null,,,,,,,,,,,,,,,,,,
2120,,recognition_phase,698928,Westridge,,52,,,,,,new,1,0.41509433962264153,,,,,,,,,,
null,,confidence_buffer,699031,confidence_buffer,,null,,,,,,,,,,,,,,,,,,
null,,thebreak,699542,break,,null,,,,,,,,,,,,,,,,,,
599.8000000044703,,realistic_rating,700144,Leesburg,,50,Leesburg,US,2,,,,,,,,,,,,,,,
null,,confidence_buffer,700246,confidence_buffer,,null,,,,,,,,,,,,,,,,,,
695.8999999985099,,pt2_unique_rating,700944,Leesburg,,51,,,3,,,,,,,,,,,,,,,
null,,confidence_buffer,701046,confidence_buffer,,null,,,,,,,,,,,,,,,,,,
2312.4000000059605,,probe_rating,703360,probe_rating,,49,,,,1,1,,,,,,,,,,,,,
null,,confidence_buffer,703463,confidence_buffer,,null,,,,,,,,,,,,,,,,,,
1463.3999999985099,,pt2_memorable_rating,704928,Leesburg,,51,,,3,,,,,,,,,,,,,,,
null,,confidence_buffer,705031,confidence_buffer,,null,,,,,,,,,,,,,,,,,,
742.6000000014901,,recognition_phase,705776,Leesburg,,52,,,,,,new,0,0.4074074074074074,,,,,,,,,,
null,,confidence_buffer,705879,confidence_buffer,,null,,,,,,,,,,,,,,,,,,
null,,thebreak,706381,break,,null,,,,,,,,,,,,,,,,,,
1777,,realistic_rating,708160,Granton Ridge,,50,Granton Ridge,Fictional,2,,,,,,,,,,,,,,,
null,,confidence_buffer,708262,confidence_buffer,,null,,,,,,,,,,,,,,,,,,
1096.1999999955297,,pt2_unique_rating,709360,Granton Ridge,,51,,,3,,,,,,,,,,,,,,,
null,,confidence_buffer,709463,confidence_buffer,,null,,,,,,,,,,,,,,,,,,
2710.8000000044703,,probe_rating,712176,probe_rating,,49,,,,1,1,,,,,,,,,,,,,
null,,confidence_buffer,712279,confidence_buffer,,null,,,,,,,,,,,,,,,,,,
1239.5,,pt2_memorable_rating,713520,Granton Ridge,,51,,,3,,,,,,,,,,,,,,,
null,,confidence_buffer,713622,confidence_buffer,,null,,,,,,,,,,,,,,,,,,
535.3999999985099,,recognition_phase,714160,Granton Ridge,,52,,,,,,new,1,0.41818181818181815,,,,,,,,,,
null,,confidence_buffer,714262,confidence_buffer,,null,,,,,,,,,,,,,,,,,,
null,,thebreak,714765,break,,null,,,,,,,,,,,,,,,,,,
497.20000000298023,,realistic_rating,715264,Park City,,53,Park City,US,5,,,,,,,,,,,,,,,
null,,confidence_buffer,715366,confidence_buffer,,null,,,,,,,,,,,,,,,,,,
487.8999999985099,,pt2_unique_rating,715855,Park City,,52,,,4,,,,,,,,,,,,,,,
null,,confidence_buffer,715968,confidence_buffer,,null,,,,,,,,,,,,,,,,,,
1933.6999999955297,,probe_rating,717903,probe_rating,,50,,,,2,1,,,,,,,,,,,,,
null,,confidence_buffer,718006,confidence_buffer,,null,,,,,,,,,,,,,,,,,,
1271.6999999955297,,pt2_memorable_rating,719279,Park City,,51,,,3,,,,,,,,,,,,,,,
null,,confidence_buffer,719382,confidence_buffer,,null,,,,,,,,,,,,,,,,,,
840,,recognition_phase,720224,Park City,,52,,,,,,new,1,0.42857142857142855,,,,,,,,,,
null,,confidence_buffer,720326,confidence_buffer,,null,,,,,,,,,,,,,,,,,,
null,,thebreak,720829,break,,null,,,,,,,,,,,,,,,,,,
97.5,,realistic_rating,720928,Okoboji,,53,Okoboji,US,5,,,,,,,,,,,,,,,
null,,confidence_buffer,721031,confidence_buffer,,null,,,,,,,,,,,,,,,,,,
1639.7999999970198,,pt2_unique_rating,722672,Okoboji,,50,,,2,,,,,,,,,,,,,,,
null,,confidence_buffer,722774,confidence_buffer,,null,,,,,,,,,,,,,,,,,,
679.8999999985099,,pt2_memorable_rating,723456,Okoboji,,51,,,3,,,,,,,,,,,,,,,
null,,confidence_buffer,723559,confidence_buffer,,null,,,,,,,,,,,,,,,,,,
935.2999999970198,,recognition_phase,724496,Okoboji,,52,,,,,,new,0,0.42105263157894735,,,,,,,,,,
null,,confidence_buffer,724609,confidence_buffer,,null,,,,,,,,,,,,,,,,,,
null,,thebreak,725112,break,,null,,,,,,,,,,,,,,,,,,
886.3999999985099,,realistic_rating,726000,Hawthorne Bluffs,,50,Hawthorne Bluffs,Fictional,2,,,,,,,,,,,,,,,
null,,confidence_buffer,726103,confidence_buffer,,null,,,,,,,,,,,,,,,,,,
823,,pt2_unique_rating,726927,Hawthorne Bluffs,,51,,,3,,,,,,,,,,,,,,,
null,,confidence_buffer,727031,confidence_buffer,,null,,,,,,,,,,,,,,,,,,
759.2999999970198,,pt2_memorable_rating,727791,Hawthorne Bluffs,,52,,,4,,,,,,,,,,,,,,,
null,,confidence_buffer,727894,confidence_buffer,,null,,,,,,,,,,,,,,,,,,
712.3999999985099,,recognition_phase,728608,Hawthorne Bluffs,,50,,,,,,old,0,0.41379310344827586,,,,,,,,,,
null,,confidence_buffer,728710,confidence_buffer,,null,,,,,,,,,,,,,,,,,,
null,,thebreak,729213,break,,null,,,,,,,,,,,,,,,,,,
1457.2999999970198,,realistic_rating,730672,Sitka,,50,Sitka,US,2,,,,,,,,,,,,,,,
null,,confidence_buffer,730774,confidence_buffer,,null,,,,,,,,,,,,,,,,,,
807.5,,pt2_unique_rating,731584,Sitka,,51,,,3,,,,,,,,,,,,,,,
null,,confidence_buffer,731687,confidence_buffer,,null,,,,,,,,,,,,,,,,,,
743.2999999970198,,pt2_memorable_rating,732432,Sitka,,52,,,4,,,,,,,,,,,,,,,
null,,confidence_buffer,732534,confidence_buffer,,null,,,,,,,,,,,,,,,,,,
583.1000000014901,,recognition_phase,733119,Sitka,,50,,,,,,old,1,0.423728813559322,,,,,,,,,,
null,,confidence_buffer,733222,confidence_buffer,,null,,,,,,,,,,,,,,,,,,
null,,thebreak,733724,break,,null,,,,,,,,,,,,,,,,,,
1537.6999999955297,,realistic_rating,735263,Hot Springs,,50,Hot Springs,US,2,,,,,,,,,,,,,,,
null,,confidence_buffer,735366,confidence_buffer,,null,,,,,,,,,,,,,,,,,,
1288.2999999970198,,pt2_unique_rating,736655,Hot Springs,,51,,,3,,,,,,,,,,,,,,,
null,,confidence_buffer,736758,confidence_buffer,,null,,,,,,,,,,,,,,,,,,
1591.5,,pt2_memorable_rating,738352,Hot Springs,,50,,,2,,,,,,,,,,,,,,,
null,,confidence_buffer,738454,confidence_buffer,,null,,,,,,,,,,,,,,,,,,
1112,,recognition_phase,739567,Hot Springs,,51,,,,,,new,1,0.43333333333333335,,,,,,,,,,
null,,confidence_buffer,739670,confidence_buffer,,null,,,,,,,,,,,,,,,,,,
null,,thebreak,740173,break,,null,,,,,,,,,,,,,,,,,,
,,survey,964674,survey-questions,,,,,,,,,,,none,high,no,I just used my knowledge and paying attention,paying attention,yes,yes,yes,no,no it was all good
