rt,responses,trial_type,time_elapsed,stimulus,button_pressed,key_press,name_trial,city_type,rating,probe,probe_accuracy,response,correct,accuracy,problems,smooth,distraction,strategies,familiar,memorable,unique,realistic,similar,comments
12628.600000000093,{worker_id:68293616d33902ce5a607c0f},id_enter,12633,,,,,,,,,,,,,,,,,,,,,
153194.1000000001,,fullscreen,165832,fullscreen,0,,,,,,,,,,,,,,,,,,,
285966.2000000002,,intro_0,451802,instruct,,32,,,,,,,,,,,,,,,,,,
29614.700000000186,,intro_1,481420,instruct,,32,,,,,,,,,,,,,,,,,,
11042,,intro_2,492464,instruct,,32,,,,,,,,,,,,,,,,,,
null,,instruct_dir_4,493969,instruct,,null,,,,,,,,,,,,,,,,,,
null,,thebreak,494483,break,,null,,,,,,,,,,,,,,,,,,
12044,,familiar_rating,506530,Alliance,,53,Alliance,US,5,,,,,,,,,,,,,,,
null,,confidence_buffer,506633,confidence_buffer,,null,,,,,,,,,,,,,,,,,,
3653.100000000093,,unique_rating,510288,Alliance,,53,,,5,,,,,,,,,,,,,,,
null,,confidence_buffer,510396,confidence_buffer,,null,,,,,,,,,,,,,,,,,,
3922.5999999996275,,probe_rating,514320,probe_rating,,52,,,,4,1,,,,,,,,,,,,,
null,,confidence_buffer,514423,confidence_buffer,,null,,,,,,,,,,,,,,,,,,
5167,,memorable_rating,519591,Alliance,,53,,,5,,,,,,,,,,,,,,,
null,,confidence_buffer,519700,confidence_buffer,,null,,,,,,,,,,,,,,,,,,
null,,thebreak,520209,break,,null,,,,,,,,,,,,,,,,,,
9191.5,,familiar_rating,529402,Racine,,50,Racine,US,2,,,,,,,,,,,,,,,
null,,confidence_buffer,529511,confidence_buffer,,null,,,,,,,,,,,,,,,,,,
4460.300000000279,,unique_rating,533973,Racine,,53,,,5,,,,,,,,,,,,,,,
null,,confidence_buffer,534080,confidence_buffer,,null,,,,,,,,,,,,,,,,,,
1831.6999999997206,,probe_rating,535913,probe_rating,,51,,,,3,1,,,,,,,,,,,,,
null,,confidence_buffer,536017,confidence_buffer,,null,,,,,,,,,,,,,,,,,,
4922.299999999814,,memorable_rating,540941,Racine,,50,,,2,,,,,,,,,,,,,,,
null,,confidence_buffer,541050,confidence_buffer,,null,,,,,,,,,,,,,,,,,,
null,,thebreak,541563,break,,null,,,,,,,,,,,,,,,,,,
1437.0999999996275,,familiar_rating,543002,Albuquerque,,49,Albuquerque,US,1,,,,,,,,,,,,,,,
null,,confidence_buffer,543106,confidence_buffer,,null,,,,,,,,,,,,,,,,,,
981.6000000000931,,unique_rating,544089,Albuquerque,,49,,,1,,,,,,,,,,,,,,,
null,,confidence_buffer,544192,confidence_buffer,,null,,,,,,,,,,,,,,,,,,
12227.399999999907,,memorable_rating,556421,Albuquerque,,49,,,1,,,,,,,,,,,,,,,
null,,confidence_buffer,556529,confidence_buffer,,null,,,,,,,,,,,,,,,,,,
2146.100000000093,,probe_rating,558677,probe_rating,,52,,,,4,1,,,,,,,,,,,,,
null,,confidence_buffer,558782,confidence_buffer,,null,,,,,,,,,,,,,,,,,,
null,,thebreak,559298,break,,null,,,,,,,,,,,,,,,,,,
2871.0999999996275,,familiar_rating,562171,Carmel,,49,Carmel,US,1,,,,,,,,,,,,,,,
null,,confidence_buffer,562288,confidence_buffer,,null,,,,,,,,,,,,,,,,,,
3946.2000000001863,,unique_rating,566236,Carmel,,53,,,5,,,,,,,,,,,,,,,
null,,confidence_buffer,566338,confidence_buffer,,null,,,,,,,,,,,,,,,,,,
9320.799999999814,,memorable_rating,575660,Carmel,,51,,,3,,,,,,,,,,,,,,,
null,,confidence_buffer,575763,confidence_buffer,,null,,,,,,,,,,,,,,,,,,
null,,thebreak,576270,break,,null,,,,,,,,,,,,,,,,,,
12586.600000000093,,familiar_rating,588858,Healdsburg,,49,Healdsburg,US,1,,,,,,,,,,,,,,,
null,,confidence_buffer,588962,confidence_buffer,,null,,,,,,,,,,,,,,,,,,
3532,,unique_rating,592496,Healdsburg,,53,,,5,,,,,,,,,,,,,,,
null,,confidence_buffer,592600,confidence_buffer,,null,,,,,,,,,,,,,,,,,,
4030.7000000001863,,memorable_rating,596632,Healdsburg,,50,,,2,,,,,,,,,,,,,,,
null,,confidence_buffer,596740,confidence_buffer,,null,,,,,,,,,,,,,,,,,,
null,,thebreak,597248,break,,null,,,,,,,,,,,,,,,,,,
5107.799999999814,,familiar_rating,602357,Meadowspire,,49,Meadowspire,Fictional,1,,,,,,,,,,,,,,,
null,,confidence_buffer,602463,confidence_buffer,,null,,,,,,,,,,,,,,,,,,
31481.600000000093,,unique_rating,633946,Meadowspire,,49,,,1,,,,,,,,,,,,,,,
null,,confidence_buffer,634052,confidence_buffer,,null,,,,,,,,,,,,,,,,,,
4191.899999999907,,probe_rating,638245,probe_rating,,51,,,,3,1,,,,,,,,,,,,,
null,,confidence_buffer,638362,confidence_buffer,,null,,,,,,,,,,,,,,,,,,
2657.8000000002794,,memorable_rating,641021,Meadowspire,,50,,,2,,,,,,,,,,,,,,,
null,,confidence_buffer,641128,confidence_buffer,,null,,,,,,,,,,,,,,,,,,
null,,thebreak,641632,break,,null,,,,,,,,,,,,,,,,,,
3625.5,,familiar_rating,645259,Solara Glen,,49,Solara Glen,Fictional,1,,,,,,,,,,,,,,,
null,,confidence_buffer,645362,confidence_buffer,,null,,,,,,,,,,,,,,,,,,
4000.2000000001863,,unique_rating,649364,Solara Glen,,53,,,5,,,,,,,,,,,,,,,
null,,confidence_buffer,649472,confidence_buffer,,null,,,,,,,,,,,,,,,,,,
4779.5,,memorable_rating,654254,Solara Glen,,53,,,5,,,,,,,,,,,,,,,
null,,confidence_buffer,654372,confidence_buffer,,null,,,,,,,,,,,,,,,,,,
null,,thebreak,654876,break,,null,,,,,,,,,,,,,,,,,,
2385.3000000002794,,familiar_rating,657263,Northbridge,,50,Northbridge,Fictional,2,,,,,,,,,,,,,,,
null,,confidence_buffer,657369,confidence_buffer,,null,,,,,,,,,,,,,,,,,,
1244.5999999996275,,unique_rating,658615,Northbridge,,50,,,2,,,,,,,,,,,,,,,
null,,confidence_buffer,658723,confidence_buffer,,null,,,,,,,,,,,,,,,,,,
2289,,memorable_rating,661013,Northbridge,,50,,,2,,,,,,,,,,,,,,,
null,,confidence_buffer,661122,confidence_buffer,,null,,,,,,,,,,,,,,,,,,
null,,thebreak,661629,break,,null,,,,,,,,,,,,,,,,,,
1669.8999999999069,,familiar_rating,663301,Manistee,,49,Manistee,US,1,,,,,,,,,,,,,,,
null,,confidence_buffer,663410,confidence_buffer,,null,,,,,,,,,,,,,,,,,,
692.5,,unique_rating,664104,Manistee,,49,,,1,,,,,,,,,,,,,,,
null,,confidence_buffer,664212,confidence_buffer,,null,,,,,,,,,,,,,,,,,,
7412,,memorable_rating,671626,Manistee,,49,,,1,,,,,,,,,,,,,,,
null,,confidence_buffer,671742,confidence_buffer,,null,,,,,,,,,,,,,,,,,,
null,,thebreak,672247,break,,null,,,,,,,,,,,,,,,,,,
3567.399999999907,,familiar_rating,675816,Huntsville,,49,Huntsville,US,1,,,,,,,,,,,,,,,
null,,confidence_buffer,675922,confidence_buffer,,null,,,,,,,,,,,,,,,,,,
1903.3999999999069,,unique_rating,677827,Huntsville,,53,,,5,,,,,,,,,,,,,,,
null,,confidence_buffer,677932,confidence_buffer,,null,,,,,,,,,,,,,,,,,,
9726.700000000186,,memorable_rating,687660,Huntsville,,49,,,1,,,,,,,,,,,,,,,
null,,confidence_buffer,687766,confidence_buffer,,null,,,,,,,,,,,,,,,,,,
null,,thebreak,688269,break,,null,,,,,,,,,,,,,,,,,,
27548.099999999627,,familiar_rating,715819,Hawthorne Bluffs,,49,Hawthorne Bluffs,Fictional,1,,,,,,,,,,,,,,,
null,,confidence_buffer,715936,confidence_buffer,,null,,,,,,,,,,,,,,,,,,
2067.7999999998137,,unique_rating,718005,Hawthorne Bluffs,,53,,,5,,,,,,,,,,,,,,,
null,,confidence_buffer,718107,confidence_buffer,,null,,,,,,,,,,,,,,,,,,
2866,,memorable_rating,720975,Hawthorne Bluffs,,49,,,1,,,,,,,,,,,,,,,
null,,confidence_buffer,721077,confidence_buffer,,null,,,,,,,,,,,,,,,,,,
null,,thebreak,721579,break,,null,,,,,,,,,,,,,,,,,,
5344.699999999721,,familiar_rating,726925,Millstone,,52,Millstone,Fictional,4,,,,,,,,,,,,,,,
null,,confidence_buffer,727033,confidence_buffer,,null,,,,,,,,,,,,,,,,,,
4392.899999999907,,unique_rating,731428,Millstone,,53,,,5,,,,,,,,,,,,,,,
null,,confidence_buffer,731531,confidence_buffer,,null,,,,,,,,,,,,,,,,,,
3569.899999999907,,memorable_rating,735103,Millstone,,51,,,3,,,,,,,,,,,,,,,
null,,confidence_buffer,735205,confidence_buffer,,null,,,,,,,,,,,,,,,,,,
null,,thebreak,735712,break,,null,,,,,,,,,,,,,,,,,,
1645.7999999998137,,familiar_rating,737360,Ironwood Heights,,49,Ironwood Heights,Fictional,1,,,,,,,,,,,,,,,
null,,confidence_buffer,737470,confidence_buffer,,null,,,,,,,,,,,,,,,,,,
4251,,unique_rating,741722,Ironwood Heights,,53,,,5,,,,,,,,,,,,,,,
null,,confidence_buffer,741830,confidence_buffer,,null,,,,,,,,,,,,,,,,,,
2565.7999999998137,,memorable_rating,744397,Ironwood Heights,,51,,,3,,,,,,,,,,,,,,,
null,,confidence_buffer,744502,confidence_buffer,,null,,,,,,,,,,,,,,,,,,
null,,thebreak,745019,break,,null,,,,,,,,,,,,,,,,,,
6477.800000000279,,familiar_rating,751498,Lakehaven,,51,Lakehaven,Fictional,3,,,,,,,,,,,,,,,
null,,confidence_buffer,751602,confidence_buffer,,null,,,,,,,,,,,,,,,,,,
3049.3000000002794,,unique_rating,754652,Lakehaven,,52,,,4,,,,,,,,,,,,,,,
null,,confidence_buffer,754760,confidence_buffer,,null,,,,,,,,,,,,,,,,,,
2077.399999999907,,memorable_rating,756839,Lakehaven,,52,,,4,,,,,,,,,,,,,,,
null,,confidence_buffer,756942,confidence_buffer,,null,,,,,,,,,,,,,,,,,,
null,,thebreak,757454,break,,null,,,,,,,,,,,,,,,,,,
3035.2000000001863,,familiar_rating,760490,Cornwall,,49,Cornwall,US,1,,,,,,,,,,,,,,,
null,,confidence_buffer,760593,confidence_buffer,,null,,,,,,,,,,,,,,,,,,
3476.9000000003725,,unique_rating,764071,Cornwall,,49,,,1,,,,,,,,,,,,,,,
null,,confidence_buffer,764173,confidence_buffer,,null,,,,,,,,,,,,,,,,,,
2846.600000000093,,memorable_rating,767021,Cornwall,,52,,,4,,,,,,,,,,,,,,,
null,,confidence_buffer,767126,confidence_buffer,,null,,,,,,,,,,,,,,,,,,
null,,thebreak,767635,break,,null,,,,,,,,,,,,,,,,,,
1782.9000000003725,,familiar_rating,769420,Orchard Bend,,49,Orchard Bend,Fictional,1,,,,,,,,,,,,,,,
null,,confidence_buffer,769522,confidence_buffer,,null,,,,,,,,,,,,,,,,,,
2317.5,,unique_rating,771841,Orchard Bend,,53,,,5,,,,,,,,,,,,,,,
null,,confidence_buffer,771950,confidence_buffer,,null,,,,,,,,,,,,,,,,,,
2290.8000000002794,,memorable_rating,774243,Orchard Bend,,50,,,2,,,,,,,,,,,,,,,
null,,confidence_buffer,774350,confidence_buffer,,null,,,,,,,,,,,,,,,,,,
null,,thebreak,774866,break,,null,,,,,,,,,,,,,,,,,,
5834.899999999907,,familiar_rating,780702,Livingston,,53,Livingston,US,5,,,,,,,,,,,,,,,
null,,confidence_buffer,780804,confidence_buffer,,null,,,,,,,,,,,,,,,,,,
3384.7999999998137,,unique_rating,784191,Livingston,,51,,,3,,,,,,,,,,,,,,,
null,,confidence_buffer,784293,confidence_buffer,,null,,,,,,,,,,,,,,,,,,
1280.2000000001863,,memorable_rating,785574,Livingston,,53,,,5,,,,,,,,,,,,,,,
null,,confidence_buffer,785680,confidence_buffer,,null,,,,,,,,,,,,,,,,,,
2021,,probe_rating,787703,probe_rating,,52,,,,4,1,,,,,,,,,,,,,
null,,confidence_buffer,787819,confidence_buffer,,null,,,,,,,,,,,,,,,,,,
null,,thebreak,788332,break,,null,,,,,,,,,,,,,,,,,,
2073.5,,familiar_rating,790407,Willowford,,49,Willowford,Fictional,1,,,,,,,,,,,,,,,
null,,confidence_buffer,790509,confidence_buffer,,null,,,,,,,,,,,,,,,,,,
1685.6000000000931,,unique_rating,792196,Willowford,,53,,,5,,,,,,,,,,,,,,,
null,,confidence_buffer,792302,confidence_buffer,,null,,,,,,,,,,,,,,,,,,
2832,,memorable_rating,795136,Willowford,,51,,,3,,,,,,,,,,,,,,,
null,,confidence_buffer,795242,confidence_buffer,,null,,,,,,,,,,,,,,,,,,
null,,thebreak,795751,break,,null,,,,,,,,,,,,,,,,,,
36912.299999999814,,familiar_rating,832665,Natchez,,52,Natchez,US,4,,,,,,,,,,,,,,,
null,,confidence_buffer,832772,confidence_buffer,,null,,,,,,,,,,,,,,,,,,
3737.2000000001863,,unique_rating,836511,Natchez,,52,,,4,,,,,,,,,,,,,,,
null,,confidence_buffer,836619,confidence_buffer,,null,,,,,,,,,,,,,,,,,,
2625.9000000003725,,memorable_rating,839246,Natchez,,52,,,4,,,,,,,,,,,,,,,
null,,confidence_buffer,839352,confidence_buffer,,null,,,,,,,,,,,,,,,,,,
null,,thebreak,839857,break,,null,,,,,,,,,,,,,,,,,,
3144.9000000003725,,familiar_rating,843004,Linden Trace,,50,Linden Trace,Fictional,2,,,,,,,,,,,,,,,
null,,confidence_buffer,843105,confidence_buffer,,null,,,,,,,,,,,,,,,,,,
1930.2999999998137,,unique_rating,845037,Linden Trace,,53,,,5,,,,,,,,,,,,,,,
null,,confidence_buffer,845147,confidence_buffer,,null,,,,,,,,,,,,,,,,,,
2096.7000000001863,,memorable_rating,847245,Linden Trace,,49,,,1,,,,,,,,,,,,,,,
null,,confidence_buffer,847352,confidence_buffer,,null,,,,,,,,,,,,,,,,,,
1560.8999999999069,,probe_rating,848914,probe_rating,,49,,,,1,1,,,,,,,,,,,,,
null,,confidence_buffer,849017,confidence_buffer,,null,,,,,,,,,,,,,,,,,,
null,,thebreak,849526,break,,null,,,,,,,,,,,,,,,,,,
3132.5,,familiar_rating,852661,Elmsbury,,49,Elmsbury,Fictional,1,,,,,,,,,,,,,,,
null,,confidence_buffer,852770,confidence_buffer,,null,,,,,,,,,,,,,,,,,,
5861.899999999907,,unique_rating,858633,Elmsbury,,53,,,5,,,,,,,,,,,,,,,
null,,confidence_buffer,858735,confidence_buffer,,null,,,,,,,,,,,,,,,,,,
2398.399999999907,,memorable_rating,861135,Elmsbury,,50,,,2,,,,,,,,,,,,,,,
null,,confidence_buffer,861239,confidence_buffer,,null,,,,,,,,,,,,,,,,,,
null,,thebreak,861748,break,,null,,,,,,,,,,,,,,,,,,
1664.6999999997206,,familiar_rating,863415,Coralridge,,49,Coralridge,Fictional,1,,,,,,,,,,,,,,,
null,,confidence_buffer,863521,confidence_buffer,,null,,,,,,,,,,,,,,,,,,
3719.2000000001863,,unique_rating,867241,Coralridge,,52,,,4,,,,,,,,,,,,,,,
null,,confidence_buffer,867344,confidence_buffer,,null,,,,,,,,,,,,,,,,,,
7274.899999999907,,memorable_rating,874620,Coralridge,,53,,,5,,,,,,,,,,,,,,,
null,,confidence_buffer,874727,confidence_buffer,,null,,,,,,,,,,,,,,,,,,
null,,thebreak,875230,break,,null,,,,,,,,,,,,,,,,,,
16813,,familiar_rating,892044,Falconridge,,53,Falconridge,Fictional,5,,,,,,,,,,,,,,,
null,,confidence_buffer,892162,confidence_buffer,,null,,,,,,,,,,,,,,,,,,
1742.3000000002794,,probe_rating,893906,probe_rating,,53,,,,5,1,,,,,,,,,,,,,
null,,confidence_buffer,894010,confidence_buffer,,null,,,,,,,,,,,,,,,,,,
2580.8000000002794,,unique_rating,896593,Falconridge,,53,,,5,,,,,,,,,,,,,,,
null,,confidence_buffer,896698,confidence_buffer,,null,,,,,,,,,,,,,,,,,,
1674.6000000000931,,memorable_rating,898374,Falconridge,,53,,,5,,,,,,,,,,,,,,,
null,,confidence_buffer,898482,confidence_buffer,,null,,,,,,,,,,,,,,,,,,
null,,thebreak,898988,break,,null,,,,,,,,,,,,,,,,,,
2193.899999999907,,familiar_rating,901183,Ravenport,,53,Ravenport,Fictional,5,,,,,,,,,,,,,,,
null,,confidence_buffer,901290,confidence_buffer,,null,,,,,,,,,,,,,,,,,,
1602.4000000003725,,unique_rating,902894,Ravenport,,53,,,5,,,,,,,,,,,,,,,
null,,confidence_buffer,903000,confidence_buffer,,null,,,,,,,,,,,,,,,,,,
2465.7999999998137,,memorable_rating,905468,Ravenport,,53,,,5,,,,,,,,,,,,,,,
null,,confidence_buffer,905576,confidence_buffer,,null,,,,,,,,,,,,,,,,,,
null,,thebreak,906090,break,,null,,,,,,,,,,,,,,,,,,
1940.7000000001863,,familiar_rating,908032,Sisters,,53,Sisters,US,5,,,,,,,,,,,,,,,
null,,confidence_buffer,908135,confidence_buffer,,null,,,,,,,,,,,,,,,,,,
2623.4000000003725,,probe_rating,910759,probe_rating,,52,,,,4,1,,,,,,,,,,,,,
null,,confidence_buffer,910861,confidence_buffer,,null,,,,,,,,,,,,,,,,,,
6839.799999999814,,unique_rating,917703,Sisters,,53,,,5,,,,,,,,,,,,,,,
null,,confidence_buffer,917810,confidence_buffer,,null,,,,,,,,,,,,,,,,,,
1336.8000000002794,,memorable_rating,919148,Sisters,,53,,,5,,,,,,,,,,,,,,,
null,,confidence_buffer,919252,confidence_buffer,,null,,,,,,,,,,,,,,,,,,
null,,thebreak,919762,break,,null,,,,,,,,,,,,,,,,,,
2672.6999999997206,,familiar_rating,922436,Riverlyn,,53,Riverlyn,Fictional,5,,,,,,,,,,,,,,,
null,,confidence_buffer,922546,confidence_buffer,,null,,,,,,,,,,,,,,,,,,
2526.6999999997206,,unique_rating,925074,Riverlyn,,53,,,5,,,,,,,,,,,,,,,
null,,confidence_buffer,925181,confidence_buffer,,null,,,,,,,,,,,,,,,,,,
1152.0999999996275,,memorable_rating,926335,Riverlyn,,53,,,5,,,,,,,,,,,,,,,
null,,confidence_buffer,926440,confidence_buffer,,null,,,,,,,,,,,,,,,,,,
null,,thebreak,926945,break,,null,,,,,,,,,,,,,,,,,,
2564.100000000093,,familiar_rating,929510,Lake of the Ozarks,,50,Lake of the Ozarks,US,2,,,,,,,,,,,,,,,
null,,confidence_buffer,929618,confidence_buffer,,null,,,,,,,,,,,,,,,,,,
1925,,unique_rating,931545,Lake of the Ozarks,,53,,,5,,,,,,,,,,,,,,,
null,,confidence_buffer,931647,confidence_buffer,,null,,,,,,,,,,,,,,,,,,
6146.799999999814,,memorable_rating,937795,Lake of the Ozarks,,52,,,4,,,,,,,,,,,,,,,
null,,confidence_buffer,937902,confidence_buffer,,null,,,,,,,,,,,,,,,,,,
null,,thebreak,938409,break,,null,,,,,,,,,,,,,,,,,,
1836.7999999998137,,familiar_rating,940248,Newport,,53,Newport,US,5,,,,,,,,,,,,,,,
null,,confidence_buffer,940350,confidence_buffer,,null,,,,,,,,,,,,,,,,,,
1340.5,,unique_rating,941692,Newport,,53,,,5,,,,,,,,,,,,,,,
null,,confidence_buffer,941797,confidence_buffer,,null,,,,,,,,,,,,,,,,,,
1492.2000000001863,,memorable_rating,943291,Newport,,53,,,5,,,,,,,,,,,,,,,
null,,confidence_buffer,943393,confidence_buffer,,null,,,,,,,,,,,,,,,,,,
null,,thebreak,943897,break,,null,,,,,,,,,,,,,,,,,,
1926.3999999994412,,familiar_rating,945825,Barnard,,49,Barnard,US,1,,,,,,,,,,,,,,,
null,,confidence_buffer,945929,confidence_buffer,,null,,,,,,,,,,,,,,,,,,
2865.2999999998137,,unique_rating,948796,Barnard,,52,,,4,,,,,,,,,,,,,,,
null,,confidence_buffer,948902,confidence_buffer,,null,,,,,,,,,,,,,,,,,,
3091.399999999441,,memorable_rating,951995,Barnard,,49,,,1,,,,,,,,,,,,,,,
null,,confidence_buffer,952102,confidence_buffer,,null,,,,,,,,,,,,,,,,,,
null,,thebreak,952612,break,,null,,,,,,,,,,,,,,,,,,
4023.899999999441,,familiar_rating,956638,Orr,,49,Orr,US,1,,,,,,,,,,,,,,,
null,,confidence_buffer,956752,confidence_buffer,,null,,,,,,,,,,,,,,,,,,
1910.0999999996275,,unique_rating,958664,Orr,,53,,,5,,,,,,,,,,,,,,,
null,,confidence_buffer,958768,confidence_buffer,,null,,,,,,,,,,,,,,,,,,
2969.7000000001863,,memorable_rating,961739,Orr,,50,,,2,,,,,,,,,,,,,,,
null,,confidence_buffer,961842,confidence_buffer,,null,,,,,,,,,,,,,,,,,,
null,,thebreak,962352,break,,null,,,,,,,,,,,,,,,,,,
29867.099999999627,,intro_0,992220,instruct,,32,,,,,,,,,,,,,,,,,,
2400.5,,intro_1,994622,instruct,,32,,,,,,,,,,,,,,,,,,
19951.300000000745,,intro_2,1014575,instruct,,32,,,,,,,,,,,,,,,,,,
null,,instruct_dir_4,1016084,instruct,,null,,,,,,,,,,,,,,,,,,
15524,,realistic_rating,1031609,Claywater,,49,Claywater,Fictional,1,,,,,,,,,,,,,,,
null,,confidence_buffer,1031722,confidence_buffer,,null,,,,,,,,,,,,,,,,,,
3254,,pt2_unique_rating,1034978,Claywater,,53,,,5,,,,,,,,,,,,,,,
null,,confidence_buffer,1035082,confidence_buffer,,null,,,,,,,,,,,,,,,,,,
5290.4000000003725,,pt2_memorable_rating,1040374,Claywater,,53,,,5,,,,,,,,,,,,,,,
null,,confidence_buffer,1040493,confidence_buffer,,null,,,,,,,,,,,,,,,,,,
3002.2000000001863,,recognition_phase,1043497,Claywater,,52,,,,,,new,1,1,,,,,,,,,,
null,,confidence_buffer,1043602,confidence_buffer,,null,,,,,,,,,,,,,,,,,,
null,,thebreak,1044108,break,,null,,,,,,,,,,,,,,,,,,
3013.2000000001863,,realistic_rating,1047123,Riverlyn,,53,Riverlyn,Fictional,5,,,,,,,,,,,,,,,
null,,confidence_buffer,1047233,confidence_buffer,,null,,,,,,,,,,,,,,,,,,
3125.7000000001863,,probe_rating,1050360,probe_rating,,50,,,,2,1,,,,,,,,,,,,,
null,,confidence_buffer,1050463,confidence_buffer,,null,,,,,,,,,,,,,,,,,,
3724,,pt2_unique_rating,1054189,Riverlyn,,53,,,5,,,,,,,,,,,,,,,
null,,confidence_buffer,1054292,confidence_buffer,,null,,,,,,,,,,,,,,,,,,
1382.1000000005588,,pt2_memorable_rating,1055676,Riverlyn,,53,,,5,,,,,,,,,,,,,,,
null,,confidence_buffer,1055783,confidence_buffer,,null,,,,,,,,,,,,,,,,,,
2058,,recognition_phase,1057843,Riverlyn,,49,,,,,,old,1,1,,,,,,,,,,
null,,confidence_buffer,1057951,confidence_buffer,,null,,,,,,,,,,,,,,,,,,
null,,thebreak,1058457,break,,null,,,,,,,,,,,,,,,,,,
7458.5,,realistic_rating,1065917,Millstone,,52,Millstone,Fictional,4,,,,,,,,,,,,,,,
null,,confidence_buffer,1066020,confidence_buffer,,null,,,,,,,,,,,,,,,,,,
1718.800000000745,,pt2_unique_rating,1067740,Millstone,,52,,,4,,,,,,,,,,,,,,,
null,,confidence_buffer,1067842,confidence_buffer,,null,,,,,,,,,,,,,,,,,,
3529.7000000001863,,pt2_memorable_rating,1071374,Millstone,,52,,,4,,,,,,,,,,,,,,,
null,,confidence_buffer,1071480,confidence_buffer,,null,,,,,,,,,,,,,,,,,,
2814.0999999996275,,recognition_phase,1074296,Millstone,,52,,,,,,new,0,0.6666666666666666,,,,,,,,,,
null,,confidence_buffer,1074402,confidence_buffer,,null,,,,,,,,,,,,,,,,,,
null,,thebreak,1074918,break,,null,,,,,,,,,,,,,,,,,,
16442.5,,realistic_rating,1091362,Oakridge,,53,Oakridge,Fictional,5,,,,,,,,,,,,,,,
null,,confidence_buffer,1091465,confidence_buffer,,null,,,,,,,,,,,,,,,,,,
2524.2999999998137,,pt2_unique_rating,1093990,Oakridge,,53,,,5,,,,,,,,,,,,,,,
null,,confidence_buffer,1094100,confidence_buffer,,null,,,,,,,,,,,,,,,,,,
1801.300000000745,,pt2_memorable_rating,1095903,Oakridge,,53,,,5,,,,,,,,,,,,,,,
null,,confidence_buffer,1096007,confidence_buffer,,null,,,,,,,,,,,,,,,,,,
2225.800000000745,,recognition_phase,1098235,Oakridge,,49,,,,,,old,0,0.5,,,,,,,,,,
null,,confidence_buffer,1098337,confidence_buffer,,null,,,,,,,,,,,,,,,,,,
null,,thebreak,1098839,break,,null,,,,,,,,,,,,,,,,,,
4696.9000000003725,,realistic_rating,1103538,Clearbrook,,51,Clearbrook,Fictional,3,,,,,,,,,,,,,,,
null,,confidence_buffer,1103643,confidence_buffer,,null,,,,,,,,,,,,,,,,,,
1796.5,,pt2_unique_rating,1105441,Clearbrook,,52,,,4,,,,,,,,,,,,,,,
null,,confidence_buffer,1105552,confidence_buffer,,null,,,,,,,,,,,,,,,,,,
3146.7999999998137,,pt2_memorable_rating,1108700,Clearbrook,,52,,,4,,,,,,,,,,,,,,,
null,,confidence_buffer,1108806,confidence_buffer,,null,,,,,,,,,,,,,,,,,,
2294.5999999996275,,recognition_phase,1111102,Clearbrook,,52,,,,,,new,1,0.6,,,,,,,,,,
null,,confidence_buffer,1111207,confidence_buffer,,null,,,,,,,,,,,,,,,,,,
null,,thebreak,1111721,break,,null,,,,,,,,,,,,,,,,,,
8012.9000000003725,,realistic_rating,1119736,Solara Glen,,53,Solara Glen,Fictional,5,,,,,,,,,,,,,,,
null,,confidence_buffer,1119842,confidence_buffer,,null,,,,,,,,,,,,,,,,,,
1347.6000000005588,,pt2_unique_rating,1121191,Solara Glen,,53,,,5,,,,,,,,,,,,,,,
null,,confidence_buffer,1121300,confidence_buffer,,null,,,,,,,,,,,,,,,,,,
927.5,,pt2_memorable_rating,1122229,Solara Glen,,53,,,5,,,,,,,,,,,,,,,
null,,confidence_buffer,1122337,confidence_buffer,,null,,,,,,,,,,,,,,,,,,
3070,,recognition_phase,1125409,Solara Glen,,49,,,,,,old,1,0.6666666666666666,,,,,,,,,,
null,,confidence_buffer,1125513,confidence_buffer,,null,,,,,,,,,,,,,,,,,,
null,,thebreak,1126017,break,,null,,,,,,,,,,,,,,,,,,
3410.899999999441,,realistic_rating,1129429,East Ladera,,51,East Ladera,Fictional,3,,,,,,,,,,,,,,,
null,,confidence_buffer,1129531,confidence_buffer,,null,,,,,,,,,,,,,,,,,,
1677.7999999998137,,pt2_unique_rating,1131211,East Ladera,,50,,,2,,,,,,,,,,,,,,,
null,,confidence_buffer,1131320,confidence_buffer,,null,,,,,,,,,,,,,,,,,,
1436.0999999996275,,probe_rating,1132758,probe_rating,,50,,,,2,1,,,,,,,,,,,,,
null,,confidence_buffer,1132870,confidence_buffer,,null,,,,,,,,,,,,,,,,,,
3041.5,,pt2_memorable_rating,1135913,East Ladera,,53,,,5,,,,,,,,,,,,,,,
null,,confidence_buffer,1136018,confidence_buffer,,null,,,,,,,,,,,,,,,,,,
1808.2999999998137,,recognition_phase,1137828,East Ladera,,52,,,,,,new,1,0.7142857142857143,,,,,,,,,,
null,,confidence_buffer,1137932,confidence_buffer,,null,,,,,,,,,,,,,,,,,,
null,,thebreak,1138442,break,,null,,,,,,,,,,,,,,,,,,
23138.89999999944,,realistic_rating,1161582,Bayshore Haven,,52,Bayshore Haven,Fictional,4,,,,,,,,,,,,,,,
null,,confidence_buffer,1161693,confidence_buffer,,null,,,,,,,,,,,,,,,,,,
866.5,,pt2_unique_rating,1162561,Bayshore Haven,,52,,,4,,,,,,,,,,,,,,,
null,,confidence_buffer,1162669,confidence_buffer,,null,,,,,,,,,,,,,,,,,,
2864.399999999441,,pt2_memorable_rating,1165535,Bayshore Haven,,52,,,4,,,,,,,,,,,,,,,
null,,confidence_buffer,1165637,confidence_buffer,,null,,,,,,,,,,,,,,,,,,
1167.7999999998137,,recognition_phase,1166807,Bayshore Haven,,52,,,,,,new,1,0.75,,,,,,,,,,
null,,confidence_buffer,1166919,confidence_buffer,,null,,,,,,,,,,,,,,,,,,
null,,thebreak,1167435,break,,null,,,,,,,,,,,,,,,,,,
7070.5,,realistic_rating,1174507,New Verdan,,51,New Verdan,Fictional,3,,,,,,,,,,,,,,,
null,,confidence_buffer,1174611,confidence_buffer,,null,,,,,,,,,,,,,,,,,,
1858.7999999998137,,probe_rating,1176472,probe_rating,,51,,,,3,1,,,,,,,,,,,,,
null,,confidence_buffer,1176588,confidence_buffer,,null,,,,,,,,,,,,,,,,,,
2509.899999999441,,pt2_unique_rating,1179099,New Verdan,,52,,,4,,,,,,,,,,,,,,,
null,,confidence_buffer,1179202,confidence_buffer,,null,,,,,,,,,,,,,,,,,,
1811.1000000005588,,pt2_memorable_rating,1181015,New Verdan,,50,,,2,,,,,,,,,,,,,,,
null,,confidence_buffer,1181117,confidence_buffer,,null,,,,,,,,,,,,,,,,,,
1035.5999999996275,,recognition_phase,1182155,New Verdan,,52,,,,,,new,1,0.7777777777777778,,,,,,,,,,
null,,confidence_buffer,1182269,confidence_buffer,,null,,,,,,,,,,,,,,,,,,
null,,thebreak,1182785,break,,null,,,,,,,,,,,,,,,,,,
3206,,realistic_rating,1185993,Berkeley Springs,,50,Berkeley Springs,US,2,,,,,,,,,,,,,,,
null,,confidence_buffer,1186101,confidence_buffer,,null,,,,,,,,,,,,,,,,,,
1427.6000000005588,,probe_rating,1187531,probe_rating,,51,,,,3,1,,,,,,,,,,,,,
null,,confidence_buffer,1187642,confidence_buffer,,null,,,,,,,,,,,,,,,,,,
1017.5,,pt2_unique_rating,1188661,Berkeley Springs,,50,,,2,,,,,,,,,,,,,,,
null,,confidence_buffer,1188763,confidence_buffer,,null,,,,,,,,,,,,,,,,,,
1587.800000000745,,pt2_memorable_rating,1190352,Berkeley Springs,,52,,,4,,,,,,,,,,,,,,,
null,,confidence_buffer,1190464,confidence_buffer,,null,,,,,,,,,,,,,,,,,,
1554.9000000003725,,recognition_phase,1192021,Berkeley Springs,,52,,,,,,new,1,0.8,,,,,,,,,,
null,,confidence_buffer,1192130,confidence_buffer,,null,,,,,,,,,,,,,,,,,,
null,,thebreak,1192637,break,,null,,,,,,,,,,,,,,,,,,
1897.8999999994412,,realistic_rating,1194537,Livingston,,53,Livingston,US,5,,,,,,,,,,,,,,,
null,,confidence_buffer,1194639,confidence_buffer,,null,,,,,,,,,,,,,,,,,,
730.2999999998137,,pt2_unique_rating,1195371,Livingston,,53,,,5,,,,,,,,,,,,,,,
null,,confidence_buffer,1195474,confidence_buffer,,null,,,,,,,,,,,,,,,,,,
782.5999999996275,,pt2_memorable_rating,1196258,Livingston,,53,,,5,,,,,,,,,,,,,,,
null,,confidence_buffer,1196360,confidence_buffer,,null,,,,,,,,,,,,,,,,,,
3176.0999999996275,,recognition_phase,1199538,Livingston,,49,,,,,,old,1,0.8181818181818182,,,,,,,,,,
null,,confidence_buffer,1199643,confidence_buffer,,null,,,,,,,,,,,,,,,,,,
null,,thebreak,1200151,break,,null,,,,,,,,,,,,,,,,,,
1553.1000000005588,,realistic_rating,1201706,Folly Beach,,52,Folly Beach,US,4,,,,,,,,,,,,,,,
null,,confidence_buffer,1201812,confidence_buffer,,null,,,,,,,,,,,,,,,,,,
1143.7999999998137,,pt2_unique_rating,1202957,Folly Beach,,50,,,2,,,,,,,,,,,,,,,
null,,confidence_buffer,1203060,confidence_buffer,,null,,,,,,,,,,,,,,,,,,
680.5,,pt2_memorable_rating,1203742,Folly Beach,,52,,,4,,,,,,,,,,,,,,,
null,,confidence_buffer,1203851,confidence_buffer,,null,,,,,,,,,,,,,,,,,,
2761.2999999998137,,recognition_phase,1206615,Folly Beach,,52,,,,,,new,1,0.8333333333333334,,,,,,,,,,
null,,confidence_buffer,1206719,confidence_buffer,,null,,,,,,,,,,,,,,,,,,
null,,thebreak,1207225,break,,null,,,,,,,,,,,,,,,,,,
1107.9000000003725,,realistic_rating,1208335,Medora,,50,Medora,US,2,,,,,,,,,,,,,,,
null,,confidence_buffer,1208441,confidence_buffer,,null,,,,,,,,,,,,,,,,,,
1886.2999999998137,,pt2_unique_rating,1210329,Medora,,52,,,4,,,,,,,,,,,,,,,
null,,confidence_buffer,1210432,confidence_buffer,,null,,,,,,,,,,,,,,,,,,
2411,,probe_rating,1212845,probe_rating,,50,,,,2,0,,,,,,,,,,,,,
null,,confidence_buffer,1212947,confidence_buffer,,null,,,,,,,,,,,,,,,,,,
1576.0999999996275,,pt2_memorable_rating,1214524,Medora,,52,,,4,,,,,,,,,,,,,,,
null,,confidence_buffer,1214633,confidence_buffer,,null,,,,,,,,,,,,,,,,,,
1416.300000000745,,recognition_phase,1216051,Medora,,52,,,,,,new,1,0.8461538461538461,,,,,,,,,,
null,,confidence_buffer,1216160,confidence_buffer,,null,,,,,,,,,,,,,,,,,,
null,,thebreak,1216672,break,,null,,,,,,,,,,,,,,,,,,
1822.2000000001863,,realistic_rating,1218496,Carmel,,53,Carmel,US,5,,,,,,,,,,,,,,,
null,,confidence_buffer,1218601,confidence_buffer,,null,,,,,,,,,,,,,,,,,,
971.7000000001863,,pt2_unique_rating,1219574,Carmel,,53,,,5,,,,,,,,,,,,,,,
null,,confidence_buffer,1219678,confidence_buffer,,null,,,,,,,,,,,,,,,,,,
862.7000000001863,,pt2_memorable_rating,1220543,Carmel,,53,,,5,,,,,,,,,,,,,,,
null,,confidence_buffer,1220651,confidence_buffer,,null,,,,,,,,,,,,,,,,,,
2752.2999999998137,,recognition_phase,1223405,Carmel,,49,,,,,,old,1,0.8571428571428571,,,,,,,,,,
null,,confidence_buffer,1223510,confidence_buffer,,null,,,,,,,,,,,,,,,,,,
null,,thebreak,1224018,break,,null,,,,,,,,,,,,,,,,,,
2083,,realistic_rating,1226103,Falconridge,,50,Falconridge,Fictional,2,,,,,,,,,,,,,,,
null,,confidence_buffer,1226220,confidence_buffer,,null,,,,,,,,,,,,,,,,,,
1307.3999999994412,,probe_rating,1227529,probe_rating,,51,,,,3,1,,,,,,,,,,,,,
null,,confidence_buffer,1227632,confidence_buffer,,null,,,,,,,,,,,,,,,,,,
1045.4000000003725,,pt2_unique_rating,1228679,Falconridge,,52,,,4,,,,,,,,,,,,,,,
null,,confidence_buffer,1228782,confidence_buffer,,null,,,,,,,,,,,,,,,,,,
843.2000000001863,,pt2_memorable_rating,1229627,Falconridge,,50,,,2,,,,,,,,,,,,,,,
null,,confidence_buffer,1229731,confidence_buffer,,null,,,,,,,,,,,,,,,,,,
3234,,recognition_phase,1232967,Falconridge,,49,,,,,,old,1,0.8666666666666667,,,,,,,,,,
null,,confidence_buffer,1233077,confidence_buffer,,null,,,,,,,,,,,,,,,,,,
null,,thebreak,1233594,break,,null,,,,,,,,,,,,,,,,,,
3028.5,,realistic_rating,1236624,Cleveland,,53,Cleveland,US,5,,,,,,,,,,,,,,,
null,,confidence_buffer,1236731,confidence_buffer,,null,,,,,,,,,,,,,,,,,,
675,,pt2_unique_rating,1237407,Cleveland,,50,,,2,,,,,,,,,,,,,,,
null,,confidence_buffer,1237525,confidence_buffer,,null,,,,,,,,,,,,,,,,,,
2702.7999999998137,,pt2_memorable_rating,1240229,Cleveland,,53,,,5,,,,,,,,,,,,,,,
null,,confidence_buffer,1240333,confidence_buffer,,null,,,,,,,,,,,,,,,,,,
2500.100000000559,,recognition_phase,1242835,Cleveland,,49,,,,,,old,0,0.8125,,,,,,,,,,
null,,confidence_buffer,1242938,confidence_buffer,,null,,,,,,,,,,,,,,,,,,
null,,thebreak,1243447,break,,null,,,,,,,,,,,,,,,,,,
2738.399999999441,,realistic_rating,1246187,Ravenport,,53,Ravenport,Fictional,5,,,,,,,,,,,,,,,
null,,confidence_buffer,1246292,confidence_buffer,,null,,,,,,,,,,,,,,,,,,
1246.9000000003725,,pt2_unique_rating,1247540,Ravenport,,53,,,5,,,,,,,,,,,,,,,
null,,confidence_buffer,1247650,confidence_buffer,,null,,,,,,,,,,,,,,,,,,
693.7000000001863,,pt2_memorable_rating,1248345,Ravenport,,53,,,5,,,,,,,,,,,,,,,
null,,confidence_buffer,1248452,confidence_buffer,,null,,,,,,,,,,,,,,,,,,
1357.2000000001863,,recognition_phase,1249811,Ravenport,,49,,,,,,old,1,0.8235294117647058,,,,,,,,,,
null,,confidence_buffer,1249928,confidence_buffer,,null,,,,,,,,,,,,,,,,,,
null,,thebreak,1250437,break,,null,,,,,,,,,,,,,,,,,,
4526.200000000186,,realistic_rating,1254965,Elmsbury,,53,Elmsbury,Fictional,5,,,,,,,,,,,,,,,
null,,confidence_buffer,1255070,confidence_buffer,,null,,,,,,,,,,,,,,,,,,
758.6000000005588,,pt2_unique_rating,1255830,Elmsbury,,53,,,5,,,,,,,,,,,,,,,
null,,confidence_buffer,1255939,confidence_buffer,,null,,,,,,,,,,,,,,,,,,
1569.7999999998137,,pt2_memorable_rating,1257511,Elmsbury,,53,,,5,,,,,,,,,,,,,,,
null,,confidence_buffer,1257620,confidence_buffer,,null,,,,,,,,,,,,,,,,,,
2537.800000000745,,recognition_phase,1260160,Elmsbury,,52,,,,,,new,0,0.7777777777777778,,,,,,,,,,
null,,confidence_buffer,1260262,confidence_buffer,,null,,,,,,,,,,,,,,,,,,
null,,thebreak,1260773,break,,null,,,,,,,,,,,,,,,,,,
1576.800000000745,,realistic_rating,1262352,Barnard,,53,Barnard,US,5,,,,,,,,,,,,,,,
null,,confidence_buffer,1262454,confidence_buffer,,null,,,,,,,,,,,,,,,,,,
1616,,pt2_unique_rating,1264072,Barnard,,52,,,4,,,,,,,,,,,,,,,
null,,confidence_buffer,1264173,confidence_buffer,,null,,,,,,,,,,,,,,,,,,
1313.7000000001863,,pt2_memorable_rating,1265489,Barnard,,51,,,3,,,,,,,,,,,,,,,
null,,confidence_buffer,1265602,confidence_buffer,,null,,,,,,,,,,,,,,,,,,
1757.1000000005588,,recognition_phase,1267360,Barnard,,49,,,,,,old,1,0.7894736842105263,,,,,,,,,,
null,,confidence_buffer,1267470,confidence_buffer,,null,,,,,,,,,,,,,,,,,,
null,,thebreak,1267978,break,,null,,,,,,,,,,,,,,,,,,
1053,,realistic_rating,1269033,Driftwood Bay,,52,Driftwood Bay,Fictional,4,,,,,,,,,,,,,,,
null,,confidence_buffer,1269140,confidence_buffer,,null,,,,,,,,,,,,,,,,,,
1813.9000000003725,,pt2_unique_rating,1270956,Driftwood Bay,,50,,,2,,,,,,,,,,,,,,,
null,,confidence_buffer,1271059,confidence_buffer,,null,,,,,,,,,,,,,,,,,,
2148.4000000003725,,pt2_memorable_rating,1273209,Driftwood Bay,,52,,,4,,,,,,,,,,,,,,,
null,,confidence_buffer,1273311,confidence_buffer,,null,,,,,,,,,,,,,,,,,,
4429.700000000186,,recognition_phase,1277742,Driftwood Bay,,52,,,,,,new,1,0.8,,,,,,,,,,
null,,confidence_buffer,1277858,confidence_buffer,,null,,,,,,,,,,,,,,,,,,
null,,thebreak,1278362,break,,null,,,,,,,,,,,,,,,,,,
4631.399999999441,,realistic_rating,1282996,Northbridge,,51,Northbridge,Fictional,3,,,,,,,,,,,,,,,
null,,confidence_buffer,1283105,confidence_buffer,,null,,,,,,,,,,,,,,,,,,
1213.7999999998137,,pt2_unique_rating,1284321,Northbridge,,52,,,4,,,,,,,,,,,,,,,
null,,confidence_buffer,1284430,confidence_buffer,,null,,,,,,,,,,,,,,,,,,
1792.8999999994412,,probe_rating,1286225,probe_rating,,49,,,,1,1,,,,,,,,,,,,,
null,,confidence_buffer,1286332,confidence_buffer,,null,,,,,,,,,,,,,,,,,,
1583.2000000001863,,pt2_memorable_rating,1287916,Northbridge,,50,,,2,,,,,,,,,,,,,,,
null,,confidence_buffer,1288024,confidence_buffer,,null,,,,,,,,,,,,,,,,,,
3292.100000000559,,recognition_phase,1291318,Northbridge,,52,,,,,,new,0,0.7619047619047619,,,,,,,,,,
null,,confidence_buffer,1291420,confidence_buffer,,null,,,,,,,,,,,,,,,,,,
null,,thebreak,1291922,break,,null,,,,,,,,,,,,,,,,,,
2785,,realistic_rating,1294709,Baymarsh,,51,Baymarsh,Fictional,3,,,,,,,,,,,,,,,
null,,confidence_buffer,1294816,confidence_buffer,,null,,,,,,,,,,,,,,,,,,
1624.7000000001863,,pt2_unique_rating,1296443,Baymarsh,,52,,,4,,,,,,,,,,,,,,,
null,,confidence_buffer,1296550,confidence_buffer,,null,,,,,,,,,,,,,,,,,,
734.6000000005588,,pt2_memorable_rating,1297286,Baymarsh,,51,,,3,,,,,,,,,,,,,,,
null,,confidence_buffer,1297389,confidence_buffer,,null,,,,,,,,,,,,,,,,,,
2117.9000000003725,,recognition_phase,1299509,Baymarsh,,52,,,,,,new,1,0.7727272727272727,,,,,,,,,,
null,,confidence_buffer,1299612,confidence_buffer,,null,,,,,,,,,,,,,,,,,,
null,,thebreak,1300118,break,,null,,,,,,,,,,,,,,,,,,
2769.2000000001863,,realistic_rating,1302889,Lakehaven,,53,Lakehaven,Fictional,5,,,,,,,,,,,,,,,
null,,confidence_buffer,1302997,confidence_buffer,,null,,,,,,,,,,,,,,,,,,
948.7999999998137,,pt2_unique_rating,1303947,Lakehaven,,53,,,5,,,,,,,,,,,,,,,
null,,confidence_buffer,1304052,confidence_buffer,,null,,,,,,,,,,,,,,,,,,
748.3999999994412,,pt2_memorable_rating,1304802,Lakehaven,,53,,,5,,,,,,,,,,,,,,,
null,,confidence_buffer,1304908,confidence_buffer,,null,,,,,,,,,,,,,,,,,,
1298.6000000005588,,recognition_phase,1306209,Lakehaven,,49,,,,,,old,1,0.782608695652174,,,,,,,,,,
null,,confidence_buffer,1306312,confidence_buffer,,null,,,,,,,,,,,,,,,,,,
null,,thebreak,1306818,break,,null,,,,,,,,,,,,,,,,,,
1088.4000000003725,,realistic_rating,1307908,Juniper Creek,,53,Juniper Creek,Fictional,5,,,,,,,,,,,,,,,
null,,confidence_buffer,1308026,confidence_buffer,,null,,,,,,,,,,,,,,,,,,
4301.200000000186,,pt2_unique_rating,1312329,Juniper Creek,,53,,,5,,,,,,,,,,,,,,,
null,,confidence_buffer,1312432,confidence_buffer,,null,,,,,,,,,,,,,,,,,,
1391.4000000003725,,pt2_memorable_rating,1313826,Juniper Creek,,51,,,3,,,,,,,,,,,,,,,
null,,confidence_buffer,1313933,confidence_buffer,,null,,,,,,,,,,,,,,,,,,
2060.2000000001863,,recognition_phase,1315995,Juniper Creek,,52,,,,,,new,1,0.7916666666666666,,,,,,,,,,
null,,confidence_buffer,1316102,confidence_buffer,,null,,,,,,,,,,,,,,,,,,
null,,thebreak,1316609,break,,null,,,,,,,,,,,,,,,,,,
1098.199999999255,,realistic_rating,1317708,Huntsville,,53,Huntsville,US,5,,,,,,,,,,,,,,,
null,,confidence_buffer,1317810,confidence_buffer,,null,,,,,,,,,,,,,,,,,,
1056.5,,pt2_unique_rating,1318868,Huntsville,,52,,,4,,,,,,,,,,,,,,,
null,,confidence_buffer,1318972,confidence_buffer,,null,,,,,,,,,,,,,,,,,,
1403.199999999255,,pt2_memorable_rating,1320377,Huntsville,,51,,,3,,,,,,,,,,,,,,,
null,,confidence_buffer,1320484,confidence_buffer,,null,,,,,,,,,,,,,,,,,,
1469.2999999998137,,recognition_phase,1321955,Huntsville,,52,,,,,,new,0,0.76,,,,,,,,,,
null,,confidence_buffer,1322060,confidence_buffer,,null,,,,,,,,,,,,,,,,,,
null,,thebreak,1322569,break,,null,,,,,,,,,,,,,,,,,,
1074.5,,realistic_rating,1323645,Bowling Green,,53,Bowling Green,US,5,,,,,,,,,,,,,,,
null,,confidence_buffer,1323749,confidence_buffer,,null,,,,,,,,,,,,,,,,,,
577.2999999998137,,pt2_unique_rating,1324328,Bowling Green,,52,,,4,,,,,,,,,,,,,,,
null,,confidence_buffer,1324436,confidence_buffer,,null,,,,,,,,,,,,,,,,,,
420.19999999925494,,pt2_memorable_rating,1324857,Bowling Green,,51,,,3,,,,,,,,,,,,,,,
null,,confidence_buffer,1324961,confidence_buffer,,null,,,,,,,,,,,,,,,,,,
1676.5,,probe_rating,1326640,probe_rating,,52,,,,4,1,,,,,,,,,,,,,
null,,confidence_buffer,1326748,confidence_buffer,,null,,,,,,,,,,,,,,,,,,
1784.4000000003725,,recognition_phase,1328534,Bowling Green,,52,,,,,,new,1,0.7692307692307693,,,,,,,,,,
null,,confidence_buffer,1328641,confidence_buffer,,null,,,,,,,,,,,,,,,,,,
null,,thebreak,1329145,break,,null,,,,,,,,,,,,,,,,,,
1668.5,,realistic_rating,1330815,Albuquerque,,53,Albuquerque,US,5,,,,,,,,,,,,,,,
null,,confidence_buffer,1330922,confidence_buffer,,null,,,,,,,,,,,,,,,,,,
566.0999999996275,,pt2_unique_rating,1331490,Albuquerque,,52,,,4,,,,,,,,,,,,,,,
null,,confidence_buffer,1331592,confidence_buffer,,null,,,,,,,,,,,,,,,,,,
506.09999999962747,,pt2_memorable_rating,1332099,Albuquerque,,53,,,5,,,,,,,,,,,,,,,
null,,confidence_buffer,1332202,confidence_buffer,,null,,,,,,,,,,,,,,,,,,
650.0999999996275,,recognition_phase,1332854,Albuquerque,,52,,,,,,new,0,0.7407407407407407,,,,,,,,,,
null,,confidence_buffer,1332962,confidence_buffer,,null,,,,,,,,,,,,,,,,,,
null,,thebreak,1333470,break,,null,,,,,,,,,,,,,,,,,,
2264.5999999996275,,realistic_rating,1335736,Meadowspire,,53,Meadowspire,Fictional,5,,,,,,,,,,,,,,,
null,,confidence_buffer,1335842,confidence_buffer,,null,,,,,,,,,,,,,,,,,,
320.79999999981374,,pt2_unique_rating,1336165,Meadowspire,,52,,,4,,,,,,,,,,,,,,,
null,,confidence_buffer,1336272,confidence_buffer,,null,,,,,,,,,,,,,,,,,,
391.5,,pt2_memorable_rating,1336665,Meadowspire,,51,,,3,,,,,,,,,,,,,,,
null,,confidence_buffer,1336767,confidence_buffer,,null,,,,,,,,,,,,,,,,,,
3400.600000000559,,recognition_phase,1340170,Meadowspire,,49,,,,,,old,1,0.75,,,,,,,,,,
null,,confidence_buffer,1340272,confidence_buffer,,null,,,,,,,,,,,,,,,,,,
null,,thebreak,1340776,break,,null,,,,,,,,,,,,,,,,,,
14071,,realistic_rating,1354849,Assateague Island,,53,Assateague Island,US,5,,,,,,,,,,,,,,,
null,,confidence_buffer,1354954,confidence_buffer,,null,,,,,,,,,,,,,,,,,,
1339,,pt2_unique_rating,1356295,Assateague Island,,52,,,4,,,,,,,,,,,,,,,
null,,confidence_buffer,1356399,confidence_buffer,,null,,,,,,,,,,,,,,,,,,
3306.5,,pt2_memorable_rating,1359707,Assateague Island,,51,,,3,,,,,,,,,,,,,,,
null,,confidence_buffer,1359815,confidence_buffer,,null,,,,,,,,,,,,,,,,,,
807.9000000003725,,recognition_phase,1360625,Assateague Island,,52,,,,,,new,1,0.7586206896551724,,,,,,,,,,
null,,confidence_buffer,1360727,confidence_buffer,,null,,,,,,,,,,,,,,,,,,
null,,thebreak,1361231,break,,null,,,,,,,,,,,,,,,,,,
11630,,realistic_rating,1372863,Bisbee,,52,Bisbee,US,4,,,,,,,,,,,,,,,
null,,confidence_buffer,1372971,confidence_buffer,,null,,,,,,,,,,,,,,,,,,
817,,pt2_unique_rating,1373790,Bisbee,,51,,,3,,,,,,,,,,,,,,,
null,,confidence_buffer,1373892,confidence_buffer,,null,,,,,,,,,,,,,,,,,,
873.7999999998137,,pt2_memorable_rating,1374767,Bisbee,,52,,,4,,,,,,,,,,,,,,,
null,,confidence_buffer,1374870,confidence_buffer,,null,,,,,,,,,,,,,,,,,,
1484.7999999998137,,recognition_phase,1376357,Bisbee,,52,,,,,,new,1,0.7666666666666667,,,,,,,,,,
null,,confidence_buffer,1376463,confidence_buffer,,null,,,,,,,,,,,,,,,,,,
null,,thebreak,1376966,break,,null,,,,,,,,,,,,,,,,,,
1499.9000000003725,,realistic_rating,1378467,Rosehollow,,51,Rosehollow,Fictional,3,,,,,,,,,,,,,,,
null,,confidence_buffer,1378586,confidence_buffer,,null,,,,,,,,,,,,,,,,,,
1153.9000000003725,,pt2_unique_rating,1379741,Rosehollow,,52,,,4,,,,,,,,,,,,,,,
null,,confidence_buffer,1379850,confidence_buffer,,null,,,,,,,,,,,,,,,,,,
1151.7999999998137,,pt2_memorable_rating,1381003,Rosehollow,,53,,,5,,,,,,,,,,,,,,,
null,,confidence_buffer,1381107,confidence_buffer,,null,,,,,,,,,,,,,,,,,,
3566.5999999996275,,recognition_phase,1384676,Rosehollow,,52,,,,,,new,1,0.7741935483870968,,,,,,,,,,
null,,confidence_buffer,1384782,confidence_buffer,,null,,,,,,,,,,,,,,,,,,
null,,thebreak,1385289,break,,null,,,,,,,,,,,,,,,,,,
1390.7999999998137,,realistic_rating,1386681,Coralridge,,53,Coralridge,Fictional,5,,,,,,,,,,,,,,,
null,,confidence_buffer,1386790,confidence_buffer,,null,,,,,,,,,,,,,,,,,,
1610.7000000001863,,pt2_unique_rating,1388403,Coralridge,,51,,,3,,,,,,,,,,,,,,,
null,,confidence_buffer,1388512,confidence_buffer,,null,,,,,,,,,,,,,,,,,,
1457.8999999994412,,pt2_memorable_rating,1389971,Coralridge,,53,,,5,,,,,,,,,,,,,,,
null,,confidence_buffer,1390078,confidence_buffer,,null,,,,,,,,,,,,,,,,,,
1777.5,,recognition_phase,1391857,Coralridge,,52,,,,,,new,0,0.75,,,,,,,,,,
null,,confidence_buffer,1391959,confidence_buffer,,null,,,,,,,,,,,,,,,,,,
null,,thebreak,1392464,break,,null,,,,,,,,,,,,,,,,,,
1469.4000000003725,,realistic_rating,1393935,Sammamish,,53,Sammamish,US,5,,,,,,,,,,,,,,,
null,,confidence_buffer,1394049,confidence_buffer,,null,,,,,,,,,,,,,,,,,,
751.4000000003725,,pt2_unique_rating,1394802,Sammamish,,51,,,3,,,,,,,,,,,,,,,
null,,confidence_buffer,1394909,confidence_buffer,,null,,,,,,,,,,,,,,,,,,
1213.6000000005588,,pt2_memorable_rating,1396124,Sammamish,,52,,,4,,,,,,,,,,,,,,,
null,,confidence_buffer,1396230,confidence_buffer,,null,,,,,,,,,,,,,,,,,,
1349.9000000003725,,recognition_phase,1397582,Sammamish,,52,,,,,,new,1,0.7575757575757576,,,,,,,,,,
null,,confidence_buffer,1397690,confidence_buffer,,null,,,,,,,,,,,,,,,,,,
null,,thebreak,1398199,break,,null,,,,,,,,,,,,,,,,,,
1858.2999999998137,,realistic_rating,1400059,Newport,,52,Newport,US,4,,,,,,,,,,,,,,,
null,,confidence_buffer,1400162,confidence_buffer,,null,,,,,,,,,,,,,,,,,,
761.1000000005588,,pt2_unique_rating,1400925,Newport,,51,,,3,,,,,,,,,,,,,,,
null,,confidence_buffer,1401034,confidence_buffer,,null,,,,,,,,,,,,,,,,,,
1824.3999999994412,,pt2_memorable_rating,1402860,Newport,,53,,,5,,,,,,,,,,,,,,,
null,,confidence_buffer,1402962,confidence_buffer,,null,,,,,,,,,,,,,,,,,,
1240.699999999255,,recognition_phase,1404205,Newport,,49,,,,,,old,1,0.7647058823529411,,,,,,,,,,
null,,confidence_buffer,1404313,confidence_buffer,,null,,,,,,,,,,,,,,,,,,
null,,thebreak,1404825,break,,null,,,,,,,,,,,,,,,,,,
1609.5999999996275,,realistic_rating,1406437,Racine,,51,Racine,US,3,,,,,,,,,,,,,,,
null,,confidence_buffer,1406547,confidence_buffer,,null,,,,,,,,,,,,,,,,,,
427,,pt2_unique_rating,1406976,Racine,,53,,,5,,,,,,,,,,,,,,,
null,,confidence_buffer,1407082,confidence_buffer,,null,,,,,,,,,,,,,,,,,,
1596.2999999998137,,probe_rating,1408680,probe_rating,,50,,,,2,1,,,,,,,,,,,,,
null,,confidence_buffer,1408782,confidence_buffer,,null,,,,,,,,,,,,,,,,,,
1343.5,,pt2_memorable_rating,1410127,Racine,,53,,,5,,,,,,,,,,,,,,,
null,,confidence_buffer,1410235,confidence_buffer,,null,,,,,,,,,,,,,,,,,,
3078.899999999441,,recognition_phase,1413316,Racine,,49,,,,,,old,1,0.7714285714285715,,,,,,,,,,
null,,confidence_buffer,1413424,confidence_buffer,,null,,,,,,,,,,,,,,,,,,
null,,thebreak,1413927,break,,null,,,,,,,,,,,,,,,,,,
875.7000000001863,,realistic_rating,1414804,Natchez,,53,Natchez,US,5,,,,,,,,,,,,,,,
null,,confidence_buffer,1414908,confidence_buffer,,null,,,,,,,,,,,,,,,,,,
444.6000000005588,,pt2_unique_rating,1415354,Natchez,,51,,,3,,,,,,,,,,,,,,,
null,,confidence_buffer,1415459,confidence_buffer,,null,,,,,,,,,,,,,,,,,,
533.9000000003725,,pt2_memorable_rating,1415995,Natchez,,52,,,4,,,,,,,,,,,,,,,
null,,confidence_buffer,1416102,confidence_buffer,,null,,,,,,,,,,,,,,,,,,
2439.5,,recognition_phase,1418543,Natchez,,52,,,,,,new,0,0.75,,,,,,,,,,
null,,confidence_buffer,1418652,confidence_buffer,,null,,,,,,,,,,,,,,,,,,
null,,thebreak,1419157,break,,null,,,,,,,,,,,,,,,,,,
679.2000000001863,,realistic_rating,1419838,Redgrove,,51,Redgrove,Fictional,3,,,,,,,,,,,,,,,
null,,confidence_buffer,1419940,confidence_buffer,,null,,,,,,,,,,,,,,,,,,
435.5,,pt2_unique_rating,1420377,Redgrove,,52,,,4,,,,,,,,,,,,,,,
null,,confidence_buffer,1420482,confidence_buffer,,null,,,,,,,,,,,,,,,,,,
741,,pt2_memorable_rating,1421224,Redgrove,,50,,,2,,,,,,,,,,,,,,,
null,,confidence_buffer,1421332,confidence_buffer,,null,,,,,,,,,,,,,,,,,,
1162.4000000003725,,recognition_phase,1422496,Redgrove,,52,,,,,,new,1,0.7567567567567568,,,,,,,,,,
null,,confidence_buffer,1422602,confidence_buffer,,null,,,,,,,,,,,,,,,,,,
null,,thebreak,1423111,break,,null,,,,,,,,,,,,,,,,,,
534.1999999992549,,realistic_rating,1423646,Cornwall,,51,Cornwall,US,3,,,,,,,,,,,,,,,
null,,confidence_buffer,1423750,confidence_buffer,,null,,,,,,,,,,,,,,,,,,
874.2000000001863,,pt2_unique_rating,1424626,Cornwall,,52,,,4,,,,,,,,,,,,,,,
null,,confidence_buffer,1424730,confidence_buffer,,null,,,,,,,,,,,,,,,,,,
1251.2000000001863,,pt2_memorable_rating,1425983,Cornwall,,50,,,2,,,,,,,,,,,,,,,
null,,confidence_buffer,1426092,confidence_buffer,,null,,,,,,,,,,,,,,,,,,
3935.5,,recognition_phase,1430029,Cornwall,,52,,,,,,new,0,0.7368421052631579,,,,,,,,,,
null,,confidence_buffer,1430134,confidence_buffer,,null,,,,,,,,,,,,,,,,,,
null,,thebreak,1430640,break,,null,,,,,,,,,,,,,,,,,,
965.2999999998137,,realistic_rating,1431607,Gardnerville,,51,Gardnerville,US,3,,,,,,,,,,,,,,,
null,,confidence_buffer,1431711,confidence_buffer,,null,,,,,,,,,,,,,,,,,,
709.1000000005588,,pt2_unique_rating,1432422,Gardnerville,,53,,,5,,,,,,,,,,,,,,,
null,,confidence_buffer,1432528,confidence_buffer,,null,,,,,,,,,,,,,,,,,,
362.30000000074506,,probe_rating,1432892,probe_rating,,50,,,,2,1,,,,,,,,,,,,,
null,,confidence_buffer,1432994,confidence_buffer,,null,,,,,,,,,,,,,,,,,,
3615.300000000745,,pt2_memorable_rating,1436611,Gardnerville,,52,,,4,,,,,,,,,,,,,,,
null,,confidence_buffer,1436713,confidence_buffer,,null,,,,,,,,,,,,,,,,,,
1189.9000000003725,,recognition_phase,1437904,Gardnerville,,49,,,,,,old,0,0.717948717948718,,,,,,,,,,
null,,confidence_buffer,1438009,confidence_buffer,,null,,,,,,,,,,,,,,,,,,
null,,thebreak,1438518,break,,null,,,,,,,,,,,,,,,,,,
1422.9000000003725,,realistic_rating,1439943,Watkins Glen,,53,Watkins Glen,US,5,,,,,,,,,,,,,,,
null,,confidence_buffer,1440052,confidence_buffer,,null,,,,,,,,,,,,,,,,,,
1519.5999999996275,,pt2_unique_rating,1441573,Watkins Glen,,51,,,3,,,,,,,,,,,,,,,
null,,confidence_buffer,1441679,confidence_buffer,,null,,,,,,,,,,,,,,,,,,
1267.8999999994412,,pt2_memorable_rating,1442948,Watkins Glen,,52,,,4,,,,,,,,,,,,,,,
null,,confidence_buffer,1443051,confidence_buffer,,null,,,,,,,,,,,,,,,,,,
1973.0999999996275,,recognition_phase,1445026,Watkins Glen,,52,,,,,,new,1,0.725,,,,,,,,,,
null,,confidence_buffer,1445130,confidence_buffer,,null,,,,,,,,,,,,,,,,,,
null,,thebreak,1445638,break,,null,,,,,,,,,,,,,,,,,,
2107.4000000003725,,realistic_rating,1447747,Ironwood Heights,,50,Ironwood Heights,Fictional,2,,,,,,,,,,,,,,,
null,,confidence_buffer,1447852,confidence_buffer,,null,,,,,,,,,,,,,,,,,,
658.2000000001863,,pt2_unique_rating,1448511,Ironwood Heights,,52,,,4,,,,,,,,,,,,,,,
null,,confidence_buffer,1448620,confidence_buffer,,null,,,,,,,,,,,,,,,,,,
440.1000000005588,,pt2_memorable_rating,1449062,Ironwood Heights,,51,,,3,,,,,,,,,,,,,,,
null,,confidence_buffer,1449170,confidence_buffer,,null,,,,,,,,,,,,,,,,,,
4038.5,,recognition_phase,1453211,Ironwood Heights,,52,,,,,,new,0,0.7073170731707317,,,,,,,,,,
null,,confidence_buffer,1453320,confidence_buffer,,null,,,,,,,,,,,,,,,,,,
null,,thebreak,1453822,break,,null,,,,,,,,,,,,,,,,,,
1037,,realistic_rating,1454861,Park City,,51,Park City,US,3,,,,,,,,,,,,,,,
null,,confidence_buffer,1454963,confidence_buffer,,null,,,,,,,,,,,,,,,,,,
2196.5999999996275,,pt2_unique_rating,1457161,Park City,,53,,,5,,,,,,,,,,,,,,,
null,,confidence_buffer,1457263,confidence_buffer,,null,,,,,,,,,,,,,,,,,,
1486.2999999998137,,pt2_memorable_rating,1458751,Park City,,52,,,4,,,,,,,,,,,,,,,
null,,confidence_buffer,1458856,confidence_buffer,,null,,,,,,,,,,,,,,,,,,
4257.0999999996275,,recognition_phase,1463114,Park City,,52,,,,,,new,1,0.7142857142857143,,,,,,,,,,
null,,confidence_buffer,1463224,confidence_buffer,,null,,,,,,,,,,,,,,,,,,
null,,thebreak,1463726,break,,null,,,,,,,,,,,,,,,,,,
1567.6000000005588,,realistic_rating,1465295,Sisters,,50,Sisters,US,2,,,,,,,,,,,,,,,
null,,confidence_buffer,1465402,confidence_buffer,,null,,,,,,,,,,,,,,,,,,
604.8999999994412,,pt2_unique_rating,1466008,Sisters,,53,,,5,,,,,,,,,,,,,,,
null,,confidence_buffer,1466112,confidence_buffer,,null,,,,,,,,,,,,,,,,,,
1494.5999999996275,,pt2_memorable_rating,1467608,Sisters,,51,,,3,,,,,,,,,,,,,,,
null,,confidence_buffer,1467716,confidence_buffer,,null,,,,,,,,,,,,,,,,,,
8960.700000000186,,recognition_phase,1476678,Sisters,,49,,,,,,old,1,0.7209302325581395,,,,,,,,,,
null,,confidence_buffer,1476780,confidence_buffer,,null,,,,,,,,,,,,,,,,,,
null,,thebreak,1477282,break,,null,,,,,,,,,,,,,,,,,,
473.5,,realistic_rating,1477758,Willowford,,50,Willowford,Fictional,2,,,,,,,,,,,,,,,
null,,confidence_buffer,1477875,confidence_buffer,,null,,,,,,,,,,,,,,,,,,
1420.2999999998137,,pt2_unique_rating,1479297,Willowford,,52,,,4,,,,,,,,,,,,,,,
null,,confidence_buffer,1479399,confidence_buffer,,null,,,,,,,,,,,,,,,,,,
2422.7999999998137,,pt2_memorable_rating,1481824,Willowford,,51,,,3,,,,,,,,,,,,,,,
null,,confidence_buffer,1481926,confidence_buffer,,null,,,,,,,,,,,,,,,,,,
1657.2000000001863,,recognition_phase,1483585,Willowford,,49,,,,,,old,1,0.7272727272727273,,,,,,,,,,
null,,confidence_buffer,1483689,confidence_buffer,,null,,,,,,,,,,,,,,,,,,
null,,thebreak,1484198,break,,null,,,,,,,,,,,,,,,,,,
609.4000000003725,,realistic_rating,1484809,Maravilla Springs,,50,Maravilla Springs,Fictional,2,,,,,,,,,,,,,,,
null,,confidence_buffer,1484922,confidence_buffer,,null,,,,,,,,,,,,,,,,,,
875,,pt2_unique_rating,1485798,Maravilla Springs,,52,,,4,,,,,,,,,,,,,,,
null,,confidence_buffer,1485905,confidence_buffer,,null,,,,,,,,,,,,,,,,,,
1093.4000000003725,,pt2_memorable_rating,1487001,Maravilla Springs,,51,,,3,,,,,,,,,,,,,,,
null,,confidence_buffer,1487109,confidence_buffer,,null,,,,,,,,,,,,,,,,,,
2682.4000000003725,,recognition_phase,1489793,Maravilla Springs,,52,,,,,,new,1,0.7333333333333333,,,,,,,,,,
null,,confidence_buffer,1489899,confidence_buffer,,null,,,,,,,,,,,,,,,,,,
null,,thebreak,1490405,break,,null,,,,,,,,,,,,,,,,,,
779.5999999996275,,realistic_rating,1491187,Manistee,,51,Manistee,US,3,,,,,,,,,,,,,,,
null,,confidence_buffer,1491292,confidence_buffer,,null,,,,,,,,,,,,,,,,,,
1340.2999999998137,,pt2_unique_rating,1492634,Manistee,,51,,,3,,,,,,,,,,,,,,,
null,,confidence_buffer,1492741,confidence_buffer,,null,,,,,,,,,,,,,,,,,,
605.0999999996275,,pt2_memorable_rating,1493347,Manistee,,52,,,4,,,,,,,,,,,,,,,
null,,confidence_buffer,1493452,confidence_buffer,,null,,,,,,,,,,,,,,,,,,
16759.599999999627,,recognition_phase,1510213,Manistee,,52,,,,,,new,0,0.717391304347826,,,,,,,,,,
null,,confidence_buffer,1510324,confidence_buffer,,null,,,,,,,,,,,,,,,,,,
null,,thebreak,1510826,break,,null,,,,,,,,,,,,,,,,,,
2697.2999999998137,,realistic_rating,1513525,Linden Trace,,53,Linden Trace,Fictional,5,,,,,,,,,,,,,,,
null,,confidence_buffer,1513629,confidence_buffer,,null,,,,,,,,,,,,,,,,,,
1118.4000000003725,,pt2_unique_rating,1514749,Linden Trace,,51,,,3,,,,,,,,,,,,,,,
null,,confidence_buffer,1514852,confidence_buffer,,null,,,,,,,,,,,,,,,,,,
1637.4000000003725,,pt2_memorable_rating,1516491,Linden Trace,,52,,,4,,,,,,,,,,,,,,,
null,,confidence_buffer,1516593,confidence_buffer,,null,,,,,,,,,,,,,,,,,,
2700.7000000001863,,recognition_phase,1519296,Linden Trace,,52,,,,,,new,0,0.7021276595744681,,,,,,,,,,
null,,confidence_buffer,1519401,confidence_buffer,,null,,,,,,,,,,,,,,,,,,
null,,thebreak,1519906,break,,null,,,,,,,,,,,,,,,,,,
1448.2000000001863,,realistic_rating,1521356,Summershade,,53,Summershade,Fictional,5,,,,,,,,,,,,,,,
null,,confidence_buffer,1521462,confidence_buffer,,null,,,,,,,,,,,,,,,,,,
1234.9000000003725,,pt2_unique_rating,1522699,Summershade,,51,,,3,,,,,,,,,,,,,,,
null,,confidence_buffer,1522802,confidence_buffer,,null,,,,,,,,,,,,,,,,,,
843.2000000001863,,pt2_memorable_rating,1523647,Summershade,,53,,,5,,,,,,,,,,,,,,,
null,,confidence_buffer,1523751,confidence_buffer,,null,,,,,,,,,,,,,,,,,,
1026.7999999998137,,recognition_phase,1524780,Summershade,,52,,,,,,new,1,0.7083333333333334,,,,,,,,,,
null,,confidence_buffer,1524882,confidence_buffer,,null,,,,,,,,,,,,,,,,,,
null,,thebreak,1525385,break,,null,,,,,,,,,,,,,,,,,,
787.3999999994412,,realistic_rating,1526174,Cape May,,53,Cape May,US,5,,,,,,,,,,,,,,,
null,,confidence_buffer,1526279,confidence_buffer,,null,,,,,,,,,,,,,,,,,,
698.8000000007451,,pt2_unique_rating,1526980,Cape May,,51,,,3,,,,,,,,,,,,,,,
null,,confidence_buffer,1527085,confidence_buffer,,null,,,,,,,,,,,,,,,,,,
791.5,,pt2_memorable_rating,1527878,Cape May,,53,,,5,,,,,,,,,,,,,,,
null,,confidence_buffer,1527982,confidence_buffer,,null,,,,,,,,,,,,,,,,,,
2286.300000000745,,recognition_phase,1530270,Cape May,,52,,,,,,new,1,0.7142857142857143,,,,,,,,,,
null,,confidence_buffer,1530373,confidence_buffer,,null,,,,,,,,,,,,,,,,,,
null,,thebreak,1530879,break,,null,,,,,,,,,,,,,,,,,,
684.9000000003725,,realistic_rating,1531566,Granton Ridge,,53,Granton Ridge,Fictional,5,,,,,,,,,,,,,,,
null,,confidence_buffer,1531670,confidence_buffer,,null,,,,,,,,,,,,,,,,,,
535.7000000001863,,pt2_unique_rating,1532207,Granton Ridge,,51,,,3,,,,,,,,,,,,,,,
null,,confidence_buffer,1532312,confidence_buffer,,null,,,,,,,,,,,,,,,,,,
1421.7999999998137,,probe_rating,1533735,probe_rating,,52,,,,4,1,,,,,,,,,,,,,
null,,confidence_buffer,1533842,confidence_buffer,,null,,,,,,,,,,,,,,,,,,
1787.300000000745,,pt2_memorable_rating,1535631,Granton Ridge,,53,,,5,,,,,,,,,,,,,,,
null,,confidence_buffer,1535739,confidence_buffer,,null,,,,,,,,,,,,,,,,,,
776.9000000003725,,recognition_phase,1536518,Granton Ridge,,52,,,,,,new,1,0.72,,,,,,,,,,
null,,confidence_buffer,1536622,confidence_buffer,,null,,,,,,,,,,,,,,,,,,
null,,thebreak,1537136,break,,null,,,,,,,,,,,,,,,,,,
561.5,,realistic_rating,1537699,North Arroya,,53,North Arroya,Fictional,5,,,,,,,,,,,,,,,
null,,confidence_buffer,1537802,confidence_buffer,,null,,,,,,,,,,,,,,,,,,
445.79999999981374,,pt2_unique_rating,1538249,North Arroya,,51,,,3,,,,,,,,,,,,,,,
null,,confidence_buffer,1538352,confidence_buffer,,null,,,,,,,,,,,,,,,,,,
8119.799999999814,,pt2_memorable_rating,1546473,North Arroya,,52,,,4,,,,,,,,,,,,,,,
null,,confidence_buffer,1546581,confidence_buffer,,null,,,,,,,,,,,,,,,,,,
1308,,recognition_phase,1547891,North Arroya,,52,,,,,,new,1,0.7254901960784313,,,,,,,,,,
null,,confidence_buffer,1547999,confidence_buffer,,null,,,,,,,,,,,,,,,,,,
null,,thebreak,1548502,break,,null,,,,,,,,,,,,,,,,,,
74306.89999999944,,realistic_rating,1622811,Lake of the Ozarks,,52,Lake of the Ozarks,US,4,,,,,,,,,,,,,,,
null,,confidence_buffer,1622921,confidence_buffer,,null,,,,,,,,,,,,,,,,,,
1976.7000000001863,,pt2_unique_rating,1624898,Lake of the Ozarks,,51,,,3,,,,,,,,,,,,,,,
null,,confidence_buffer,1625003,confidence_buffer,,null,,,,,,,,,,,,,,,,,,
1453.9000000003725,,pt2_memorable_rating,1626458,Lake of the Ozarks,,52,,,4,,,,,,,,,,,,,,,
null,,confidence_buffer,1626562,confidence_buffer,,null,,,,,,,,,,,,,,,,,,
1104.9000000003725,,recognition_phase,1627669,Lake of the Ozarks,,49,,,,,,old,1,0.7307692307692307,,,,,,,,,,
null,,confidence_buffer,1627772,confidence_buffer,,null,,,,,,,,,,,,,,,,,,
null,,thebreak,1628286,break,,null,,,,,,,,,,,,,,,,,,
1929.7000000001863,,realistic_rating,1630217,Custer,,52,Custer,US,4,,,,,,,,,,,,,,,
null,,confidence_buffer,1630319,confidence_buffer,,null,,,,,,,,,,,,,,,,,,
569.1000000005588,,pt2_unique_rating,1630890,Custer,,51,,,3,,,,,,,,,,,,,,,
null,,confidence_buffer,1631000,confidence_buffer,,null,,,,,,,,,,,,,,,,,,
519.5,,pt2_memorable_rating,1631521,Custer,,53,,,5,,,,,,,,,,,,,,,
null,,confidence_buffer,1631630,confidence_buffer,,null,,,,,,,,,,,,,,,,,,
1417.2000000001863,,recognition_phase,1633049,Custer,,52,,,,,,new,1,0.7358490566037735,,,,,,,,,,
null,,confidence_buffer,1633152,confidence_buffer,,null,,,,,,,,,,,,,,,,,,
null,,thebreak,1633658,break,,null,,,,,,,,,,,,,,,,,,
1223.1000000005588,,realistic_rating,1634882,Duck,,53,Duck,US,5,,,,,,,,,,,,,,,
null,,confidence_buffer,1634989,confidence_buffer,,null,,,,,,,,,,,,,,,,,,
419.8999999994412,,pt2_unique_rating,1635411,Duck,,51,,,3,,,,,,,,,,,,,,,
null,,confidence_buffer,1635519,confidence_buffer,,null,,,,,,,,,,,,,,,,,,
503.80000000074506,,pt2_memorable_rating,1636024,Duck,,52,,,4,,,,,,,,,,,,,,,
null,,confidence_buffer,1636131,confidence_buffer,,null,,,,,,,,,,,,,,,,,,
1022.6999999992549,,recognition_phase,1637155,Duck,,52,,,,,,new,1,0.7407407407407407,,,,,,,,,,
null,,confidence_buffer,1637262,confidence_buffer,,null,,,,,,,,,,,,,,,,,,
null,,thebreak,1637767,break,,null,,,,,,,,,,,,,,,,,,
546.5999999996275,,realistic_rating,1638315,Alliance,,51,Alliance,US,3,,,,,,,,,,,,,,,
null,,confidence_buffer,1638417,confidence_buffer,,null,,,,,,,,,,,,,,,,,,
1129.4000000003725,,pt2_unique_rating,1639548,Alliance,,52,,,4,,,,,,,,,,,,,,,
null,,confidence_buffer,1639652,confidence_buffer,,null,,,,,,,,,,,,,,,,,,
760.7000000001863,,pt2_memorable_rating,1640415,Alliance,,53,,,5,,,,,,,,,,,,,,,
null,,confidence_buffer,1640519,confidence_buffer,,null,,,,,,,,,,,,,,,,,,
1727.7000000001863,,recognition_phase,1642248,Alliance,,49,,,,,,old,1,0.7454545454545455,,,,,,,,,,
null,,confidence_buffer,1642357,confidence_buffer,,null,,,,,,,,,,,,,,,,,,
null,,thebreak,1642870,break,,null,,,,,,,,,,,,,,,,,,
986.7000000001863,,realistic_rating,1643858,Leesburg,,51,Leesburg,US,3,,,,,,,,,,,,,,,
null,,confidence_buffer,1643962,confidence_buffer,,null,,,,,,,,,,,,,,,,,,
810.5,,probe_rating,1644774,probe_rating,,53,,,,5,0,,,,,,,,,,,,,
null,,confidence_buffer,1644881,confidence_buffer,,null,,,,,,,,,,,,,,,,,,
44.09999999962747,,pt2_unique_rating,1644927,Leesburg,,52,,,4,,,,,,,,,,,,,,,
null,,confidence_buffer,1645033,confidence_buffer,,null,,,,,,,,,,,,,,,,,,
1186.8999999994412,,pt2_memorable_rating,1646222,Leesburg,,53,,,5,,,,,,,,,,,,,,,
null,,confidence_buffer,1646330,confidence_buffer,,null,,,,,,,,,,,,,,,,,,
2220.399999999441,,recognition_phase,1648553,Leesburg,,52,,,,,,new,1,0.75,,,,,,,,,,
null,,confidence_buffer,1648659,confidence_buffer,,null,,,,,,,,,,,,,,,,,,
null,,thebreak,1649169,break,,null,,,,,,,,,,,,,,,,,,
1184.9000000003725,,realistic_rating,1650356,Orchard Bend,,53,Orchard Bend,Fictional,5,,,,,,,,,,,,,,,
null,,confidence_buffer,1650462,confidence_buffer,,null,,,,,,,,,,,,,,,,,,
463.70000000018626,,pt2_unique_rating,1650927,Orchard Bend,,50,,,2,,,,,,,,,,,,,,,
null,,confidence_buffer,1651032,confidence_buffer,,null,,,,,,,,,,,,,,,,,,
1001.8999999994412,,pt2_memorable_rating,1652036,Orchard Bend,,51,,,3,,,,,,,,,,,,,,,
null,,confidence_buffer,1652142,confidence_buffer,,null,,,,,,,,,,,,,,,,,,
1277.5,,recognition_phase,1653422,Orchard Bend,,52,,,,,,new,0,0.7368421052631579,,,,,,,,,,
null,,confidence_buffer,1653528,confidence_buffer,,null,,,,,,,,,,,,,,,,,,
null,,thebreak,1654043,break,,null,,,,,,,,,,,,,,,,,,
619.5,,realistic_rating,1654664,Hawthorne Bluffs,,53,Hawthorne Bluffs,Fictional,5,,,,,,,,,,,,,,,
null,,confidence_buffer,1654772,confidence_buffer,,null,,,,,,,,,,,,,,,,,,
390,,pt2_unique_rating,1655163,Hawthorne Bluffs,,51,,,3,,,,,,,,,,,,,,,
null,,confidence_buffer,1655267,confidence_buffer,,null,,,,,,,,,,,,,,,,,,
578.2000000001863,,pt2_memorable_rating,1655847,Hawthorne Bluffs,,52,,,4,,,,,,,,,,,,,,,
null,,confidence_buffer,1655957,confidence_buffer,,null,,,,,,,,,,,,,,,,,,
2158,,recognition_phase,1658116,Hawthorne Bluffs,,52,,,,,,new,0,0.7241379310344828,,,,,,,,,,
null,,confidence_buffer,1658222,confidence_buffer,,null,,,,,,,,,,,,,,,,,,
null,,thebreak,1658725,break,,null,,,,,,,,,,,,,,,,,,
1123.7000000001863,,realistic_rating,1659850,Orr,,51,Orr,US,3,,,,,,,,,,,,,,,
null,,confidence_buffer,1659954,confidence_buffer,,null,,,,,,,,,,,,,,,,,,
556.6000000005588,,pt2_unique_rating,1660512,Orr,,50,,,2,,,,,,,,,,,,,,,
null,,confidence_buffer,1660615,confidence_buffer,,null,,,,,,,,,,,,,,,,,,
566.2000000001863,,probe_rating,1661183,probe_rating,,53,,,,5,0,,,,,,,,,,,,,
null,,confidence_buffer,1661290,confidence_buffer,,null,,,,,,,,,,,,,,,,,,
5638.4000000003725,,pt2_memorable_rating,1666930,Orr,,50,,,2,,,,,,,,,,,,,,,
null,,confidence_buffer,1667042,confidence_buffer,,null,,,,,,,,,,,,,,,,,,
5213.799999999814,,recognition_phase,1672257,Orr,,49,,,,,,old,1,0.7288135593220338,,,,,,,,,,
null,,confidence_buffer,1672359,confidence_buffer,,null,,,,,,,,,,,,,,,,,,
null,,thebreak,1672867,break,,null,,,,,,,,,,,,,,,,,,
1650.6000000005588,,realistic_rating,1674519,Healdsburg,,53,Healdsburg,US,5,,,,,,,,,,,,,,,
null,,confidence_buffer,1674627,confidence_buffer,,null,,,,,,,,,,,,,,,,,,
521,,pt2_unique_rating,1675150,Healdsburg,,51,,,3,,,,,,,,,,,,,,,
null,,confidence_buffer,1675252,confidence_buffer,,null,,,,,,,,,,,,,,,,,,
2922,,pt2_memorable_rating,1678176,Healdsburg,,53,,,5,,,,,,,,,,,,,,,
null,,confidence_buffer,1678278,confidence_buffer,,null,,,,,,,,,,,,,,,,,,
965,,recognition_phase,1679244,Healdsburg,,49,,,,,,old,1,0.7333333333333333,,,,,,,,,,
null,,confidence_buffer,1679350,confidence_buffer,,null,,,,,,,,,,,,,,,,,,
null,,thebreak,1679856,break,,null,,,,,,,,,,,,,,,,,,
,,survey,2351464,survey-questions,,,,,,,,,,,none,high,No, i was focusing solely on the task. ,Tried as much as possible to master the names of the cities.,Cities I well know would be familiar,If several days, weeks or even years from now i would still remember the name of the city,A city i never heard of before ,If the citys name made any logical sense,No,It is all good
