rt,responses,trial_type,time_elapsed,stimulus,button_pressed,key_press,name_trial,city_type,rating,probe,probe_accuracy,response,correct,accuracy
23094.90000000596,{worker_id:6828e1762b0e6ba34da37f37},id_enter,23099,,,,,,,,,,,
18329.70000001788,,fullscreen,41436,fullscreen,0,,,,,,,,,
2487.800000011921,,intro_0,43927,instruct,,32,,,,,,,,
35923.79999998212,,intro_1,79851,instruct,,32,,,,,,,,
16360.59999999404,,intro_2,96213,instruct,,32,,,,,,,,
null,,instruct_dir_4,97721,instruct,,null,,,,,,,,
null,,thebreak,98235,break,,null,,,,,,,,
79844.59999999404,,familiar_rating,178081,Briarfield,,51,Briarfield,Fictional,3,,,,,
null,,confidence_buffer,178189,confidence_buffer,,null,,,,,,,,
5335,,unique_rating,183525,Briarfield,,51,,,3,,,,,
null,,confidence_buffer,183642,confidence_buffer,,null,,,,,,,,
4502.700000017881,,memorable_rating,188146,Briarfield,,51,,,3,,,,,
null,,confidence_buffer,188254,confidence_buffer,,null,,,,,,,,
null,,thebreak,188760,break,,null,,,,,,,,
8800.90000000596,,familiar_rating,197563,Driftwood Bay,,53,Driftwood Bay,Fictional,5,,,,,
null,,confidence_buffer,197671,confidence_buffer,,null,,,,,,,,
1412.7000000178814,,unique_rating,199084,Driftwood Bay,,51,,,3,,,,,
null,,confidence_buffer,199189,confidence_buffer,,null,,,,,,,,
1008.6999999880791,,memorable_rating,200199,Driftwood Bay,,51,,,3,,,,,
null,,confidence_buffer,200302,confidence_buffer,,null,,,,,,,,
null,,thebreak,200811,break,,null,,,,,,,,
1891.300000011921,,familiar_rating,202703,Bayshore Haven,,53,Bayshore Haven,Fictional,5,,,,,
null,,confidence_buffer,202812,confidence_buffer,,null,,,,,,,,
635.0999999940395,,unique_rating,203448,Bayshore Haven,,51,,,3,,,,,
null,,confidence_buffer,203554,confidence_buffer,,null,,,,,,,,
986.0999999940395,,memorable_rating,204541,Bayshore Haven,,51,,,3,,,,,
null,,confidence_buffer,204650,confidence_buffer,,null,,,,,,,,
null,,thebreak,205161,break,,null,,,,,,,,
1934.2999999821186,,familiar_rating,207096,Duck,,53,Duck,US,5,,,,,
null,,confidence_buffer,207202,confidence_buffer,,null,,,,,,,,
426.90000000596046,,unique_rating,207630,Duck,,51,,,3,,,,,
null,,confidence_buffer,207736,confidence_buffer,,null,,,,,,,,
1395.8999999761581,,memorable_rating,209133,Duck,,53,,,5,,,,,
null,,confidence_buffer,209234,confidence_buffer,,null,,,,,,,,
null,,thebreak,209739,break,,null,,,,,,,,
1200.699999988079,,familiar_rating,210940,Watkins Glen,,51,Watkins Glen,US,3,,,,,
null,,confidence_buffer,211042,confidence_buffer,,null,,,,,,,,
1586.5,,unique_rating,212629,Watkins Glen,,53,,,5,,,,,
null,,confidence_buffer,212735,confidence_buffer,,null,,,,,,,,
726.3000000119209,,memorable_rating,213463,Watkins Glen,,53,,,5,,,,,
null,,confidence_buffer,213568,confidence_buffer,,null,,,,,,,,
null,,thebreak,214076,break,,null,,,,,,,,
3068.0999999940395,,familiar_rating,217145,Oakridge,,50,Oakridge,Fictional,2,,,,,
null,,confidence_buffer,217251,confidence_buffer,,null,,,,,,,,
895.4000000059605,,unique_rating,218147,Oakridge,,50,,,2,,,,,
null,,confidence_buffer,218255,confidence_buffer,,null,,,,,,,,
1185.800000011921,,memorable_rating,219442,Oakridge,,50,,,2,,,,,
null,,confidence_buffer,219550,confidence_buffer,,null,,,,,,,,
null,,thebreak,220052,break,,null,,,,,,,,
999.9000000059605,,familiar_rating,221053,Sitka,,50,Sitka,US,2,,,,,
null,,confidence_buffer,221156,confidence_buffer,,null,,,,,,,,
1138.699999988079,,unique_rating,222295,Sitka,,53,,,5,,,,,
null,,confidence_buffer,222398,confidence_buffer,,null,,,,,,,,
364.09999999403954,,memorable_rating,222763,Sitka,,50,,,2,,,,,
null,,confidence_buffer,222868,confidence_buffer,,null,,,,,,,,
null,,thebreak,223373,break,,null,,,,,,,,
82.80000001192093,,familiar_rating,223457,Cape May,,50,Cape May,US,2,,,,,
null,,confidence_buffer,223563,confidence_buffer,,null,,,,,,,,
1864.5,,unique_rating,225429,Cape May,,50,,,2,,,,,
null,,confidence_buffer,225532,confidence_buffer,,null,,,,,,,,
503.19999998807907,,memorable_rating,226036,Cape May,,50,,,2,,,,,
null,,confidence_buffer,226146,confidence_buffer,,null,,,,,,,,
null,,thebreak,226648,break,,null,,,,,,,,
1421.5,,familiar_rating,228071,Willowford,,50,Willowford,Fictional,2,,,,,
null,,confidence_buffer,228173,confidence_buffer,,null,,,,,,,,
677.5999999940395,,unique_rating,228852,Willowford,,53,,,5,,,,,
null,,confidence_buffer,228957,confidence_buffer,,null,,,,,,,,
683.9000000059605,,memorable_rating,229642,Willowford,,53,,,5,,,,,
null,,confidence_buffer,229743,confidence_buffer,,null,,,,,,,,
null,,thebreak,230253,break,,null,,,,,,,,
2675.2000000178814,,familiar_rating,232929,Medora,,49,Medora,US,1,,,,,
null,,confidence_buffer,233036,confidence_buffer,,null,,,,,,,,
567.5999999940395,,unique_rating,233605,Medora,,53,,,5,,,,,
null,,confidence_buffer,233707,confidence_buffer,,null,,,,,,,,
533.6999999880791,,memorable_rating,234242,Medora,,53,,,5,,,,,
null,,confidence_buffer,234346,confidence_buffer,,null,,,,,,,,
null,,thebreak,234851,break,,null,,,,,,,,
827.3000000119209,,familiar_rating,235680,Cornwall,,50,Cornwall,US,2,,,,,
null,,confidence_buffer,235787,confidence_buffer,,null,,,,,,,,
766.0999999940395,,unique_rating,236554,Cornwall,,49,,,1,,,,,
null,,confidence_buffer,236657,confidence_buffer,,null,,,,,,,,
1304.4000000059605,,memorable_rating,237963,Cornwall,,53,,,5,,,,,
null,,confidence_buffer,238064,confidence_buffer,,null,,,,,,,,
null,,thebreak,238577,break,,null,,,,,,,,
356.40000000596046,,familiar_rating,238935,Ashford Hills,,50,Ashford Hills,Fictional,2,,,,,
null,,confidence_buffer,239039,confidence_buffer,,null,,,,,,,,
788.5999999940395,,unique_rating,239828,Ashford Hills,,50,,,2,,,,,
null,,confidence_buffer,239932,confidence_buffer,,null,,,,,,,,
724.7000000178814,,memorable_rating,240658,Ashford Hills,,53,,,5,,,,,
null,,confidence_buffer,240764,confidence_buffer,,null,,,,,,,,
null,,thebreak,241265,break,,null,,,,,,,,
471,,familiar_rating,241738,Crestwood,,49,Crestwood,Fictional,1,,,,,
null,,confidence_buffer,241839,confidence_buffer,,null,,,,,,,,
1216.199999988079,,unique_rating,243056,Crestwood,,50,,,2,,,,,
null,,confidence_buffer,243161,confidence_buffer,,null,,,,,,,,
863.9000000059605,,memorable_rating,244026,Crestwood,,50,,,2,,,,,
null,,confidence_buffer,244132,confidence_buffer,,null,,,,,,,,
null,,thebreak,244648,break,,null,,,,,,,,
62,,familiar_rating,244711,Gardnerville,,50,Gardnerville,US,2,,,,,
null,,confidence_buffer,244813,confidence_buffer,,null,,,,,,,,
667.7000000178814,,unique_rating,245482,Gardnerville,,53,,,5,,,,,
null,,confidence_buffer,245588,confidence_buffer,,null,,,,,,,,
665.1999999880791,,memorable_rating,246254,Gardnerville,,50,,,2,,,,,
null,,confidence_buffer,246361,confidence_buffer,,null,,,,,,,,
null,,thebreak,246870,break,,null,,,,,,,,
1296.7999999821186,,familiar_rating,248168,Albuquerque,,50,Albuquerque,US,2,,,,,
null,,confidence_buffer,248271,confidence_buffer,,null,,,,,,,,
900.5999999940395,,unique_rating,249173,Albuquerque,,50,,,2,,,,,
null,,confidence_buffer,249276,confidence_buffer,,null,,,,,,,,
859.2999999821186,,memorable_rating,250136,Albuquerque,,49,,,1,,,,,
null,,confidence_buffer,250245,confidence_buffer,,null,,,,,,,,
null,,thebreak,250759,break,,null,,,,,,,,
304.19999998807907,,familiar_rating,251064,Stonebrook,,50,Stonebrook,Fictional,2,,,,,
null,,confidence_buffer,251172,confidence_buffer,,null,,,,,,,,
993,,unique_rating,252166,Stonebrook,,50,,,2,,,,,
null,,confidence_buffer,252272,confidence_buffer,,null,,,,,,,,
406.40000000596046,,memorable_rating,252680,Stonebrook,,53,,,5,,,,,
null,,confidence_buffer,252782,confidence_buffer,,null,,,,,,,,
null,,thebreak,253294,break,,null,,,,,,,,
630.0999999940395,,familiar_rating,253925,Bar Harbor,,49,Bar Harbor,US,1,,,,,
null,,confidence_buffer,254031,confidence_buffer,,null,,,,,,,,
1237.699999988079,,unique_rating,255270,Bar Harbor,,50,,,2,,,,,
null,,confidence_buffer,255379,confidence_buffer,,null,,,,,,,,
571.4000000059605,,memorable_rating,255952,Bar Harbor,,53,,,5,,,,,
null,,confidence_buffer,256055,confidence_buffer,,null,,,,,,,,
null,,thebreak,256557,break,,null,,,,,,,,
1186,,familiar_rating,257744,Riverlyn,,49,Riverlyn,Fictional,1,,,,,
null,,confidence_buffer,257852,confidence_buffer,,null,,,,,,,,
589.3000000119209,,unique_rating,258442,Riverlyn,,53,,,5,,,,,
null,,confidence_buffer,258550,confidence_buffer,,null,,,,,,,,
544.5999999940395,,memorable_rating,259096,Riverlyn,,53,,,5,,,,,
null,,confidence_buffer,259205,confidence_buffer,,null,,,,,,,,
190.39999997615814,,probe_rating,259396,probe_rating,,50,,,,2,1,,,
null,,confidence_buffer,259502,confidence_buffer,,null,,,,,,,,
null,,thebreak,260003,break,,null,,,,,,,,
521.6999999880791,,familiar_rating,260526,Lakehaven,,53,Lakehaven,Fictional,5,,,,,
null,,confidence_buffer,260628,confidence_buffer,,null,,,,,,,,
600.7999999821186,,unique_rating,261230,Lakehaven,,53,,,5,,,,,
null,,confidence_buffer,261338,confidence_buffer,,null,,,,,,,,
527,,memorable_rating,261866,Lakehaven,,53,,,5,,,,,
null,,confidence_buffer,261974,confidence_buffer,,null,,,,,,,,
682.8000000119209,,probe_rating,262658,probe_rating,,53,,,,5,0,,,
null,,confidence_buffer,262766,confidence_buffer,,null,,,,,,,,
null,,thebreak,263268,break,,null,,,,,,,,
1087.199999988079,,familiar_rating,264356,Orr,,49,Orr,US,1,,,,,
null,,confidence_buffer,264457,confidence_buffer,,null,,,,,,,,
1052.9000000059605,,unique_rating,265511,Orr,,49,,,1,,,,,
null,,confidence_buffer,265612,confidence_buffer,,null,,,,,,,,
678.8000000119209,,memorable_rating,266292,Orr,,53,,,5,,,,,
null,,confidence_buffer,266397,confidence_buffer,,null,,,,,,,,
null,,thebreak,266912,break,,null,,,,,,,,
221.09999999403954,,familiar_rating,267134,Cedarwyn,,53,Cedarwyn,Fictional,5,,,,,
null,,confidence_buffer,267243,confidence_buffer,,null,,,,,,,,
1172.9000000059605,,unique_rating,268416,Cedarwyn,,49,,,1,,,,,
null,,confidence_buffer,268525,confidence_buffer,,null,,,,,,,,
387.30000001192093,,memorable_rating,268913,Cedarwyn,,49,,,1,,,,,
null,,confidence_buffer,269019,confidence_buffer,,null,,,,,,,,
null,,thebreak,269529,break,,null,,,,,,,,
2176.199999988079,,familiar_rating,271706,Brookmere,,50,Brookmere,Fictional,2,,,,,
null,,confidence_buffer,271812,confidence_buffer,,null,,,,,,,,
2780.5,,unique_rating,274593,Brookmere,,53,,,5,,,,,
null,,confidence_buffer,274695,confidence_buffer,,null,,,,,,,,
1942.199999988079,,memorable_rating,276638,Brookmere,,52,,,4,,,,,
null,,confidence_buffer,276742,confidence_buffer,,null,,,,,,,,
null,,thebreak,277245,break,,null,,,,,,,,
1067.199999988079,,familiar_rating,278313,Leesburg,,49,Leesburg,US,1,,,,,
null,,confidence_buffer,278422,confidence_buffer,,null,,,,,,,,
335,,unique_rating,278758,Leesburg,,50,,,2,,,,,
null,,confidence_buffer,278863,confidence_buffer,,null,,,,,,,,
416.59999999403954,,memorable_rating,279281,Leesburg,,49,,,1,,,,,
null,,confidence_buffer,279383,confidence_buffer,,null,,,,,,,,
null,,thebreak,279888,break,,null,,,,,,,,
448.09999999403954,,familiar_rating,280337,Carmel,,52,Carmel,US,4,,,,,
null,,confidence_buffer,280442,confidence_buffer,,null,,,,,,,,
437.2000000178814,,unique_rating,280880,Carmel,,49,,,1,,,,,
null,,confidence_buffer,280988,confidence_buffer,,null,,,,,,,,
374.80000001192093,,memorable_rating,281363,Carmel,,50,,,2,,,,,
null,,confidence_buffer,281466,confidence_buffer,,null,,,,,,,,
null,,thebreak,281975,break,,null,,,,,,,,
104.60000002384186,,familiar_rating,282081,Athens,,52,Athens,US,4,,,,,
null,,confidence_buffer,282189,confidence_buffer,,null,,,,,,,,
905.5999999940395,,unique_rating,283096,Athens,,49,,,1,,,,,
null,,confidence_buffer,283201,confidence_buffer,,null,,,,,,,,
844.8999999761581,,memorable_rating,284047,Athens,,50,,,2,,,,,
null,,confidence_buffer,284155,confidence_buffer,,null,,,,,,,,
null,,thebreak,284658,break,,null,,,,,,,,
187.39999997615814,,familiar_rating,284847,Rosehollow,,52,Rosehollow,Fictional,4,,,,,
null,,confidence_buffer,284953,confidence_buffer,,null,,,,,,,,
7.5999999940395355,,unique_rating,284962,Rosehollow,,49,,,1,,,,,
null,,confidence_buffer,285068,confidence_buffer,,null,,,,,,,,
610.4000000059605,,memorable_rating,285679,Rosehollow,,50,,,2,,,,,
null,,confidence_buffer,285788,confidence_buffer,,null,,,,,,,,
null,,thebreak,286291,break,,null,,,,,,,,
471.7000000178814,,familiar_rating,286764,Berkeley Springs,,50,Berkeley Springs,US,2,,,,,
null,,confidence_buffer,286865,confidence_buffer,,null,,,,,,,,
970.2000000178814,,unique_rating,287836,Berkeley Springs,,52,,,4,,,,,
null,,confidence_buffer,287938,confidence_buffer,,null,,,,,,,,
805.0999999940395,,memorable_rating,288744,Berkeley Springs,,49,,,1,,,,,
null,,confidence_buffer,288849,confidence_buffer,,null,,,,,,,,
null,,thebreak,289357,break,,null,,,,,,,,
499.09999999403954,,familiar_rating,289857,Shreveport,,50,Shreveport,US,2,,,,,
null,,confidence_buffer,289960,confidence_buffer,,null,,,,,,,,
826.3000000119209,,unique_rating,290787,Shreveport,,49,,,1,,,,,
null,,confidence_buffer,290891,confidence_buffer,,null,,,,,,,,
637,,memorable_rating,291529,Shreveport,,50,,,2,,,,,
null,,confidence_buffer,291634,confidence_buffer,,null,,,,,,,,
null,,thebreak,292150,break,,null,,,,,,,,
2093.2999999821186,,familiar_rating,294244,Silverpine,,50,Silverpine,Fictional,2,,,,,
null,,confidence_buffer,294348,confidence_buffer,,null,,,,,,,,
736.0999999940395,,unique_rating,295085,Silverpine,,49,,,1,,,,,
null,,confidence_buffer,295192,confidence_buffer,,null,,,,,,,,
249,,memorable_rating,295442,Silverpine,,52,,,4,,,,,
null,,confidence_buffer,295547,confidence_buffer,,null,,,,,,,,
null,,thebreak,296050,break,,null,,,,,,,,
1694.5,,familiar_rating,297745,Orchard Bend,,49,Orchard Bend,Fictional,1,,,,,
null,,confidence_buffer,297848,confidence_buffer,,null,,,,,,,,
1131.5999999940395,,unique_rating,298981,Orchard Bend,,50,,,2,,,,,
null,,confidence_buffer,299082,confidence_buffer,,null,,,,,,,,
420.09999999403954,,memorable_rating,299503,Orchard Bend,,50,,,2,,,,,
null,,confidence_buffer,299609,confidence_buffer,,null,,,,,,,,
null,,thebreak,300117,break,,null,,,,,,,,
7479.199999988079,,intro_0,307597,instruct,,32,,,,,,,,
5730.0999999940395,,intro_1,313328,instruct,,32,,,,,,,,
11080.800000011921,,intro_2,324410,instruct,,32,,,,,,,,
null,,instruct_dir_4,325914,instruct,,null,,,,,,,,
4120.899999976158,,realistic_rating,330035,Crestwood,,49,Crestwood,Fictional,1,,,,,
null,,confidence_buffer,330145,confidence_buffer,,null,,,,,,,,
1123,,pt2_unique_rating,331269,Crestwood,,50,,,2,,,,,
null,,confidence_buffer,331378,confidence_buffer,,null,,,,,,,,
989.3999999761581,,pt2_memorable_rating,332368,Crestwood,,52,,,4,,,,,
null,,confidence_buffer,332472,confidence_buffer,,null,,,,,,,,
549.5,,probe_rating,333022,probe_rating,,50,,,,2,1,,,
null,,confidence_buffer,333125,confidence_buffer,,null,,,,,,,,
1267.0999999940395,,recognition_phase,334393,Crestwood,,50,,,,,,old,1,1
null,,confidence_buffer,334495,confidence_buffer,,null,,,,,,,,
null,,thebreak,335001,break,,null,,,,,,,,
1383.5,,realistic_rating,336385,San Antonio,,49,San Antonio,US,1,,,,,
null,,confidence_buffer,336488,confidence_buffer,,null,,,,,,,,
676,,pt2_unique_rating,337165,San Antonio,,50,,,2,,,,,
null,,confidence_buffer,337270,confidence_buffer,,null,,,,,,,,
672.7000000178814,,pt2_memorable_rating,337944,San Antonio,,52,,,4,,,,,
null,,confidence_buffer,338052,confidence_buffer,,null,,,,,,,,
728.7999999821186,,recognition_phase,338782,San Antonio,,49,,,,,,old,0,0.5
null,,confidence_buffer,338886,confidence_buffer,,null,,,,,,,,
null,,thebreak,339396,break,,null,,,,,,,,
1276.0999999940395,,realistic_rating,340673,Driftwood Bay,,50,Driftwood Bay,Fictional,2,,,,,
null,,confidence_buffer,340778,confidence_buffer,,null,,,,,,,,
620.3000000119209,,pt2_unique_rating,341400,Driftwood Bay,,52,,,4,,,,,
null,,confidence_buffer,341506,confidence_buffer,,null,,,,,,,,
576.6999999880791,,pt2_memorable_rating,342083,Driftwood Bay,,49,,,1,,,,,
null,,confidence_buffer,342186,confidence_buffer,,null,,,,,,,,
578,,recognition_phase,342765,Driftwood Bay,,52,,,,,,new,0,0.3333333333333333
null,,confidence_buffer,342868,confidence_buffer,,null,,,,,,,,
null,,thebreak,343379,break,,null,,,,,,,,
859.1999999880791,,realistic_rating,344239,Silverpine,,49,Silverpine,Fictional,1,,,,,
null,,confidence_buffer,344345,confidence_buffer,,null,,,,,,,,
685.8000000119209,,pt2_unique_rating,345032,Silverpine,,52,,,4,,,,,
null,,confidence_buffer,345137,confidence_buffer,,null,,,,,,,,
551,,pt2_memorable_rating,345689,Silverpine,,50,,,2,,,,,
null,,confidence_buffer,345793,confidence_buffer,,null,,,,,,,,
685.3000000119209,,recognition_phase,346479,Silverpine,,50,,,,,,old,1,0.5
null,,confidence_buffer,346588,confidence_buffer,,null,,,,,,,,
null,,thebreak,347095,break,,null,,,,,,,,
698.5,,realistic_rating,347794,Boulder,,52,Boulder,US,4,,,,,
null,,confidence_buffer,347897,confidence_buffer,,null,,,,,,,,
831.5,,pt2_unique_rating,348730,Boulder,,49,,,1,,,,,
null,,confidence_buffer,348835,confidence_buffer,,null,,,,,,,,
632.5999999940395,,pt2_memorable_rating,349468,Boulder,,52,,,4,,,,,
null,,confidence_buffer,349577,confidence_buffer,,null,,,,,,,,
587.6999999880791,,recognition_phase,350165,Boulder,,50,,,,,,old,0,0.4
null,,confidence_buffer,350269,confidence_buffer,,null,,,,,,,,
null,,thebreak,350776,break,,null,,,,,,,,
951.7000000178814,,realistic_rating,351729,Park City,,49,Park City,US,1,,,,,
null,,confidence_buffer,351835,confidence_buffer,,null,,,,,,,,
790.1000000238419,,pt2_unique_rating,352626,Park City,,50,,,2,,,,,
null,,confidence_buffer,352733,confidence_buffer,,null,,,,,,,,
2.2000000178813934,,probe_rating,352737,probe_rating,,52,,,,4,0,,,
null,,confidence_buffer,352840,confidence_buffer,,null,,,,,,,,
839.0999999940395,,pt2_memorable_rating,353680,Park City,,50,,,2,,,,,
null,,confidence_buffer,353782,confidence_buffer,,null,,,,,,,,
854.8000000119209,,recognition_phase,354638,Park City,,50,,,,,,old,0,0.3333333333333333
null,,confidence_buffer,354754,confidence_buffer,,null,,,,,,,,
null,,thebreak,355259,break,,null,,,,,,,,
878,,realistic_rating,356138,Westridge,,49,Westridge,Fictional,1,,,,,
null,,confidence_buffer,356242,confidence_buffer,,null,,,,,,,,
1366.5999999940395,,pt2_unique_rating,357610,Westridge,,52,,,4,,,,,
null,,confidence_buffer,357726,confidence_buffer,,null,,,,,,,,
767.0999999940395,,pt2_memorable_rating,358494,Westridge,,50,,,2,,,,,
null,,confidence_buffer,358601,confidence_buffer,,null,,,,,,,,
915.3000000119209,,recognition_phase,359517,Westridge,,49,,,,,,old,0,0.2857142857142857
null,,confidence_buffer,359624,confidence_buffer,,null,,,,,,,,
null,,thebreak,360125,break,,null,,,,,,,,
958.0999999940395,,realistic_rating,361084,Linden Trace,,52,Linden Trace,Fictional,4,,,,,
null,,confidence_buffer,361190,confidence_buffer,,null,,,,,,,,
518.2999999821186,,pt2_unique_rating,361709,Linden Trace,,50,,,2,,,,,
null,,confidence_buffer,361812,confidence_buffer,,null,,,,,,,,
625.7000000178814,,pt2_memorable_rating,362439,Linden Trace,,49,,,1,,,,,
null,,confidence_buffer,362542,confidence_buffer,,null,,,,,,,,
990.5,,recognition_phase,363534,Linden Trace,,49,,,,,,old,0,0.25
null,,confidence_buffer,363640,confidence_buffer,,null,,,,,,,,
null,,thebreak,364144,break,,null,,,,,,,,
225.59999999403954,,realistic_rating,364370,Peoria,,50,Peoria,US,2,,,,,
null,,confidence_buffer,364484,confidence_buffer,,null,,,,,,,,
590.5,,pt2_unique_rating,365075,Peoria,,49,,,1,,,,,
null,,confidence_buffer,365179,confidence_buffer,,null,,,,,,,,
499.5,,pt2_memorable_rating,365679,Peoria,,50,,,2,,,,,
null,,confidence_buffer,365783,confidence_buffer,,null,,,,,,,,
745.4000000059605,,probe_rating,366530,probe_rating,,49,,,,1,0,,,
null,,confidence_buffer,366633,confidence_buffer,,null,,,,,,,,
1209.5,,recognition_phase,367844,Peoria,,50,,,,,,old,0,0.2222222222222222
null,,confidence_buffer,367948,confidence_buffer,,null,,,,,,,,
null,,thebreak,368456,break,,null,,,,,,,,
866.2000000178814,,realistic_rating,369323,Medora,,52,Medora,US,4,,,,,
null,,confidence_buffer,369430,confidence_buffer,,null,,,,,,,,
823.9000000059605,,pt2_unique_rating,370255,Medora,,50,,,2,,,,,
null,,confidence_buffer,370360,confidence_buffer,,null,,,,,,,,
523,,pt2_memorable_rating,370884,Medora,,49,,,1,,,,,
null,,confidence_buffer,370989,confidence_buffer,,null,,,,,,,,
1006.3000000119209,,recognition_phase,371996,Medora,,50,,,,,,old,1,0.3
null,,confidence_buffer,372098,confidence_buffer,,null,,,,,,,,
null,,thebreak,372610,break,,null,,,,,,,,
1013.5,,realistic_rating,373625,Berkeley Springs,,49,Berkeley Springs,US,1,,,,,
null,,confidence_buffer,373732,confidence_buffer,,null,,,,,,,,
953.5999999940395,,pt2_unique_rating,374687,Berkeley Springs,,50,,,2,,,,,
null,,confidence_buffer,374788,confidence_buffer,,null,,,,,,,,
866,,pt2_memorable_rating,375655,Berkeley Springs,,49,,,1,,,,,
null,,confidence_buffer,375758,confidence_buffer,,null,,,,,,,,
1024.300000011921,,recognition_phase,376783,Berkeley Springs,,50,,,,,,old,1,0.36363636363636365
null,,confidence_buffer,376890,confidence_buffer,,null,,,,,,,,
null,,thebreak,377397,break,,null,,,,,,,,
311,,realistic_rating,377709,Millstone,,50,Millstone,Fictional,2,,,,,
null,,confidence_buffer,377816,confidence_buffer,,null,,,,,,,,
662.2000000178814,,pt2_unique_rating,378479,Millstone,,49,,,1,,,,,
null,,confidence_buffer,378580,confidence_buffer,,null,,,,,,,,
600.0999999940395,,pt2_memorable_rating,379182,Millstone,,52,,,4,,,,,
null,,confidence_buffer,379289,confidence_buffer,,null,,,,,,,,
760.1000000238419,,recognition_phase,380051,Millstone,,49,,,,,,old,0,0.3333333333333333
null,,confidence_buffer,380160,confidence_buffer,,null,,,,,,,,
null,,thebreak,380662,break,,null,,,,,,,,
512.7999999821186,,realistic_rating,381176,Sitka,,50,Sitka,US,2,,,,,
null,,confidence_buffer,381280,confidence_buffer,,null,,,,,,,,
935,,pt2_unique_rating,382216,Sitka,,52,,,4,,,,,
null,,confidence_buffer,382323,confidence_buffer,,null,,,,,,,,
459.40000000596046,,pt2_memorable_rating,382783,Sitka,,50,,,2,,,,,
null,,confidence_buffer,382886,confidence_buffer,,null,,,,,,,,
793.1999999880791,,recognition_phase,383680,Sitka,,50,,,,,,old,1,0.38461538461538464
null,,confidence_buffer,383784,confidence_buffer,,null,,,,,,,,
null,,thebreak,384292,break,,null,,,,,,,,
1040.5,,realistic_rating,385334,Cedarwyn,,50,Cedarwyn,Fictional,2,,,,,
null,,confidence_buffer,385439,confidence_buffer,,null,,,,,,,,
730,,pt2_unique_rating,386170,Cedarwyn,,50,,,2,,,,,
null,,confidence_buffer,386281,confidence_buffer,,null,,,,,,,,
554.2000000178814,,pt2_memorable_rating,386836,Cedarwyn,,52,,,4,,,,,
null,,confidence_buffer,386939,confidence_buffer,,null,,,,,,,,
744.5,,recognition_phase,387684,Cedarwyn,,50,,,,,,old,1,0.42857142857142855
null,,confidence_buffer,387786,confidence_buffer,,null,,,,,,,,
null,,thebreak,388289,break,,null,,,,,,,,
543,,realistic_rating,388833,Northbridge,,49,Northbridge,Fictional,1,,,,,
null,,confidence_buffer,388938,confidence_buffer,,null,,,,,,,,
805.2000000178814,,pt2_unique_rating,389744,Northbridge,,52,,,4,,,,,
null,,confidence_buffer,389856,confidence_buffer,,null,,,,,,,,
703.3000000119209,,pt2_memorable_rating,390560,Northbridge,,52,,,4,,,,,
null,,confidence_buffer,390666,confidence_buffer,,null,,,,,,,,
973.1999999880791,,recognition_phase,391640,Northbridge,,52,,,,,,new,1,0.4666666666666667
null,,confidence_buffer,391747,confidence_buffer,,null,,,,,,,,
null,,thebreak,392249,break,,null,,,,,,,,
749.0999999940395,,realistic_rating,393000,Fairhaven,,52,Fairhaven,Fictional,4,,,,,
null,,confidence_buffer,393105,confidence_buffer,,null,,,,,,,,
540.1000000238419,,pt2_unique_rating,393646,Fairhaven,,50,,,2,,,,,
null,,confidence_buffer,393754,confidence_buffer,,null,,,,,,,,
888.2000000178814,,pt2_memorable_rating,394644,Fairhaven,,52,,,4,,,,,
null,,confidence_buffer,394747,confidence_buffer,,null,,,,,,,,
758,,recognition_phase,395507,Fairhaven,,49,,,,,,old,0,0.4375
null,,confidence_buffer,395609,confidence_buffer,,null,,,,,,,,
null,,thebreak,396114,break,,null,,,,,,,,
631.6999999880791,,realistic_rating,396747,West Talora,,52,West Talora,Fictional,4,,,,,
null,,confidence_buffer,396852,confidence_buffer,,null,,,,,,,,
506.59999999403954,,pt2_unique_rating,397360,West Talora,,49,,,1,,,,,
null,,confidence_buffer,397466,confidence_buffer,,null,,,,,,,,
486.7999999821186,,probe_rating,397954,probe_rating,,50,,,,2,0,,,
