"rt","responses","trial_type","time_elapsed","sequence","stimulus","cities","city_images","button_pressed","response","key_press","stimulus_left","stimulus_right","accuracy","cumulative_accuracy","stimulus_down_left","stimulus_down_mid","stimulus_down_right","stimulus_correct","stimulus_short","stimulus_far","weighted_accuracy","missedtrial","condition","specific_pairs","imgL_ID","imgR_ID","linedress","linedressed","linedressed_detor","detour_trial","testedstates","currentstate","otherstate","problems","smooth","distraction","strategies","easier","similar","comments"
"69327","{""worker_id"":""3026""}","id_enter","69328","blocked","intro","West Palm Beach; New Hope; Boulder; Peoria; Gatlinburg; Shreveport; Hot Springs; Carmel; Huntsville; Racine; Leesburg; Cornwall; Hanover","US_Cities_List/westpalmbeach.png; US_Cities_List/newhope.png; US_Cities_List/boulder.png; US_Cities_List/peoria.png; US_Cities_List/gatlinburg.png; US_Cities_List/shreveport.png; US_Cities_List/hotsprings.png; US_Cities_List/carmel.png; US_Cities_List/huntsville.png; US_Cities_List/racine.png; US_Cities_List/leesburg.png; US_Cities_List/cornwall.png; US_Cities_List/hanover.png","","","","","","","","","","","","","","","","","","","","","","","","","","","","","","","","",""
"4593.60000000149","","fullscreen","73925","","make_fullscreen","","","0","","","","","","","","","","","","","","","","","","","","","","","","","","","","","","","",""
"20196.39999999851","","intro_1","94124","","instruct","","","0","","","","","","","","","","","","","","","","","","","","","","","","","","","","","","","",""
"18717.400000000373","","intro_2","112845","","instruct","","","1","Next","","","","","","","","","","","","","","","","","","","","","","","","","","","","","","",""
"13949.5","","intro_3","126796","","instruct","","","1","Next","","","","","","","","","","","","","","","","","","","","","","","","","","","","","","",""
"54645.5","","intro_4","181445","","instruct","","","1","Next","","","","","","","","","","","","","","","","","","","","","","","","","","","","","","",""
"9460.900000000373","","intro_5","190908","","instruct","","","1","Next","","","","","","","","","","","","","","","","","","","","","","","","","","","","","","",""
"16406.099999999627","","intro_6","207317","","instruct","","","1","Next","","","","","","","","","","","","","","","","","","","","","","","","","","","","","","",""
"7894.299999998882","","intro_7","215213","","instruct","","","1","Next","","","","","","","","","","","","","","","","","","","","","","","","","","","","","","",""
"null","","learn_prac_1","218218","","lean_prac_1","","","","","null","","","","","","","","","","","","","","","","","","","","","","","","","","","","","",""
"null","","html-keyboard-response","219221","","<p></p>","","","","","null","","","","","","","","","","","","","","","","","","","","","","","","","","","","","",""
"4670.300000000745","","intro_1","223893","","instruct","","","0","","","","","","","","","","","","","","","","","","","","","","","","","","","","","","","",""
"5677.700000001118","","intro_2","229573","","instruct","","","1","Next","","","","","","","","","","","","","","","","","","","","","","","","","","","","","","",""
"null","","learn_prac_2","232577","","lean_prac_2","","","","","null","","","","","","","","","","","","","","","","","","","","","","","","","","","","","",""
"null","","html-keyboard-response","233581","","<p></p>","","","","","null","","","","","","","","","","","","","","","","","","","","","","","","","","","","","",""
"2654.7999999988824","","intro_1","236237","","instruct","","","0","","","","","","","","","","","","","","","","","","","","","","","","","","","","","","","",""
"5438","","intro_2","241677","","instruct","","","1","Next","","","","","","","","","","","","","","","","","","","","","","","","","","","","","","",""
"41957.90000000037","","intro_3","283638","","instruct","","","1","Next","","","","","","","","","","","","","","","","","","","","","","","","","","","","","","",""
"null","","prac_atten_color_black","284148","","black_plus_sign","","","","","null","","","","","","","","","","","","","","","","","","","","","","","","","","","","","",""
"604.2999999988824","","prac_atten_color","285044","","prac_stop_color","","","","","49","","","","","","","","","","","","","","","","","","","","","","","","","","","","","",""
"null","","prac_atten_color_black","287047","","black_plus_sign","","","","","null","","","","","","","","","","","","","","","","","","","","","","","","","","","","","",""
"null","","prac_atten_color_black","287559","","black_plus_sign","","","","","null","","","","","","","","","","","","","","","","","","","","","","","","","","","","","",""
"null","","prac_atten_color","288020","","prac_stop_color","","","","","null","","","","","","","","","","","","","","","","","","","","","","","","","","","","","",""
"131.69999999925494","","prac_atten_color_black","290023","","black_plus_sign","","","","","50","","","","","","","","","","","","","","","","","","","","","","","","","","","","","",""
"null","","prac_atten_color_black","290969","","black_plus_sign","","","","","null","","","","","","","","","","","","","","","","","","","","","","","","","","","","","",""
"599.5999999996275","","prac_atten_color","291793","","prac_stop_color","","","","","50","","","","","","","","","","","","","","","","","","","","","","","","","","","","","",""
"null","","prac_atten_color_black","293796","","black_plus_sign","","","","","null","","","","","","","","","","","","","","","","","","","","","","","","","","","","","",""
"null","","prac_atten_color_black","294380","","black_plus_sign","","","","","null","","","","","","","","","","","","","","","","","","","","","","","","","","","","","",""
"491.90000000037253","","prac_atten_color","294915","","prac_stop_color","","","","","49","","","","","","","","","","","","","","","","","","","","","","","","","","","","","",""
"null","","prac_atten_color_black","296918","","black_plus_sign","","","","","null","","","","","","","","","","","","","","","","","","","","","","","","","","","","","",""
"null","","prac_atten_color_black","297790","","black_plus_sign","","","","","null","","","","","","","","","","","","","","","","","","","","","","","","","","","","","",""
"425.5","","prac_atten_color","298404","","prac_stop_color","","","","","50","","","","","","","","","","","","","","","","","","","","","","","","","","","","","",""
"null","","prac_atten_color_black","300406","","black_plus_sign","","","","","null","","","","","","","","","","","","","","","","","","","","","","","","","","","","","",""
"null","","prac_atten_color_black","301200","","black_plus_sign","","","","","null","","","","","","","","","","","","","","","","","","","","","","","","","","","","","",""
"414.7999999988824","","prac_atten_color","301965","","prac_stop_color","","","","","50","","","","","","","","","","","","","","","","","","","","","","","","","","","","","",""
"null","","prac_atten_color_black","303968","","black_plus_sign","","","","","null","","","","","","","","","","","","","","","","","","","","","","","","","","","","","",""
"null","","prac_atten_color_black","304610","","black_plus_sign","","","","","null","","","","","","","","","","","","","","","","","","","","","","","","","","","","","",""
"661.5999999996275","","prac_atten_color","305387","","prac_stop_color","","","","","49","","","","","","","","","","","","","","","","","","","","","","","","","","","","","",""
"null","","prac_atten_color_black","307391","","black_plus_sign","","","","","null","","","","","","","","","","","","","","","","","","","","","","","","","","","","","",""
"null","","prac_atten_color_black","308020","","black_plus_sign","","","","","null","","","","","","","","","","","","","","","","","","","","","","","","","","","","","",""
"442.90000000037253","","prac_atten_color","308600","","prac_stop_color","","","","","50","","","","","","","","","","","","","","","","","","","","","","","","","","","","","",""
"null","","prac_atten_color_black","310603","","black_plus_sign","","","","","null","","","","","","","","","","","","","","","","","","","","","","","","","","","","","",""
"null","","prac_atten_color_black","311431","","black_plus_sign","","","","","null","","","","","","","","","","","","","","","","","","","","","","","","","","","","","",""
"null","","prac_atten_color","311897","","prac_stop_color","","","","","null","","","","","","","","","","","","","","","","","","","","","","","","","","","","","",""
"13.799999998882413","","prac_atten_color_black","313900","","black_plus_sign","","","","","49","","","","","","","","","","","","","","","","","","","","","","","","","","","","","",""
"null","","prac_atten_color_black","314840","","black_plus_sign","","","","","null","","","","","","","","","","","","","","","","","","","","","","","","","","","","","",""
"null","","prac_atten_color","315376","","prac_stop_color","","","","","null","","","","","","","","","","","","","","","","","","","","","","","","","","","","","",""
"41.30000000074506","","prac_atten_color_black","317379","","black_plus_sign","","","","","49","","","","","","","","","","","","","","","","","","","","","","","","","","","","","",""
"8496.199999999255","","attentioncheck_feedback","325878","","cross_check_feedback","","","0","","","","","","","","","","","","","","","","","","","","","","","","","","","","","","","",""
"13267.099999999627","","last_instruct","339146","","instruct","","","","","32","","","","","","","","","","","","","","","","","","","","","","","","","","","","","",""
"null","","learn_phase(without_color)","342161","","black_plus_sign","","","","","null","US_Cities_List/cornwall.png","US_Cities_List/peoria.png","","","","","","","","","","","","","","","","","","","","","","","","","","","",""
"null","","black_cross(without_color)","343057","","yellow","","","","","null","US_Cities_List/cornwall.png","US_Cities_List/peoria.png","","","","","","","","","","","","","","","","","","","","","","","","","","","",""
"null","","rt_plussign_withcolor","343560","","yellow","","","","","null","US_Cities_List/cornwall.png","US_Cities_List/peoria.png","","","","","","","","","","","","","","","","","","","","","","","","","","","",""
"856.0999999996275","","rt_thecrossant_black","344671","","black_plus_sign","","","","","50","","","1","1","","","","","","","","","","","","","","","","","","","","","","","","","",""
"null","","color_black","344775","","black_plus_sign","","","","","null","","","","","","","","","","","","","","","","","","","","","","","","","","","","","",""
"null","","learn_phase(without_color)","347788","","black_plus_sign","","","","","null","US_Cities_List/leesburg.png","US_Cities_List/boulder.png","","","","","","","","","","","","","","","","","","","","","","","","","","","",""
"null","","black_cross(without_color)","348529","","blue","","","","","null","US_Cities_List/leesburg.png","US_Cities_List/boulder.png","","","","","","","","","","","","","","","","","","","","","","","","","","","",""
"null","","rt_plussign_withcolor","349031","","blue","","","","","null","US_Cities_List/leesburg.png","US_Cities_List/boulder.png","","","","","","","","","","","","","","","","","","","","","","","","","","","",""
"1186.0999999996275","","rt_thecrossant_black","350296","","black_plus_sign","","","","","49","","","1","1","","","","","","","","","","","","","","","","","","","","","","","","","",""
"null","","color_black","350399","","black_plus_sign","","","","","null","","","","","","","","","","","","","","","","","","","","","","","","","","","","","",""
"null","","learn_phase(without_color)","353417","","black_plus_sign","","","","","null","US_Cities_List/peoria.png","US_Cities_List/cornwall.png","","","","","","","","","","","","","","","","","","","","","","","","","","","",""
"null","","black_cross(without_color)","353969","","blue","","","","","null","US_Cities_List/peoria.png","US_Cities_List/cornwall.png","","","","","","","","","","","","","","","","","","","","","","","","","","","",""
"null","","rt_plussign_withcolor","354472","","blue","","","","","null","US_Cities_List/peoria.png","US_Cities_List/cornwall.png","","","","","","","","","","","","","","","","","","","","","","","","","","","",""
"1278.2999999988824","","rt_thecrossant_black","355926","","black_plus_sign","","","","","49","","","1","1","","","","","","","","","","","","","","","","","","","","","","","","","",""
"null","","color_black","356029","","black_plus_sign","","","","","null","","","","","","","","","","","","","","","","","","","","","","","","","","","","","",""
"null","","learn_phase(without_color)","359040","","black_plus_sign","","","","","null","US_Cities_List/huntsville.png","US_Cities_List/hotsprings.png","","","","","","","","","","","","","","","","","","","","","","","","","","","",""
"null","","black_cross(without_color)","359574","","yellow","","","","","null","US_Cities_List/huntsville.png","US_Cities_List/hotsprings.png","","","","","","","","","","","","","","","","","","","","","","","","","","","",""
"null","","rt_plussign_withcolor","360077","","yellow","","","","","null","US_Cities_List/huntsville.png","US_Cities_List/hotsprings.png","","","","","","","","","","","","","","","","","","","","","","","","","","","",""
"717.8000000007451","","rt_thecrossant_black","361548","","black_plus_sign","","","","","50","","","1","1","","","","","","","","","","","","","","","","","","","","","","","","","",""
"null","","color_black","361652","","black_plus_sign","","","","","null","","","","","","","","","","","","","","","","","","","","","","","","","","","","","",""
"null","","learn_phase(without_color)","364667","","black_plus_sign","","","","","null","US_Cities_List/leesburg.png","US_Cities_List/boulder.png","","","","","","","","","","","","","","","","","","","","","","","","","","","",""
"null","","black_cross(without_color)","365686","","yellow","","","","","null","US_Cities_List/leesburg.png","US_Cities_List/boulder.png","","","","","","","","","","","","","","","","","","","","","","","","","","","",""
"null","","rt_plussign_withcolor","366188","","yellow","","","","","null","US_Cities_List/leesburg.png","US_Cities_List/boulder.png","","","","","","","","","","","","","","","","","","","","","","","","","","","",""
"892.1000000014901","","rt_thecrossant_black","367176","","black_plus_sign","","","","","50","","","1","1","","","","","","","","","","","","","","","","","","","","","","","","","",""
"null","","color_black","367279","","black_plus_sign","","","","","null","","","","","","","","","","","","","","","","","","","","","","","","","","","","","",""
"null","","learn_phase(without_color)","370292","","black_plus_sign","","","","","null","US_Cities_List/huntsville.png","US_Cities_List/hotsprings.png","","","","","","","","","","","","","","","","","","","","","","","","","","","",""
"null","","black_cross(without_color)","370820","","blue","","","","","null","US_Cities_List/huntsville.png","US_Cities_List/hotsprings.png","","","","","","","","","","","","","","","","","","","","","","","","","","","",""
"null","","rt_plussign_withcolor","371323","","blue","","","","","null","US_Cities_List/huntsville.png","US_Cities_List/hotsprings.png","","","","","","","","","","","","","","","","","","","","","","","","","","","",""
"1297.9000000003725","","rt_thecrossant_black","372801","","black_plus_sign","","","","","49","","","1","1","","","","","","","","","","","","","","","","","","","","","","","","","",""
"null","","color_black","372904","","black_plus_sign","","","","","null","","","","","","","","","","","","","","","","","","","","","","","","","","","","","",""
"null","","learn_phase(without_color)","375918","","black_plus_sign","","","","","null","US_Cities_List/westpalmbeach.png","US_Cities_List/newhope.png","","","","","","","","","","","","","","","","","","","","","","","","","","","",""
"null","","black_cross(without_color)","376506","","yellow","","","","","null","US_Cities_List/westpalmbeach.png","US_Cities_List/newhope.png","","","","","","","","","","","","","","","","","","","","","","","","","","","",""
"null","","rt_plussign_withcolor","377009","","yellow","","","","","null","US_Cities_List/westpalmbeach.png","US_Cities_List/newhope.png","","","","","","","","","","","","","","","","","","","","","","","","","","","",""
"992.8000000007451","","rt_thecrossant_black","378427","","black_plus_sign","","","","","50","","","1","1","","","","","","","","","","","","","","","","","","","","","","","","","",""
"null","","color_black","378529","","black_plus_sign","","","","","null","","","","","","","","","","","","","","","","","","","","","","","","","","","","","",""
"null","","learn_phase(without_color)","381540","","black_plus_sign","","","","","null","US_Cities_List/huntsville.png","US_Cities_List/hotsprings.png","","","","","","","","","","","","","","","","","","","","","","","","","","","",""
"null","","black_cross(without_color)","382025","","yellow","","","","","null","US_Cities_List/huntsville.png","US_Cities_List/hotsprings.png","","","","","","","","","","","","","","","","","","","","","","","","","","","",""
"null","","rt_plussign_withcolor","382527","","yellow","","","","","null","US_Cities_List/huntsville.png","US_Cities_List/hotsprings.png","","","","","","","","","","","","","","","","","","","","","","","","","","","",""
"919.1999999992549","","rt_thecrossant_black","384049","","black_plus_sign","","","","","50","","","1","1","","","","","","","","","","","","","","","","","","","","","","","","","",""
"null","","color_black","384151","","black_plus_sign","","","","","null","","","","","","","","","","","","","","","","","","","","","","","","","","","","","",""
"null","","learn_phase(without_color)","387166","","black_plus_sign","","","","","null","US_Cities_List/peoria.png","US_Cities_List/cornwall.png","","","","","","","","","","","","","","","","","","","","","","","","","","","",""
"null","","black_cross(without_color)","387747","","blue","","","","","null","US_Cities_List/peoria.png","US_Cities_List/cornwall.png","","","","","","","","","","","","","","","","","","","","","","","","","","","",""
"null","","rt_plussign_withcolor","388250","","blue","","","","","null","US_Cities_List/peoria.png","US_Cities_List/cornwall.png","","","","","","","","","","","","","","","","","","","","","","","","","","","",""
"756.7999999988824","","rt_thecrossant_black","389676","","black_plus_sign","","","","","49","","","1","1","","","","","","","","","","","","","","","","","","","","","","","","","",""
"null","","color_black","389779","","black_plus_sign","","","","","null","","","","","","","","","","","","","","","","","","","","","","","","","","","","","",""
"null","","learn_phase(without_color)","392790","","black_plus_sign","","","","","null","US_Cities_List/leesburg.png","US_Cities_List/boulder.png","","","","","","","","","","","","","","","","","","","","","","","","","","","",""
"null","","black_cross(without_color)","393677","","yellow","","","","","null","US_Cities_List/leesburg.png","US_Cities_List/boulder.png","","","","","","","","","","","","","","","","","","","","","","","","","","","",""
"null","","rt_plussign_withcolor","394180","","yellow","","","","","null","US_Cities_List/leesburg.png","US_Cities_List/boulder.png","","","","","","","","","","","","","","","","","","","","","","","","","","","",""
"979.3000000007451","","rt_thecrossant_black","395300","","black_plus_sign","","","","","50","","","1","1","","","","","","","","","","","","","","","","","","","","","","","","","",""
"null","","color_black","395402","","black_plus_sign","","","","","null","","","","","","","","","","","","","","","","","","","","","","","","","","","","","",""
"null","","learn_phase(without_color)","398415","","black_plus_sign","","","","","null","US_Cities_List/hotsprings.png","US_Cities_List/huntsville.png","","","","","","","","","","","","","","","","","","","","","","","","","","","",""
"null","","black_cross(without_color)","399102","","blue","","","","","null","US_Cities_List/hotsprings.png","US_Cities_List/huntsville.png","","","","","","","","","","","","","","","","","","","","","","","","","","","",""
"null","","rt_plussign_withcolor","399604","","blue","","","","","null","US_Cities_List/hotsprings.png","US_Cities_List/huntsville.png","","","","","","","","","","","","","","","","","","","","","","","","","","","",""
"1364.2000000011176","","rt_thecrossant_black","400924","","black_plus_sign","","","","","49","","","1","1","","","","","","","","","","","","","","","","","","","","","","","","","",""
"null","","color_black","401027","","black_plus_sign","","","","","null","","","","","","","","","","","","","","","","","","","","","","","","","","","","","",""
"null","","learn_phase(without_color)","404043","","black_plus_sign","","","","","null","US_Cities_List/westpalmbeach.png","US_Cities_List/newhope.png","","","","","","","","","","","","","","","","","","","","","","","","","","","",""
"null","","black_cross(without_color)","404633","","yellow","","","","","null","US_Cities_List/westpalmbeach.png","US_Cities_List/newhope.png","","","","","","","","","","","","","","","","","","","","","","","","","","","",""
"null","","rt_plussign_withcolor","405135","","yellow","","","","","null","US_Cities_List/westpalmbeach.png","US_Cities_List/newhope.png","","","","","","","","","","","","","","","","","","","","","","","","","","","",""
"954.3000000007451","","rt_thecrossant_black","406551","","black_plus_sign","","","","","50","","","1","1","","","","","","","","","","","","","","","","","","","","","","","","","",""
"null","","color_black","406654","","black_plus_sign","","","","","null","","","","","","","","","","","","","","","","","","","","","","","","","","","","","",""
"null","","learn_phase(without_color)","409666","","black_plus_sign","","","","","null","US_Cities_List/hotsprings.png","US_Cities_List/huntsville.png","","","","","","","","","","","","","","","","","","","","","","","","","","","",""
"null","","black_cross(without_color)","410232","","blue","","","","","null","US_Cities_List/hotsprings.png","US_Cities_List/huntsville.png","","","","","","","","","","","","","","","","","","","","","","","","","","","",""
"null","","rt_plussign_withcolor","410735","","blue","","","","","null","US_Cities_List/hotsprings.png","US_Cities_List/huntsville.png","","","","","","","","","","","","","","","","","","","","","","","","","","","",""
"809.5","","rt_thecrossant_black","412175","","black_plus_sign","","","","","49","","","1","1","","","","","","","","","","","","","","","","","","","","","","","","","",""
"null","","color_black","412278","","black_plus_sign","","","","","null","","","","","","","","","","","","","","","","","","","","","","","","","","","","","",""
"null","","learn_phase(without_color)","415293","","black_plus_sign","","","","","null","US_Cities_List/westpalmbeach.png","US_Cities_List/newhope.png","","","","","","","","","","","","","","","","","","","","","","","","","","","",""
"null","","black_cross(without_color)","416241","","blue","","","","","null","US_Cities_List/westpalmbeach.png","US_Cities_List/newhope.png","","","","","","","","","","","","","","","","","","","","","","","","","","","",""
"null","","rt_plussign_withcolor","416743","","blue","","","","","null","US_Cities_List/westpalmbeach.png","US_Cities_List/newhope.png","","","","","","","","","","","","","","","","","","","","","","","","","","","",""
"928.9000000003725","","rt_thecrossant_black","417802","","black_plus_sign","","","","","49","","","1","1","","","","","","","","","","","","","","","","","","","","","","","","","",""
"null","","color_black","417905","","black_plus_sign","","","","","null","","","","","","","","","","","","","","","","","","","","","","","","","","","","","",""
"null","","learn_phase(without_color)","420916","","black_plus_sign","","","","","null","US_Cities_List/hotsprings.png","US_Cities_List/huntsville.png","","","","","","","","","","","","","","","","","","","","","","","","","","","",""
"null","","black_cross(without_color)","421322","","yellow","","","","","null","US_Cities_List/hotsprings.png","US_Cities_List/huntsville.png","","","","","","","","","","","","","","","","","","","","","","","","","","","",""
"null","","rt_plussign_withcolor","421824","","yellow","","","","","null","US_Cities_List/hotsprings.png","US_Cities_List/huntsville.png","","","","","","","","","","","","","","","","","","","","","","","","","","","",""
"1261.699999999255","","rt_thecrossant_black","423425","","black_plus_sign","","","","","50","","","1","1","","","","","","","","","","","","","","","","","","","","","","","","","",""
"null","","color_black","423528","","black_plus_sign","","","","","null","","","","","","","","","","","","","","","","","","","","","","","","","","","","","",""
"null","","learn_phase(without_color)","426544","","black_plus_sign","","","","","null","US_Cities_List/newhope.png","US_Cities_List/westpalmbeach.png","","","","","","","","","","","","","","","","","","","","","","","","","","","",""
"null","","black_cross(without_color)","427567","","blue","","","","","null","US_Cities_List/newhope.png","US_Cities_List/westpalmbeach.png","","","","","","","","","","","","","","","","","","","","","","","","","","","",""
"458.59999999962747","","rt_plussign_withcolor","428070","","blue","","","","","49","US_Cities_List/newhope.png","US_Cities_List/westpalmbeach.png","","","","","","","","","","","","","","","","","","","","","","","","","","","",""
"null","","rt_thecrossant_black","429053","","black_plus_sign","","","","","null","","","1","1","","","","","","","","","","","","","","","","","","","","","","","","","",""
"null","","color_black","429156","","black_plus_sign","","","","","null","","","","","","","","","","","","","","","","","","","","","","","","","","","","","",""
"null","","learn_phase(without_color)","432171","","black_plus_sign","","","","","null","US_Cities_List/peoria.png","US_Cities_List/cornwall.png","","","","","","","","","","","","","","","","","","","","","","","","","","","",""
"null","","black_cross(without_color)","432727","","yellow","","","","","null","US_Cities_List/peoria.png","US_Cities_List/cornwall.png","","","","","","","","","","","","","","","","","","","","","","","","","","","",""
"null","","rt_plussign_withcolor","433231","","yellow","","","","","null","US_Cities_List/peoria.png","US_Cities_List/cornwall.png","","","","","","","","","","","","","","","","","","","","","","","","","","","",""
"1203.5","","rt_thecrossant_black","434681","","black_plus_sign","","","","","50","","","1","1","","","","","","","","","","","","","","","","","","","","","","","","","",""
"null","","color_black","434783","","black_plus_sign","","","","","null","","","","","","","","","","","","","","","","","","","","","","","","","","","","","",""
"null","","learn_phase(without_color)","437792","","black_plus_sign","","","","","null","US_Cities_List/hotsprings.png","US_Cities_List/huntsville.png","","","","","","","","","","","","","","","","","","","","","","","","","","","",""
"null","","black_cross(without_color)","438236","","blue","","","","","null","US_Cities_List/hotsprings.png","US_Cities_List/huntsville.png","","","","","","","","","","","","","","","","","","","","","","","","","","","",""
"null","","rt_plussign_withcolor","438739","","blue","","","","","null","US_Cities_List/hotsprings.png","US_Cities_List/huntsville.png","","","","","","","","","","","","","","","","","","","","","","","","","","","",""
"779.5999999996275","","rt_thecrossant_black","440302","","black_plus_sign","","","","","49","","","1","1","","","","","","","","","","","","","","","","","","","","","","","","","",""
"null","","color_black","440405","","black_plus_sign","","","","","null","","","","","","","","","","","","","","","","","","","","","","","","","","","","","",""
"null","","learn_phase(without_color)","443419","","black_plus_sign","","","","","null","US_Cities_List/westpalmbeach.png","US_Cities_List/newhope.png","","","","","","","","","","","","","","","","","","","","","","","","","","","",""
"null","","black_cross(without_color)","444349","","blue","","","","","null","US_Cities_List/westpalmbeach.png","US_Cities_List/newhope.png","","","","","","","","","","","","","","","","","","","","","","","","","","","",""
"null","","rt_plussign_withcolor","444852","","blue","","","","","null","US_Cities_List/westpalmbeach.png","US_Cities_List/newhope.png","","","","","","","","","","","","","","","","","","","","","","","","","","","",""
"682.2999999988824","","rt_thecrossant_black","445928","","black_plus_sign","","","","","49","","","1","1","","","","","","","","","","","","","","","","","","","","","","","","","",""
"null","","color_black","446031","","black_plus_sign","","","","","null","","","","","","","","","","","","","","","","","","","","","","","","","","","","","",""
"null","","learn_phase(without_color)","449043","","black_plus_sign","","","","","null","US_Cities_List/boulder.png","US_Cities_List/leesburg.png","","","","","","","","","","","","","","","","","","","","","","","","","","","",""
"null","","black_cross(without_color)","450087","","yellow","","","","","null","US_Cities_List/boulder.png","US_Cities_List/leesburg.png","","","","","","","","","","","","","","","","","","","","","","","","","","","",""
"null","","rt_plussign_withcolor","450590","","yellow","","","","","null","US_Cities_List/boulder.png","US_Cities_List/leesburg.png","","","","","","","","","","","","","","","","","","","","","","","","","","","",""
"1302.0999999996275","","rt_thecrossant_black","451552","","black_plus_sign","","","","","50","","","1","1","","","","","","","","","","","","","","","","","","","","","","","","","",""
"null","","color_black","451655","","black_plus_sign","","","","","null","","","","","","","","","","","","","","","","","","","","","","","","","","","","","",""
"null","","learn_phase(without_color)","454671","","black_plus_sign","","","","","null","US_Cities_List/peoria.png","US_Cities_List/cornwall.png","","","","","","","","","","","","","","","","","","","","","","","","","","","",""
"null","","black_cross(without_color)","455088","","blue","","","","","null","US_Cities_List/peoria.png","US_Cities_List/cornwall.png","","","","","","","","","","","","","","","","","","","","","","","","","","","",""
"null","","rt_plussign_withcolor","455591","","blue","","","","","null","US_Cities_List/peoria.png","US_Cities_List/cornwall.png","","","","","","","","","","","","","","","","","","","","","","","","","","","",""
"1319.199999999255","","rt_thecrossant_black","457180","","black_plus_sign","","","","","49","","","1","1","","","","","","","","","","","","","","","","","","","","","","","","","",""
"null","","color_black","457283","","black_plus_sign","","","","","null","","","","","","","","","","","","","","","","","","","","","","","","","","","","","",""
"null","","learn_phase(without_color)","460295","","black_plus_sign","","","","","null","US_Cities_List/huntsville.png","US_Cities_List/hotsprings.png","","","","","","","","","","","","","","","","","","","","","","","","","","","",""
"null","","black_cross(without_color)","461255","","yellow","","","","","null","US_Cities_List/huntsville.png","US_Cities_List/hotsprings.png","","","","","","","","","","","","","","","","","","","","","","","","","","","",""
"null","","rt_plussign_withcolor","461758","","yellow","","","","","null","US_Cities_List/huntsville.png","US_Cities_List/hotsprings.png","","","","","","","","","","","","","","","","","","","","","","","","","","","",""
"629.8000000007451","","rt_thecrossant_black","462805","","black_plus_sign","","","","","50","","","1","1","","","","","","","","","","","","","","","","","","","","","","","","","",""
"null","","color_black","462907","","black_plus_sign","","","","","null","","","","","","","","","","","","","","","","","","","","","","","","","","","","","",""
"null","","learn_phase(without_color)","465926","","black_plus_sign","","","","","null","US_Cities_List/peoria.png","US_Cities_List/cornwall.png","","","","","","","","","","","","","","","","","","","","","","","","","","","",""
"null","","black_cross(without_color)","466529","","blue","","","","","null","US_Cities_List/peoria.png","US_Cities_List/cornwall.png","","","","","","","","","","","","","","","","","","","","","","","","","","","",""
"null","","rt_plussign_withcolor","467031","","blue","","","","","null","US_Cities_List/peoria.png","US_Cities_List/cornwall.png","","","","","","","","","","","","","","","","","","","","","","","","","","","",""
"1337.7000000011176","","rt_thecrossant_black","468434","","black_plus_sign","","","","","49","","","1","1","","","","","","","","","","","","","","","","","","","","","","","","","",""
"null","","color_black","468537","","black_plus_sign","","","","","null","","","","","","","","","","","","","","","","","","","","","","","","","","","","","",""
"null","","learn_phase(without_color)","471552","","black_plus_sign","","","","","null","US_Cities_List/newhope.png","US_Cities_List/westpalmbeach.png","","","","","","","","","","","","","","","","","","","","","","","","","","","",""
"null","","black_cross(without_color)","472358","","yellow","","","","","null","US_Cities_List/newhope.png","US_Cities_List/westpalmbeach.png","","","","","","","","","","","","","","","","","","","","","","","","","","","",""
"468.40000000037253","","rt_plussign_withcolor","472860","","yellow","","","","","50","US_Cities_List/newhope.png","US_Cities_List/westpalmbeach.png","","","","","","","","","","","","","","","","","","","","","","","","","","","",""
"null","","rt_thecrossant_black","474060","","black_plus_sign","","","","","null","","","1","1","","","","","","","","","","","","","","","","","","","","","","","","","",""
"null","","color_black","474164","","black_plus_sign","","","","","null","","","","","","","","","","","","","","","","","","","","","","","","","","","","","",""
"null","","learn_phase(without_color)","477182","","black_plus_sign","","","","","null","US_Cities_List/peoria.png","US_Cities_List/cornwall.png","","","","","","","","","","","","","","","","","","","","","","","","","","","",""
"null","","black_cross(without_color)","477716","","yellow","","","","","null","US_Cities_List/peoria.png","US_Cities_List/cornwall.png","","","","","","","","","","","","","","","","","","","","","","","","","","","",""
"null","","rt_plussign_withcolor","478219","","yellow","","","","","null","US_Cities_List/peoria.png","US_Cities_List/cornwall.png","","","","","","","","","","","","","","","","","","","","","","","","","","","",""
"1437.0999999996275","","rt_thecrossant_black","479691","","black_plus_sign","","","","","49","","","0","0.96","","","","","","","","","","","","","","","","","","","","","","","","","",""
"null","","color_black","479794","","black_plus_sign","","","","","null","","","","","","","","","","","","","","","","","","","","","","","","","","","","","",""
"null","","learn_phase(without_color)","482809","","black_plus_sign","","","","","null","US_Cities_List/newhope.png","US_Cities_List/westpalmbeach.png","","","","","","","","","","","","","","","","","","","","","","","","","","","",""
"null","","black_cross(without_color)","483280","","blue","","","","","null","US_Cities_List/newhope.png","US_Cities_List/westpalmbeach.png","","","","","","","","","","","","","","","","","","","","","","","","","","","",""
"null","","rt_plussign_withcolor","483783","","blue","","","","","null","US_Cities_List/newhope.png","US_Cities_List/westpalmbeach.png","","","","","","","","","","","","","","","","","","","","","","","","","","","",""
"1217.9000000003725","","rt_thecrossant_black","485319","","black_plus_sign","","","","","49","","","1","0.9615384615384616","","","","","","","","","","","","","","","","","","","","","","","","","",""
"null","","color_black","485423","","black_plus_sign","","","","","null","","","","","","","","","","","","","","","","","","","","","","","","","","","","","",""
"null","","learn_phase(without_color)","488433","","black_plus_sign","","","","","null","US_Cities_List/boulder.png","US_Cities_List/leesburg.png","","","","","","","","","","","","","","","","","","","","","","","","","","","",""
"null","","black_cross(without_color)","489184","","blue","","","","","null","US_Cities_List/boulder.png","US_Cities_List/leesburg.png","","","","","","","","","","","","","","","","","","","","","","","","","","","",""
"null","","rt_plussign_withcolor","489686","","blue","","","","","null","US_Cities_List/boulder.png","US_Cities_List/leesburg.png","","","","","","","","","","","","","","","","","","","","","","","","","","","",""
"985.9000000003725","","rt_thecrossant_black","490942","","black_plus_sign","","","","","49","","","1","0.9629629629629629","","","","","","","","","","","","","","","","","","","","","","","","","",""
"null","","color_black","491045","","black_plus_sign","","","","","null","","","","","","","","","","","","","","","","","","","","","","","","","","","","","",""
"null","","learn_phase(without_color)","494061","","black_plus_sign","","","","","null","US_Cities_List/westpalmbeach.png","US_Cities_List/newhope.png","","","","","","","","","","","","","","","","","","","","","","","","","","","",""
"null","","black_cross(without_color)","494607","","yellow","","","","","null","US_Cities_List/westpalmbeach.png","US_Cities_List/newhope.png","","","","","","","","","","","","","","","","","","","","","","","","","","","",""
"null","","rt_plussign_withcolor","495110","","yellow","","","","","null","US_Cities_List/westpalmbeach.png","US_Cities_List/newhope.png","","","","","","","","","","","","","","","","","","","","","","","","","","","",""
"1539.7999999988824","","rt_thecrossant_black","496570","","black_plus_sign","","","","","50","","","1","0.9642857142857143","","","","","","","","","","","","","","","","","","","","","","","","","",""
"null","","color_black","496673","","black_plus_sign","","","","","null","","","","","","","","","","","","","","","","","","","","","","","","","","","","","",""
"null","","learn_phase(without_color)","499689","","black_plus_sign","","","","","null","US_Cities_List/leesburg.png","US_Cities_List/boulder.png","","","","","","","","","","","","","","","","","","","","","","","","","","","",""
"null","","black_cross(without_color)","500429","","blue","","","","","null","US_Cities_List/leesburg.png","US_Cities_List/boulder.png","","","","","","","","","","","","","","","","","","","","","","","","","","","",""
"null","","rt_plussign_withcolor","500933","","blue","","","","","null","US_Cities_List/leesburg.png","US_Cities_List/boulder.png","","","","","","","","","","","","","","","","","","","","","","","","","","","",""
"856.3999999985099","","rt_thecrossant_black","502199","","black_plus_sign","","","","","49","","","1","0.9655172413793104","","","","","","","","","","","","","","","","","","","","","","","","","",""
"null","","color_black","502303","","black_plus_sign","","","","","null","","","","","","","","","","","","","","","","","","","","","","","","","","","","","",""
"null","","learn_phase(without_color)","505318","","black_plus_sign","","","","","null","US_Cities_List/boulder.png","US_Cities_List/leesburg.png","","","","","","","","","","","","","","","","","","","","","","","","","","","",""
"null","","black_cross(without_color)","506129","","yellow","","","","","null","US_Cities_List/boulder.png","US_Cities_List/leesburg.png","","","","","","","","","","","","","","","","","","","","","","","","","","","",""
"null","","rt_plussign_withcolor","506632","","yellow","","","","","null","US_Cities_List/boulder.png","US_Cities_List/leesburg.png","","","","","","","","","","","","","","","","","","","","","","","","","","","",""
"1702.9000000003725","","rt_thecrossant_black","507828","","black_plus_sign","","","","","50","","","1","0.9666666666666667","","","","","","","","","","","","","","","","","","","","","","","","","",""
"null","","color_black","507932","","black_plus_sign","","","","","null","","","","","","","","","","","","","","","","","","","","","","","","","","","","","",""
"null","","learn_phase(without_color)","510947","","black_plus_sign","","","","","null","US_Cities_List/leesburg.png","US_Cities_List/boulder.png","","","","","","","","","","","","","","","","","","","","","","","","","","","",""
"null","","black_cross(without_color)","511989","","blue","","","","","null","US_Cities_List/leesburg.png","US_Cities_List/boulder.png","","","","","","","","","","","","","","","","","","","","","","","","","","","",""
"null","","rt_plussign_withcolor","512491","","blue","","","","","null","US_Cities_List/leesburg.png","US_Cities_List/boulder.png","","","","","","","","","","","","","","","","","","","","","","","","","","","",""
"null","","rt_thecrossant_black","513456","","black_plus_sign","","","","","null","","","","0.9666666666666667","","","","","","","","","","","","","","","","","","","","","","","","","",""
"null","","color_black","513559","","black_plus_sign","","","","","null","","","","","","","","","","","","","","","","","","","","","","","","","","","","","",""
"null","","learn_phase(without_color)","516574","","black_plus_sign","","","","","null","US_Cities_List/cornwall.png","US_Cities_List/peoria.png","","","","","","","","","","","","","","","","","","","","","","","","","","","",""
"null","","black_cross(without_color)","517340","","yellow","","","","","null","US_Cities_List/cornwall.png","US_Cities_List/peoria.png","","","","","","","","","","","","","","","","","","","","","","","","","","","",""
"null","","rt_plussign_withcolor","517842","","yellow","","","","","null","US_Cities_List/cornwall.png","US_Cities_List/peoria.png","","","","","","","","","","","","","","","","","","","","","","","","","","","",""
"1402.9000000003725","","rt_thecrossant_black","519084","","black_plus_sign","","","","","50","","","1","0.967741935483871","","","","","","","","","","","","","","","","","","","","","","","","","",""
"null","","color_black","519187","","black_plus_sign","","","","","null","","","","","","","","","","","","","","","","","","","","","","","","","","","","","",""
"null","","learn_phase(without_color)","522202","","black_plus_sign","","","","","null","US_Cities_List/peoria.png","US_Cities_List/gatlinburg.png","","","","","","","","","","","","","","","","","","","","","","","","","","","",""
"null","","black_cross(without_color)","522852","","yellow","","","","","null","US_Cities_List/peoria.png","US_Cities_List/gatlinburg.png","","","","","","","","","","","","","","","","","","","","","","","","","","","",""
"null","","rt_plussign_withcolor","523355","","yellow","","","","","null","US_Cities_List/peoria.png","US_Cities_List/gatlinburg.png","","","","","","","","","","","","","","","","","","","","","","","","","","","",""
"1084.2000000011176","","rt_thecrossant_black","524713","","black_plus_sign","","","","","50","","","1","0.96875","","","","","","","","","","","","","","","","","","","","","","","","","",""
"null","","color_black","524816","","black_plus_sign","","","","","null","","","","","","","","","","","","","","","","","","","","","","","","","","","","","",""
"null","","learn_phase(without_color)","527827","","black_plus_sign","","","","","null","US_Cities_List/carmel.png","US_Cities_List/huntsville.png","","","","","","","","","","","","","","","","","","","","","","","","","","","",""
"null","","black_cross(without_color)","528605","","yellow","","","","","null","US_Cities_List/carmel.png","US_Cities_List/huntsville.png","","","","","","","","","","","","","","","","","","","","","","","","","","","",""
"null","","rt_plussign_withcolor","529108","","yellow","","","","","null","US_Cities_List/carmel.png","US_Cities_List/huntsville.png","","","","","","","","","","","","","","","","","","","","","","","","","","","",""
"1527.9000000003725","","rt_thecrossant_black","530336","","black_plus_sign","","","","","50","","","1","0.9696969696969697","","","","","","","","","","","","","","","","","","","","","","","","","",""
"null","","color_black","530440","","black_plus_sign","","","","","null","","","","","","","","","","","","","","","","","","","","","","","","","","","","","",""
"null","","learn_phase(without_color)","533454","","black_plus_sign","","","","","null","US_Cities_List/newhope.png","US_Cities_List/boulder.png","","","","","","","","","","","","","","","","","","","","","","","","","","","",""
"null","","black_cross(without_color)","534343","","yellow","","","","","null","US_Cities_List/newhope.png","US_Cities_List/boulder.png","","","","","","","","","","","","","","","","","","","","","","","","","","","",""
"null","","rt_plussign_withcolor","534846","","yellow","","","","","null","US_Cities_List/newhope.png","US_Cities_List/boulder.png","","","","","","","","","","","","","","","","","","","","","","","","","","","",""
"1206.5999999996275","","rt_thecrossant_black","535964","","black_plus_sign","","","","","50","","","1","0.9705882352941176","","","","","","","","","","","","","","","","","","","","","","","","","",""
"null","","color_black","536067","","black_plus_sign","","","","","null","","","","","","","","","","","","","","","","","","","","","","","","","","","","","",""
"null","","learn_phase(without_color)","539079","","black_plus_sign","","","","","null","US_Cities_List/gatlinburg.png","US_Cities_List/peoria.png","","","","","","","","","","","","","","","","","","","","","","","","","","","",""
"null","","black_cross(without_color)","539777","","blue","","","","","null","US_Cities_List/gatlinburg.png","US_Cities_List/peoria.png","","","","","","","","","","","","","","","","","","","","","","","","","","","",""
"null","","rt_plussign_withcolor","540280","","blue","","","","","null","US_Cities_List/gatlinburg.png","US_Cities_List/peoria.png","","","","","","","","","","","","","","","","","","","","","","","","","","","",""
"1898.5999999996275","","rt_thecrossant_black","541590","","black_plus_sign","","","","","49","","","1","0.9714285714285714","","","","","","","","","","","","","","","","","","","","","","","","","",""
"null","","color_black","541693","","black_plus_sign","","","","","null","","","","","","","","","","","","","","","","","","","","","","","","","","","","","",""
"null","","learn_phase(without_color)","544704","","black_plus_sign","","","","","null","US_Cities_List/hotsprings.png","US_Cities_List/shreveport.png","","","","","","","","","","","","","","","","","","","","","","","","","","","",""
"null","","black_cross(without_color)","545744","","blue","","","","","null","US_Cities_List/hotsprings.png","US_Cities_List/shreveport.png","","","","","","","","","","","","","","","","","","","","","","","","","","","",""
"null","","rt_plussign_withcolor","546247","","blue","","","","","null","US_Cities_List/hotsprings.png","US_Cities_List/shreveport.png","","","","","","","","","","","","","","","","","","","","","","","","","","","",""
"1244","","rt_thecrossant_black","547214","","black_plus_sign","","","","","49","","","1","0.9722222222222222","","","","","","","","","","","","","","","","","","","","","","","","","",""
"null","","color_black","547317","","black_plus_sign","","","","","null","","","","","","","","","","","","","","","","","","","","","","","","","","","","","",""
"null","","learn_phase(without_color)","550330","","black_plus_sign","","","","","null","US_Cities_List/peoria.png","US_Cities_List/gatlinburg.png","","","","","","","","","","","","","","","","","","","","","","","","","","","",""
"null","","black_cross(without_color)","550759","","blue","","","","","null","US_Cities_List/peoria.png","US_Cities_List/gatlinburg.png","","","","","","","","","","","","","","","","","","","","","","","","","","","",""
"null","","rt_plussign_withcolor","551262","","blue","","","","","null","US_Cities_List/peoria.png","US_Cities_List/gatlinburg.png","","","","","","","","","","","","","","","","","","","","","","","","","","","",""
"1604.800000000745","","rt_thecrossant_black","552840","","black_plus_sign","","","","","49","","","1","0.972972972972973","","","","","","","","","","","","","","","","","","","","","","","","","",""
"null","","color_black","552943","","black_plus_sign","","","","","null","","","","","","","","","","","","","","","","","","","","","","","","","","","","","",""
"null","","learn_phase(without_color)","555956","","black_plus_sign","","","","","null","US_Cities_List/hotsprings.png","US_Cities_List/shreveport.png","","","","","","","","","","","","","","","","","","","","","","","","","","","",""
"null","","black_cross(without_color)","556924","","yellow","","","","","null","US_Cities_List/hotsprings.png","US_Cities_List/shreveport.png","","","","","","","","","","","","","","","","","","","","","","","","","","","",""
"null","","rt_plussign_withcolor","557426","","yellow","","","","","null","US_Cities_List/hotsprings.png","US_Cities_List/shreveport.png","","","","","","","","","","","","","","","","","","","","","","","","","","","",""
"null","","rt_thecrossant_black","558464","","black_plus_sign","","","","","null","","","","0.972972972972973","","","","","","","","","","","","","","","","","","","","","","","","","",""
"null","","color_black","558568","","black_plus_sign","","","","","null","","","","","","","","","","","","","","","","","","","","","","","","","","","","","",""
"null","","learn_phase(without_color)","561583","","black_plus_sign","","","","","null","US_Cities_List/newhope.png","US_Cities_List/boulder.png","","","","","","","","","","","","","","","","","","","","","","","","","","","",""
"null","","black_cross(without_color)","562497","","blue","","","","","null","US_Cities_List/newhope.png","US_Cities_List/boulder.png","","","","","","","","","","","","","","","","","","","","","","","","","","","",""
"null","","rt_plussign_withcolor","563000","","blue","","","","","null","US_Cities_List/newhope.png","US_Cities_List/boulder.png","","","","","","","","","","","","","","","","","","","","","","","","","","","",""
"1203.4000000003725","","rt_thecrossant_black","564092","","black_plus_sign","","","","","49","","","1","0.9736842105263158","","","","","","","","","","","","","","","","","","","","","","","","","",""
"null","","color_black","564196","","black_plus_sign","","","","","null","","","","","","","","","","","","","","","","","","","","","","","","","","","","","",""
"null","","learn_phase(without_color)","567212","","black_plus_sign","","","","","null","US_Cities_List/peoria.png","US_Cities_List/gatlinburg.png","","","","","","","","","","","","","","","","","","","","","","","","","","","",""
"null","","black_cross(without_color)","567637","","yellow","","","","","null","US_Cities_List/peoria.png","US_Cities_List/gatlinburg.png","","","","","","","","","","","","","","","","","","","","","","","","","","","",""
"null","","rt_plussign_withcolor","568139","","yellow","","","","","null","US_Cities_List/peoria.png","US_Cities_List/gatlinburg.png","","","","","","","","","","","","","","","","","","","","","","","","","","","",""
"1729.5999999996275","","rt_thecrossant_black","569721","","black_plus_sign","","","","","50","","","1","0.9743589743589743","","","","","","","","","","","","","","","","","","","","","","","","","",""
"null","","color_black","569824","","black_plus_sign","","","","","null","","","","","","","","","","","","","","","","","","","","","","","","","","","","","",""
"null","","learn_phase(without_color)","572839","","black_plus_sign","","","","","null","US_Cities_List/boulder.png","US_Cities_List/newhope.png","","","","","","","","","","","","","","","","","","","","","","","","","","","",""
"null","","black_cross(without_color)","573286","","yellow","","","","","null","US_Cities_List/boulder.png","US_Cities_List/newhope.png","","","","","","","","","","","","","","","","","","","","","","","","","","","",""
"null","","rt_plussign_withcolor","573788","","yellow","","","","","null","US_Cities_List/boulder.png","US_Cities_List/newhope.png","","","","","","","","","","","","","","","","","","","","","","","","","","","",""
"927.6999999992549","","rt_thecrossant_black","575348","","black_plus_sign","","","","","50","","","1","0.975","","","","","","","","","","","","","","","","","","","","","","","","","",""
"null","","color_black","575452","","black_plus_sign","","","","","null","","","","","","","","","","","","","","","","","","","","","","","","","","","","","",""
"null","","learn_phase(without_color)","578463","","black_plus_sign","","","","","null","US_Cities_List/carmel.png","US_Cities_List/huntsville.png","","","","","","","","","","","","","","","","","","","","","","","","","","","",""
"null","","black_cross(without_color)","579558","","yellow","","","","","null","US_Cities_List/carmel.png","US_Cities_List/huntsville.png","","","","","","","","","","","","","","","","","","","","","","","","","","","",""
"null","","rt_plussign_withcolor","580061","","yellow","","","","","null","US_Cities_List/carmel.png","US_Cities_List/huntsville.png","","","","","","","","","","","","","","","","","","","","","","","","","","","",""
"908.4000000003725","","rt_thecrossant_black","580973","","black_plus_sign","","","","","50","","","1","0.975609756097561","","","","","","","","","","","","","","","","","","","","","","","","","",""
"null","","color_black","581076","","black_plus_sign","","","","","null","","","","","","","","","","","","","","","","","","","","","","","","","","","","","",""
"null","","learn_phase(without_color)","584091","","black_plus_sign","","","","","null","US_Cities_List/peoria.png","US_Cities_List/gatlinburg.png","","","","","","","","","","","","","","","","","","","","","","","","","","","",""
"null","","black_cross(without_color)","584810","","yellow","","","","","null","US_Cities_List/peoria.png","US_Cities_List/gatlinburg.png","","","","","","","","","","","","","","","","","","","","","","","","","","","",""
"null","","rt_plussign_withcolor","585313","","yellow","","","","","null","US_Cities_List/peoria.png","US_Cities_List/gatlinburg.png","","","","","","","","","","","","","","","","","","","","","","","","","","","",""
"1489.5999999996275","","rt_thecrossant_black","586601","","black_plus_sign","","","","","50","","","1","0.9761904761904762","","","","","","","","","","","","","","","","","","","","","","","","","",""
"null","","color_black","586705","","black_plus_sign","","","","","null","","","","","","","","","","","","","","","","","","","","","","","","","","","","","",""
"null","","learn_phase(without_color)","589719","","black_plus_sign","","","","","null","US_Cities_List/boulder.png","US_Cities_List/newhope.png","","","","","","","","","","","","","","","","","","","","","","","","","","","",""
"null","","black_cross(without_color)","590545","","yellow","","","","","null","US_Cities_List/boulder.png","US_Cities_List/newhope.png","","","","","","","","","","","","","","","","","","","","","","","","","","","",""
"null","","rt_plussign_withcolor","591048","","yellow","","","","","null","US_Cities_List/boulder.png","US_Cities_List/newhope.png","","","","","","","","","","","","","","","","","","","","","","","","","","","",""
"1232.8999999985099","","rt_thecrossant_black","592228","","black_plus_sign","","","","","50","","","1","0.9767441860465116","","","","","","","","","","","","","","","","","","","","","","","","","",""
"null","","color_black","592331","","black_plus_sign","","","","","null","","","","","","","","","","","","","","","","","","","","","","","","","","","","","",""
"null","","learn_phase(without_color)","595343","","black_plus_sign","","","","","null","US_Cities_List/shreveport.png","US_Cities_List/hotsprings.png","","","","","","","","","","","","","","","","","","","","","","","","","","","",""
"null","","black_cross(without_color)","596366","","blue","","","","","null","US_Cities_List/shreveport.png","US_Cities_List/hotsprings.png","","","","","","","","","","","","","","","","","","","","","","","","","","","",""
"null","","rt_plussign_withcolor","596868","","blue","","","","","null","US_Cities_List/shreveport.png","US_Cities_List/hotsprings.png","","","","","","","","","","","","","","","","","","","","","","","","","","","",""
"1049.199999999255","","rt_thecrossant_black","597852","","black_plus_sign","","","","","49","","","1","0.9772727272727273","","","","","","","","","","","","","","","","","","","","","","","","","",""
"null","","color_black","597956","","black_plus_sign","","","","","null","","","","","","","","","","","","","","","","","","","","","","","","","","","","","",""
"null","","learn_phase(without_color)","600972","","black_plus_sign","","","","","null","US_Cities_List/boulder.png","US_Cities_List/newhope.png","","","","","","","","","","","","","","","","","","","","","","","","","","","",""
"null","","black_cross(without_color)","601862","","blue","","","","","null","US_Cities_List/boulder.png","US_Cities_List/newhope.png","","","","","","","","","","","","","","","","","","","","","","","","","","","",""
"null","","rt_plussign_withcolor","602365","","blue","","","","","null","US_Cities_List/boulder.png","US_Cities_List/newhope.png","","","","","","","","","","","","","","","","","","","","","","","","","","","",""
"1604.5","","rt_thecrossant_black","603482","","black_plus_sign","","","","","49","","","1","0.9777777777777777","","","","","","","","","","","","","","","","","","","","","","","","","",""
"null","","color_black","603585","","black_plus_sign","","","","","null","","","","","","","","","","","","","","","","","","","","","","","","","","","","","",""
"null","","learn_phase(without_color)","606596","","black_plus_sign","","","","","null","US_Cities_List/carmel.png","US_Cities_List/huntsville.png","","","","","","","","","","","","","","","","","","","","","","","","","","","",""
"null","","black_cross(without_color)","607180","","yellow","","","","","null","US_Cities_List/carmel.png","US_Cities_List/huntsville.png","","","","","","","","","","","","","","","","","","","","","","","","","","","",""
"null","","rt_plussign_withcolor","607683","","yellow","","","","","null","US_Cities_List/carmel.png","US_Cities_List/huntsville.png","","","","","","","","","","","","","","","","","","","","","","","","","","","",""
"1554.800000000745","","rt_thecrossant_black","609105","","black_plus_sign","","","","","50","","","1","0.9782608695652174","","","","","","","","","","","","","","","","","","","","","","","","","",""
"null","","color_black","609208","","black_plus_sign","","","","","null","","","","","","","","","","","","","","","","","","","","","","","","","","","","","",""
"null","","learn_phase(without_color)","612223","","black_plus_sign","","","","","null","US_Cities_List/shreveport.png","US_Cities_List/hotsprings.png","","","","","","","","","","","","","","","","","","","","","","","","","","","",""
"null","","black_cross(without_color)","612853","","yellow","","","","","null","US_Cities_List/shreveport.png","US_Cities_List/hotsprings.png","","","","","","","","","","","","","","","","","","","","","","","","","","","",""
"null","","rt_plussign_withcolor","613356","","yellow","","","","","null","US_Cities_List/shreveport.png","US_Cities_List/hotsprings.png","","","","","","","","","","","","","","","","","","","","","","","","","","","",""
"999.3000000007451","","rt_thecrossant_black","614732","","black_plus_sign","","","","","50","","","1","0.9787234042553191","","","","","","","","","","","","","","","","","","","","","","","","","",""
"null","","color_black","614836","","black_plus_sign","","","","","null","","","","","","","","","","","","","","","","","","","","","","","","","","","","","",""
"null","","learn_phase(without_color)","617848","","black_plus_sign","","","","","null","US_Cities_List/peoria.png","US_Cities_List/gatlinburg.png","","","","","","","","","","","","","","","","","","","","","","","","","","","",""
"null","","black_cross(without_color)","618893","","blue","","","","","null","US_Cities_List/peoria.png","US_Cities_List/gatlinburg.png","","","","","","","","","","","","","","","","","","","","","","","","","","","",""
"null","","rt_plussign_withcolor","619396","","blue","","","","","null","US_Cities_List/peoria.png","US_Cities_List/gatlinburg.png","","","","","","","","","","","","","","","","","","","","","","","","","","","",""
"1309.0999999996275","","rt_thecrossant_black","620358","","black_plus_sign","","","","","49","","","1","0.9791666666666666","","","","","","","","","","","","","","","","","","","","","","","","","",""
"null","","color_black","620461","","black_plus_sign","","","","","null","","","","","","","","","","","","","","","","","","","","","","","","","","","","","",""
"null","","learn_phase(without_color)","623475","","black_plus_sign","","","","","null","US_Cities_List/boulder.png","US_Cities_List/newhope.png","","","","","","","","","","","","","","","","","","","","","","","","","","","",""
"null","","black_cross(without_color)","624098","","blue","","","","","null","US_Cities_List/boulder.png","US_Cities_List/newhope.png","","","","","","","","","","","","","","","","","","","","","","","","","","","",""
"null","","rt_plussign_withcolor","624602","","blue","","","","","null","US_Cities_List/boulder.png","US_Cities_List/newhope.png","","","","","","","","","","","","","","","","","","","","","","","","","","","",""
"1414","","rt_thecrossant_black","625986","","black_plus_sign","","","","","49","","","1","0.9795918367346939","","","","","","","","","","","","","","","","","","","","","","","","","",""
"null","","color_black","626089","","black_plus_sign","","","","","null","","","","","","","","","","","","","","","","","","","","","","","","","","","","","",""
"null","","learn_phase(without_color)","629103","","black_plus_sign","","","","","null","US_Cities_List/hotsprings.png","US_Cities_List/shreveport.png","","","","","","","","","","","","","","","","","","","","","","","","","","","",""
"null","","black_cross(without_color)","629776","","blue","","","","","null","US_Cities_List/hotsprings.png","US_Cities_List/shreveport.png","","","","","","","","","","","","","","","","","","","","","","","","","","","",""
"null","","rt_plussign_withcolor","630280","","blue","","","","","null","US_Cities_List/hotsprings.png","US_Cities_List/shreveport.png","","","","","","","","","","","","","","","","","","","","","","","","","","","",""
"1266.9000000003725","","rt_thecrossant_black","631614","","black_plus_sign","","","","","49","","","1","0.98","","","","","","","","","","","","","","","","","","","","","","","","","",""
"null","","color_black","631718","","black_plus_sign","","","","","null","","","","","","","","","","","","","","","","","","","","","","","","","","","","","",""
"null","","learn_phase(without_color)","634728","","black_plus_sign","","","","","null","US_Cities_List/carmel.png","US_Cities_List/huntsville.png","","","","","","","","","","","","","","","","","","","","","","","","","","","",""
"null","","black_cross(without_color)","635139","","blue","","","","","null","US_Cities_List/carmel.png","US_Cities_List/huntsville.png","","","","","","","","","","","","","","","","","","","","","","","","","","","",""
"null","","rt_plussign_withcolor","635642","","blue","","","","","null","US_Cities_List/carmel.png","US_Cities_List/huntsville.png","","","","","","","","","","","","","","","","","","","","","","","","","","","",""
"1417.4000000003725","","rt_thecrossant_black","637238","","black_plus_sign","","","","","49","","","1","0.9803921568627451","","","","","","","","","","","","","","","","","","","","","","","","","",""
"null","","color_black","637342","","black_plus_sign","","","","","null","","","","","","","","","","","","","","","","","","","","","","","","","","","","","",""
"null","","learn_phase(without_color)","640355","","black_plus_sign","","","","","null","US_Cities_List/peoria.png","US_Cities_List/gatlinburg.png","","","","","","","","","","","","","","","","","","","","","","","","","","","",""
"null","","black_cross(without_color)","640768","","blue","","","","","null","US_Cities_List/peoria.png","US_Cities_List/gatlinburg.png","","","","","","","","","","","","","","","","","","","","","","","","","","","",""
"null","","rt_plussign_withcolor","641271","","blue","","","","","null","US_Cities_List/peoria.png","US_Cities_List/gatlinburg.png","","","","","","","","","","","","","","","","","","","","","","","","","","","",""
"1063.800000000745","","rt_thecrossant_black","642865","","black_plus_sign","","","","","49","","","1","0.9807692307692307","","","","","","","","","","","","","","","","","","","","","","","","","",""
"null","","color_black","642968","","black_plus_sign","","","","","null","","","","","","","","","","","","","","","","","","","","","","","","","","","","","",""
"null","","learn_phase(without_color)","645982","","black_plus_sign","","","","","null","US_Cities_List/huntsville.png","US_Cities_List/carmel.png","","","","","","","","","","","","","","","","","","","","","","","","","","","",""
"null","","black_cross(without_color)","646882","","blue","","","","","null","US_Cities_List/huntsville.png","US_Cities_List/carmel.png","","","","","","","","","","","","","","","","","","","","","","","","","","","",""
"null","","rt_plussign_withcolor","647385","","blue","","","","","null","US_Cities_List/huntsville.png","US_Cities_List/carmel.png","","","","","","","","","","","","","","","","","","","","","","","","","","","",""
"687.4000000003725","","rt_thecrossant_black","648493","","black_plus_sign","","","","","49","","","1","0.9811320754716981","","","","","","","","","","","","","","","","","","","","","","","","","",""
"null","","color_black","648596","","black_plus_sign","","","","","null","","","","","","","","","","","","","","","","","","","","","","","","","","","","","",""
"null","","learn_phase(without_color)","651610","","black_plus_sign","","","","","null","US_Cities_List/shreveport.png","US_Cities_List/hotsprings.png","","","","","","","","","","","","","","","","","","","","","","","","","","","",""
"null","","black_cross(without_color)","652536","","blue","","","","","null","US_Cities_List/shreveport.png","US_Cities_List/hotsprings.png","","","","","","","","","","","","","","","","","","","","","","","","","","","",""
"null","","rt_plussign_withcolor","653039","","blue","","","","","null","US_Cities_List/shreveport.png","US_Cities_List/hotsprings.png","","","","","","","","","","","","","","","","","","","","","","","","","","","",""
"1391","","rt_thecrossant_black","654120","","black_plus_sign","","","","","49","","","1","0.9814814814814815","","","","","","","","","","","","","","","","","","","","","","","","","",""
"null","","color_black","654224","","black_plus_sign","","","","","null","","","","","","","","","","","","","","","","","","","","","","","","","","","","","",""
"null","","learn_phase(without_color)","657239","","black_plus_sign","","","","","null","US_Cities_List/peoria.png","US_Cities_List/gatlinburg.png","","","","","","","","","","","","","","","","","","","","","","","","","","","",""
"null","","black_cross(without_color)","657821","","yellow","","","","","null","US_Cities_List/peoria.png","US_Cities_List/gatlinburg.png","","","","","","","","","","","","","","","","","","","","","","","","","","","",""
"null","","rt_plussign_withcolor","658325","","yellow","","","","","null","US_Cities_List/peoria.png","US_Cities_List/gatlinburg.png","","","","","","","","","","","","","","","","","","","","","","","","","","","",""
"1685.5999999996275","","rt_thecrossant_black","659748","","black_plus_sign","","","","","50","","","1","0.9818181818181818","","","","","","","","","","","","","","","","","","","","","","","","","",""
"null","","color_black","659852","","black_plus_sign","","","","","null","","","","","","","","","","","","","","","","","","","","","","","","","","","","","",""
"null","","learn_phase(without_color)","662865","","black_plus_sign","","","","","null","US_Cities_List/huntsville.png","US_Cities_List/carmel.png","","","","","","","","","","","","","","","","","","","","","","","","","","","",""
"null","","black_cross(without_color)","663622","","blue","","","","","null","US_Cities_List/huntsville.png","US_Cities_List/carmel.png","","","","","","","","","","","","","","","","","","","","","","","","","","","",""
"null","","rt_plussign_withcolor","664125","","blue","","","","","null","US_Cities_List/huntsville.png","US_Cities_List/carmel.png","","","","","","","","","","","","","","","","","","","","","","","","","","","",""
"1077","","rt_thecrossant_black","665375","","black_plus_sign","","","","","49","","","1","0.9821428571428571","","","","","","","","","","","","","","","","","","","","","","","","","",""
"null","","color_black","665479","","black_plus_sign","","","","","null","","","","","","","","","","","","","","","","","","","","","","","","","","","","","",""
"null","","learn_phase(without_color)","668492","","black_plus_sign","","","","","null","US_Cities_List/boulder.png","US_Cities_List/newhope.png","","","","","","","","","","","","","","","","","","","","","","","","","","","",""
"null","","black_cross(without_color)","669223","","yellow","","","","","null","US_Cities_List/boulder.png","US_Cities_List/newhope.png","","","","","","","","","","","","","","","","","","","","","","","","","","","",""
"null","","rt_plussign_withcolor","669726","","yellow","","","","","null","US_Cities_List/boulder.png","US_Cities_List/newhope.png","","","","","","","","","","","","","","","","","","","","","","","","","","","",""
"1234.300000000745","","rt_thecrossant_black","671003","","black_plus_sign","","","","","50","","","1","0.9824561403508771","","","","","","","","","","","","","","","","","","","","","","","","","",""
"null","","color_black","671107","","black_plus_sign","","","","","null","","","","","","","","","","","","","","","","","","","","","","","","","","","","","",""
"null","","learn_phase(without_color)","674122","","black_plus_sign","","","","","null","US_Cities_List/shreveport.png","US_Cities_List/hotsprings.png","","","","","","","","","","","","","","","","","","","","","","","","","","","",""
"null","","black_cross(without_color)","674588","","blue","","","","","null","US_Cities_List/shreveport.png","US_Cities_List/hotsprings.png","","","","","","","","","","","","","","","","","","","","","","","","","","","",""
"null","","rt_plussign_withcolor","675091","","blue","","","","","null","US_Cities_List/shreveport.png","US_Cities_List/hotsprings.png","","","","","","","","","","","","","","","","","","","","","","","","","","","",""
"1162.4000000003725","","rt_thecrossant_black","676632","","black_plus_sign","","","","","49","","","1","0.9827586206896551","","","","","","","","","","","","","","","","","","","","","","","","","",""
"null","","color_black","676736","","black_plus_sign","","","","","null","","","","","","","","","","","","","","","","","","","","","","","","","","","","","",""
"null","","learn_phase(without_color)","679750","","black_plus_sign","","","","","null","US_Cities_List/carmel.png","US_Cities_List/huntsville.png","","","","","","","","","","","","","","","","","","","","","","","","","","","",""
"null","","black_cross(without_color)","680286","","blue","","","","","null","US_Cities_List/carmel.png","US_Cities_List/huntsville.png","","","","","","","","","","","","","","","","","","","","","","","","","","","",""
"null","","rt_plussign_withcolor","680789","","blue","","","","","null","US_Cities_List/carmel.png","US_Cities_List/huntsville.png","","","","","","","","","","","","","","","","","","","","","","","","","","","",""
"800.6999999992549","","rt_thecrossant_black","682261","","black_plus_sign","","","","","49","","","1","0.9830508474576272","","","","","","","","","","","","","","","","","","","","","","","","","",""
"null","","color_black","682365","","black_plus_sign","","","","","null","","","","","","","","","","","","","","","","","","","","","","","","","","","","","",""
"null","","learn_phase(without_color)","685376","","black_plus_sign","","","","","null","US_Cities_List/hotsprings.png","US_Cities_List/shreveport.png","","","","","","","","","","","","","","","","","","","","","","","","","","","",""
"null","","black_cross(without_color)","685784","","blue","","","","","null","US_Cities_List/hotsprings.png","US_Cities_List/shreveport.png","","","","","","","","","","","","","","","","","","","","","","","","","","","",""
"null","","rt_plussign_withcolor","686287","","blue","","","","","null","US_Cities_List/hotsprings.png","US_Cities_List/shreveport.png","","","","","","","","","","","","","","","","","","","","","","","","","","","",""
"940.1999999992549","","rt_thecrossant_black","687886","","black_plus_sign","","","","","49","","","1","0.9833333333333333","","","","","","","","","","","","","","","","","","","","","","","","","",""
"null","","color_black","687990","","black_plus_sign","","","","","null","","","","","","","","","","","","","","","","","","","","","","","","","","","","","",""
"null","","learn_phase(without_color)","691001","","black_plus_sign","","","","","null","US_Cities_List/huntsville.png","US_Cities_List/carmel.png","","","","","","","","","","","","","","","","","","","","","","","","","","","",""
"null","","black_cross(without_color)","691507","","yellow","","","","","null","US_Cities_List/huntsville.png","US_Cities_List/carmel.png","","","","","","","","","","","","","","","","","","","","","","","","","","","",""
"null","","rt_plussign_withcolor","692010","","yellow","","","","","null","US_Cities_List/huntsville.png","US_Cities_List/carmel.png","","","","","","","","","","","","","","","","","","","","","","","","","","","",""
"null","","rt_thecrossant_black","693510","","black_plus_sign","","","","","null","","","","0.9833333333333333","","","","","","","","","","","","","","","","","","","","","","","","","",""
"null","","color_black","693614","","black_plus_sign","","","","","null","","","","","","","","","","","","","","","","","","","","","","","","","","","","","",""
"null","","learn_phase(without_color)","696625","","black_plus_sign","","","","","null","US_Cities_List/boulder.png","US_Cities_List/newhope.png","","","","","","","","","","","","","","","","","","","","","","","","","","","",""
"null","","black_cross(without_color)","697217","","blue","","","","","null","US_Cities_List/boulder.png","US_Cities_List/newhope.png","","","","","","","","","","","","","","","","","","","","","","","","","","","",""
"null","","rt_plussign_withcolor","697720","","blue","","","","","null","US_Cities_List/boulder.png","US_Cities_List/newhope.png","","","","","","","","","","","","","","","","","","","","","","","","","","","",""
"626.3000000007451","","rt_thecrossant_black","699136","","black_plus_sign","","","","","49","","","1","0.9836065573770492","","","","","","","","","","","","","","","","","","","","","","","","","",""
"null","","color_black","699240","","black_plus_sign","","","","","null","","","","","","","","","","","","","","","","","","","","","","","","","","","","","",""
"null","","learn_break","759245","","learn_break","","","","","null","","","","","","","","","","","","","","","","","","","","","","","","","","","","","",""
"null","","html-keyboard-response","760247","","<p></p>","","","","","null","","","","","","","","","","","","","","","","","","","","","","","","","","","","","",""
"null","","learn_phase(without_color)","763259","","black_plus_sign","","","","","null","US_Cities_List/huntsville.png","US_Cities_List/leesburg.png","","","","","","","","","","","","","","","","","","","","","","","","","","","",""
"null","","black_cross(without_color)","764302","","yellow","","","","","null","US_Cities_List/huntsville.png","US_Cities_List/leesburg.png","","","","","","","","","","","","","","","","","","","","","","","","","","","",""
"null","","rt_plussign_withcolor","764805","","yellow","","","","","null","US_Cities_List/huntsville.png","US_Cities_List/leesburg.png","","","","","","","","","","","","","","","","","","","","","","","","","","","",""
"790.7000000011176","","rt_thecrossant_black","765769","","black_plus_sign","","","","","50","","","1","0.9838709677419355","","","","","","","","","","","","","","","","","","","","","","","","","",""
"null","","color_black","765871","","black_plus_sign","","","","","null","","","","","","","","","","","","","","","","","","","","","","","","","","","","","",""
"null","","learn_phase(without_color)","768886","","black_plus_sign","","","","","null","US_Cities_List/carmel.png","US_Cities_List/hotsprings.png","","","","","","","","","","","","","","","","","","","","","","","","","","","",""
"null","","black_cross(without_color)","769572","","yellow","","","","","null","US_Cities_List/carmel.png","US_Cities_List/hotsprings.png","","","","","","","","","","","","","","","","","","","","","","","","","","","",""
"null","","rt_plussign_withcolor","770075","","yellow","","","","","null","US_Cities_List/carmel.png","US_Cities_List/hotsprings.png","","","","","","","","","","","","","","","","","","","","","","","","","","","",""
"1611.800000000745","","rt_thecrossant_black","771397","","black_plus_sign","","","","","50","","","1","0.9841269841269841","","","","","","","","","","","","","","","","","","","","","","","","","",""
"null","","color_black","771501","","black_plus_sign","","","","","null","","","","","","","","","","","","","","","","","","","","","","","","","","","","","",""
"null","","learn_phase(without_color)","774516","","black_plus_sign","","","","","null","US_Cities_List/shreveport.png","US_Cities_List/boulder.png","","","","","","","","","","","","","","","","","","","","","","","","","","","",""
"null","","black_cross(without_color)","775562","","yellow","","","","","null","US_Cities_List/shreveport.png","US_Cities_List/boulder.png","","","","","","","","","","","","","","","","","","","","","","","","","","","",""
"null","","rt_plussign_withcolor","776065","","yellow","","","","","null","US_Cities_List/shreveport.png","US_Cities_List/boulder.png","","","","","","","","","","","","","","","","","","","","","","","","","","","",""
"992.3000000007451","","rt_thecrossant_black","777027","","black_plus_sign","","","","","50","","","1","0.984375","","","","","","","","","","","","","","","","","","","","","","","","","",""
"null","","color_black","777131","","black_plus_sign","","","","","null","","","","","","","","","","","","","","","","","","","","","","","","","","","","","",""
"null","","learn_phase(without_color)","780143","","black_plus_sign","","","","","null","US_Cities_List/leesburg.png","US_Cities_List/huntsville.png","","","","","","","","","","","","","","","","","","","","","","","","","","","",""
"null","","black_cross(without_color)","781047","","blue","","","","","null","US_Cities_List/leesburg.png","US_Cities_List/huntsville.png","","","","","","","","","","","","","","","","","","","","","","","","","","","",""
"null","","rt_plussign_withcolor","781550","","blue","","","","","null","US_Cities_List/leesburg.png","US_Cities_List/huntsville.png","","","","","","","","","","","","","","","","","","","","","","","","","","","",""
"1322.5","","rt_thecrossant_black","782653","","black_plus_sign","","","","","49","","","1","0.9846153846153847","","","","","","","","","","","","","","","","","","","","","","","","","",""
"null","","color_black","782757","","black_plus_sign","","","","","null","","","","","","","","","","","","","","","","","","","","","","","","","","","","","",""
"null","","learn_phase(without_color)","785772","","black_plus_sign","","","","","null","US_Cities_List/hotsprings.png","US_Cities_List/carmel.png","","","","","","","","","","","","","","","","","","","","","","","","","","","",""
"null","","black_cross(without_color)","786382","","blue","","","","","null","US_Cities_List/hotsprings.png","US_Cities_List/carmel.png","","","","","","","","","","","","","","","","","","","","","","","","","","","",""
"null","","rt_plussign_withcolor","786886","","blue","","","","","null","US_Cities_List/hotsprings.png","US_Cities_List/carmel.png","","","","","","","","","","","","","","","","","","","","","","","","","","","",""
"1278.5999999996275","","rt_thecrossant_black","788283","","black_plus_sign","","","","","49","","","1","0.9848484848484849","","","","","","","","","","","","","","","","","","","","","","","","","",""
"null","","color_black","788388","","black_plus_sign","","","","","null","","","","","","","","","","","","","","","","","","","","","","","","","","","","","",""
"null","","learn_phase(without_color)","791401","","black_plus_sign","","","","","null","US_Cities_List/shreveport.png","US_Cities_List/boulder.png","","","","","","","","","","","","","","","","","","","","","","","","","","","",""
"null","","black_cross(without_color)","791951","","blue","","","","","null","US_Cities_List/shreveport.png","US_Cities_List/boulder.png","","","","","","","","","","","","","","","","","","","","","","","","","","","",""
"null","","rt_plussign_withcolor","792454","","blue","","","","","null","US_Cities_List/shreveport.png","US_Cities_List/boulder.png","","","","","","","","","","","","","","","","","","","","","","","","","","","",""
"1703.3999999985099","","rt_thecrossant_black","793910","","black_plus_sign","","","","","49","","","1","0.9850746268656716","","","","","","","","","","","","","","","","","","","","","","","","","",""
"null","","color_black","794014","","black_plus_sign","","","","","null","","","","","","","","","","","","","","","","","","","","","","","","","","","","","",""
"null","","learn_phase(without_color)","797026","","black_plus_sign","","","","","null","US_Cities_List/carmel.png","US_Cities_List/hotsprings.png","","","","","","","","","","","","","","","","","","","","","","","","","","","",""
"null","","black_cross(without_color)","797855","","yellow","","","","","null","US_Cities_List/carmel.png","US_Cities_List/hotsprings.png","","","","","","","","","","","","","","","","","","","","","","","","","","","",""
"null","","rt_plussign_withcolor","798359","","yellow","","","","","null","US_Cities_List/carmel.png","US_Cities_List/hotsprings.png","","","","","","","","","","","","","","","","","","","","","","","","","","","",""
"939.5999999996275","","rt_thecrossant_black","799539","","black_plus_sign","","","","","50","","","1","0.9852941176470589","","","","","","","","","","","","","","","","","","","","","","","","","",""
"null","","color_black","799643","","black_plus_sign","","","","","null","","","","","","","","","","","","","","","","","","","","","","","","","","","","","",""
"null","","learn_phase(without_color)","802656","","black_plus_sign","","","","","null","US_Cities_List/shreveport.png","US_Cities_List/boulder.png","","","","","","","","","","","","","","","","","","","","","","","","","","","",""
"null","","black_cross(without_color)","803454","","yellow","","","","","null","US_Cities_List/shreveport.png","US_Cities_List/boulder.png","","","","","","","","","","","","","","","","","","","","","","","","","","","",""
"null","","rt_plussign_withcolor","803958","","yellow","","","","","null","US_Cities_List/shreveport.png","US_Cities_List/boulder.png","","","","","","","","","","","","","","","","","","","","","","","","","","","",""
"1105.4000000003725","","rt_thecrossant_black","805166","","black_plus_sign","","","","","50","","","1","0.9855072463768116","","","","","","","","","","","","","","","","","","","","","","","","","",""
"null","","color_black","805270","","black_plus_sign","","","","","null","","","","","","","","","","","","","","","","","","","","","","","","","","","","","",""
"null","","learn_phase(without_color)","808284","","black_plus_sign","","","","","null","US_Cities_List/peoria.png","US_Cities_List/newhope.png","","","","","","","","","","","","","","","","","","","","","","","","","","","",""
"null","","black_cross(without_color)","809250","","blue","","","","","null","US_Cities_List/peoria.png","US_Cities_List/newhope.png","","","","","","","","","","","","","","","","","","","","","","","","","","","",""
"null","","rt_plussign_withcolor","809753","","blue","","","","","null","US_Cities_List/peoria.png","US_Cities_List/newhope.png","","","","","","","","","","","","","","","","","","","","","","","","","","","",""
"1121.699999999255","","rt_thecrossant_black","810794","","black_plus_sign","","","","","49","","","1","0.9857142857142858","","","","","","","","","","","","","","","","","","","","","","","","","",""
"null","","color_black","810897","","black_plus_sign","","","","","null","","","","","","","","","","","","","","","","","","","","","","","","","","","","","",""
"null","","learn_phase(without_color)","813909","","black_plus_sign","","","","","null","US_Cities_List/carmel.png","US_Cities_List/hotsprings.png","","","","","","","","","","","","","","","","","","","","","","","","","","","",""
"null","","black_cross(without_color)","814940","","blue","","","","","null","US_Cities_List/carmel.png","US_Cities_List/hotsprings.png","","","","","","","","","","","","","","","","","","","","","","","","","","","",""
"null","","rt_plussign_withcolor","815444","","blue","","","","","null","US_Cities_List/carmel.png","US_Cities_List/hotsprings.png","","","","","","","","","","","","","","","","","","","","","","","","","","","",""
"1270.5999999996275","","rt_thecrossant_black","816420","","black_plus_sign","","","","","49","","","1","0.9859154929577465","","","","","","","","","","","","","","","","","","","","","","","","","",""
"null","","color_black","816525","","black_plus_sign","","","","","null","","","","","","","","","","","","","","","","","","","","","","","","","","","","","",""
"null","","learn_phase(without_color)","819537","","black_plus_sign","","","","","null","US_Cities_List/boulder.png","US_Cities_List/shreveport.png","","","","","","","","","","","","","","","","","","","","","","","","","","","",""
"null","","black_cross(without_color)","820382","","blue","","","","","null","US_Cities_List/boulder.png","US_Cities_List/shreveport.png","","","","","","","","","","","","","","","","","","","","","","","","","","","",""
"null","","rt_plussign_withcolor","820885","","blue","","","","","null","US_Cities_List/boulder.png","US_Cities_List/shreveport.png","","","","","","","","","","","","","","","","","","","","","","","","","","","",""
"1813.2000000011176","","rt_thecrossant_black","822049","","black_plus_sign","","","","","49","","","1","0.9861111111111112","","","","","","","","","","","","","","","","","","","","","","","","","",""
"null","","color_black","822152","","black_plus_sign","","","","","null","","","","","","","","","","","","","","","","","","","","","","","","","","","","","",""
"null","","learn_phase(without_color)","825168","","black_plus_sign","","","","","null","US_Cities_List/peoria.png","US_Cities_List/newhope.png","","","","","","","","","","","","","","","","","","","","","","","","","","","",""
"null","","black_cross(without_color)","826262","","blue","","","","","null","US_Cities_List/peoria.png","US_Cities_List/newhope.png","","","","","","","","","","","","","","","","","","","","","","","","","","","",""
"null","","rt_plussign_withcolor","826765","","blue","","","","","null","US_Cities_List/peoria.png","US_Cities_List/newhope.png","","","","","","","","","","","","","","","","","","","","","","","","","","","",""
"1147.4000000003725","","rt_thecrossant_black","827678","","black_plus_sign","","","","","49","","","1","0.9863013698630136","","","","","","","","","","","","","","","","","","","","","","","","","",""
"null","","color_black","827780","","black_plus_sign","","","","","null","","","","","","","","","","","","","","","","","","","","","","","","","","","","","",""
"null","","learn_phase(without_color)","830791","","black_plus_sign","","","","","null","US_Cities_List/leesburg.png","US_Cities_List/huntsville.png","","","","","","","","","","","","","","","","","","","","","","","","","","","",""
"null","","black_cross(without_color)","831352","","blue","","","","","null","US_Cities_List/leesburg.png","US_Cities_List/huntsville.png","","","","","","","","","","","","","","","","","","","","","","","","","","","",""
"null","","rt_plussign_withcolor","831856","","blue","","","","","null","US_Cities_List/leesburg.png","US_Cities_List/huntsville.png","","","","","","","","","","","","","","","","","","","","","","","","","","","",""
"1371.0999999996275","","rt_thecrossant_black","833302","","black_plus_sign","","","","","49","","","1","0.9864864864864865","","","","","","","","","","","","","","","","","","","","","","","","","",""
"null","","color_black","833406","","black_plus_sign","","","","","null","","","","","","","","","","","","","","","","","","","","","","","","","","","","","",""
"null","","learn_phase(without_color)","836419","","black_plus_sign","","","","","null","US_Cities_List/shreveport.png","US_Cities_List/boulder.png","","","","","","","","","","","","","","","","","","","","","","","","","","","",""
"null","","black_cross(without_color)","837208","","yellow","","","","","null","US_Cities_List/shreveport.png","US_Cities_List/boulder.png","","","","","","","","","","","","","","","","","","","","","","","","","","","",""
"null","","rt_plussign_withcolor","837710","","yellow","","","","","null","US_Cities_List/shreveport.png","US_Cities_List/boulder.png","","","","","","","","","","","","","","","","","","","","","","","","","","","",""
"766.8000000007451","","rt_thecrossant_black","838929","","black_plus_sign","","","","","50","","","1","0.9866666666666667","","","","","","","","","","","","","","","","","","","","","","","","","",""
"null","","color_black","839032","","black_plus_sign","","","","","null","","","","","","","","","","","","","","","","","","","","","","","","","","","","","",""
"null","","learn_phase(without_color)","842048","","black_plus_sign","","","","","null","US_Cities_List/newhope.png","US_Cities_List/peoria.png","","","","","","","","","","","","","","","","","","","","","","","","","","","",""
"null","","black_cross(without_color)","842482","","yellow","","","","","null","US_Cities_List/newhope.png","US_Cities_List/peoria.png","","","","","","","","","","","","","","","","","","","","","","","","","","","",""
"null","","rt_plussign_withcolor","842984","","yellow","","","","","null","US_Cities_List/newhope.png","US_Cities_List/peoria.png","","","","","","","","","","","","","","","","","","","","","","","","","","","",""
"1673.0999999996275","","rt_thecrossant_black","844557","","black_plus_sign","","","","","50","","","1","0.9868421052631579","","","","","","","","","","","","","","","","","","","","","","","","","",""
"null","","color_black","844660","","black_plus_sign","","","","","null","","","","","","","","","","","","","","","","","","","","","","","","","","","","","",""
"null","","learn_phase(without_color)","847674","","black_plus_sign","","","","","null","US_Cities_List/boulder.png","US_Cities_List/shreveport.png","","","","","","","","","","","","","","","","","","","","","","","","","","","",""
"null","","black_cross(without_color)","848570","","yellow","","","","","null","US_Cities_List/boulder.png","US_Cities_List/shreveport.png","","","","","","","","","","","","","","","","","","","","","","","","","","","",""
"null","","rt_plussign_withcolor","849073","","yellow","","","","","null","US_Cities_List/boulder.png","US_Cities_List/shreveport.png","","","","","","","","","","","","","","","","","","","","","","","","","","","",""
"1227.7999999988824","","rt_thecrossant_black","850185","","black_plus_sign","","","","","50","","","1","0.987012987012987","","","","","","","","","","","","","","","","","","","","","","","","","",""
"null","","color_black","850288","","black_plus_sign","","","","","null","","","","","","","","","","","","","","","","","","","","","","","","","","","","","",""
"null","","learn_phase(without_color)","853301","","black_plus_sign","","","","","null","US_Cities_List/newhope.png","US_Cities_List/peoria.png","","","","","","","","","","","","","","","","","","","","","","","","","","","",""
"null","","black_cross(without_color)","854300","","yellow","","","","","null","US_Cities_List/newhope.png","US_Cities_List/peoria.png","","","","","","","","","","","","","","","","","","","","","","","","","","","",""
"472","","rt_plussign_withcolor","854803","","yellow","","","","","50","US_Cities_List/newhope.png","US_Cities_List/peoria.png","","","","","","","","","","","","","","","","","","","","","","","","","","","",""
"null","","rt_thecrossant_black","855812","","black_plus_sign","","","","","null","","","1","0.9871794871794872","","","","","","","","","","","","","","","","","","","","","","","","","",""
"null","","color_black","855916","","black_plus_sign","","","","","null","","","","","","","","","","","","","","","","","","","","","","","","","","","","","",""
"null","","learn_phase(without_color)","858926","","black_plus_sign","","","","","null","US_Cities_List/huntsville.png","US_Cities_List/leesburg.png","","","","","","","","","","","","","","","","","","","","","","","","","","","",""
"null","","black_cross(without_color)","859879","","yellow","","","","","null","US_Cities_List/huntsville.png","US_Cities_List/leesburg.png","","","","","","","","","","","","","","","","","","","","","","","","","","","",""
"null","","rt_plussign_withcolor","860382","","yellow","","","","","null","US_Cities_List/huntsville.png","US_Cities_List/leesburg.png","","","","","","","","","","","","","","","","","","","","","","","","","","","",""
"1628.5999999996275","","rt_thecrossant_black","861437","","black_plus_sign","","","","","50","","","1","0.9873417721518988","","","","","","","","","","","","","","","","","","","","","","","","","",""
"null","","color_black","861541","","black_plus_sign","","","","","null","","","","","","","","","","","","","","","","","","","","","","","","","","","","","",""
"null","","learn_phase(without_color)","864555","","black_plus_sign","","","","","null","US_Cities_List/boulder.png","US_Cities_List/shreveport.png","","","","","","","","","","","","","","","","","","","","","","","","","","","",""
"null","","black_cross(without_color)","865109","","yellow","","","","","null","US_Cities_List/boulder.png","US_Cities_List/shreveport.png","","","","","","","","","","","","","","","","","","","","","","","","","","","",""
"null","","rt_plussign_withcolor","865613","","yellow","","","","","null","US_Cities_List/boulder.png","US_Cities_List/shreveport.png","","","","","","","","","","","","","","","","","","","","","","","","","","","",""
"1585.300000000745","","rt_thecrossant_black","867067","","black_plus_sign","","","","","50","","","1","0.9875","","","","","","","","","","","","","","","","","","","","","","","","","",""
"null","","color_black","867169","","black_plus_sign","","","","","null","","","","","","","","","","","","","","","","","","","","","","","","","","","","","",""
"null","","learn_phase(without_color)","870183","","black_plus_sign","","","","","null","US_Cities_List/hotsprings.png","US_Cities_List/carmel.png","","","","","","","","","","","","","","","","","","","","","","","","","","","",""
"null","","black_cross(without_color)","870734","","yellow","","","","","null","US_Cities_List/hotsprings.png","US_Cities_List/carmel.png","","","","","","","","","","","","","","","","","","","","","","","","","","","",""
"null","","rt_plussign_withcolor","871236","","yellow","","","","","null","US_Cities_List/hotsprings.png","US_Cities_List/carmel.png","","","","","","","","","","","","","","","","","","","","","","","","","","","",""
"1393.5","","rt_thecrossant_black","872693","","black_plus_sign","","","","","50","","","1","0.9876543209876543","","","","","","","","","","","","","","","","","","","","","","","","","",""
"null","","color_black","872797","","black_plus_sign","","","","","null","","","","","","","","","","","","","","","","","","","","","","","","","","","","","",""
"null","","learn_phase(without_color)","875810","","black_plus_sign","","","","","null","US_Cities_List/leesburg.png","US_Cities_List/huntsville.png","","","","","","","","","","","","","","","","","","","","","","","","","","","",""
"null","","black_cross(without_color)","876633","","yellow","","","","","null","US_Cities_List/leesburg.png","US_Cities_List/huntsville.png","","","","","","","","","","","","","","","","","","","","","","","","","","","",""
"null","","rt_plussign_withcolor","877137","","yellow","","","","","null","US_Cities_List/leesburg.png","US_Cities_List/huntsville.png","","","","","","","","","","","","","","","","","","","","","","","","","","","",""
"1114.5","","rt_thecrossant_black","878321","","black_plus_sign","","","","","50","","","1","0.9878048780487805","","","","","","","","","","","","","","","","","","","","","","","","","",""
"null","","color_black","878425","","black_plus_sign","","","","","null","","","","","","","","","","","","","","","","","","","","","","","","","","","","","",""
"null","","learn_phase(without_color)","881443","","black_plus_sign","","","","","null","US_Cities_List/newhope.png","US_Cities_List/peoria.png","","","","","","","","","","","","","","","","","","","","","","","","","","","",""
"null","","black_cross(without_color)","882533","","yellow","","","","","null","US_Cities_List/newhope.png","US_Cities_List/peoria.png","","","","","","","","","","","","","","","","","","","","","","","","","","","",""
"null","","rt_plussign_withcolor","883037","","yellow","","","","","null","US_Cities_List/newhope.png","US_Cities_List/peoria.png","","","","","","","","","","","","","","","","","","","","","","","","","","","",""
"1063","","rt_thecrossant_black","883954","","black_plus_sign","","","","","50","","","1","0.9879518072289156","","","","","","","","","","","","","","","","","","","","","","","","","",""
"null","","color_black","884057","","black_plus_sign","","","","","null","","","","","","","","","","","","","","","","","","","","","","","","","","","","","",""
"null","","learn_phase(without_color)","887070","","black_plus_sign","","","","","null","US_Cities_List/huntsville.png","US_Cities_List/leesburg.png","","","","","","","","","","","","","","","","","","","","","","","","","","","",""
"null","","black_cross(without_color)","888143","","yellow","","","","","null","US_Cities_List/huntsville.png","US_Cities_List/leesburg.png","","","","","","","","","","","","","","","","","","","","","","","","","","","",""
"null","","rt_plussign_withcolor","888646","","yellow","","","","","null","US_Cities_List/huntsville.png","US_Cities_List/leesburg.png","","","","","","","","","","","","","","","","","","","","","","","","","","","",""
"1441.1000000014901","","rt_thecrossant_black","889581","","black_plus_sign","","","","","50","","","1","0.9880952380952381","","","","","","","","","","","","","","","","","","","","","","","","","",""
