rt,responses,trial_type,time_elapsed,stimulus,button_pressed,key_press,name_trial,city_type,rating,probe,probe_accuracy,response,correct,accuracy,problems,smooth,distraction,strategies,familiar,memorable,unique,realistic,similar,comments
70201.5,{worker_id:671b277a6d04904df5f9503b},id_enter,70203,,,,,,,,,,,,,,,,,,,,,
9463.5,,fullscreen,79670,fullscreen,0,,,,,,,,,,,,,,,,,,,
1937.2999999970198,,intro_0,81609,instruct,,32,,,,,,,,,,,,,,,,,,
8886.39999999106,,intro_1,90497,instruct,,32,,,,,,,,,,,,,,,,,,
6153.20000000298,,intro_2,96651,instruct,,32,,,,,,,,,,,,,,,,,,
null,,instruct_dir_4,98152,instruct,,null,,,,,,,,,,,,,,,,,,
null,,thebreak,98662,break,,null,,,,,,,,,,,,,,,,,,
6441.4000000059605,,familiar_rating,105104,US_Cities_List/nat_okoboji.png,,50,US_Cities_List/nat_okoboji.png,NAT,2,,,,,,,,,,,,,,,
null,,confidence_buffer,105206,confidence_buffer,,null,,,,,,,,,,,,,,,,,,
3917.300000011921,,unique_rating,109125,US_Cities_List/nat_okoboji.png,,51,,,3,,,,,,,,,,,,,,,
null,,confidence_buffer,109226,confidence_buffer,,null,,,,,,,,,,,,,,,,,,
1525,,memorable_rating,110751,US_Cities_List/nat_okoboji.png,,51,,,3,,,,,,,,,,,,,,,
null,,confidence_buffer,110854,confidence_buffer,,null,,,,,,,,,,,,,,,,,,
null,,thebreak,111355,break,,null,,,,,,,,,,,,,,,,,,
2153.5,,familiar_rating,113510,Fictional_Cities_List/img_manmade_19.png,,51,Fictional_Cities_List/img_manmade_19.png,MM,3,,,,,,,,,,,,,,,
null,,confidence_buffer,113611,confidence_buffer,,null,,,,,,,,,,,,,,,,,,
1267.4000000059605,,unique_rating,114879,Fictional_Cities_List/img_manmade_19.png,,51,,,3,,,,,,,,,,,,,,,
null,,confidence_buffer,114981,confidence_buffer,,null,,,,,,,,,,,,,,,,,,
1219.5,,memorable_rating,116201,Fictional_Cities_List/img_manmade_19.png,,50,,,2,,,,,,,,,,,,,,,
null,,confidence_buffer,116303,confidence_buffer,,null,,,,,,,,,,,,,,,,,,
null,,thebreak,116805,break,,null,,,,,,,,,,,,,,,,,,
4416.4000000059605,,familiar_rating,121223,Fictional_Cities_List/img_natural_24.png,,49,Fictional_Cities_List/img_natural_24.png,NAT,1,,,,,,,,,,,,,,,
null,,confidence_buffer,121324,confidence_buffer,,null,,,,,,,,,,,,,,,,,,
1539.7999999970198,,unique_rating,122864,Fictional_Cities_List/img_natural_24.png,,52,,,4,,,,,,,,,,,,,,,
null,,confidence_buffer,122965,confidence_buffer,,null,,,,,,,,,,,,,,,,,,
1992.7000000029802,,memorable_rating,124959,Fictional_Cities_List/img_natural_24.png,,52,,,4,,,,,,,,,,,,,,,
null,,confidence_buffer,125060,confidence_buffer,,null,,,,,,,,,,,,,,,,,,
null,,thebreak,125562,break,,null,,,,,,,,,,,,,,,,,,
3593.800000011921,,familiar_rating,129157,US_Cities_List/nat_athens.png,,51,US_Cities_List/nat_athens.png,NAT,3,,,,,,,,,,,,,,,
null,,confidence_buffer,129258,confidence_buffer,,null,,,,,,,,,,,,,,,,,,
1079.2000000029802,,unique_rating,130338,US_Cities_List/nat_athens.png,,51,,,3,,,,,,,,,,,,,,,
null,,confidence_buffer,130439,confidence_buffer,,null,,,,,,,,,,,,,,,,,,
3511.7000000029802,,memorable_rating,133951,US_Cities_List/nat_athens.png,,52,,,4,,,,,,,,,,,,,,,
null,,confidence_buffer,134052,confidence_buffer,,null,,,,,,,,,,,,,,,,,,
null,,thebreak,134554,break,,null,,,,,,,,,,,,,,,,,,
3567.9000000059605,,familiar_rating,138123,US_Cities_List/nat_abilene.png,,50,US_Cities_List/nat_abilene.png,NAT,2,,,,,,,,,,,,,,,
null,,confidence_buffer,138224,confidence_buffer,,null,,,,,,,,,,,,,,,,,,
1519.6000000089407,,unique_rating,139744,US_Cities_List/nat_abilene.png,,51,,,3,,,,,,,,,,,,,,,
null,,confidence_buffer,139846,confidence_buffer,,null,,,,,,,,,,,,,,,,,,
750.6000000089407,,memorable_rating,140597,US_Cities_List/nat_abilene.png,,51,,,3,,,,,,,,,,,,,,,
null,,confidence_buffer,140699,confidence_buffer,,null,,,,,,,,,,,,,,,,,,
null,,thebreak,141201,break,,null,,,,,,,,,,,,,,,,,,
1945.0999999940395,,familiar_rating,143147,US_Cities_List/nat_delawarecity.png,,51,US_Cities_List/nat_delawarecity.png,NAT,3,,,,,,,,,,,,,,,
null,,confidence_buffer,143248,confidence_buffer,,null,,,,,,,,,,,,,,,,,,
1830.3999999910593,,unique_rating,145079,US_Cities_List/nat_delawarecity.png,,51,,,3,,,,,,,,,,,,,,,
null,,confidence_buffer,145180,confidence_buffer,,null,,,,,,,,,,,,,,,,,,
461.09999999403954,,memorable_rating,145642,US_Cities_List/nat_delawarecity.png,,50,,,2,,,,,,,,,,,,,,,
null,,confidence_buffer,145743,confidence_buffer,,null,,,,,,,,,,,,,,,,,,
2266,,probe_rating,148010,probe_rating,,51,,,,3,1,,,,,,,,,,,,,
null,,confidence_buffer,148112,confidence_buffer,,null,,,,,,,,,,,,,,,,,,
null,,thebreak,148613,break,,null,,,,,,,,,,,,,,,,,,
6660.9000000059605,,familiar_rating,155275,US_Cities_List/mm_hilo.png,,49,US_Cities_List/mm_hilo.png,MM,1,,,,,,,,,,,,,,,
null,,confidence_buffer,155378,confidence_buffer,,null,,,,,,,,,,,,,,,,,,
2680.2000000029802,,unique_rating,158059,US_Cities_List/mm_hilo.png,,53,,,5,,,,,,,,,,,,,,,
null,,confidence_buffer,158161,confidence_buffer,,null,,,,,,,,,,,,,,,,,,
936.9000000059605,,memorable_rating,159099,US_Cities_List/mm_hilo.png,,52,,,4,,,,,,,,,,,,,,,
null,,confidence_buffer,159199,confidence_buffer,,null,,,,,,,,,,,,,,,,,,
null,,thebreak,159700,break,,null,,,,,,,,,,,,,,,,,,
3689.4000000059605,,familiar_rating,163390,US_Cities_List/mm_okoboji.png,,50,US_Cities_List/mm_okoboji.png,MM,2,,,,,,,,,,,,,,,
null,,confidence_buffer,163501,confidence_buffer,,null,,,,,,,,,,,,,,,,,,
1407.2000000029802,,unique_rating,164909,US_Cities_List/mm_okoboji.png,,50,,,2,,,,,,,,,,,,,,,
null,,confidence_buffer,165011,confidence_buffer,,null,,,,,,,,,,,,,,,,,,
2258,,memorable_rating,167270,US_Cities_List/mm_okoboji.png,,49,,,1,,,,,,,,,,,,,,,
null,,confidence_buffer,167371,confidence_buffer,,null,,,,,,,,,,,,,,,,,,
null,,thebreak,167872,break,,null,,,,,,,,,,,,,,,,,,
2821.1000000089407,,familiar_rating,170694,US_Cities_List/nat_hilo.png,,49,US_Cities_List/nat_hilo.png,NAT,1,,,,,,,,,,,,,,,
null,,confidence_buffer,170796,confidence_buffer,,null,,,,,,,,,,,,,,,,,,
1528.2000000029802,,probe_rating,172325,probe_rating,,50,,,,2,1,,,,,,,,,,,,,
null,,confidence_buffer,172426,confidence_buffer,,null,,,,,,,,,,,,,,,,,,
2306.5,,unique_rating,174733,US_Cities_List/nat_hilo.png,,51,,,3,,,,,,,,,,,,,,,
null,,confidence_buffer,174835,confidence_buffer,,null,,,,,,,,,,,,,,,,,,
1345.2999999970198,,memorable_rating,176181,US_Cities_List/nat_hilo.png,,51,,,3,,,,,,,,,,,,,,,
null,,confidence_buffer,176283,confidence_buffer,,null,,,,,,,,,,,,,,,,,,
null,,thebreak,176785,break,,null,,,,,,,,,,,,,,,,,,
2086.2999999970198,,familiar_rating,178872,Fictional_Cities_List/img_manmade_01.png,,50,Fictional_Cities_List/img_manmade_01.png,MM,2,,,,,,,,,,,,,,,
null,,confidence_buffer,178973,confidence_buffer,,null,,,,,,,,,,,,,,,,,,
2522.5999999940395,,unique_rating,181497,Fictional_Cities_List/img_manmade_01.png,,51,,,3,,,,,,,,,,,,,,,
null,,confidence_buffer,181598,confidence_buffer,,null,,,,,,,,,,,,,,,,,,
2577.1000000089407,,memorable_rating,184176,Fictional_Cities_List/img_manmade_01.png,,50,,,2,,,,,,,,,,,,,,,
null,,confidence_buffer,184277,confidence_buffer,,null,,,,,,,,,,,,,,,,,,
null,,thebreak,184779,break,,null,,,,,,,,,,,,,,,,,,
3847.7999999970198,,familiar_rating,188627,Fictional_Cities_List/img_manmade_10.png,,49,Fictional_Cities_List/img_manmade_10.png,MM,1,,,,,,,,,,,,,,,
null,,confidence_buffer,188728,confidence_buffer,,null,,,,,,,,,,,,,,,,,,
1631.5999999940395,,unique_rating,190361,Fictional_Cities_List/img_manmade_10.png,,52,,,4,,,,,,,,,,,,,,,
null,,confidence_buffer,190465,confidence_buffer,,null,,,,,,,,,,,,,,,,,,
1957.2000000029802,,memorable_rating,192423,Fictional_Cities_List/img_manmade_10.png,,52,,,4,,,,,,,,,,,,,,,
null,,confidence_buffer,192526,confidence_buffer,,null,,,,,,,,,,,,,,,,,,
null,,thebreak,193027,break,,null,,,,,,,,,,,,,,,,,,
2677.5,,familiar_rating,195706,Fictional_Cities_List/img_manmade_45.png,,52,Fictional_Cities_List/img_manmade_45.png,MM,4,,,,,,,,,,,,,,,
null,,confidence_buffer,195808,confidence_buffer,,null,,,,,,,,,,,,,,,,,,
2908.7999999970198,,unique_rating,198717,Fictional_Cities_List/img_manmade_45.png,,51,,,3,,,,,,,,,,,,,,,
null,,confidence_buffer,198819,confidence_buffer,,null,,,,,,,,,,,,,,,,,,
1848.0999999940395,,memorable_rating,200668,Fictional_Cities_List/img_manmade_45.png,,51,,,3,,,,,,,,,,,,,,,
null,,confidence_buffer,200770,confidence_buffer,,null,,,,,,,,,,,,,,,,,,
null,,thebreak,201273,break,,null,,,,,,,,,,,,,,,,,,
4533.4000000059605,,familiar_rating,205807,Fictional_Cities_List/img_natural_41.png,,51,Fictional_Cities_List/img_natural_41.png,NAT,3,,,,,,,,,,,,,,,
null,,confidence_buffer,205908,confidence_buffer,,null,,,,,,,,,,,,,,,,,,
1886.2000000029802,,unique_rating,207795,Fictional_Cities_List/img_natural_41.png,,52,,,4,,,,,,,,,,,,,,,
null,,confidence_buffer,207897,confidence_buffer,,null,,,,,,,,,,,,,,,,,,
931.4000000059605,,memorable_rating,208829,Fictional_Cities_List/img_natural_41.png,,52,,,4,,,,,,,,,,,,,,,
null,,confidence_buffer,208930,confidence_buffer,,null,,,,,,,,,,,,,,,,,,
null,,thebreak,209431,break,,null,,,,,,,,,,,,,,,,,,
2730.5,,familiar_rating,212162,US_Cities_List/nat_peoria.png,,50,US_Cities_List/nat_peoria.png,NAT,2,,,,,,,,,,,,,,,
null,,confidence_buffer,212264,confidence_buffer,,null,,,,,,,,,,,,,,,,,,
1894.7999999970198,,unique_rating,214159,US_Cities_List/nat_peoria.png,,51,,,3,,,,,,,,,,,,,,,
null,,confidence_buffer,214261,confidence_buffer,,null,,,,,,,,,,,,,,,,,,
1075.5,,memorable_rating,215337,US_Cities_List/nat_peoria.png,,51,,,3,,,,,,,,,,,,,,,
null,,confidence_buffer,215438,confidence_buffer,,null,,,,,,,,,,,,,,,,,,
null,,thebreak,215940,break,,null,,,,,,,,,,,,,,,,,,
3825.0999999940395,,familiar_rating,219766,US_Cities_List/mm_bisbee.png,,49,US_Cities_List/mm_bisbee.png,MM,1,,,,,,,,,,,,,,,
null,,confidence_buffer,219867,confidence_buffer,,null,,,,,,,,,,,,,,,,,,
2388.2999999970198,,unique_rating,222256,US_Cities_List/mm_bisbee.png,,51,,,3,,,,,,,,,,,,,,,
null,,confidence_buffer,222358,confidence_buffer,,null,,,,,,,,,,,,,,,,,,
944.2999999970198,,memorable_rating,223303,US_Cities_List/mm_bisbee.png,,50,,,2,,,,,,,,,,,,,,,
null,,confidence_buffer,223404,confidence_buffer,,null,,,,,,,,,,,,,,,,,,
null,,thebreak,223905,break,,null,,,,,,,,,,,,,,,,,,
2820.4000000059605,,familiar_rating,226727,US_Cities_List/mm_peoria.png,,49,US_Cities_List/mm_peoria.png,MM,1,,,,,,,,,,,,,,,
null,,confidence_buffer,226828,confidence_buffer,,null,,,,,,,,,,,,,,,,,,
1340.2000000029802,,unique_rating,228169,US_Cities_List/mm_peoria.png,,51,,,3,,,,,,,,,,,,,,,
null,,confidence_buffer,228270,confidence_buffer,,null,,,,,,,,,,,,,,,,,,
935.7999999970198,,memorable_rating,229207,US_Cities_List/mm_peoria.png,,51,,,3,,,,,,,,,,,,,,,
null,,confidence_buffer,229309,confidence_buffer,,null,,,,,,,,,,,,,,,,,,
null,,thebreak,229810,break,,null,,,,,,,,,,,,,,,,,,
2464.5,,familiar_rating,232276,Fictional_Cities_List/img_manmade_27.png,,49,Fictional_Cities_List/img_manmade_27.png,MM,1,,,,,,,,,,,,,,,
null,,confidence_buffer,232378,confidence_buffer,,null,,,,,,,,,,,,,,,,,,
1540,,unique_rating,233919,Fictional_Cities_List/img_manmade_27.png,,52,,,4,,,,,,,,,,,,,,,
null,,confidence_buffer,234021,confidence_buffer,,null,,,,,,,,,,,,,,,,,,
1059.7999999970198,,memorable_rating,235081,Fictional_Cities_List/img_manmade_27.png,,52,,,4,,,,,,,,,,,,,,,
null,,confidence_buffer,235183,confidence_buffer,,null,,,,,,,,,,,,,,,,,,
null,,thebreak,235685,break,,null,,,,,,,,,,,,,,,,,,
2496.199999988079,,familiar_rating,238182,US_Cities_List/nat_hotsprings.png,,50,US_Cities_List/nat_hotsprings.png,NAT,2,,,,,,,,,,,,,,,
null,,confidence_buffer,238284,confidence_buffer,,null,,,,,,,,,,,,,,,,,,
958.7999999970198,,unique_rating,239244,US_Cities_List/nat_hotsprings.png,,50,,,2,,,,,,,,,,,,,,,
null,,confidence_buffer,239346,confidence_buffer,,null,,,,,,,,,,,,,,,,,,
671.4000000059605,,memorable_rating,240018,US_Cities_List/nat_hotsprings.png,,51,,,3,,,,,,,,,,,,,,,
null,,confidence_buffer,240120,confidence_buffer,,null,,,,,,,,,,,,,,,,,,
null,,thebreak,240621,break,,null,,,,,,,,,,,,,,,,,,
3017.7000000029802,,familiar_rating,243640,Fictional_Cities_List/img_natural_23.png,,49,Fictional_Cities_List/img_natural_23.png,NAT,1,,,,,,,,,,,,,,,
null,,confidence_buffer,243742,confidence_buffer,,null,,,,,,,,,,,,,,,,,,
2078.0999999940395,,probe_rating,245820,probe_rating,,49,,,,1,1,,,,,,,,,,,,,
null,,confidence_buffer,245922,confidence_buffer,,null,,,,,,,,,,,,,,,,,,
1419.5,,unique_rating,247342,Fictional_Cities_List/img_natural_23.png,,52,,,4,,,,,,,,,,,,,,,
null,,confidence_buffer,247443,confidence_buffer,,null,,,,,,,,,,,,,,,,,,
1127.4000000059605,,memorable_rating,248571,Fictional_Cities_List/img_natural_23.png,,52,,,4,,,,,,,,,,,,,,,
null,,confidence_buffer,248672,confidence_buffer,,null,,,,,,,,,,,,,,,,,,
null,,thebreak,249173,break,,null,,,,,,,,,,,,,,,,,,
2244.9000000059605,,familiar_rating,251419,US_Cities_List/mm_healdsburg.png,,51,US_Cities_List/mm_healdsburg.png,MM,3,,,,,,,,,,,,,,,
null,,confidence_buffer,251521,confidence_buffer,,null,,,,,,,,,,,,,,,,,,
4067.2999999970198,,probe_rating,255589,probe_rating,,50,,,,2,1,,,,,,,,,,,,,
null,,confidence_buffer,255690,confidence_buffer,,null,,,,,,,,,,,,,,,,,,
1703.3999999910593,,unique_rating,257394,US_Cities_List/mm_healdsburg.png,,52,,,4,,,,,,,,,,,,,,,
null,,confidence_buffer,257496,confidence_buffer,,null,,,,,,,,,,,,,,,,,,
1614.2000000029802,,memorable_rating,259111,US_Cities_List/mm_healdsburg.png,,51,,,3,,,,,,,,,,,,,,,
null,,confidence_buffer,259212,confidence_buffer,,null,,,,,,,,,,,,,,,,,,
null,,thebreak,259714,break,,null,,,,,,,,,,,,,,,,,,
3833.1000000089407,,familiar_rating,263547,Fictional_Cities_List/img_natural_45.png,,49,Fictional_Cities_List/img_natural_45.png,NAT,1,,,,,,,,,,,,,,,
null,,confidence_buffer,263648,confidence_buffer,,null,,,,,,,,,,,,,,,,,,
1650.4000000059605,,unique_rating,265300,Fictional_Cities_List/img_natural_45.png,,52,,,4,,,,,,,,,,,,,,,
null,,confidence_buffer,265402,confidence_buffer,,null,,,,,,,,,,,,,,,,,,
1790.4000000059605,,memorable_rating,267194,Fictional_Cities_List/img_natural_45.png,,52,,,4,,,,,,,,,,,,,,,
null,,confidence_buffer,267294,confidence_buffer,,null,,,,,,,,,,,,,,,,,,
null,,thebreak,267795,break,,null,,,,,,,,,,,,,,,,,,
4757.20000000298,,familiar_rating,272553,US_Cities_List/mm_westpalmbeach.png,,49,US_Cities_List/mm_westpalmbeach.png,MM,1,,,,,,,,,,,,,,,
null,,confidence_buffer,272654,confidence_buffer,,null,,,,,,,,,,,,,,,,,,
1712.7000000029802,,unique_rating,274368,US_Cities_List/mm_westpalmbeach.png,,53,,,5,,,,,,,,,,,,,,,
null,,confidence_buffer,274469,confidence_buffer,,null,,,,,,,,,,,,,,,,,,
2122.7000000029802,,memorable_rating,276593,US_Cities_List/mm_westpalmbeach.png,,53,,,5,,,,,,,,,,,,,,,
null,,confidence_buffer,276694,confidence_buffer,,null,,,,,,,,,,,,,,,,,,
null,,thebreak,277196,break,,null,,,,,,,,,,,,,,,,,,
2836.5999999940395,,familiar_rating,280033,Fictional_Cities_List/img_natural_03.png,,51,Fictional_Cities_List/img_natural_03.png,NAT,3,,,,,,,,,,,,,,,
null,,confidence_buffer,280135,confidence_buffer,,null,,,,,,,,,,,,,,,,,,
1438.2000000029802,,unique_rating,281574,Fictional_Cities_List/img_natural_03.png,,52,,,4,,,,,,,,,,,,,,,
null,,confidence_buffer,281675,confidence_buffer,,null,,,,,,,,,,,,,,,,,,
1873.5,,memorable_rating,283550,Fictional_Cities_List/img_natural_03.png,,52,,,4,,,,,,,,,,,,,,,
null,,confidence_buffer,283651,confidence_buffer,,null,,,,,,,,,,,,,,,,,,
null,,thebreak,284163,break,,null,,,,,,,,,,,,,,,,,,
2531,,familiar_rating,286695,Fictional_Cities_List/img_manmade_24.png,,49,Fictional_Cities_List/img_manmade_24.png,MM,1,,,,,,,,,,,,,,,
null,,confidence_buffer,286796,confidence_buffer,,null,,,,,,,,,,,,,,,,,,
2083.3999999910593,,unique_rating,288880,Fictional_Cities_List/img_manmade_24.png,,50,,,2,,,,,,,,,,,,,,,
null,,confidence_buffer,288982,confidence_buffer,,null,,,,,,,,,,,,,,,,,,
2391.2000000029802,,memorable_rating,291373,Fictional_Cities_List/img_manmade_24.png,,49,,,1,,,,,,,,,,,,,,,
null,,confidence_buffer,291475,confidence_buffer,,null,,,,,,,,,,,,,,,,,,
null,,thebreak,291977,break,,null,,,,,,,,,,,,,,,,,,
3275,,familiar_rating,295253,US_Cities_List/mm_athens.png,,52,US_Cities_List/mm_athens.png,MM,4,,,,,,,,,,,,,,,
null,,confidence_buffer,295354,confidence_buffer,,null,,,,,,,,,,,,,,,,,,
1332.4000000059605,,unique_rating,296688,US_Cities_List/mm_athens.png,,51,,,3,,,,,,,,,,,,,,,
null,,confidence_buffer,296789,confidence_buffer,,null,,,,,,,,,,,,,,,,,,
1232.7000000029802,,memorable_rating,298023,US_Cities_List/mm_athens.png,,51,,,3,,,,,,,,,,,,,,,
null,,confidence_buffer,298124,confidence_buffer,,null,,,,,,,,,,,,,,,,,,
null,,thebreak,298626,break,,null,,,,,,,,,,,,,,,,,,
2560.3999999910593,,familiar_rating,301187,Fictional_Cities_List/img_natural_10.png,,49,Fictional_Cities_List/img_natural_10.png,NAT,1,,,,,,,,,,,,,,,
null,,confidence_buffer,301288,confidence_buffer,,null,,,,,,,,,,,,,,,,,,
1335.5,,unique_rating,302624,Fictional_Cities_List/img_natural_10.png,,52,,,4,,,,,,,,,,,,,,,
null,,confidence_buffer,302726,confidence_buffer,,null,,,,,,,,,,,,,,,,,,
977.9000000059605,,memorable_rating,303705,Fictional_Cities_List/img_natural_10.png,,51,,,3,,,,,,,,,,,,,,,
null,,confidence_buffer,303806,confidence_buffer,,null,,,,,,,,,,,,,,,,,,
null,,thebreak,304307,break,,null,,,,,,,,,,,,,,,,,,
2271.0999999940395,,familiar_rating,306579,Fictional_Cities_List/img_natural_19.png,,49,Fictional_Cities_List/img_natural_19.png,NAT,1,,,,,,,,,,,,,,,
null,,confidence_buffer,306681,confidence_buffer,,null,,,,,,,,,,,,,,,,,,
1655.4000000059605,,unique_rating,308337,Fictional_Cities_List/img_natural_19.png,,53,,,5,,,,,,,,,,,,,,,
null,,confidence_buffer,308438,confidence_buffer,,null,,,,,,,,,,,,,,,,,,
1447.4000000059605,,memorable_rating,309886,Fictional_Cities_List/img_natural_19.png,,52,,,4,,,,,,,,,,,,,,,
null,,confidence_buffer,309989,confidence_buffer,,null,,,,,,,,,,,,,,,,,,
null,,thebreak,310491,break,,null,,,,,,,,,,,,,,,,,,
3369.8999999910593,,familiar_rating,313862,Fictional_Cities_List/img_manmade_23.png,,52,Fictional_Cities_List/img_manmade_23.png,MM,4,,,,,,,,,,,,,,,
null,,confidence_buffer,313964,confidence_buffer,,null,,,,,,,,,,,,,,,,,,
1840.5999999940395,,probe_rating,315805,probe_rating,,51,,,,3,1,,,,,,,,,,,,,
null,,confidence_buffer,315906,confidence_buffer,,null,,,,,,,,,,,,,,,,,,
1504.800000011921,,unique_rating,317412,Fictional_Cities_List/img_manmade_23.png,,51,,,3,,,,,,,,,,,,,,,
null,,confidence_buffer,317514,confidence_buffer,,null,,,,,,,,,,,,,,,,,,
1118.2000000029802,,memorable_rating,318632,Fictional_Cities_List/img_manmade_23.png,,51,,,3,,,,,,,,,,,,,,,
null,,confidence_buffer,318733,confidence_buffer,,null,,,,,,,,,,,,,,,,,,
null,,thebreak,319235,break,,null,,,,,,,,,,,,,,,,,,
3362.5999999940395,,familiar_rating,322598,US_Cities_List/mm_cornwall.png,,50,US_Cities_List/mm_cornwall.png,MM,2,,,,,,,,,,,,,,,
null,,confidence_buffer,322700,confidence_buffer,,null,,,,,,,,,,,,,,,,,,
1380.9000000059605,,unique_rating,324081,US_Cities_List/mm_cornwall.png,,52,,,4,,,,,,,,,,,,,,,
null,,confidence_buffer,324182,confidence_buffer,,null,,,,,,,,,,,,,,,,,,
1598.8999999910593,,memorable_rating,325782,US_Cities_List/mm_cornwall.png,,51,,,3,,,,,,,,,,,,,,,
null,,confidence_buffer,325883,confidence_buffer,,null,,,,,,,,,,,,,,,,,,
null,,thebreak,326384,break,,null,,,,,,,,,,,,,,,,,,
1945.0999999940395,,familiar_rating,328330,Fictional_Cities_List/img_natural_13.png,,49,Fictional_Cities_List/img_natural_13.png,NAT,1,,,,,,,,,,,,,,,
null,,confidence_buffer,328431,confidence_buffer,,null,,,,,,,,,,,,,,,,,,
1693.9000000059605,,unique_rating,330126,Fictional_Cities_List/img_natural_13.png,,52,,,4,,,,,,,,,,,,,,,
null,,confidence_buffer,330227,confidence_buffer,,null,,,,,,,,,,,,,,,,,,
2377.5,,memorable_rating,332605,Fictional_Cities_List/img_natural_13.png,,53,,,5,,,,,,,,,,,,,,,
null,,confidence_buffer,332707,confidence_buffer,,null,,,,,,,,,,,,,,,,,,
null,,thebreak,333210,break,,null,,,,,,,,,,,,,,,,,,
4662.100000008941,,intro_0,337873,instruct,,32,,,,,,,,,,,,,,,,,,
7691.0999999940395,,intro_1,345564,instruct,,32,,,,,,,,,,,,,,,,,,
10680.5,,intro_2,356245,instruct,,32,,,,,,,,,,,,,,,,,,
null,,instruct_dir_4,357747,instruct,,null,,,,,,,,,,,,,,,,,,
5165.79999999702,,pt2_realistic_rating,362914,Fictional_Cities_List/img_natural_01.png,,51,Fictional_Cities_List/img_natural_01.png,NAT,3,,,,,,,,,,,,,,,
null,,confidence_buffer,363018,confidence_buffer,,null,,,,,,,,,,,,,,,,,,
3055.2000000029802,,pt2_unique_rating,366074,Fictional_Cities_List/img_natural_01.png,,51,,,3,,,,,,,,,,,,,,,
null,,confidence_buffer,366176,confidence_buffer,,null,,,,,,,,,,,,,,,,,,
2355.300000011921,,pt2_memorable_rating,368532,Fictional_Cities_List/img_natural_01.png,,50,,,2,,,,,,,,,,,,,,,
null,,confidence_buffer,368633,confidence_buffer,,null,,,,,,,,,,,,,,,,,,
2575.1000000089407,,recognition_phase,371209,Fictional_Cities_List/img_natural_01.png,,50,,,,,,old,0,0,,,,,,,,,,
null,,confidence_buffer,371312,confidence_buffer,,null,,,,,,,,,,,,,,,,,,
null,,thebreak,371814,break,,null,,,,,,,,,,,,,,,,,,
6026.0999999940395,,pt2_realistic_rating,377841,Fictional_Cities_List/img_manmade_37.png,,50,Fictional_Cities_List/img_manmade_37.png,MM,2,,,,,,,,,,,,,,,
null,,confidence_buffer,377942,confidence_buffer,,null,,,,,,,,,,,,,,,,,,
2473.1000000089407,,pt2_unique_rating,380416,Fictional_Cities_List/img_manmade_37.png,,52,,,4,,,,,,,,,,,,,,,
null,,confidence_buffer,380517,confidence_buffer,,null,,,,,,,,,,,,,,,,,,
2510.7000000029802,,pt2_memorable_rating,383028,Fictional_Cities_List/img_manmade_37.png,,52,,,4,,,,,,,,,,,,,,,
null,,confidence_buffer,383130,confidence_buffer,,null,,,,,,,,,,,,,,,,,,
3739,,recognition_phase,386870,Fictional_Cities_List/img_manmade_37.png,,52,,,,,,new,1,0.5,,,,,,,,,,
null,,confidence_buffer,386971,confidence_buffer,,null,,,,,,,,,,,,,,,,,,
null,,thebreak,387472,break,,null,,,,,,,,,,,,,,,,,,
9771.79999999702,,pt2_realistic_rating,397245,US_Cities_List/nat_peoria.png,,52,US_Cities_List/nat_peoria.png,NAT,4,,,,,,,,,,,,,,,
null,,confidence_buffer,397346,confidence_buffer,,null,,,,,,,,,,,,,,,,,,
2054.0999999940395,,pt2_unique_rating,399402,US_Cities_List/nat_peoria.png,,51,,,3,,,,,,,,,,,,,,,
null,,confidence_buffer,399503,confidence_buffer,,null,,,,,,,,,,,,,,,,,,
4642.20000000298,,pt2_memorable_rating,404145,US_Cities_List/nat_peoria.png,,51,,,3,,,,,,,,,,,,,,,
null,,confidence_buffer,404247,confidence_buffer,,null,,,,,,,,,,,,,,,,,,
2245.7999999970198,,probe_rating,406494,probe_rating,,51,,,,3,1,,,,,,,,,,,,,
null,,confidence_buffer,406595,confidence_buffer,,null,,,,,,,,,,,,,,,,,,
3146.2000000029802,,recognition_phase,409742,US_Cities_List/nat_peoria.png,,49,,,,,,old,1,0.6666666666666666,,,,,,,,,,
null,,confidence_buffer,409843,confidence_buffer,,null,,,,,,,,,,,,,,,,,,
null,,thebreak,410345,break,,null,,,,,,,,,,,,,,,,,,
3654.7999999970198,,pt2_realistic_rating,414001,Fictional_Cities_List/img_manmade_25.png,,49,Fictional_Cities_List/img_manmade_25.png,MM,1,,,,,,,,,,,,,,,
null,,confidence_buffer,414102,confidence_buffer,,null,,,,,,,,,,,,,,,,,,
2694.5,,pt2_unique_rating,416797,Fictional_Cities_List/img_manmade_25.png,,53,,,5,,,,,,,,,,,,,,,
null,,confidence_buffer,416899,confidence_buffer,,null,,,,,,,,,,,,,,,,,,
3494.5,,pt2_memorable_rating,420395,Fictional_Cities_List/img_manmade_25.png,,51,,,3,,,,,,,,,,,,,,,
null,,confidence_buffer,420496,confidence_buffer,,null,,,,,,,,,,,,,,,,,,
3290.5,,recognition_phase,423788,Fictional_Cities_List/img_manmade_25.png,,52,,,,,,new,1,0.75,,,,,,,,,,
null,,confidence_buffer,423890,confidence_buffer,,null,,,,,,,,,,,,,,,,,,
null,,thebreak,424391,break,,null,,,,,,,,,,,,,,,,,,
5442.29999999702,,pt2_realistic_rating,429834,Fictional_Cities_List/img_manmade_13.png,,50,Fictional_Cities_List/img_manmade_13.png,MM,2,,,,,,,,,,,,,,,
null,,confidence_buffer,429936,confidence_buffer,,null,,,,,,,,,,,,,,,,,,
2307.0999999940395,,pt2_unique_rating,432244,Fictional_Cities_List/img_manmade_13.png,,53,,,5,,,,,,,,,,,,,,,
null,,confidence_buffer,432345,confidence_buffer,,null,,,,,,,,,,,,,,,,,,
1364.0999999940395,,pt2_memorable_rating,433710,Fictional_Cities_List/img_manmade_13.png,,52,,,4,,,,,,,,,,,,,,,
null,,confidence_buffer,433811,confidence_buffer,,null,,,,,,,,,,,,,,,,,,
1559.5,,probe_rating,435372,probe_rating,,51,,,,3,1,,,,,,,,,,,,,
null,,confidence_buffer,435473,confidence_buffer,,null,,,,,,,,,,,,,,,,,,
2769,,recognition_phase,438243,Fictional_Cities_List/img_manmade_13.png,,51,,,,,,new,1,0.8,,,,,,,,,,
null,,confidence_buffer,438345,confidence_buffer,,null,,,,,,,,,,,,,,,,,,
null,,thebreak,438846,break,,null,,,,,,,,,,,,,,,,,,
5946,,pt2_realistic_rating,444793,US_Cities_List/mm_delawarecity.png,,51,US_Cities_List/mm_delawarecity.png,MM,3,,,,,,,,,,,,,,,
null,,confidence_buffer,444895,confidence_buffer,,null,,,,,,,,,,,,,,,,,,
1363.4000000059605,,pt2_unique_rating,446260,US_Cities_List/mm_delawarecity.png,,51,,,3,,,,,,,,,,,,,,,
null,,confidence_buffer,446362,confidence_buffer,,null,,,,,,,,,,,,,,,,,,
1577.699999988079,,pt2_memorable_rating,447940,US_Cities_List/mm_delawarecity.png,,50,,,2,,,,,,,,,,,,,,,
null,,confidence_buffer,448042,confidence_buffer,,null,,,,,,,,,,,,,,,,,,
3666.9000000059605,,recognition_phase,451710,US_Cities_List/mm_delawarecity.png,,51,,,,,,new,1,0.8333333333333334,,,,,,,,,,
null,,confidence_buffer,451812,confidence_buffer,,null,,,,,,,,,,,,,,,,,,
null,,thebreak,452313,break,,null,,,,,,,,,,,,,,,,,,
2555.7000000029802,,pt2_realistic_rating,454870,Fictional_Cities_List/img_manmade_19.png,,53,Fictional_Cities_List/img_manmade_19.png,MM,5,,,,,,,,,,,,,,,
null,,confidence_buffer,454971,confidence_buffer,,null,,,,,,,,,,,,,,,,,,
1083.4000000059605,,pt2_unique_rating,456056,Fictional_Cities_List/img_manmade_19.png,,51,,,3,,,,,,,,,,,,,,,
null,,confidence_buffer,456158,confidence_buffer,,null,,,,,,,,,,,,,,,,,,
1098.2000000029802,,pt2_memorable_rating,457257,Fictional_Cities_List/img_manmade_19.png,,51,,,3,,,,,,,,,,,,,,,
null,,confidence_buffer,457359,confidence_buffer,,null,,,,,,,,,,,,,,,,,,
2663.5,,recognition_phase,460023,Fictional_Cities_List/img_manmade_19.png,,49,,,,,,old,1,0.8571428571428571,,,,,,,,,,
null,,confidence_buffer,460125,confidence_buffer,,null,,,,,,,,,,,,,,,,,,
null,,thebreak,460626,break,,null,,,,,,,,,,,,,,,,,,
2297.5,,pt2_realistic_rating,462924,Fictional_Cities_List/img_manmade_27.png,,49,Fictional_Cities_List/img_manmade_27.png,MM,1,,,,,,,,,,,,,,,
null,,confidence_buffer,463026,confidence_buffer,,null,,,,,,,,,,,,,,,,,,
1409.7000000029802,,pt2_unique_rating,464437,Fictional_Cities_List/img_manmade_27.png,,52,,,4,,,,,,,,,,,,,,,
null,,confidence_buffer,464538,confidence_buffer,,null,,,,,,,,,,,,,,,,,,
1323,,pt2_memorable_rating,465863,Fictional_Cities_List/img_manmade_27.png,,52,,,4,,,,,,,,,,,,,,,
null,,confidence_buffer,465964,confidence_buffer,,null,,,,,,,,,,,,,,,,,,
2162.699999988079,,recognition_phase,468128,Fictional_Cities_List/img_manmade_27.png,,49,,,,,,old,1,0.875,,,,,,,,,,
null,,confidence_buffer,468229,confidence_buffer,,null,,,,,,,,,,,,,,,,,,
null,,thebreak,468731,break,,null,,,,,,,,,,,,,,,,,,
3972.1000000089407,,pt2_realistic_rating,472704,Fictional_Cities_List/img_natural_18.png,,52,Fictional_Cities_List/img_natural_18.png,NAT,4,,,,,,,,,,,,,,,
null,,confidence_buffer,472805,confidence_buffer,,null,,,,,,,,,,,,,,,,,,
2178,,pt2_unique_rating,474984,Fictional_Cities_List/img_natural_18.png,,52,,,4,,,,,,,,,,,,,,,
null,,confidence_buffer,475086,confidence_buffer,,null,,,,,,,,,,,,,,,,,,
1454.4000000059605,,pt2_memorable_rating,476542,Fictional_Cities_List/img_natural_18.png,,51,,,3,,,,,,,,,,,,,,,
null,,confidence_buffer,476644,confidence_buffer,,null,,,,,,,,,,,,,,,,,,
1855,,recognition_phase,478499,Fictional_Cities_List/img_natural_18.png,,52,,,,,,new,1,0.8888888888888888,,,,,,,,,,
null,,confidence_buffer,478602,confidence_buffer,,null,,,,,,,,,,,,,,,,,,
null,,thebreak,479103,break,,null,,,,,,,,,,,,,,,,,,
3396.2999999970198,,pt2_realistic_rating,482500,US_Cities_List/mm_athens.png,,53,US_Cities_List/mm_athens.png,MM,5,,,,,,,,,,,,,,,
null,,confidence_buffer,482604,confidence_buffer,,null,,,,,,,,,,,,,,,,,,
3580.699999988079,,pt2_unique_rating,486185,US_Cities_List/mm_athens.png,,52,,,4,,,,,,,,,,,,,,,
null,,confidence_buffer,486302,confidence_buffer,,null,,,,,,,,,,,,,,,,,,
1465.7000000029802,,pt2_memorable_rating,487769,US_Cities_List/mm_athens.png,,52,,,4,,,,,,,,,,,,,,,
null,,confidence_buffer,487870,confidence_buffer,,null,,,,,,,,,,,,,,,,,,
3282.4000000059605,,recognition_phase,491153,US_Cities_List/mm_athens.png,,49,,,,,,old,1,0.9,,,,,,,,,,
null,,confidence_buffer,491255,confidence_buffer,,null,,,,,,,,,,,,,,,,,,
null,,thebreak,491757,break,,null,,,,,,,,,,,,,,,,,,
3746.9000000059605,,pt2_realistic_rating,495505,Fictional_Cities_List/img_manmade_45.png,,52,Fictional_Cities_List/img_manmade_45.png,MM,4,,,,,,,,,,,,,,,
null,,confidence_buffer,495606,confidence_buffer,,null,,,,,,,,,,,,,,,,,,
1839,,pt2_unique_rating,497446,Fictional_Cities_List/img_manmade_45.png,,51,,,3,,,,,,,,,,,,,,,
null,,confidence_buffer,497548,confidence_buffer,,null,,,,,,,,,,,,,,,,,,
1242.7999999970198,,pt2_memorable_rating,498791,Fictional_Cities_List/img_manmade_45.png,,51,,,3,,,,,,,,,,,,,,,
null,,confidence_buffer,498893,confidence_buffer,,null,,,,,,,,,,,,,,,,,,
2021.1000000089407,,recognition_phase,500916,Fictional_Cities_List/img_manmade_45.png,,49,,,,,,old,1,0.9090909090909091,,,,,,,,,,
null,,confidence_buffer,501017,confidence_buffer,,null,,,,,,,,,,,,,,,,,,
null,,thebreak,501519,break,,null,,,,,,,,,,,,,,,,,,
4938.0999999940395,,pt2_realistic_rating,506458,US_Cities_List/mm_hotsprings.png,,52,US_Cities_List/mm_hotsprings.png,MM,4,,,,,,,,,,,,,,,
null,,confidence_buffer,506560,confidence_buffer,,null,,,,,,,,,,,,,,,,,,
2392.0999999940395,,pt2_unique_rating,508954,US_Cities_List/mm_hotsprings.png,,51,,,3,,,,,,,,,,,,,,,
null,,confidence_buffer,509056,confidence_buffer,,null,,,,,,,,,,,,,,,,,,
1593.7999999970198,,pt2_memorable_rating,510651,US_Cities_List/mm_hotsprings.png,,51,,,3,,,,,,,,,,,,,,,
null,,confidence_buffer,510753,confidence_buffer,,null,,,,,,,,,,,,,,,,,,
3404.199999988079,,probe_rating,514158,probe_rating,,50,,,,2,1,,,,,,,,,,,,,
null,,confidence_buffer,514260,confidence_buffer,,null,,,,,,,,,,,,,,,,,,
2823.7000000029802,,recognition_phase,517085,US_Cities_List/mm_hotsprings.png,,52,,,,,,new,1,0.9166666666666666,,,,,,,,,,
null,,confidence_buffer,517186,confidence_buffer,,null,,,,,,,,,,,,,,,,,,
null,,thebreak,517688,break,,null,,,,,,,,,,,,,,,,,,
4063.2999999970198,,pt2_realistic_rating,521752,Fictional_Cities_List/img_natural_25.png,,50,Fictional_Cities_List/img_natural_25.png,NAT,2,,,,,,,,,,,,,,,
null,,confidence_buffer,521855,confidence_buffer,,null,,,,,,,,,,,,,,,,,,
1148.5,,pt2_unique_rating,523004,Fictional_Cities_List/img_natural_25.png,,49,,,1,,,,,,,,,,,,,,,
null,,confidence_buffer,523106,confidence_buffer,,null,,,,,,,,,,,,,,,,,,
2284.9000000059605,,pt2_memorable_rating,525392,Fictional_Cities_List/img_natural_25.png,,51,,,3,,,,,,,,,,,,,,,
null,,confidence_buffer,525495,confidence_buffer,,null,,,,,,,,,,,,,,,,,,
2800,,recognition_phase,528296,Fictional_Cities_List/img_natural_25.png,,52,,,,,,new,1,0.9230769230769231,,,,,,,,,,
null,,confidence_buffer,528398,confidence_buffer,,null,,,,,,,,,,,,,,,,,,
null,,thebreak,528900,break,,null,,,,,,,,,,,,,,,,,,
5119.70000000298,,pt2_realistic_rating,534020,US_Cities_List/nat_westpalmbeach.png,,50,US_Cities_List/nat_westpalmbeach.png,NAT,2,,,,,,,,,,,,,,,
null,,confidence_buffer,534125,confidence_buffer,,null,,,,,,,,,,,,,,,,,,
1635.8999999910593,,pt2_unique_rating,535762,US_Cities_List/nat_westpalmbeach.png,,52,,,4,,,,,,,,,,,,,,,
null,,confidence_buffer,535865,confidence_buffer,,null,,,,,,,,,,,,,,,,,,
1603,,pt2_memorable_rating,537469,US_Cities_List/nat_westpalmbeach.png,,51,,,3,,,,,,,,,,,,,,,
null,,confidence_buffer,537570,confidence_buffer,,null,,,,,,,,,,,,,,,,,,
2083,,recognition_phase,539654,US_Cities_List/nat_westpalmbeach.png,,52,,,,,,new,1,0.9285714285714286,,,,,,,,,,
null,,confidence_buffer,539757,confidence_buffer,,null,,,,,,,,,,,,,,,,,,
null,,thebreak,540258,break,,null,,,,,,,,,,,,,,,,,,
3594.9000000059605,,pt2_realistic_rating,543854,Fictional_Cities_List/img_manmade_01.png,,52,Fictional_Cities_List/img_manmade_01.png,MM,4,,,,,,,,,,,,,,,
null,,confidence_buffer,543956,confidence_buffer,,null,,,,,,,,,,,,,,,,,,
1541.2999999970198,,pt2_unique_rating,545499,Fictional_Cities_List/img_manmade_01.png,,51,,,3,,,,,,,,,,,,,,,
null,,confidence_buffer,545600,confidence_buffer,,null,,,,,,,,,,,,,,,,,,
2319,,pt2_memorable_rating,547920,Fictional_Cities_List/img_manmade_01.png,,51,,,3,,,,,,,,,,,,,,,
null,,confidence_buffer,548021,confidence_buffer,,null,,,,,,,,,,,,,,,,,,
2426.5,,recognition_phase,550449,Fictional_Cities_List/img_manmade_01.png,,49,,,,,,old,1,0.9333333333333333,,,,,,,,,,
null,,confidence_buffer,550551,confidence_buffer,,null,,,,,,,,,,,,,,,,,,
null,,thebreak,551052,break,,null,,,,,,,,,,,,,,,,,,
3184.7999999970198,,pt2_realistic_rating,554238,Fictional_Cities_List/img_natural_03.png,,51,Fictional_Cities_List/img_natural_03.png,NAT,3,,,,,,,,,,,,,,,
null,,confidence_buffer,554340,confidence_buffer,,null,,,,,,,,,,,,,,,,,,
2652.5,,pt2_unique_rating,556994,Fictional_Cities_List/img_natural_03.png,,52,,,4,,,,,,,,,,,,,,,
null,,confidence_buffer,557096,confidence_buffer,,null,,,,,,,,,,,,,,,,,,
2428.300000011921,,pt2_memorable_rating,559525,Fictional_Cities_List/img_natural_03.png,,52,,,4,,,,,,,,,,,,,,,
null,,confidence_buffer,559627,confidence_buffer,,null,,,,,,,,,,,,,,,,,,
2248.3999999910593,,recognition_phase,561876,Fictional_Cities_List/img_natural_03.png,,50,,,,,,old,1,0.9375,,,,,,,,,,
null,,confidence_buffer,561990,confidence_buffer,,null,,,,,,,,,,,,,,,,,,
null,,thebreak,562492,break,,null,,,,,,,,,,,,,,,,,,
3798.4000000059605,,pt2_realistic_rating,566291,US_Cities_List/nat_sitka.png,,53,US_Cities_List/nat_sitka.png,NAT,5,,,,,,,,,,,,,,,
null,,confidence_buffer,566393,confidence_buffer,,null,,,,,,,,,,,,,,,,,,
1718.7000000029802,,pt2_unique_rating,568113,US_Cities_List/nat_sitka.png,,52,,,4,,,,,,,,,,,,,,,
null,,confidence_buffer,568215,confidence_buffer,,null,,,,,,,,,,,,,,,,,,
2193.5,,pt2_memorable_rating,570409,US_Cities_List/nat_sitka.png,,52,,,4,,,,,,,,,,,,,,,
null,,confidence_buffer,570511,confidence_buffer,,null,,,,,,,,,,,,,,,,,,
3917.7999999970198,,recognition_phase,574430,US_Cities_List/nat_sitka.png,,51,,,,,,new,1,0.9411764705882353,,,,,,,,,,
null,,confidence_buffer,574531,confidence_buffer,,null,,,,,,,,,,,,,,,,,,
null,,thebreak,575033,break,,null,,,,,,,,,,,,,,,,,,
2827.4000000059605,,pt2_realistic_rating,577861,Fictional_Cities_List/img_manmade_23.png,,53,Fictional_Cities_List/img_manmade_23.png,MM,5,,,,,,,,,,,,,,,
null,,confidence_buffer,577963,confidence_buffer,,null,,,,,,,,,,,,,,,,,,
1589.9000000059605,,pt2_unique_rating,579554,Fictional_Cities_List/img_manmade_23.png,,52,,,4,,,,,,,,,,,,,,,
null,,confidence_buffer,579655,confidence_buffer,,null,,,,,,,,,,,,,,,,,,
1638.0999999940395,,pt2_memorable_rating,581294,Fictional_Cities_List/img_manmade_23.png,,52,,,4,,,,,,,,,,,,,,,
null,,confidence_buffer,581396,confidence_buffer,,null,,,,,,,,,,,,,,,,,,
2982.4000000059605,,recognition_phase,584379,Fictional_Cities_List/img_manmade_23.png,,49,,,,,,old,1,0.9444444444444444,,,,,,,,,,
null,,confidence_buffer,584481,confidence_buffer,,null,,,,,,,,,,,,,,,,,,
null,,thebreak,584981,break,,null,,,,,,,,,,,,,,,,,,
3008.4000000059605,,pt2_realistic_rating,587991,US_Cities_List/mm_westpalmbeach.png,,53,US_Cities_List/mm_westpalmbeach.png,MM,5,,,,,,,,,,,,,,,
null,,confidence_buffer,588093,confidence_buffer,,null,,,,,,,,,,,,,,,,,,
1718,,pt2_unique_rating,589812,US_Cities_List/mm_westpalmbeach.png,,53,,,5,,,,,,,,,,,,,,,
null,,confidence_buffer,589914,confidence_buffer,,null,,,,,,,,,,,,,,,,,,
1198.4000000059605,,pt2_memorable_rating,591113,US_Cities_List/mm_westpalmbeach.png,,52,,,4,,,,,,,,,,,,,,,
null,,confidence_buffer,591215,confidence_buffer,,null,,,,,,,,,,,,,,,,,,
1604.699999988079,,recognition_phase,592821,US_Cities_List/mm_westpalmbeach.png,,49,,,,,,old,1,0.9473684210526315,,,,,,,,,,
null,,confidence_buffer,592922,confidence_buffer,,null,,,,,,,,,,,,,,,,,,
null,,thebreak,593424,break,,null,,,,,,,,,,,,,,,,,,
4146.4000000059605,,pt2_realistic_rating,597571,Fictional_Cities_List/img_natural_24.png,,50,Fictional_Cities_List/img_natural_24.png,NAT,2,,,,,,,,,,,,,,,
null,,confidence_buffer,597673,confidence_buffer,,null,,,,,,,,,,,,,,,,,,
1389.199999988079,,pt2_unique_rating,599063,Fictional_Cities_List/img_natural_24.png,,52,,,4,,,,,,,,,,,,,,,
null,,confidence_buffer,599165,confidence_buffer,,null,,,,,,,,,,,,,,,,,,
1083.300000011921,,pt2_memorable_rating,600250,Fictional_Cities_List/img_natural_24.png,,52,,,4,,,,,,,,,,,,,,,
null,,confidence_buffer,600351,confidence_buffer,,null,,,,,,,,,,,,,,,,,,
1605.3999999910593,,recognition_phase,601958,Fictional_Cities_List/img_natural_24.png,,49,,,,,,old,1,0.95,,,,,,,,,,
null,,confidence_buffer,602059,confidence_buffer,,null,,,,,,,,,,,,,,,,,,
null,,thebreak,602561,break,,null,,,,,,,,,,,,,,,,,,
4181.0999999940395,,pt2_realistic_rating,606743,US_Cities_List/mm_healdsburg.png,,51,US_Cities_List/mm_healdsburg.png,MM,3,,,,,,,,,,,,,,,
null,,confidence_buffer,606845,confidence_buffer,,null,,,,,,,,,,,,,,,,,,
1418,,pt2_unique_rating,608264,US_Cities_List/mm_healdsburg.png,,52,,,4,,,,,,,,,,,,,,,
null,,confidence_buffer,608367,confidence_buffer,,null,,,,,,,,,,,,,,,,,,
1395.4000000059605,,pt2_memorable_rating,609764,US_Cities_List/mm_healdsburg.png,,52,,,4,,,,,,,,,,,,,,,
null,,confidence_buffer,609866,confidence_buffer,,null,,,,,,,,,,,,,,,,,,
3418.7999999970198,,recognition_phase,613286,US_Cities_List/mm_healdsburg.png,,50,,,,,,old,1,0.9523809523809523,,,,,,,,,,
null,,confidence_buffer,613387,confidence_buffer,,null,,,,,,,,,,,,,,,,,,
null,,thebreak,613889,break,,null,,,,,,,,,,,,,,,,,,
3438.6000000089407,,pt2_realistic_rating,617328,US_Cities_List/nat_carmel.png,,50,US_Cities_List/nat_carmel.png,NAT,2,,,,,,,,,,,,,,,
null,,confidence_buffer,617430,confidence_buffer,,null,,,,,,,,,,,,,,,,,,
1252.2000000029802,,pt2_unique_rating,618683,US_Cities_List/nat_carmel.png,,51,,,3,,,,,,,,,,,,,,,
null,,confidence_buffer,618784,confidence_buffer,,null,,,,,,,,,,,,,,,,,,
1738.6000000089407,,pt2_memorable_rating,620524,US_Cities_List/nat_carmel.png,,51,,,3,,,,,,,,,,,,,,,
null,,confidence_buffer,620626,confidence_buffer,,null,,,,,,,,,,,,,,,,,,
2783.1000000089407,,recognition_phase,623410,US_Cities_List/nat_carmel.png,,51,,,,,,new,1,0.9545454545454546,,,,,,,,,,
null,,confidence_buffer,623511,confidence_buffer,,null,,,,,,,,,,,,,,,,,,
null,,thebreak,624013,break,,null,,,,,,,,,,,,,,,,,,
2807.0999999940395,,pt2_realistic_rating,626821,Fictional_Cities_List/img_natural_27.png,,50,Fictional_Cities_List/img_natural_27.png,NAT,2,,,,,,,,,,,,,,,
null,,confidence_buffer,626928,confidence_buffer,,null,,,,,,,,,,,,,,,,,,
1744.9000000059605,,pt2_unique_rating,628674,Fictional_Cities_List/img_natural_27.png,,52,,,4,,,,,,,,,,,,,,,
null,,confidence_buffer,628775,confidence_buffer,,null,,,,,,,,,,,,,,,,,,
1118.5,,pt2_memorable_rating,629895,Fictional_Cities_List/img_natural_27.png,,52,,,4,,,,,,,,,,,,,,,
null,,confidence_buffer,629997,confidence_buffer,,null,,,,,,,,,,,,,,,,,,
3710.0999999940395,,recognition_phase,633708,Fictional_Cities_List/img_natural_27.png,,52,,,,,,new,1,0.9565217391304348,,,,,,,,,,
null,,confidence_buffer,633810,confidence_buffer,,null,,,,,,,,,,,,,,,,,,
null,,thebreak,634311,break,,null,,,,,,,,,,,,,,,,,,
3722.7000000029802,,pt2_realistic_rating,638034,US_Cities_List/mm_coeurdalene.png,,51,US_Cities_List/mm_coeurdalene.png,MM,3,,,,,,,,,,,,,,,
null,,confidence_buffer,638136,confidence_buffer,,null,,,,,,,,,,,,,,,,,,
1817.300000011921,,pt2_unique_rating,639954,US_Cities_List/mm_coeurdalene.png,,51,,,3,,,,,,,,,,,,,,,
null,,confidence_buffer,640056,confidence_buffer,,null,,,,,,,,,,,,,,,,,,
2525.0999999940395,,pt2_memorable_rating,642582,US_Cities_List/mm_coeurdalene.png,,50,,,2,,,,,,,,,,,,,,,
null,,confidence_buffer,642683,confidence_buffer,,null,,,,,,,,,,,,,,,,,,
2115.7999999970198,,recognition_phase,644800,US_Cities_List/mm_coeurdalene.png,,52,,,,,,new,1,0.9583333333333334,,,,,,,,,,
null,,confidence_buffer,644901,confidence_buffer,,null,,,,,,,,,,,,,,,,,,
null,,thebreak,645403,break,,null,,,,,,,,,,,,,,,,,,
2806.9000000059605,,pt2_realistic_rating,648211,US_Cities_List/nat_healdsburg.png,,50,US_Cities_List/nat_healdsburg.png,NAT,2,,,,,,,,,,,,,,,
null,,confidence_buffer,648316,confidence_buffer,,null,,,,,,,,,,,,,,,,,,
1576.4000000059605,,pt2_unique_rating,649894,US_Cities_List/nat_healdsburg.png,,50,,,2,,,,,,,,,,,,,,,
null,,confidence_buffer,649996,confidence_buffer,,null,,,,,,,,,,,,,,,,,,
2258.9000000059605,,pt2_memorable_rating,652256,US_Cities_List/nat_healdsburg.png,,50,,,2,,,,,,,,,,,,,,,
null,,confidence_buffer,652358,confidence_buffer,,null,,,,,,,,,,,,,,,,,,
2121.800000011921,,recognition_phase,654481,US_Cities_List/nat_healdsburg.png,,52,,,,,,new,1,0.96,,,,,,,,,,
null,,confidence_buffer,654583,confidence_buffer,,null,,,,,,,,,,,,,,,,,,
null,,thebreak,655085,break,,null,,,,,,,,,,,,,,,,,,
4259.5,,pt2_realistic_rating,659345,Fictional_Cities_List/img_natural_08.png,,51,Fictional_Cities_List/img_natural_08.png,NAT,3,,,,,,,,,,,,,,,
null,,confidence_buffer,659447,confidence_buffer,,null,,,,,,,,,,,,,,,,,,
995.0999999940395,,pt2_unique_rating,660443,Fictional_Cities_List/img_natural_08.png,,52,,,4,,,,,,,,,,,,,,,
null,,confidence_buffer,660545,confidence_buffer,,null,,,,,,,,,,,,,,,,,,
1235.2000000029802,,pt2_memorable_rating,661781,Fictional_Cities_List/img_natural_08.png,,52,,,4,,,,,,,,,,,,,,,
null,,confidence_buffer,661883,confidence_buffer,,null,,,,,,,,,,,,,,,,,,
1903.6000000089407,,recognition_phase,663788,Fictional_Cities_List/img_natural_08.png,,50,,,,,,old,0,0.9230769230769231,,,,,,,,,,
null,,confidence_buffer,663891,confidence_buffer,,null,,,,,,,,,,,,,,,,,,
null,,thebreak,664392,break,,null,,,,,,,,,,,,,,,,,,
3049.7000000029802,,pt2_realistic_rating,667443,Fictional_Cities_List/img_manmade_10.png,,49,Fictional_Cities_List/img_manmade_10.png,MM,1,,,,,,,,,,,,,,,
null,,confidence_buffer,667545,confidence_buffer,,null,,,,,,,,,,,,,,,,,,
2738.9000000059605,,pt2_unique_rating,670285,Fictional_Cities_List/img_manmade_10.png,,52,,,4,,,,,,,,,,,,,,,
null,,confidence_buffer,670386,confidence_buffer,,null,,,,,,,,,,,,,,,,,,
1437.2000000029802,,pt2_memorable_rating,671825,Fictional_Cities_List/img_manmade_10.png,,52,,,4,,,,,,,,,,,,,,,
null,,confidence_buffer,671927,confidence_buffer,,null,,,,,,,,,,,,,,,,,,
2253.5999999940395,,recognition_phase,674181,Fictional_Cities_List/img_manmade_10.png,,49,,,,,,old,1,0.9259259259259259,,,,,,,,,,
null,,confidence_buffer,674283,confidence_buffer,,null,,,,,,,,,,,,,,,,,,
null,,thebreak,674785,break,,null,,,,,,,,,,,,,,,,,,
8869.5,,pt2_realistic_rating,683655,US_Cities_List/nat_boulder.png,,50,US_Cities_List/nat_boulder.png,NAT,2,,,,,,,,,,,,,,,
null,,confidence_buffer,683758,confidence_buffer,,null,,,,,,,,,,,,,,,,,,
1463.3999999910593,,pt2_unique_rating,685222,US_Cities_List/nat_boulder.png,,52,,,4,,,,,,,,,,,,,,,
null,,confidence_buffer,685324,confidence_buffer,,null,,,,,,,,,,,,,,,,,,
1604.1000000089407,,probe_rating,686929,probe_rating,,52,,,,4,1,,,,,,,,,,,,,
null,,confidence_buffer,687031,confidence_buffer,,null,,,,,,,,,,,,,,,,,,
1745.4000000059605,,pt2_memorable_rating,688778,US_Cities_List/nat_boulder.png,,52,,,4,,,,,,,,,,,,,,,
null,,confidence_buffer,688879,confidence_buffer,,null,,,,,,,,,,,,,,,,,,
2141.3999999910593,,recognition_phase,691022,US_Cities_List/nat_boulder.png,,52,,,,,,new,1,0.9285714285714286,,,,,,,,,,
null,,confidence_buffer,691125,confidence_buffer,,null,,,,,,,,,,,,,,,,,,
null,,thebreak,691626,break,,null,,,,,,,,,,,,,,,,,,
3156.4000000059605,,pt2_realistic_rating,694784,US_Cities_List/mm_bisbee.png,,52,US_Cities_List/mm_bisbee.png,MM,4,,,,,,,,,,,,,,,
null,,confidence_buffer,694886,confidence_buffer,,null,,,,,,,,,,,,,,,,,,
1246.7000000029802,,pt2_unique_rating,696134,US_Cities_List/mm_bisbee.png,,51,,,3,,,,,,,,,,,,,,,
null,,confidence_buffer,696236,confidence_buffer,,null,,,,,,,,,,,,,,,,,,
1752.2999999970198,,pt2_memorable_rating,697989,US_Cities_List/mm_bisbee.png,,50,,,2,,,,,,,,,,,,,,,
null,,confidence_buffer,698091,confidence_buffer,,null,,,,,,,,,,,,,,,,,,
2037.5,,recognition_phase,700129,US_Cities_List/mm_bisbee.png,,49,,,,,,old,1,0.9310344827586207,,,,,,,,,,
null,,confidence_buffer,700231,confidence_buffer,,null,,,,,,,,,,,,,,,,,,
null,,thebreak,700733,break,,null,,,,,,,,,,,,,,,,,,
3679.0999999940395,,pt2_realistic_rating,704413,US_Cities_List/mm_abilene.png,,50,US_Cities_List/mm_abilene.png,MM,2,,,,,,,,,,,,,,,
null,,confidence_buffer,704515,confidence_buffer,,null,,,,,,,,,,,,,,,,,,
1231.7999999970198,,pt2_unique_rating,705748,US_Cities_List/mm_abilene.png,,50,,,2,,,,,,,,,,,,,,,
null,,confidence_buffer,705850,confidence_buffer,,null,,,,,,,,,,,,,,,,,,
1102.4000000059605,,pt2_memorable_rating,706954,US_Cities_List/mm_abilene.png,,51,,,3,,,,,,,,,,,,,,,
null,,confidence_buffer,707055,confidence_buffer,,null,,,,,,,,,,,,,,,,,,
1284.7999999970198,,recognition_phase,708341,US_Cities_List/mm_abilene.png,,50,,,,,,old,0,0.9,,,,,,,,,,
null,,confidence_buffer,708444,confidence_buffer,,null,,,,,,,,,,,,,,,,,,
null,,thebreak,708945,break,,null,,,,,,,,,,,,,,,,,,
3178.300000011921,,pt2_realistic_rating,712124,Fictional_Cities_List/img_natural_37.png,,52,Fictional_Cities_List/img_natural_37.png,NAT,4,,,,,,,,,,,,,,,
null,,confidence_buffer,712227,confidence_buffer,,null,,,,,,,,,,,,,,,,,,
1419,,pt2_unique_rating,713648,Fictional_Cities_List/img_natural_37.png,,52,,,4,,,,,,,,,,,,,,,
null,,confidence_buffer,713749,confidence_buffer,,null,,,,,,,,,,,,,,,,,,
824.1000000089407,,pt2_memorable_rating,714575,Fictional_Cities_List/img_natural_37.png,,51,,,3,,,,,,,,,,,,,,,
null,,confidence_buffer,714676,confidence_buffer,,null,,,,,,,,,,,,,,,,,,
2414.5,,recognition_phase,717092,Fictional_Cities_List/img_natural_37.png,,50,,,,,,old,0,0.8709677419354839,,,,,,,,,,
null,,confidence_buffer,717193,confidence_buffer,,null,,,,,,,,,,,,,,,,,,
null,,thebreak,717694,break,,null,,,,,,,,,,,,,,,,,,
2063,,pt2_realistic_rating,719759,US_Cities_List/nat_hilo.png,,51,US_Cities_List/nat_hilo.png,NAT,3,,,,,,,,,,,,,,,
null,,confidence_buffer,719860,confidence_buffer,,null,,,,,,,,,,,,,,,,,,
1432.4000000059605,,pt2_unique_rating,721294,US_Cities_List/nat_hilo.png,,51,,,3,,,,,,,,,,,,,,,
null,,confidence_buffer,721395,confidence_buffer,,null,,,,,,,,,,,,,,,,,,
1411.2999999970198,,pt2_memorable_rating,722807,US_Cities_List/nat_hilo.png,,50,,,2,,,,,,,,,,,,,,,
null,,confidence_buffer,722909,confidence_buffer,,null,,,,,,,,,,,,,,,,,,
2941.3999999910593,,recognition_phase,725851,US_Cities_List/nat_hilo.png,,51,,,,,,new,0,0.84375,,,,,,,,,,
null,,confidence_buffer,725958,confidence_buffer,,null,,,,,,,,,,,,,,,,,,
null,,thebreak,726459,break,,null,,,,,,,,,,,,,,,,,,
4011.7000000029802,,pt2_realistic_rating,730472,US_Cities_List/nat_okoboji.png,,51,US_Cities_List/nat_okoboji.png,NAT,3,,,,,,,,,,,,,,,
null,,confidence_buffer,730577,confidence_buffer,,null,,,,,,,,,,,,,,,,,,
1262.1000000089407,,pt2_unique_rating,731840,US_Cities_List/nat_okoboji.png,,51,,,3,,,,,,,,,,,,,,,
null,,confidence_buffer,731943,confidence_buffer,,null,,,,,,,,,,,,,,,,,,
1089.4000000059605,,pt2_memorable_rating,733033,US_Cities_List/nat_okoboji.png,,50,,,2,,,,,,,,,,,,,,,
null,,confidence_buffer,733135,confidence_buffer,,null,,,,,,,,,,,,,,,,,,
2163.6000000089407,,recognition_phase,735300,US_Cities_List/nat_okoboji.png,,50,,,,,,old,1,0.8484848484848485,,,,,,,,,,
null,,confidence_buffer,735402,confidence_buffer,,null,,,,,,,,,,,,,,,,,,
null,,thebreak,735904,break,,null,,,,,,,,,,,,,,,,,,
2816,,pt2_realistic_rating,738721,US_Cities_List/mm_sitka.png,,50,US_Cities_List/mm_sitka.png,MM,2,,,,,,,,,,,,,,,
null,,confidence_buffer,738822,confidence_buffer,,null,,,,,,,,,,,,,,,,,,
1772.9000000059605,,probe_rating,740596,probe_rating,,50,,,,2,1,,,,,,,,,,,,,
null,,confidence_buffer,740698,confidence_buffer,,null,,,,,,,,,,,,,,,,,,
1597.4000000059605,,pt2_unique_rating,742297,US_Cities_List/mm_sitka.png,,51,,,3,,,,,,,,,,,,,,,
null,,confidence_buffer,742399,confidence_buffer,,null,,,,,,,,,,,,,,,,,,
2108.199999988079,,pt2_memorable_rating,744509,US_Cities_List/mm_sitka.png,,50,,,2,,,,,,,,,,,,,,,
null,,confidence_buffer,744611,confidence_buffer,,null,,,,,,,,,,,,,,,,,,
2007.5,,recognition_phase,746620,US_Cities_List/mm_sitka.png,,52,,,,,,new,1,0.8529411764705882,,,,,,,,,,
null,,confidence_buffer,746722,confidence_buffer,,null,,,,,,,,,,,,,,,,,,
null,,thebreak,747224,break,,null,,,,,,,,,,,,,,,,,,
4243.699999988079,,pt2_realistic_rating,751469,US_Cities_List/mm_boulder.png,,52,US_Cities_List/mm_boulder.png,MM,4,,,,,,,,,,,,,,,
null,,confidence_buffer,751571,confidence_buffer,,null,,,,,,,,,,,,,,,,,,
2044.7000000029802,,pt2_unique_rating,753617,US_Cities_List/mm_boulder.png,,51,,,3,,,,,,,,,,,,,,,
null,,confidence_buffer,753719,confidence_buffer,,null,,,,,,,,,,,,,,,,,,
1948.9000000059605,,pt2_memorable_rating,755669,US_Cities_List/mm_boulder.png,,51,,,3,,,,,,,,,,,,,,,
null,,confidence_buffer,755770,confidence_buffer,,null,,,,,,,,,,,,,,,,,,
3160.0999999940395,,recognition_phase,758932,US_Cities_List/mm_boulder.png,,52,,,,,,new,1,0.8571428571428571,,,,,,,,,,
null,,confidence_buffer,759033,confidence_buffer,,null,,,,,,,,,,,,,,,,,,
null,,thebreak,759534,break,,null,,,,,,,,,,,,,,,,,,
3266.0999999940395,,pt2_realistic_rating,762801,Fictional_Cities_List/img_manmade_08.png,,49,Fictional_Cities_List/img_manmade_08.png,MM,1,,,,,,,,,,,,,,,
null,,confidence_buffer,762908,confidence_buffer,,null,,,,,,,,,,,,,,,,,,
2137.7000000029802,,pt2_unique_rating,765047,Fictional_Cities_List/img_manmade_08.png,,52,,,4,,,,,,,,,,,,,,,
null,,confidence_buffer,765150,confidence_buffer,,null,,,,,,,,,,,,,,,,,,
2841.5,,probe_rating,767992,probe_rating,,52,,,,4,1,,,,,,,,,,,,,
null,,confidence_buffer,768095,confidence_buffer,,null,,,,,,,,,,,,,,,,,,
2726.6000000089407,,pt2_memorable_rating,770822,Fictional_Cities_List/img_manmade_08.png,,52,,,4,,,,,,,,,,,,,,,
null,,confidence_buffer,770925,confidence_buffer,,null,,,,,,,,,,,,,,,,,,
3065.2999999970198,,recognition_phase,773992,Fictional_Cities_List/img_manmade_08.png,,51,,,,,,new,1,0.8611111111111112,,,,,,,,,,
null,,confidence_buffer,774094,confidence_buffer,,null,,,,,,,,,,,,,,,,,,
null,,thebreak,774597,break,,null,,,,,,,,,,,,,,,,,,
3356.8999999910593,,pt2_realistic_rating,777955,Fictional_Cities_List/img_natural_23.png,,49,Fictional_Cities_List/img_natural_23.png,NAT,1,,,,,,,,,,,,,,,
null,,confidence_buffer,778056,confidence_buffer,,null,,,,,,,,,,,,,,,,,,
27269.20000000298,,pt2_unique_rating,805326,Fictional_Cities_List/img_natural_23.png,,50,,,2,,,,,,,,,,,,,,,
null,,confidence_buffer,805428,confidence_buffer,,null,,,,,,,,,,,,,,,,,,
1679.5,,pt2_memorable_rating,807109,Fictional_Cities_List/img_natural_23.png,,52,,,4,,,,,,,,,,,,,,,
null,,confidence_buffer,807210,confidence_buffer,,null,,,,,,,,,,,,,,,,,,
3872.2999999970198,,recognition_phase,811083,Fictional_Cities_List/img_natural_23.png,,51,,,,,,new,0,0.8378378378378378,,,,,,,,,,
null,,confidence_buffer,811185,confidence_buffer,,null,,,,,,,,,,,,,,,,,,
null,,thebreak,811686,break,,null,,,,,,,,,,,,,,,,,,
19334.39999999106,,pt2_realistic_rating,831022,Fictional_Cities_List/img_manmade_24.png,,50,Fictional_Cities_List/img_manmade_24.png,MM,2,,,,,,,,,,,,,,,
null,,confidence_buffer,831124,confidence_buffer,,null,,,,,,,,,,,,,,,,,,
3440,,pt2_unique_rating,834565,Fictional_Cities_List/img_manmade_24.png,,50,,,2,,,,,,,,,,,,,,,
null,,confidence_buffer,834667,confidence_buffer,,null,,,,,,,,,,,,,,,,,,
1500.1000000089407,,pt2_memorable_rating,836168,Fictional_Cities_List/img_manmade_24.png,,51,,,3,,,,,,,,,,,,,,,
null,,confidence_buffer,836269,confidence_buffer,,null,,,,,,,,,,,,,,,,,,
7375.199999988079,,recognition_phase,843645,Fictional_Cities_List/img_manmade_24.png,,51,,,,,,new,0,0.8157894736842105,,,,,,,,,,
null,,confidence_buffer,843748,confidence_buffer,,null,,,,,,,,,,,,,,,,,,
null,,thebreak,844250,break,,null,,,,,,,,,,,,,,,,,,
3070,,pt2_realistic_rating,847321,US_Cities_List/mm_hilo.png,,51,US_Cities_List/mm_hilo.png,MM,3,,,,,,,,,,,,,,,
null,,confidence_buffer,847423,confidence_buffer,,null,,,,,,,,,,,,,,,,,,
1547.3999999910593,,probe_rating,848972,probe_rating,,51,,,,3,1,,,,,,,,,,,,,
null,,confidence_buffer,849074,confidence_buffer,,null,,,,,,,,,,,,,,,,,,
2026.8999999910593,,pt2_unique_rating,851102,US_Cities_List/mm_hilo.png,,52,,,4,,,,,,,,,,,,,,,
null,,confidence_buffer,851203,confidence_buffer,,null,,,,,,,,,,,,,,,,,,
2445.8999999910593,,pt2_memorable_rating,853650,US_Cities_List/mm_hilo.png,,52,,,4,,,,,,,,,,,,,,,
null,,confidence_buffer,853764,confidence_buffer,,null,,,,,,,,,,,,,,,,,,
2516.2000000029802,,recognition_phase,856281,US_Cities_List/mm_hilo.png,,49,,,,,,old,1,0.8205128205128205,,,,,,,,,,
null,,confidence_buffer,856393,confidence_buffer,,null,,,,,,,,,,,,,,,,,,
null,,thebreak,856895,break,,null,,,,,,,,,,,,,,,,,,
4095.2000000029802,,pt2_realistic_rating,860991,US_Cities_List/nat_cornwall.png,,51,US_Cities_List/nat_cornwall.png,NAT,3,,,,,,,,,,,,,,,
null,,confidence_buffer,861092,confidence_buffer,,null,,,,,,,,,,,,,,,,,,
1409.7000000029802,,pt2_unique_rating,862503,US_Cities_List/nat_cornwall.png,,51,,,3,,,,,,,,,,,,,,,
null,,confidence_buffer,862605,confidence_buffer,,null,,,,,,,,,,,,,,,,,,
1181.1000000089407,,pt2_memorable_rating,863787,US_Cities_List/nat_cornwall.png,,50,,,2,,,,,,,,,,,,,,,
null,,confidence_buffer,863889,confidence_buffer,,null,,,,,,,,,,,,,,,,,,
2390,,recognition_phase,866280,US_Cities_List/nat_cornwall.png,,52,,,,,,new,1,0.825,,,,,,,,,,
null,,confidence_buffer,866381,confidence_buffer,,null,,,,,,,,,,,,,,,,,,
null,,thebreak,866882,break,,null,,,,,,,,,,,,,,,,,,
2814.5,,pt2_realistic_rating,869698,Fictional_Cities_List/img_manmade_18.png,,51,Fictional_Cities_List/img_manmade_18.png,MM,3,,,,,,,,,,,,,,,
null,,confidence_buffer,869800,confidence_buffer,,null,,,,,,,,,,,,,,,,,,
1409.5,,probe_rating,871210,probe_rating,,51,,,,3,1,,,,,,,,,,,,,
null,,confidence_buffer,871312,confidence_buffer,,null,,,,,,,,,,,,,,,,,,
1949.8999999910593,,pt2_unique_rating,873263,Fictional_Cities_List/img_manmade_18.png,,50,,,2,,,,,,,,,,,,,,,
null,,confidence_buffer,873365,confidence_buffer,,null,,,,,,,,,,,,,,,,,,
1779,,pt2_memorable_rating,875146,Fictional_Cities_List/img_manmade_18.png,,50,,,2,,,,,,,,,,,,,,,
null,,confidence_buffer,875247,confidence_buffer,,null,,,,,,,,,,,,,,,,,,
2649.5999999940395,,recognition_phase,877898,Fictional_Cities_List/img_manmade_18.png,,51,,,,,,new,1,0.8292682926829268,,,,,,,,,,
null,,confidence_buffer,878000,confidence_buffer,,null,,,,,,,,,,,,,,,,,,
null,,thebreak,878501,break,,null,,,,,,,,,,,,,,,,,,
2545.1000000089407,,pt2_realistic_rating,881048,US_Cities_List/nat_delawarecity.png,,52,US_Cities_List/nat_delawarecity.png,NAT,4,,,,,,,,,,,,,,,
null,,confidence_buffer,881149,confidence_buffer,,null,,,,,,,,,,,,,,,,,,
1471,,pt2_unique_rating,882622,US_Cities_List/nat_delawarecity.png,,51,,,3,,,,,,,,,,,,,,,
null,,confidence_buffer,882723,confidence_buffer,,null,,,,,,,,,,,,,,,,,,
847.1000000089407,,pt2_memorable_rating,883572,US_Cities_List/nat_delawarecity.png,,52,,,4,,,,,,,,,,,,,,,
null,,confidence_buffer,883673,confidence_buffer,,null,,,,,,,,,,,,,,,,,,
2419.199999988079,,recognition_phase,886093,US_Cities_List/nat_delawarecity.png,,50,,,,,,old,1,0.8333333333333334,,,,,,,,,,
null,,confidence_buffer,886195,confidence_buffer,,null,,,,,,,,,,,,,,,,,,
null,,thebreak,886697,break,,null,,,,,,,,,,,,,,,,,,
3639.3999999910593,,pt2_realistic_rating,890338,Fictional_Cities_List/img_natural_45.png,,49,Fictional_Cities_List/img_natural_45.png,NAT,1,,,,,,,,,,,,,,,
null,,confidence_buffer,890440,confidence_buffer,,null,,,,,,,,,,,,,,,,,,
1933.2000000029802,,pt2_unique_rating,892374,Fictional_Cities_List/img_natural_45.png,,52,,,4,,,,,,,,,,,,,,,
null,,confidence_buffer,892476,confidence_buffer,,null,,,,,,,,,,,,,,,,,,
2500.5,,pt2_memorable_rating,894977,Fictional_Cities_List/img_natural_45.png,,52,,,4,,,,,,,,,,,,,,,
null,,confidence_buffer,895079,confidence_buffer,,null,,,,,,,,,,,,,,,,,,
1778.1000000089407,,recognition_phase,896858,Fictional_Cities_List/img_natural_45.png,,49,,,,,,old,1,0.8372093023255814,,,,,,,,,,
null,,confidence_buffer,896959,confidence_buffer,,null,,,,,,,,,,,,,,,,,,
null,,thebreak,897460,break,,null,,,,,,,,,,,,,,,,,,
1972.7999999970198,,pt2_realistic_rating,899434,US_Cities_List/nat_athens.png,,51,US_Cities_List/nat_athens.png,NAT,3,,,,,,,,,,,,,,,
null,,confidence_buffer,899537,confidence_buffer,,null,,,,,,,,,,,,,,,,,,
1800.2000000029802,,probe_rating,901338,probe_rating,,50,,,,2,1,,,,,,,,,,,,,
null,,confidence_buffer,901440,confidence_buffer,,null,,,,,,,,,,,,,,,,,,
1921.5,,pt2_unique_rating,903363,US_Cities_List/nat_athens.png,,52,,,4,,,,,,,,,,,,,,,
null,,confidence_buffer,903465,confidence_buffer,,null,,,,,,,,,,,,,,,,,,
973.3999999910593,,pt2_memorable_rating,904439,US_Cities_List/nat_athens.png,,52,,,4,,,,,,,,,,,,,,,
null,,confidence_buffer,904540,confidence_buffer,,null,,,,,,,,,,,,,,,,,,
3097.5999999940395,,recognition_phase,907638,US_Cities_List/nat_athens.png,,50,,,,,,old,1,0.8409090909090909,,,,,,,,,,
null,,confidence_buffer,907740,confidence_buffer,,null,,,,,,,,,,,,,,,,,,
null,,thebreak,908241,break,,null,,,,,,,,,,,,,,,,,,
1744.800000011921,,pt2_realistic_rating,909987,US_Cities_List/nat_abilene.png,,51,US_Cities_List/nat_abilene.png,NAT,3,,,,,,,,,,,,,,,
null,,confidence_buffer,910089,confidence_buffer,,null,,,,,,,,,,,,,,,,,,
1422.5,,pt2_unique_rating,911512,US_Cities_List/nat_abilene.png,,51,,,3,,,,,,,,,,,,,,,
null,,confidence_buffer,911613,confidence_buffer,,null,,,,,,,,,,,,,,,,,,
1255.800000011921,,pt2_memorable_rating,912870,US_Cities_List/nat_abilene.png,,50,,,2,,,,,,,,,,,,,,,
null,,confidence_buffer,912972,confidence_buffer,,null,,,,,,,,,,,,,,,,,,
2161.2999999970198,,recognition_phase,915134,US_Cities_List/nat_abilene.png,,50,,,,,,old,1,0.8444444444444444,,,,,,,,,,
null,,confidence_buffer,915235,confidence_buffer,,null,,,,,,,,,,,,,,,,,,
null,,thebreak,915737,break,,null,,,,,,,,,,,,,,,,,,
1778.5999999940395,,pt2_realistic_rating,917516,US_Cities_List/mm_cornwall.png,,51,US_Cities_List/mm_cornwall.png,MM,3,,,,,,,,,,,,,,,
null,,confidence_buffer,917619,confidence_buffer,,null,,,,,,,,,,,,,,,,,,
1661.5,,pt2_unique_rating,919281,US_Cities_List/mm_cornwall.png,,51,,,3,,,,,,,,,,,,,,,
null,,confidence_buffer,919382,confidence_buffer,,null,,,,,,,,,,,,,,,,,,
2801.7000000029802,,pt2_memorable_rating,922185,US_Cities_List/mm_cornwall.png,,51,,,3,,,,,,,,,,,,,,,
null,,confidence_buffer,922287,confidence_buffer,,null,,,,,,,,,,,,,,,,,,
1940.4000000059605,,recognition_phase,924229,US_Cities_List/mm_cornwall.png,,50,,,,,,old,1,0.8478260869565217,,,,,,,,,,
null,,confidence_buffer,924331,confidence_buffer,,null,,,,,,,,,,,,,,,,,,
null,,thebreak,924832,break,,null,,,,,,,,,,,,,,,,,,
8087.199999988079,,pt2_realistic_rating,932921,Fictional_Cities_List/img_manmade_03.png,,50,Fictional_Cities_List/img_manmade_03.png,MM,2,,,,,,,,,,,,,,,
null,,confidence_buffer,933023,confidence_buffer,,null,,,,,,,,,,,,,,,,,,
2115.1000000089407,,pt2_unique_rating,935139,Fictional_Cities_List/img_manmade_03.png,,51,,,3,,,,,,,,,,,,,,,
null,,confidence_buffer,935240,confidence_buffer,,null,,,,,,,,,,,,,,,,,,
1345.0999999940395,,pt2_memorable_rating,936587,Fictional_Cities_List/img_manmade_03.png,,51,,,3,,,,,,,,,,,,,,,
null,,confidence_buffer,936689,confidence_buffer,,null,,,,,,,,,,,,,,,,,,
1877.0999999940395,,recognition_phase,938567,Fictional_Cities_List/img_manmade_03.png,,50,,,,,,old,0,0.8297872340425532,,,,,,,,,,
null,,confidence_buffer,938670,confidence_buffer,,null,,,,,,,,,,,,,,,,,,
null,,thebreak,939172,break,,null,,,,,,,,,,,,,,,,,,
3897,,pt2_realistic_rating,943070,Fictional_Cities_List/img_natural_19.png,,50,Fictional_Cities_List/img_natural_19.png,NAT,2,,,,,,,,,,,,,,,
null,,confidence_buffer,943171,confidence_buffer,,null,,,,,,,,,,,,,,,,,,
1511.7999999970198,,pt2_unique_rating,944684,Fictional_Cities_List/img_natural_19.png,,51,,,3,,,,,,,,,,,,,,,
null,,confidence_buffer,944786,confidence_buffer,,null,,,,,,,,,,,,,,,,,,
2274.5999999940395,,pt2_memorable_rating,947062,Fictional_Cities_List/img_natural_19.png,,52,,,4,,,,,,,,,,,,,,,
null,,confidence_buffer,947164,confidence_buffer,,null,,,,,,,,,,,,,,,,,,
4772.29999999702,,recognition_phase,951937,Fictional_Cities_List/img_natural_19.png,,51,,,,,,new,0,0.8125,,,,,,,,,,
null,,confidence_buffer,952039,confidence_buffer,,null,,,,,,,,,,,,,,,,,,
null,,thebreak,952540,break,,null,,,,,,,,,,,,,,,,,,
3181.5999999940395,,pt2_realistic_rating,955723,US_Cities_List/nat_bisbee.png,,51,US_Cities_List/nat_bisbee.png,NAT,3,,,,,,,,,,,,,,,
null,,confidence_buffer,955825,confidence_buffer,,null,,,,,,,,,,,,,,,,,,
1554.699999988079,,pt2_unique_rating,957381,US_Cities_List/nat_bisbee.png,,51,,,3,,,,,,,,,,,,,,,
null,,confidence_buffer,957482,confidence_buffer,,null,,,,,,,,,,,,,,,,,,
1705.9000000059605,,probe_rating,959189,probe_rating,,49,,,,1,1,,,,,,,,,,,,,
null,,confidence_buffer,959291,confidence_buffer,,null,,,,,,,,,,,,,,,,,,
1482.7999999970198,,pt2_memorable_rating,960775,US_Cities_List/nat_bisbee.png,,50,,,2,,,,,,,,,,,,,,,
null,,confidence_buffer,960877,confidence_buffer,,null,,,,,,,,,,,,,,,,,,
8504.10000000894,,recognition_phase,969383,US_Cities_List/nat_bisbee.png,,52,,,,,,new,1,0.8163265306122449,,,,,,,,,,
null,,confidence_buffer,969485,confidence_buffer,,null,,,,,,,,,,,,,,,,,,
null,,thebreak,969987,break,,null,,,,,,,,,,,,,,,,,,
3761.3999999910593,,pt2_realistic_rating,973750,US_Cities_List/mm_peoria.png,,52,US_Cities_List/mm_peoria.png,MM,4,,,,,,,,,,,,,,,
null,,confidence_buffer,973852,confidence_buffer,,null,,,,,,,,,,,,,,,,,,
1524,,pt2_unique_rating,975378,US_Cities_List/mm_peoria.png,,52,,,4,,,,,,,,,,,,,,,
null,,confidence_buffer,975479,confidence_buffer,,null,,,,,,,,,,,,,,,,,,
1438.8999999910593,,pt2_memorable_rating,976919,US_Cities_List/mm_peoria.png,,51,,,3,,,,,,,,,,,,,,,
null,,confidence_buffer,977021,confidence_buffer,,null,,,,,,,,,,,,,,,,,,
2515.7999999970198,,recognition_phase,979538,US_Cities_List/mm_peoria.png,,49,,,,,,old,1,0.82,,,,,,,,,,
null,,confidence_buffer,979639,confidence_buffer,,null,,,,,,,,,,,,,,,,,,
null,,thebreak,980141,break,,null,,,,,,,,,,,,,,,,,,
4128.79999999702,,pt2_realistic_rating,984271,Fictional_Cities_List/img_natural_13.png,,49,Fictional_Cities_List/img_natural_13.png,NAT,1,,,,,,,,,,,,,,,
null,,confidence_buffer,984373,confidence_buffer,,null,,,,,,,,,,,,,,,,,,
1545.5,,pt2_unique_rating,985920,Fictional_Cities_List/img_natural_13.png,,52,,,4,,,,,,,,,,,,,,,
null,,confidence_buffer,986021,confidence_buffer,,null,,,,,,,,,,,,,,,,,,
1455,,pt2_memorable_rating,987477,Fictional_Cities_List/img_natural_13.png,,52,,,4,,,,,,,,,,,,,,,
null,,confidence_buffer,987578,confidence_buffer,,null,,,,,,,,,,,,,,,,,,
1693.199999988079,,recognition_phase,989273,Fictional_Cities_List/img_natural_13.png,,50,,,,,,old,1,0.8235294117647058,,,,,,,,,,
null,,confidence_buffer,989374,confidence_buffer,,null,,,,,,,,,,,,,,,,,,
null,,thebreak,989876,break,,null,,,,,,,,,,,,,,,,,,
3176.2000000029802,,pt2_realistic_rating,993054,Fictional_Cities_List/img_natural_11.png,,51,Fictional_Cities_List/img_natural_11.png,NAT,3,,,,,,,,,,,,,,,
null,,confidence_buffer,993156,confidence_buffer,,null,,,,,,,,,,,,,,,,,,
1597.5,,pt2_unique_rating,994755,Fictional_Cities_List/img_natural_11.png,,52,,,4,,,,,,,,,,,,,,,
null,,confidence_buffer,994856,confidence_buffer,,null,,,,,,,,,,,,,,,,,,
1292.5999999940395,,probe_rating,996150,probe_rating,,51,,,,3,1,,,,,,,,,,,,,
null,,confidence_buffer,996252,confidence_buffer,,null,,,,,,,,,,,,,,,,,,
1369.5,,pt2_memorable_rating,997623,Fictional_Cities_List/img_natural_11.png,,52,,,4,,,,,,,,,,,,,,,
null,,confidence_buffer,997725,confidence_buffer,,null,,,,,,,,,,,,,,,,,,
2535.2999999970198,,recognition_phase,1000261,Fictional_Cities_List/img_natural_11.png,,51,,,,,,new,1,0.8269230769230769,,,,,,,,,,
null,,confidence_buffer,1000363,confidence_buffer,,null,,,,,,,,,,,,,,,,,,
null,,thebreak,1000865,break,,null,,,,,,,,,,,,,,,,,,
2546.2999999970198,,pt2_realistic_rating,1003412,Fictional_Cities_List/img_manmade_11.png,,50,Fictional_Cities_List/img_manmade_11.png,MM,2,,,,,,,,,,,,,,,
null,,confidence_buffer,1003514,confidence_buffer,,null,,,,,,,,,,,,,,,,,,
1649.3999999910593,,pt2_unique_rating,1005164,Fictional_Cities_List/img_manmade_11.png,,52,,,4,,,,,,,,,,,,,,,
null,,confidence_buffer,1005266,confidence_buffer,,null,,,,,,,,,,,,,,,,,,
2018.5,,pt2_memorable_rating,1007286,Fictional_Cities_List/img_manmade_11.png,,52,,,4,,,,,,,,,,,,,,,
null,,confidence_buffer,1007387,confidence_buffer,,null,,,,,,,,,,,,,,,,,,
2672.0999999940395,,recognition_phase,1010061,Fictional_Cities_List/img_manmade_11.png,,52,,,,,,new,1,0.8301886792452831,,,,,,,,,,
null,,confidence_buffer,1010162,confidence_buffer,,null,,,,,,,,,,,,,,,,,,
null,,thebreak,1010665,break,,null,,,,,,,,,,,,,,,,,,
3075.5,,pt2_realistic_rating,1013742,US_Cities_List/mm_carmel.png,,50,US_Cities_List/mm_carmel.png,MM,2,,,,,,,,,,,,,,,
null,,confidence_buffer,1013845,confidence_buffer,,null,,,,,,,,,,,,,,,,,,
1541.2000000029802,,probe_rating,1015388,probe_rating,,50,,,,2,1,,,,,,,,,,,,,
null,,confidence_buffer,1015490,confidence_buffer,,null,,,,,,,,,,,,,,,,,,
1204.7999999970198,,pt2_unique_rating,1016696,US_Cities_List/mm_carmel.png,,52,,,4,,,,,,,,,,,,,,,
null,,confidence_buffer,1016797,confidence_buffer,,null,,,,,,,,,,,,,,,,,,
864.3000000119209,,pt2_memorable_rating,1017663,US_Cities_List/mm_carmel.png,,52,,,4,,,,,,,,,,,,,,,
null,,confidence_buffer,1017765,confidence_buffer,,null,,,,,,,,,,,,,,,,,,
1573.3999999910593,,recognition_phase,1019340,US_Cities_List/mm_carmel.png,,52,,,,,,new,1,0.8333333333333334,,,,,,,,,,
null,,confidence_buffer,1019441,confidence_buffer,,null,,,,,,,,,,,,,,,,,,
null,,thebreak,1019942,break,,null,,,,,,,,,,,,,,,,,,
3184.8999999910593,,pt2_realistic_rating,1023128,US_Cities_List/nat_coeurdalene.png,,53,US_Cities_List/nat_coeurdalene.png,NAT,5,,,,,,,,,,,,,,,
null,,confidence_buffer,1023230,confidence_buffer,,null,,,,,,,,,,,,,,,,,,
1557.7999999970198,,pt2_unique_rating,1024789,US_Cities_List/nat_coeurdalene.png,,52,,,4,,,,,,,,,,,,,,,
null,,confidence_buffer,1024891,confidence_buffer,,null,,,,,,,,,,,,,,,,,,
911,,pt2_memorable_rating,1025803,US_Cities_List/nat_coeurdalene.png,,52,,,4,,,,,,,,,,,,,,,
null,,confidence_buffer,1025904,confidence_buffer,,null,,,,,,,,,,,,,,,,,,
2274.7999999970198,,recognition_phase,1028179,US_Cities_List/nat_coeurdalene.png,,52,,,,,,new,1,0.8363636363636363,,,,,,,,,,
null,,confidence_buffer,1028281,confidence_buffer,,null,,,,,,,,,,,,,,,,,,
null,,thebreak,1028782,break,,null,,,,,,,,,,,,,,,,,,
3228.2000000029802,,pt2_realistic_rating,1032011,US_Cities_List/mm_okoboji.png,,53,US_Cities_List/mm_okoboji.png,MM,5,,,,,,,,,,,,,,,
null,,confidence_buffer,1032112,confidence_buffer,,null,,,,,,,,,,,,,,,,,,
2001.2000000029802,,pt2_unique_rating,1034114,US_Cities_List/mm_okoboji.png,,51,,,3,,,,,,,,,,,,,,,
null,,confidence_buffer,1034216,confidence_buffer,,null,,,,,,,,,,,,,,,,,,
972,,pt2_memorable_rating,1035189,US_Cities_List/mm_okoboji.png,,51,,,3,,,,,,,,,,,,,,,
null,,confidence_buffer,1035292,confidence_buffer,,null,,,,,,,,,,,,,,,,,,
1482.2000000029802,,probe_rating,1036775,probe_rating,,52,,,,4,1,,,,,,,,,,,,,
null,,confidence_buffer,1036877,confidence_buffer,,null,,,,,,,,,,,,,,,,,,
1775.5,,recognition_phase,1038653,US_Cities_List/mm_okoboji.png,,49,,,,,,old,1,0.8392857142857143,,,,,,,,,,
null,,confidence_buffer,1038756,confidence_buffer,,null,,,,,,,,,,,,,,,,,,
null,,thebreak,1039257,break,,null,,,,,,,,,,,,,,,,,,
4063.0999999940395,,pt2_realistic_rating,1043322,Fictional_Cities_List/img_natural_10.png,,53,Fictional_Cities_List/img_natural_10.png,NAT,5,,,,,,,,,,,,,,,
null,,confidence_buffer,1043423,confidence_buffer,,null,,,,,,,,,,,,,,,,,,
1536,,pt2_unique_rating,1044960,Fictional_Cities_List/img_natural_10.png,,52,,,4,,,,,,,,,,,,,,,
null,,confidence_buffer,1045061,confidence_buffer,,null,,,,,,,,,,,,,,,,,,
1577.2999999970198,,pt2_memorable_rating,1046640,Fictional_Cities_List/img_natural_10.png,,51,,,3,,,,,,,,,,,,,,,
null,,confidence_buffer,1046741,confidence_buffer,,null,,,,,,,,,,,,,,,,,,
1763.7000000029802,,recognition_phase,1048506,Fictional_Cities_List/img_natural_10.png,,49,,,,,,old,1,0.8421052631578947,,,,,,,,,,
null,,confidence_buffer,1048608,confidence_buffer,,null,,,,,,,,,,,,,,,,,,
null,,thebreak,1049110,break,,null,,,,,,,,,,,,,,,,,,
4481.300000011921,,pt2_realistic_rating,1053593,Fictional_Cities_List/img_natural_41.png,,51,Fictional_Cities_List/img_natural_41.png,NAT,3,,,,,,,,,,,,,,,
null,,confidence_buffer,1053695,confidence_buffer,,null,,,,,,,,,,,,,,,,,,
1711.199999988079,,pt2_unique_rating,1055407,Fictional_Cities_List/img_natural_41.png,,52,,,4,,,,,,,,,,,,,,,
null,,confidence_buffer,1055509,confidence_buffer,,null,,,,,,,,,,,,,,,,,,
2235.800000011921,,pt2_memorable_rating,1057747,Fictional_Cities_List/img_natural_41.png,,52,,,4,,,,,,,,,,,,,,,
null,,confidence_buffer,1057848,confidence_buffer,,null,,,,,,,,,,,,,,,,,,
3064,,recognition_phase,1060913,Fictional_Cities_List/img_natural_41.png,,50,,,,,,old,1,0.8448275862068966,,,,,,,,,,
null,,confidence_buffer,1061015,confidence_buffer,,null,,,,,,,,,,,,,,,,,,
null,,thebreak,1061516,break,,null,,,,,,,,,,,,,,,,,,
2414.5999999940395,,pt2_realistic_rating,1063931,Fictional_Cities_List/img_manmade_41.png,,53,Fictional_Cities_List/img_manmade_41.png,MM,5,,,,,,,,,,,,,,,
null,,confidence_buffer,1064033,confidence_buffer,,null,,,,,,,,,,,,,,,,,,
1303.7999999970198,,pt2_unique_rating,1065338,Fictional_Cities_List/img_manmade_41.png,,52,,,4,,,,,,,,,,,,,,,
null,,confidence_buffer,1065439,confidence_buffer,,null,,,,,,,,,,,,,,,,,,
1082,,pt2_memorable_rating,1066522,Fictional_Cities_List/img_manmade_41.png,,51,,,3,,,,,,,,,,,,,,,
null,,confidence_buffer,1066624,confidence_buffer,,null,,,,,,,,,,,,,,,,,,
2975.7999999970198,,recognition_phase,1069601,Fictional_Cities_List/img_manmade_41.png,,50,,,,,,old,0,0.8305084745762712,,,,,,,,,,
null,,confidence_buffer,1069703,confidence_buffer,,null,,,,,,,,,,,,,,,,,,
null,,thebreak,1070205,break,,null,,,,,,,,,,,,,,,,,,
3322.8999999910593,,pt2_realistic_rating,1073529,US_Cities_List/nat_hotsprings.png,,52,US_Cities_List/nat_hotsprings.png,NAT,4,,,,,,,,,,,,,,,
null,,confidence_buffer,1073631,confidence_buffer,,null,,,,,,,,,,,,,,,,,,
2263.699999988079,,pt2_unique_rating,1075896,US_Cities_List/nat_hotsprings.png,,52,,,4,,,,,,,,,,,,,,,
null,,confidence_buffer,1075997,confidence_buffer,,null,,,,,,,,,,,,,,,,,,
874.2000000029802,,pt2_memorable_rating,1076872,US_Cities_List/nat_hotsprings.png,,51,,,3,,,,,,,,,,,,,,,
null,,confidence_buffer,1076974,confidence_buffer,,null,,,,,,,,,,,,,,,,,,
1999.7999999970198,,recognition_phase,1078975,US_Cities_List/nat_hotsprings.png,,51,,,,,,new,0,0.8166666666666667,,,,,,,,,,
null,,confidence_buffer,1079076,confidence_buffer,,null,,,,,,,,,,,,,,,,,,
null,,thebreak,1079577,break,,null,,,,,,,,,,,,,,,,,,
,,survey,1191636,survey-questions,,,,,,,,,,,none,high,No,Tried to associate images with a particular place in my mind,Had an idea of the place in my mind,Someplace beautiful and different from what I am used to,Someplace I have never been before,Someplace that looks like what I have seen before,No,
