rt,responses,trial_type,time_elapsed,stimulus,button_pressed,key_press,name_trial,city_type,rating,probe,probe_accuracy,response,correct,accuracy,problems,smooth,distraction,strategies,familiar,memorable,unique,realistic,similar,comments
11917,{worker_id:67ad7a2c6560dc8b95106394},id_enter,11939,,,,,,,,,,,,,,,,,,,,,
16717.700000000186,,fullscreen,28667,fullscreen,0,,,,,,,,,,,,,,,,,,,
7407.0999999996275,,intro_0,36101,instruct,,32,,,,,,,,,,,,,,,,,,
15982,,intro_1,52086,instruct,,32,,,,,,,,,,,,,,,,,,
18000.599999999627,,intro_2,70089,instruct,,32,,,,,,,,,,,,,,,,,,
null,,instruct_dir_4,71591,instruct,,null,,,,,,,,,,,,,,,,,,
null,,thebreak,72094,break,,null,,,,,,,,,,,,,,,,,,
5328,,familiar_rating,77425,US_Cities_List/nat_healdsburg.png,,51,US_Cities_List/nat_healdsburg.png,NAT,3,,,,,,,,,,,,,,,
null,,confidence_buffer,77528,confidence_buffer,,null,,,,,,,,,,,,,,,,,,
3784.899999999441,,unique_rating,81315,US_Cities_List/nat_healdsburg.png,,52,,,4,,,,,,,,,,,,,,,
null,,confidence_buffer,81418,confidence_buffer,,null,,,,,,,,,,,,,,,,,,
7862.399999999441,,memorable_rating,89283,US_Cities_List/nat_healdsburg.png,,53,,,5,,,,,,,,,,,,,,,
null,,confidence_buffer,89388,confidence_buffer,,null,,,,,,,,,,,,,,,,,,
null,,thebreak,89890,break,,null,,,,,,,,,,,,,,,,,,
7815.200000000186,,familiar_rating,97708,Fictional_Cities_List/img_natural_32.png,,49,Fictional_Cities_List/img_natural_32.png,NAT,1,,,,,,,,,,,,,,,
null,,confidence_buffer,97810,confidence_buffer,,null,,,,,,,,,,,,,,,,,,
3391.399999999441,,unique_rating,101203,Fictional_Cities_List/img_natural_32.png,,53,,,5,,,,,,,,,,,,,,,
null,,confidence_buffer,101306,confidence_buffer,,null,,,,,,,,,,,,,,,,,,
3345.9000000003725,,memorable_rating,104654,Fictional_Cities_List/img_natural_32.png,,53,,,5,,,,,,,,,,,,,,,
null,,confidence_buffer,104756,confidence_buffer,,null,,,,,,,,,,,,,,,,,,
null,,thebreak,105258,break,,null,,,,,,,,,,,,,,,,,,
3072.600000000559,,familiar_rating,108333,Fictional_Cities_List/img_natural_36.png,,49,Fictional_Cities_List/img_natural_36.png,NAT,1,,,,,,,,,,,,,,,
null,,confidence_buffer,108436,confidence_buffer,,null,,,,,,,,,,,,,,,,,,
2094.800000000745,,unique_rating,110533,Fictional_Cities_List/img_natural_36.png,,49,,,1,,,,,,,,,,,,,,,
null,,confidence_buffer,110635,confidence_buffer,,null,,,,,,,,,,,,,,,,,,
31.600000000558794,,memorable_rating,110669,Fictional_Cities_List/img_natural_36.png,,49,,,1,,,,,,,,,,,,,,,
null,,confidence_buffer,110772,confidence_buffer,,null,,,,,,,,,,,,,,,,,,
null,,thebreak,111274,break,,null,,,,,,,,,,,,,,,,,,
2269.9000000003725,,familiar_rating,113546,US_Cities_List/mm_sitka.png,,49,US_Cities_List/mm_sitka.png,MM,1,,,,,,,,,,,,,,,
null,,confidence_buffer,113649,confidence_buffer,,null,,,,,,,,,,,,,,,,,,
3605.4000000003725,,unique_rating,117257,US_Cities_List/mm_sitka.png,,51,,,3,,,,,,,,,,,,,,,
null,,confidence_buffer,117359,confidence_buffer,,null,,,,,,,,,,,,,,,,,,
4592.699999999255,,memorable_rating,121955,US_Cities_List/mm_sitka.png,,51,,,3,,,,,,,,,,,,,,,
null,,confidence_buffer,122057,confidence_buffer,,null,,,,,,,,,,,,,,,,,,
null,,thebreak,122559,break,,null,,,,,,,,,,,,,,,,,,
4091,,familiar_rating,126652,US_Cities_List/mm_hotsprings.png,,50,US_Cities_List/mm_hotsprings.png,MM,2,,,,,,,,,,,,,,,
null,,confidence_buffer,126754,confidence_buffer,,null,,,,,,,,,,,,,,,,,,
3517.7999999998137,,unique_rating,130275,US_Cities_List/mm_hotsprings.png,,52,,,4,,,,,,,,,,,,,,,
null,,confidence_buffer,130378,confidence_buffer,,null,,,,,,,,,,,,,,,,,,
2560.7000000001863,,memorable_rating,132941,US_Cities_List/mm_hotsprings.png,,51,,,3,,,,,,,,,,,,,,,
null,,confidence_buffer,133044,confidence_buffer,,null,,,,,,,,,,,,,,,,,,
null,,thebreak,133546,break,,null,,,,,,,,,,,,,,,,,,
4738.700000000186,,familiar_rating,138287,Fictional_Cities_List/img_manmade_05.png,,50,Fictional_Cities_List/img_manmade_05.png,MM,2,,,,,,,,,,,,,,,
null,,confidence_buffer,138391,confidence_buffer,,null,,,,,,,,,,,,,,,,,,
8342.200000000186,,probe_rating,146736,probe_rating,,53,,,,5,1,,,,,,,,,,,,,
null,,confidence_buffer,146839,confidence_buffer,,null,,,,,,,,,,,,,,,,,,
4350,,unique_rating,151192,Fictional_Cities_List/img_manmade_05.png,,50,,,2,,,,,,,,,,,,,,,
null,,confidence_buffer,151295,confidence_buffer,,null,,,,,,,,,,,,,,,,,,
2108.2000000001863,,memorable_rating,153405,Fictional_Cities_List/img_manmade_05.png,,51,,,3,,,,,,,,,,,,,,,
null,,confidence_buffer,153508,confidence_buffer,,null,,,,,,,,,,,,,,,,,,
null,,thebreak,154011,break,,null,,,,,,,,,,,,,,,,,,
6219.5,,familiar_rating,160233,US_Cities_List/mm_abilene.png,,49,US_Cities_List/mm_abilene.png,MM,1,,,,,,,,,,,,,,,
null,,confidence_buffer,160344,confidence_buffer,,null,,,,,,,,,,,,,,,,,,
1473.7000000001863,,unique_rating,161821,US_Cities_List/mm_abilene.png,,51,,,3,,,,,,,,,,,,,,,
null,,confidence_buffer,161923,confidence_buffer,,null,,,,,,,,,,,,,,,,,,
1125.5,,memorable_rating,163051,US_Cities_List/mm_abilene.png,,50,,,2,,,,,,,,,,,,,,,
null,,confidence_buffer,163154,confidence_buffer,,null,,,,,,,,,,,,,,,,,,
2190.699999999255,,probe_rating,165348,probe_rating,,50,,,,2,1,,,,,,,,,,,,,
null,,confidence_buffer,165450,confidence_buffer,,null,,,,,,,,,,,,,,,,,,
null,,thebreak,165952,break,,null,,,,,,,,,,,,,,,,,,
6852.5,,familiar_rating,172806,US_Cities_List/mm_peoria.png,,49,US_Cities_List/mm_peoria.png,MM,1,,,,,,,,,,,,,,,
null,,confidence_buffer,172909,confidence_buffer,,null,,,,,,,,,,,,,,,,,,
2628,,unique_rating,175539,US_Cities_List/mm_peoria.png,,53,,,5,,,,,,,,,,,,,,,
null,,confidence_buffer,175642,confidence_buffer,,null,,,,,,,,,,,,,,,,,,
1199.2999999998137,,memorable_rating,176843,US_Cities_List/mm_peoria.png,,52,,,4,,,,,,,,,,,,,,,
null,,confidence_buffer,176946,confidence_buffer,,null,,,,,,,,,,,,,,,,,,
null,,thebreak,177447,break,,null,,,,,,,,,,,,,,,,,,
4120.699999999255,,familiar_rating,181570,Fictional_Cities_List/img_manmade_46.png,,49,Fictional_Cities_List/img_manmade_46.png,MM,1,,,,,,,,,,,,,,,
null,,confidence_buffer,181674,confidence_buffer,,null,,,,,,,,,,,,,,,,,,
1796.2999999998137,,unique_rating,183472,Fictional_Cities_List/img_manmade_46.png,,52,,,4,,,,,,,,,,,,,,,
null,,confidence_buffer,183575,confidence_buffer,,null,,,,,,,,,,,,,,,,,,
1896.2000000001863,,memorable_rating,185473,Fictional_Cities_List/img_manmade_46.png,,50,,,2,,,,,,,,,,,,,,,
null,,confidence_buffer,185576,confidence_buffer,,null,,,,,,,,,,,,,,,,,,
null,,thebreak,186078,break,,null,,,,,,,,,,,,,,,,,,
6472.700000000186,,familiar_rating,192553,US_Cities_List/mm_athens.png,,52,US_Cities_List/mm_athens.png,MM,4,,,,,,,,,,,,,,,
null,,confidence_buffer,192656,confidence_buffer,,null,,,,,,,,,,,,,,,,,,
87.6000000005588,,unique_rating,192746,US_Cities_List/mm_athens.png,,52,,,4,,,,,,,,,,,,,,,
null,,confidence_buffer,192848,confidence_buffer,,null,,,,,,,,,,,,,,,,,,
1585.4000000003725,,memorable_rating,194436,US_Cities_List/mm_athens.png,,51,,,3,,,,,,,,,,,,,,,
null,,confidence_buffer,194539,confidence_buffer,,null,,,,,,,,,,,,,,,,,,
null,,thebreak,195041,break,,null,,,,,,,,,,,,,,,,,,
4492.899999999441,,familiar_rating,199536,Fictional_Cities_List/img_natural_47.png,,50,Fictional_Cities_List/img_natural_47.png,NAT,2,,,,,,,,,,,,,,,
null,,confidence_buffer,199638,confidence_buffer,,null,,,,,,,,,,,,,,,,,,
1235.4000000003725,,unique_rating,200874,Fictional_Cities_List/img_natural_47.png,,51,,,3,,,,,,,,,,,,,,,
null,,confidence_buffer,200977,confidence_buffer,,null,,,,,,,,,,,,,,,,,,
1933,,probe_rating,202912,probe_rating,,52,,,,4,1,,,,,,,,,,,,,
null,,confidence_buffer,203016,confidence_buffer,,null,,,,,,,,,,,,,,,,,,
1387,,memorable_rating,204405,Fictional_Cities_List/img_natural_47.png,,51,,,3,,,,,,,,,,,,,,,
null,,confidence_buffer,204508,confidence_buffer,,null,,,,,,,,,,,,,,,,,,
null,,thebreak,205010,break,,null,,,,,,,,,,,,,,,,,,
6257.5,,familiar_rating,211269,Fictional_Cities_List/img_manmade_11.png,,50,Fictional_Cities_List/img_manmade_11.png,MM,2,,,,,,,,,,,,,,,
null,,confidence_buffer,211373,confidence_buffer,,null,,,,,,,,,,,,,,,,,,
2324.899999999441,,unique_rating,213700,Fictional_Cities_List/img_manmade_11.png,,53,,,5,,,,,,,,,,,,,,,
null,,confidence_buffer,213803,confidence_buffer,,null,,,,,,,,,,,,,,,,,,
1020.3000000007451,,memorable_rating,214826,Fictional_Cities_List/img_manmade_11.png,,52,,,4,,,,,,,,,,,,,,,
null,,confidence_buffer,214929,confidence_buffer,,null,,,,,,,,,,,,,,,,,,
null,,thebreak,215431,break,,null,,,,,,,,,,,,,,,,,,
4013.0999999996275,,familiar_rating,219447,US_Cities_List/mm_westpalmbeach.png,,50,US_Cities_List/mm_westpalmbeach.png,MM,2,,,,,,,,,,,,,,,
null,,confidence_buffer,219549,confidence_buffer,,null,,,,,,,,,,,,,,,,,,
1111.5999999996275,,unique_rating,220663,US_Cities_List/mm_westpalmbeach.png,,52,,,4,,,,,,,,,,,,,,,
null,,confidence_buffer,220767,confidence_buffer,,null,,,,,,,,,,,,,,,,,,
1269.5,,memorable_rating,222038,US_Cities_List/mm_westpalmbeach.png,,51,,,3,,,,,,,,,,,,,,,
null,,confidence_buffer,222140,confidence_buffer,,null,,,,,,,,,,,,,,,,,,
null,,thebreak,222642,break,,null,,,,,,,,,,,,,,,,,,
2992.2999999998137,,familiar_rating,225636,Fictional_Cities_List/img_manmade_07.png,,50,Fictional_Cities_List/img_manmade_07.png,MM,2,,,,,,,,,,,,,,,
null,,confidence_buffer,225739,confidence_buffer,,null,,,,,,,,,,,,,,,,,,
1379.0999999996275,,unique_rating,227121,Fictional_Cities_List/img_manmade_07.png,,52,,,4,,,,,,,,,,,,,,,
null,,confidence_buffer,227223,confidence_buffer,,null,,,,,,,,,,,,,,,,,,
1048.3999999994412,,memorable_rating,228274,Fictional_Cities_List/img_manmade_07.png,,53,,,5,,,,,,,,,,,,,,,
null,,confidence_buffer,228376,confidence_buffer,,null,,,,,,,,,,,,,,,,,,
null,,thebreak,228877,break,,null,,,,,,,,,,,,,,,,,,
3860.899999999441,,familiar_rating,232741,US_Cities_List/mm_hilo.png,,49,US_Cities_List/mm_hilo.png,MM,1,,,,,,,,,,,,,,,
null,,confidence_buffer,232843,confidence_buffer,,null,,,,,,,,,,,,,,,,,,
714,,unique_rating,233560,US_Cities_List/mm_hilo.png,,51,,,3,,,,,,,,,,,,,,,
null,,confidence_buffer,233663,confidence_buffer,,null,,,,,,,,,,,,,,,,,,
670.2999999998137,,memorable_rating,234335,US_Cities_List/mm_hilo.png,,52,,,4,,,,,,,,,,,,,,,
null,,confidence_buffer,234438,confidence_buffer,,null,,,,,,,,,,,,,,,,,,
null,,thebreak,234939,break,,null,,,,,,,,,,,,,,,,,,
3258.899999999441,,familiar_rating,238201,Fictional_Cities_List/img_manmade_26.png,,50,Fictional_Cities_List/img_manmade_26.png,MM,2,,,,,,,,,,,,,,,
null,,confidence_buffer,238303,confidence_buffer,,null,,,,,,,,,,,,,,,,,,
1598.5,,unique_rating,239904,Fictional_Cities_List/img_manmade_26.png,,51,,,3,,,,,,,,,,,,,,,
null,,confidence_buffer,240007,confidence_buffer,,null,,,,,,,,,,,,,,,,,,
2219.9000000003725,,memorable_rating,242229,Fictional_Cities_List/img_manmade_26.png,,52,,,4,,,,,,,,,,,,,,,
null,,confidence_buffer,242332,confidence_buffer,,null,,,,,,,,,,,,,,,,,,
null,,thebreak,242848,break,,null,,,,,,,,,,,,,,,,,,
4070.5,,familiar_rating,246921,US_Cities_List/nat_okoboji.png,,51,US_Cities_List/nat_okoboji.png,NAT,3,,,,,,,,,,,,,,,
null,,confidence_buffer,247024,confidence_buffer,,null,,,,,,,,,,,,,,,,,,
1259,,unique_rating,248286,US_Cities_List/nat_okoboji.png,,52,,,4,,,,,,,,,,,,,,,
null,,confidence_buffer,248389,confidence_buffer,,null,,,,,,,,,,,,,,,,,,
801.7999999998137,,memorable_rating,249193,US_Cities_List/nat_okoboji.png,,53,,,5,,,,,,,,,,,,,,,
null,,confidence_buffer,249295,confidence_buffer,,null,,,,,,,,,,,,,,,,,,
null,,thebreak,249797,break,,null,,,,,,,,,,,,,,,,,,
3229.7999999998137,,familiar_rating,253030,Fictional_Cities_List/img_natural_05.png,,50,Fictional_Cities_List/img_natural_05.png,NAT,2,,,,,,,,,,,,,,,
null,,confidence_buffer,253132,confidence_buffer,,null,,,,,,,,,,,,,,,,,,
933.2999999998137,,unique_rating,254068,Fictional_Cities_List/img_natural_05.png,,52,,,4,,,,,,,,,,,,,,,
null,,confidence_buffer,254170,confidence_buffer,,null,,,,,,,,,,,,,,,,,,
1902,,probe_rating,256074,probe_rating,,53,,,,5,1,,,,,,,,,,,,,
null,,confidence_buffer,256177,confidence_buffer,,null,,,,,,,,,,,,,,,,,,
3938.0999999996275,,memorable_rating,260118,Fictional_Cities_List/img_natural_05.png,,50,,,2,,,,,,,,,,,,,,,
null,,confidence_buffer,260222,confidence_buffer,,null,,,,,,,,,,,,,,,,,,
null,,thebreak,260724,break,,null,,,,,,,,,,,,,,,,,,
1522.2999999998137,,familiar_rating,262249,US_Cities_List/nat_coeurdalene.png,,51,US_Cities_List/nat_coeurdalene.png,NAT,3,,,,,,,,,,,,,,,
null,,confidence_buffer,262352,confidence_buffer,,null,,,,,,,,,,,,,,,,,,
8458.199999999255,,unique_rating,270813,US_Cities_List/nat_coeurdalene.png,,50,,,2,,,,,,,,,,,,,,,
null,,confidence_buffer,270915,confidence_buffer,,null,,,,,,,,,,,,,,,,,,
1461.9000000003725,,memorable_rating,272379,US_Cities_List/nat_coeurdalene.png,,51,,,3,,,,,,,,,,,,,,,
null,,confidence_buffer,272483,confidence_buffer,,null,,,,,,,,,,,,,,,,,,
null,,thebreak,272984,break,,null,,,,,,,,,,,,,,,,,,
3244.199999999255,,familiar_rating,276232,Fictional_Cities_List/img_natural_37.png,,50,Fictional_Cities_List/img_natural_37.png,NAT,2,,,,,,,,,,,,,,,
null,,confidence_buffer,276335,confidence_buffer,,null,,,,,,,,,,,,,,,,,,
783.2000000001863,,unique_rating,277120,Fictional_Cities_List/img_natural_37.png,,51,,,3,,,,,,,,,,,,,,,
null,,confidence_buffer,277222,confidence_buffer,,null,,,,,,,,,,,,,,,,,,
1002.3999999994412,,memorable_rating,278227,Fictional_Cities_List/img_natural_37.png,,50,,,2,,,,,,,,,,,,,,,
null,,confidence_buffer,278330,confidence_buffer,,null,,,,,,,,,,,,,,,,,,
null,,thebreak,278832,break,,null,,,,,,,,,,,,,,,,,,
5238.5999999996275,,familiar_rating,284073,Fictional_Cities_List/img_natural_06.png,,50,Fictional_Cities_List/img_natural_06.png,NAT,2,,,,,,,,,,,,,,,
null,,confidence_buffer,284175,confidence_buffer,,null,,,,,,,,,,,,,,,,,,
3817.800000000745,,unique_rating,287995,Fictional_Cities_List/img_natural_06.png,,53,,,5,,,,,,,,,,,,,,,
null,,confidence_buffer,288098,confidence_buffer,,null,,,,,,,,,,,,,,,,,,
1090.8999999994412,,memorable_rating,289191,Fictional_Cities_List/img_natural_06.png,,51,,,3,,,,,,,,,,,,,,,
null,,confidence_buffer,289294,confidence_buffer,,null,,,,,,,,,,,,,,,,,,
null,,thebreak,289805,break,,null,,,,,,,,,,,,,,,,,,
5267.4000000003725,,familiar_rating,295075,Fictional_Cities_List/img_manmade_09.png,,49,Fictional_Cities_List/img_manmade_09.png,MM,1,,,,,,,,,,,,,,,
null,,confidence_buffer,295178,confidence_buffer,,null,,,,,,,,,,,,,,,,,,
1563.2000000001863,,unique_rating,296743,Fictional_Cities_List/img_manmade_09.png,,51,,,3,,,,,,,,,,,,,,,
null,,confidence_buffer,296846,confidence_buffer,,null,,,,,,,,,,,,,,,,,,
1865.9000000003725,,memorable_rating,298715,Fictional_Cities_List/img_manmade_09.png,,53,,,5,,,,,,,,,,,,,,,
null,,confidence_buffer,298817,confidence_buffer,,null,,,,,,,,,,,,,,,,,,
2184.7999999998137,,probe_rating,301004,probe_rating,,49,,,,1,1,,,,,,,,,,,,,
null,,confidence_buffer,301107,confidence_buffer,,null,,,,,,,,,,,,,,,,,,
null,,thebreak,301609,break,,null,,,,,,,,,,,,,,,,,,
2816,,familiar_rating,304427,US_Cities_List/mm_okoboji.png,,49,US_Cities_List/mm_okoboji.png,MM,1,,,,,,,,,,,,,,,
null,,confidence_buffer,304530,confidence_buffer,,null,,,,,,,,,,,,,,,,,,
773.5,,unique_rating,305305,US_Cities_List/mm_okoboji.png,,51,,,3,,,,,,,,,,,,,,,
null,,confidence_buffer,305408,confidence_buffer,,null,,,,,,,,,,,,,,,,,,
1188.9000000003725,,probe_rating,306599,probe_rating,,52,,,,4,0,,,,,,,,,,,,,
null,,confidence_buffer,306702,confidence_buffer,,null,,,,,,,,,,,,,,,,,,
1647.8999999994412,,memorable_rating,308352,US_Cities_List/mm_okoboji.png,,51,,,3,,,,,,,,,,,,,,,
null,,confidence_buffer,308454,confidence_buffer,,null,,,,,,,,,,,,,,,,,,
null,,thebreak,308956,break,,null,,,,,,,,,,,,,,,,,,
5119.4000000003725,,familiar_rating,314078,Fictional_Cities_List/img_manmade_06.png,,49,Fictional_Cities_List/img_manmade_06.png,MM,1,,,,,,,,,,,,,,,
null,,confidence_buffer,314181,confidence_buffer,,null,,,,,,,,,,,,,,,,,,
1824.7000000001863,,unique_rating,316008,Fictional_Cities_List/img_manmade_06.png,,52,,,4,,,,,,,,,,,,,,,
null,,confidence_buffer,316112,confidence_buffer,,null,,,,,,,,,,,,,,,,,,
610.1000000005588,,memorable_rating,316724,Fictional_Cities_List/img_manmade_06.png,,53,,,5,,,,,,,,,,,,,,,
null,,confidence_buffer,316826,confidence_buffer,,null,,,,,,,,,,,,,,,,,,
null,,thebreak,317328,break,,null,,,,,,,,,,,,,,,,,,
1615.2000000001863,,familiar_rating,318945,US_Cities_List/nat_carmel.png,,50,US_Cities_List/nat_carmel.png,NAT,2,,,,,,,,,,,,,,,
null,,confidence_buffer,319048,confidence_buffer,,null,,,,,,,,,,,,,,,,,,
832.2000000001863,,unique_rating,319883,US_Cities_List/nat_carmel.png,,52,,,4,,,,,,,,,,,,,,,
null,,confidence_buffer,319985,confidence_buffer,,null,,,,,,,,,,,,,,,,,,
791.5,,memorable_rating,320779,US_Cities_List/nat_carmel.png,,53,,,5,,,,,,,,,,,,,,,
null,,confidence_buffer,320883,confidence_buffer,,null,,,,,,,,,,,,,,,,,,
null,,thebreak,321385,break,,null,,,,,,,,,,,,,,,,,,
3265.9000000003725,,familiar_rating,324653,US_Cities_List/nat_boulder.png,,49,US_Cities_List/nat_boulder.png,NAT,1,,,,,,,,,,,,,,,
null,,confidence_buffer,324755,confidence_buffer,,null,,,,,,,,,,,,,,,,,,
961.2999999998137,,unique_rating,325719,US_Cities_List/nat_boulder.png,,51,,,3,,,,,,,,,,,,,,,
null,,confidence_buffer,325822,confidence_buffer,,null,,,,,,,,,,,,,,,,,,
882,,memorable_rating,326706,US_Cities_List/nat_boulder.png,,53,,,5,,,,,,,,,,,,,,,
null,,confidence_buffer,326812,confidence_buffer,,null,,,,,,,,,,,,,,,,,,
null,,thebreak,327313,break,,null,,,,,,,,,,,,,,,,,,
6588.700000000186,,familiar_rating,333904,US_Cities_List/nat_peoria.png,,50,US_Cities_List/nat_peoria.png,NAT,2,,,,,,,,,,,,,,,
null,,confidence_buffer,334007,confidence_buffer,,null,,,,,,,,,,,,,,,,,,
779.6999999992549,,unique_rating,334788,US_Cities_List/nat_peoria.png,,52,,,4,,,,,,,,,,,,,,,
null,,confidence_buffer,334891,confidence_buffer,,null,,,,,,,,,,,,,,,,,,
902.1000000005588,,memorable_rating,335794,US_Cities_List/nat_peoria.png,,51,,,3,,,,,,,,,,,,,,,
null,,confidence_buffer,335897,confidence_buffer,,null,,,,,,,,,,,,,,,,,,
null,,thebreak,336398,break,,null,,,,,,,,,,,,,,,,,,
2732.7999999998137,,familiar_rating,339133,Fictional_Cities_List/img_natural_20.png,,49,Fictional_Cities_List/img_natural_20.png,NAT,1,,,,,,,,,,,,,,,
null,,confidence_buffer,339237,confidence_buffer,,null,,,,,,,,,,,,,,,,,,
710.7999999998137,,unique_rating,339950,Fictional_Cities_List/img_natural_20.png,,51,,,3,,,,,,,,,,,,,,,
null,,confidence_buffer,340053,confidence_buffer,,null,,,,,,,,,,,,,,,,,,
1000.7000000001863,,memorable_rating,341055,Fictional_Cities_List/img_natural_20.png,,50,,,2,,,,,,,,,,,,,,,
null,,confidence_buffer,341157,confidence_buffer,,null,,,,,,,,,,,,,,,,,,
null,,thebreak,341659,break,,null,,,,,,,,,,,,,,,,,,
4042.2000000001863,,familiar_rating,345704,US_Cities_List/nat_bisbee.png,,50,US_Cities_List/nat_bisbee.png,NAT,2,,,,,,,,,,,,,,,
null,,confidence_buffer,345807,confidence_buffer,,null,,,,,,,,,,,,,,,,,,
2913,,unique_rating,348722,US_Cities_List/nat_bisbee.png,,51,,,3,,,,,,,,,,,,,,,
null,,confidence_buffer,348825,confidence_buffer,,null,,,,,,,,,,,,,,,,,,
2556,,memorable_rating,351383,US_Cities_List/nat_bisbee.png,,53,,,5,,,,,,,,,,,,,,,
null,,confidence_buffer,351490,confidence_buffer,,null,,,,,,,,,,,,,,,,,,
null,,thebreak,351999,break,,null,,,,,,,,,,,,,,,,,,
9963.400000000373,,familiar_rating,361964,Fictional_Cities_List/img_natural_11.png,,53,Fictional_Cities_List/img_natural_11.png,NAT,5,,,,,,,,,,,,,,,
null,,confidence_buffer,362068,confidence_buffer,,null,,,,,,,,,,,,,,,,,,
1196.3999999994412,,unique_rating,363267,Fictional_Cities_List/img_natural_11.png,,52,,,4,,,,,,,,,,,,,,,
null,,confidence_buffer,363369,confidence_buffer,,null,,,,,,,,,,,,,,,,,,
1067.300000000745,,memorable_rating,364439,Fictional_Cities_List/img_natural_11.png,,51,,,3,,,,,,,,,,,,,,,
null,,confidence_buffer,364541,confidence_buffer,,null,,,,,,,,,,,,,,,,,,
null,,thebreak,365043,break,,null,,,,,,,,,,,,,,,,,,
8461.100000000559,,intro_0,373506,instruct,,32,,,,,,,,,,,,,,,,,,
12649,,intro_1,386157,instruct,,32,,,,,,,,,,,,,,,,,,
11723.299999999814,,intro_2,397881,instruct,,32,,,,,,,,,,,,,,,,,,
null,,instruct_dir_4,399383,instruct,,null,,,,,,,,,,,,,,,,,,
11760.700000000186,,pt2_realistic_rating,411146,Fictional_Cities_List/img_natural_36.png,,52,Fictional_Cities_List/img_natural_36.png,NAT,4,,,,,,,,,,,,,,,
null,,confidence_buffer,411249,confidence_buffer,,null,,,,,,,,,,,,,,,,,,
3039.800000000745,,pt2_unique_rating,414290,Fictional_Cities_List/img_natural_36.png,,53,,,5,,,,,,,,,,,,,,,
null,,confidence_buffer,414394,confidence_buffer,,null,,,,,,,,,,,,,,,,,,
2255.2999999998137,,pt2_memorable_rating,416651,Fictional_Cities_List/img_natural_36.png,,50,,,2,,,,,,,,,,,,,,,
null,,confidence_buffer,416753,confidence_buffer,,null,,,,,,,,,,,,,,,,,,
8355.299999999814,,recognition_phase,425111,Fictional_Cities_List/img_natural_36.png,,49,,,,,,old,1,1,,,,,,,,,,
null,,confidence_buffer,425215,confidence_buffer,,null,,,,,,,,,,,,,,,,,,
null,,thebreak,425717,break,,null,,,,,,,,,,,,,,,,,,
3964.0999999996275,,pt2_realistic_rating,429684,US_Cities_List/mm_carmel.png,,52,US_Cities_List/mm_carmel.png,MM,4,,,,,,,,,,,,,,,
null,,confidence_buffer,429789,confidence_buffer,,null,,,,,,,,,,,,,,,,,,
839,,pt2_unique_rating,430631,US_Cities_List/mm_carmel.png,,51,,,3,,,,,,,,,,,,,,,
null,,confidence_buffer,430734,confidence_buffer,,null,,,,,,,,,,,,,,,,,,
3608.399999999441,,pt2_memorable_rating,434344,US_Cities_List/mm_carmel.png,,50,,,2,,,,,,,,,,,,,,,
null,,confidence_buffer,434447,confidence_buffer,,null,,,,,,,,,,,,,,,,,,
6078.4000000003725,,recognition_phase,440528,US_Cities_List/mm_carmel.png,,52,,,,,,new,1,1,,,,,,,,,,
null,,confidence_buffer,440631,confidence_buffer,,null,,,,,,,,,,,,,,,,,,
null,,thebreak,441133,break,,null,,,,,,,,,,,,,,,,,,
5024.600000000559,,pt2_realistic_rating,446160,Fictional_Cities_List/img_manmade_20.png,,50,Fictional_Cities_List/img_manmade_20.png,MM,2,,,,,,,,,,,,,,,
null,,confidence_buffer,446263,confidence_buffer,,null,,,,,,,,,,,,,,,,,,
1715.8999999994412,,pt2_unique_rating,447981,Fictional_Cities_List/img_manmade_20.png,,51,,,3,,,,,,,,,,,,,,,
null,,confidence_buffer,448083,confidence_buffer,,null,,,,,,,,,,,,,,,,,,
694.6999999992549,,pt2_memorable_rating,448781,Fictional_Cities_List/img_manmade_20.png,,52,,,4,,,,,,,,,,,,,,,
null,,confidence_buffer,448883,confidence_buffer,,null,,,,,,,,,,,,,,,,,,
4286.0999999996275,,recognition_phase,453172,Fictional_Cities_List/img_manmade_20.png,,51,,,,,,new,1,1,,,,,,,,,,
null,,confidence_buffer,453275,confidence_buffer,,null,,,,,,,,,,,,,,,,,,
null,,thebreak,453778,break,,null,,,,,,,,,,,,,,,,,,
4509.699999999255,,pt2_realistic_rating,458289,Fictional_Cities_List/img_manmade_32.png,,50,Fictional_Cities_List/img_manmade_32.png,MM,2,,,,,,,,,,,,,,,
null,,confidence_buffer,458392,confidence_buffer,,null,,,,,,,,,,,,,,,,,,
790.7000000001863,,pt2_unique_rating,459185,Fictional_Cities_List/img_manmade_32.png,,51,,,3,,,,,,,,,,,,,,,
null,,confidence_buffer,459288,confidence_buffer,,null,,,,,,,,,,,,,,,,,,
868,,pt2_memorable_rating,460159,Fictional_Cities_List/img_manmade_32.png,,52,,,4,,,,,,,,,,,,,,,
null,,confidence_buffer,460263,confidence_buffer,,null,,,,,,,,,,,,,,,,,,
2396.4000000003725,,recognition_phase,462661,Fictional_Cities_List/img_manmade_32.png,,49,,,,,,old,0,0.75,,,,,,,,,,
null,,confidence_buffer,462764,confidence_buffer,,null,,,,,,,,,,,,,,,,,,
null,,thebreak,463266,break,,null,,,,,,,,,,,,,,,,,,
4295.299999999814,,pt2_realistic_rating,467563,Fictional_Cities_List/img_manmade_05.png,,51,Fictional_Cities_List/img_manmade_05.png,MM,3,,,,,,,,,,,,,,,
null,,confidence_buffer,467681,confidence_buffer,,null,,,,,,,,,,,,,,,,,,
1143.5,,pt2_unique_rating,468827,Fictional_Cities_List/img_manmade_05.png,,52,,,4,,,,,,,,,,,,,,,
null,,confidence_buffer,468930,confidence_buffer,,null,,,,,,,,,,,,,,,,,,
891.9000000003725,,pt2_memorable_rating,469824,Fictional_Cities_List/img_manmade_05.png,,50,,,2,,,,,,,,,,,,,,,
null,,confidence_buffer,469928,confidence_buffer,,null,,,,,,,,,,,,,,,,,,
2048.7999999998137,,recognition_phase,471979,Fictional_Cities_List/img_manmade_05.png,,49,,,,,,old,1,0.8,,,,,,,,,,
null,,confidence_buffer,472082,confidence_buffer,,null,,,,,,,,,,,,,,,,,,
null,,thebreak,472583,break,,null,,,,,,,,,,,,,,,,,,
1582.2999999998137,,pt2_realistic_rating,474168,Fictional_Cities_List/img_natural_39.png,,51,Fictional_Cities_List/img_natural_39.png,NAT,3,,,,,,,,,,,,,,,
null,,confidence_buffer,474270,confidence_buffer,,null,,,,,,,,,,,,,,,,,,
712.7000000001863,,pt2_unique_rating,474985,Fictional_Cities_List/img_natural_39.png,,52,,,4,,,,,,,,,,,,,,,
null,,confidence_buffer,475088,confidence_buffer,,null,,,,,,,,,,,,,,,,,,
470.20000000018626,,pt2_memorable_rating,475561,Fictional_Cities_List/img_natural_39.png,,53,,,5,,,,,,,,,,,,,,,
null,,confidence_buffer,475663,confidence_buffer,,null,,,,,,,,,,,,,,,,,,
4115,,recognition_phase,479780,Fictional_Cities_List/img_natural_39.png,,52,,,,,,new,1,0.8333333333333334,,,,,,,,,,
null,,confidence_buffer,479883,confidence_buffer,,null,,,,,,,,,,,,,,,,,,
null,,thebreak,480385,break,,null,,,,,,,,,,,,,,,,,,
2867.7999999998137,,pt2_realistic_rating,483255,Fictional_Cities_List/img_manmade_06.png,,53,Fictional_Cities_List/img_manmade_06.png,MM,5,,,,,,,,,,,,,,,
null,,confidence_buffer,483358,confidence_buffer,,null,,,,,,,,,,,,,,,,,,
701.5,,pt2_unique_rating,484062,Fictional_Cities_List/img_manmade_06.png,,52,,,4,,,,,,,,,,,,,,,
null,,confidence_buffer,484164,confidence_buffer,,null,,,,,,,,,,,,,,,,,,
1680.2000000001863,,pt2_memorable_rating,485846,Fictional_Cities_List/img_manmade_06.png,,53,,,5,,,,,,,,,,,,,,,
null,,confidence_buffer,485949,confidence_buffer,,null,,,,,,,,,,,,,,,,,,
2642.100000000559,,recognition_phase,488593,Fictional_Cities_List/img_manmade_06.png,,49,,,,,,old,1,0.8571428571428571,,,,,,,,,,
null,,confidence_buffer,488696,confidence_buffer,,null,,,,,,,,,,,,,,,,,,
null,,thebreak,489198,break,,null,,,,,,,,,,,,,,,,,,
1479.5999999996275,,pt2_realistic_rating,490680,Fictional_Cities_List/img_manmade_39.png,,51,Fictional_Cities_List/img_manmade_39.png,MM,3,,,,,,,,,,,,,,,
null,,confidence_buffer,490783,confidence_buffer,,null,,,,,,,,,,,,,,,,,,
513.7000000001863,,pt2_unique_rating,491299,Fictional_Cities_List/img_manmade_39.png,,52,,,4,,,,,,,,,,,,,,,
null,,confidence_buffer,491402,confidence_buffer,,null,,,,,,,,,,,,,,,,,,
432.5,,pt2_memorable_rating,491836,Fictional_Cities_List/img_manmade_39.png,,51,,,3,,,,,,,,,,,,,,,
null,,confidence_buffer,491939,confidence_buffer,,null,,,,,,,,,,,,,,,,,,
2909,,recognition_phase,494850,Fictional_Cities_List/img_manmade_39.png,,52,,,,,,new,1,0.875,,,,,,,,,,
null,,confidence_buffer,494953,confidence_buffer,,null,,,,,,,,,,,,,,,,,,
null,,thebreak,495455,break,,null,,,,,,,,,,,,,,,,,,
1703.7999999998137,,pt2_realistic_rating,497161,Fictional_Cities_List/img_natural_21.png,,51,Fictional_Cities_List/img_natural_21.png,NAT,3,,,,,,,,,,,,,,,
null,,confidence_buffer,497264,confidence_buffer,,null,,,,,,,,,,,,,,,,,,
364.5,,pt2_unique_rating,497631,Fictional_Cities_List/img_natural_21.png,,51,,,3,,,,,,,,,,,,,,,
null,,confidence_buffer,497734,confidence_buffer,,null,,,,,,,,,,,,,,,,,,
732.7999999998137,,pt2_memorable_rating,498469,Fictional_Cities_List/img_natural_21.png,,50,,,2,,,,,,,,,,,,,,,
null,,confidence_buffer,498573,confidence_buffer,,null,,,,,,,,,,,,,,,,,,
3090.5,,recognition_phase,501666,Fictional_Cities_List/img_natural_21.png,,49,,,,,,old,0,0.7777777777777778,,,,,,,,,,
null,,confidence_buffer,501769,confidence_buffer,,null,,,,,,,,,,,,,,,,,,
null,,thebreak,502271,break,,null,,,,,,,,,,,,,,,,,,
1108.5,,pt2_realistic_rating,503381,US_Cities_List/nat_athens.png,,51,US_Cities_List/nat_athens.png,NAT,3,,,,,,,,,,,,,,,
null,,confidence_buffer,503484,confidence_buffer,,null,,,,,,,,,,,,,,,,,,
1420.7000000001863,,pt2_unique_rating,504907,US_Cities_List/nat_athens.png,,53,,,5,,,,,,,,,,,,,,,
null,,confidence_buffer,505010,confidence_buffer,,null,,,,,,,,,,,,,,,,,,
443.70000000018626,,pt2_memorable_rating,505456,US_Cities_List/nat_athens.png,,51,,,3,,,,,,,,,,,,,,,
null,,confidence_buffer,505559,confidence_buffer,,null,,,,,,,,,,,,,,,,,,
2445,,recognition_phase,508006,US_Cities_List/nat_athens.png,,52,,,,,,new,1,0.8,,,,,,,,,,
null,,confidence_buffer,508109,confidence_buffer,,null,,,,,,,,,,,,,,,,,,
null,,thebreak,508610,break,,null,,,,,,,,,,,,,,,,,,
2360.7000000001863,,pt2_realistic_rating,510973,US_Cities_List/nat_cornwall.png,,50,US_Cities_List/nat_cornwall.png,NAT,2,,,,,,,,,,,,,,,
null,,confidence_buffer,511075,confidence_buffer,,null,,,,,,,,,,,,,,,,,,
712.0999999996275,,pt2_unique_rating,511789,US_Cities_List/nat_cornwall.png,,51,,,3,,,,,,,,,,,,,,,
null,,confidence_buffer,511893,confidence_buffer,,null,,,,,,,,,,,,,,,,,,
2133.5,,pt2_memorable_rating,514028,US_Cities_List/nat_cornwall.png,,50,,,2,,,,,,,,,,,,,,,
null,,confidence_buffer,514131,confidence_buffer,,null,,,,,,,,,,,,,,,,,,
3559,,recognition_phase,517692,US_Cities_List/nat_cornwall.png,,52,,,,,,new,1,0.8181818181818182,,,,,,,,,,
null,,confidence_buffer,517794,confidence_buffer,,null,,,,,,,,,,,,,,,,,,
null,,thebreak,518295,break,,null,,,,,,,,,,,,,,,,,,
1035.800000000745,,pt2_realistic_rating,519333,Fictional_Cities_List/img_manmade_47.png,,53,Fictional_Cities_List/img_manmade_47.png,MM,5,,,,,,,,,,,,,,,
null,,confidence_buffer,519435,confidence_buffer,,null,,,,,,,,,,,,,,,,,,
405.29999999981374,,pt2_unique_rating,519843,Fictional_Cities_List/img_manmade_47.png,,52,,,4,,,,,,,,,,,,,,,
null,,confidence_buffer,519946,confidence_buffer,,null,,,,,,,,,,,,,,,,,,
279,,pt2_memorable_rating,520227,Fictional_Cities_List/img_manmade_47.png,,51,,,3,,,,,,,,,,,,,,,
null,,confidence_buffer,520331,confidence_buffer,,null,,,,,,,,,,,,,,,,,,
2401.7999999998137,,recognition_phase,522735,Fictional_Cities_List/img_manmade_47.png,,52,,,,,,new,1,0.8333333333333334,,,,,,,,,,
null,,confidence_buffer,522838,confidence_buffer,,null,,,,,,,,,,,,,,,,,,
null,,thebreak,523339,break,,null,,,,,,,,,,,,,,,,,,
1449.5999999996275,,pt2_realistic_rating,524791,Fictional_Cities_List/img_manmade_07.png,,53,Fictional_Cities_List/img_manmade_07.png,MM,5,,,,,,,,,,,,,,,
null,,confidence_buffer,524893,confidence_buffer,,null,,,,,,,,,,,,,,,,,,
873.8999999994412,,pt2_unique_rating,525769,Fictional_Cities_List/img_manmade_07.png,,52,,,4,,,,,,,,,,,,,,,
null,,confidence_buffer,525872,confidence_buffer,,null,,,,,,,,,,,,,,,,,,
654.5,,pt2_memorable_rating,526528,Fictional_Cities_List/img_manmade_07.png,,51,,,3,,,,,,,,,,,,,,,
null,,confidence_buffer,526631,confidence_buffer,,null,,,,,,,,,,,,,,,,,,
1717.2999999998137,,recognition_phase,528351,Fictional_Cities_List/img_manmade_07.png,,49,,,,,,old,1,0.8461538461538461,,,,,,,,,,
null,,confidence_buffer,528455,confidence_buffer,,null,,,,,,,,,,,,,,,,,,
null,,thebreak,528956,break,,null,,,,,,,,,,,,,,,,,,
3931.2999999998137,,pt2_realistic_rating,532890,Fictional_Cities_List/img_natural_20.png,,53,Fictional_Cities_List/img_natural_20.png,NAT,5,,,,,,,,,,,,,,,
null,,confidence_buffer,532993,confidence_buffer,,null,,,,,,,,,,,,,,,,,,
372,,pt2_unique_rating,533367,Fictional_Cities_List/img_natural_20.png,,51,,,3,,,,,,,,,,,,,,,
null,,confidence_buffer,533470,confidence_buffer,,null,,,,,,,,,,,,,,,,,,
973.3999999994412,,pt2_memorable_rating,534445,Fictional_Cities_List/img_natural_20.png,,50,,,2,,,,,,,,,,,,,,,
null,,confidence_buffer,534548,confidence_buffer,,null,,,,,,,,,,,,,,,,,,
1382.4000000003725,,recognition_phase,535933,Fictional_Cities_List/img_natural_20.png,,49,,,,,,old,1,0.8571428571428571,,,,,,,,,,
null,,confidence_buffer,536036,confidence_buffer,,null,,,,,,,,,,,,,,,,,,
null,,thebreak,536538,break,,null,,,,,,,,,,,,,,,,,,
2272.600000000559,,pt2_realistic_rating,538812,US_Cities_List/mm_boulder.png,,50,US_Cities_List/mm_boulder.png,MM,2,,,,,,,,,,,,,,,
null,,confidence_buffer,538916,confidence_buffer,,null,,,,,,,,,,,,,,,,,,
462,,pt2_unique_rating,539380,US_Cities_List/mm_boulder.png,,51,,,3,,,,,,,,,,,,,,,
null,,confidence_buffer,539483,confidence_buffer,,null,,,,,,,,,,,,,,,,,,
188,,pt2_memorable_rating,539673,US_Cities_List/mm_boulder.png,,52,,,4,,,,,,,,,,,,,,,
null,,confidence_buffer,539777,confidence_buffer,,null,,,,,,,,,,,,,,,,,,
1567,,recognition_phase,541346,US_Cities_List/mm_boulder.png,,52,,,,,,new,1,0.8666666666666667,,,,,,,,,,
null,,confidence_buffer,541449,confidence_buffer,,null,,,,,,,,,,,,,,,,,,
null,,thebreak,541952,break,,null,,,,,,,,,,,,,,,,,,
995.4000000003725,,pt2_realistic_rating,542949,US_Cities_List/nat_carmel.png,,53,US_Cities_List/nat_carmel.png,NAT,5,,,,,,,,,,,,,,,
null,,confidence_buffer,543052,confidence_buffer,,null,,,,,,,,,,,,,,,,,,
173.90000000037253,,pt2_unique_rating,543228,US_Cities_List/nat_carmel.png,,51,,,3,,,,,,,,,,,,,,,
null,,confidence_buffer,543331,confidence_buffer,,null,,,,,,,,,,,,,,,,,,
1069.5999999996275,,pt2_memorable_rating,544402,US_Cities_List/nat_carmel.png,,50,,,2,,,,,,,,,,,,,,,
null,,confidence_buffer,544505,confidence_buffer,,null,,,,,,,,,,,,,,,,,,
1052.9000000003725,,recognition_phase,545560,US_Cities_List/nat_carmel.png,,49,,,,,,old,1,0.875,,,,,,,,,,
null,,confidence_buffer,545663,confidence_buffer,,null,,,,,,,,,,,,,,,,,,
null,,thebreak,546165,break,,null,,,,,,,,,,,,,,,,,,
1785.8999999994412,,pt2_realistic_rating,547953,US_Cities_List/mm_hotsprings.png,,51,US_Cities_List/mm_hotsprings.png,MM,3,,,,,,,,,,,,,,,
null,,confidence_buffer,548055,confidence_buffer,,null,,,,,,,,,,,,,,,,,,
76.90000000037253,,pt2_unique_rating,548134,US_Cities_List/mm_hotsprings.png,,53,,,5,,,,,,,,,,,,,,,
null,,confidence_buffer,548237,confidence_buffer,,null,,,,,,,,,,,,,,,,,,
205.09999999962747,,pt2_memorable_rating,548444,US_Cities_List/mm_hotsprings.png,,51,,,3,,,,,,,,,,,,,,,
null,,confidence_buffer,548547,confidence_buffer,,null,,,,,,,,,,,,,,,,,,
1846,,recognition_phase,550396,US_Cities_List/mm_hotsprings.png,,49,,,,,,old,1,0.8823529411764706,,,,,,,,,,
null,,confidence_buffer,550499,confidence_buffer,,null,,,,,,,,,,,,,,,,,,
null,,thebreak,551002,break,,null,,,,,,,,,,,,,,,,,,
821.5999999996275,,pt2_realistic_rating,551825,Fictional_Cities_List/img_manmade_21.png,,52,Fictional_Cities_List/img_manmade_21.png,MM,4,,,,,,,,,,,,,,,
null,,confidence_buffer,551928,confidence_buffer,,null,,,,,,,,,,,,,,,,,,
2094.4000000003725,,pt2_unique_rating,554024,Fictional_Cities_List/img_manmade_21.png,,52,,,4,,,,,,,,,,,,,,,
null,,confidence_buffer,554127,confidence_buffer,,null,,,,,,,,,,,,,,,,,,
2276.9000000003725,,pt2_memorable_rating,556406,Fictional_Cities_List/img_manmade_21.png,,53,,,5,,,,,,,,,,,,,,,
null,,confidence_buffer,556509,confidence_buffer,,null,,,,,,,,,,,,,,,,,,
2501.9000000003725,,recognition_phase,559013,Fictional_Cities_List/img_manmade_21.png,,51,,,,,,new,1,0.8888888888888888,,,,,,,,,,
null,,confidence_buffer,559116,confidence_buffer,,null,,,,,,,,,,,,,,,,,,
null,,thebreak,559617,break,,null,,,,,,,,,,,,,,,,,,
1406.7999999998137,,pt2_realistic_rating,561026,US_Cities_List/mm_bisbee.png,,52,US_Cities_List/mm_bisbee.png,MM,4,,,,,,,,,,,,,,,
null,,confidence_buffer,561130,confidence_buffer,,null,,,,,,,,,,,,,,,,,,
242.8999999994412,,pt2_unique_rating,561376,US_Cities_List/mm_bisbee.png,,51,,,3,,,,,,,,,,,,,,,
null,,confidence_buffer,561478,confidence_buffer,,null,,,,,,,,,,,,,,,,,,
105.29999999981374,,pt2_memorable_rating,561586,US_Cities_List/mm_bisbee.png,,51,,,3,,,,,,,,,,,,,,,
null,,confidence_buffer,561689,confidence_buffer,,null,,,,,,,,,,,,,,,,,,
1804.300000000745,,recognition_phase,563496,US_Cities_List/mm_bisbee.png,,52,,,,,,new,1,0.8947368421052632,,,,,,,,,,
null,,confidence_buffer,563599,confidence_buffer,,null,,,,,,,,,,,,,,,,,,
null,,thebreak,564102,break,,null,,,,,,,,,,,,,,,,,,
2786,,pt2_realistic_rating,566890,Fictional_Cities_List/img_natural_47.png,,53,Fictional_Cities_List/img_natural_47.png,NAT,5,,,,,,,,,,,,,,,
null,,confidence_buffer,566992,confidence_buffer,,null,,,,,,,,,,,,,,,,,,
154,,pt2_unique_rating,567149,Fictional_Cities_List/img_natural_47.png,,51,,,3,,,,,,,,,,,,,,,
null,,confidence_buffer,567252,confidence_buffer,,null,,,,,,,,,,,,,,,,,,
683.0999999996275,,pt2_memorable_rating,567937,Fictional_Cities_List/img_natural_47.png,,50,,,2,,,,,,,,,,,,,,,
null,,confidence_buffer,568040,confidence_buffer,,null,,,,,,,,,,,,,,,,,,
2492.7999999998137,,recognition_phase,570536,Fictional_Cities_List/img_natural_47.png,,49,,,,,,old,1,0.9,,,,,,,,,,
null,,confidence_buffer,570639,confidence_buffer,,null,,,,,,,,,,,,,,,,,,
null,,thebreak,571141,break,,null,,,,,,,,,,,,,,,,,,
511.40000000037253,,pt2_realistic_rating,571655,Fictional_Cities_List/img_manmade_37.png,,53,Fictional_Cities_List/img_manmade_37.png,MM,5,,,,,,,,,,,,,,,
null,,confidence_buffer,571757,confidence_buffer,,null,,,,,,,,,,,,,,,,,,
402.70000000018626,,pt2_unique_rating,572162,Fictional_Cities_List/img_manmade_37.png,,51,,,3,,,,,,,,,,,,,,,
null,,confidence_buffer,572265,confidence_buffer,,null,,,,,,,,,,,,,,,,,,
870.6000000005588,,pt2_memorable_rating,573138,Fictional_Cities_List/img_manmade_37.png,,52,,,4,,,,,,,,,,,,,,,
null,,confidence_buffer,573256,confidence_buffer,,null,,,,,,,,,,,,,,,,,,
1642.1000000005588,,recognition_phase,574901,Fictional_Cities_List/img_manmade_37.png,,52,,,,,,new,1,0.9047619047619048,,,,,,,,,,
null,,confidence_buffer,575004,confidence_buffer,,null,,,,,,,,,,,,,,,,,,
null,,thebreak,575506,break,,null,,,,,,,,,,,,,,,,,,
877.1999999992549,,pt2_realistic_rating,576385,US_Cities_List/mm_coeurdalene.png,,53,US_Cities_List/mm_coeurdalene.png,MM,5,,,,,,,,,,,,,,,
null,,confidence_buffer,576488,confidence_buffer,,null,,,,,,,,,,,,,,,,,,
184.79999999981374,,pt2_unique_rating,576675,US_Cities_List/mm_coeurdalene.png,,52,,,4,,,,,,,,,,,,,,,
null,,confidence_buffer,576778,confidence_buffer,,null,,,,,,,,,,,,,,,,,,
1107.2000000001863,,pt2_memorable_rating,577888,US_Cities_List/mm_coeurdalene.png,,50,,,2,,,,,,,,,,,,,,,
null,,confidence_buffer,577991,confidence_buffer,,null,,,,,,,,,,,,,,,,,,
2910.2999999998137,,recognition_phase,580904,US_Cities_List/mm_coeurdalene.png,,52,,,,,,new,1,0.9090909090909091,,,,,,,,,,
null,,confidence_buffer,581006,confidence_buffer,,null,,,,,,,,,,,,,,,,,,
null,,thebreak,581508,break,,null,,,,,,,,,,,,,,,,,,
709,,pt2_realistic_rating,582219,Fictional_Cities_List/img_natural_05.png,,53,Fictional_Cities_List/img_natural_05.png,NAT,5,,,,,,,,,,,,,,,
null,,confidence_buffer,582323,confidence_buffer,,null,,,,,,,,,,,,,,,,,,
123.1000000005588,,pt2_unique_rating,582448,Fictional_Cities_List/img_natural_05.png,,52,,,4,,,,,,,,,,,,,,,
null,,confidence_buffer,582551,confidence_buffer,,null,,,,,,,,,,,,,,,,,,
174.29999999981374,,pt2_memorable_rating,582728,Fictional_Cities_List/img_natural_05.png,,51,,,3,,,,,,,,,,,,,,,
null,,confidence_buffer,582831,confidence_buffer,,null,,,,,,,,,,,,,,,,,,
1944.699999999255,,recognition_phase,584777,Fictional_Cities_List/img_natural_05.png,,52,,,,,,new,0,0.8695652173913043,,,,,,,,,,
null,,confidence_buffer,584880,confidence_buffer,,null,,,,,,,,,,,,,,,,,,
null,,thebreak,585383,break,,null,,,,,,,,,,,,,,,,,,
1146.8999999994412,,pt2_realistic_rating,586532,Fictional_Cities_List/img_natural_30.png,,53,Fictional_Cities_List/img_natural_30.png,NAT,5,,,,,,,,,,,,,,,
null,,confidence_buffer,586634,confidence_buffer,,null,,,,,,,,,,,,,,,,,,
412.79999999981374,,pt2_unique_rating,587049,Fictional_Cities_List/img_natural_30.png,,51,,,3,,,,,,,,,,,,,,,
null,,confidence_buffer,587152,confidence_buffer,,null,,,,,,,,,,,,,,,,,,
3599.9000000003725,,pt2_memorable_rating,590754,Fictional_Cities_List/img_natural_30.png,,52,,,4,,,,,,,,,,,,,,,
null,,confidence_buffer,590856,confidence_buffer,,null,,,,,,,,,,,,,,,,,,
1298.7000000001863,,recognition_phase,592158,Fictional_Cities_List/img_natural_30.png,,51,,,,,,new,1,0.875,,,,,,,,,,
null,,confidence_buffer,592261,confidence_buffer,,null,,,,,,,,,,,,,,,,,,
null,,thebreak,592762,break,,null,,,,,,,,,,,,,,,,,,
1899.7000000001863,,pt2_realistic_rating,594664,Fictional_Cities_List/img_manmade_30.png,,53,Fictional_Cities_List/img_manmade_30.png,MM,5,,,,,,,,,,,,,,,
null,,confidence_buffer,594767,confidence_buffer,,null,,,,,,,,,,,,,,,,,,
193.5,,pt2_unique_rating,594963,Fictional_Cities_List/img_manmade_30.png,,51,,,3,,,,,,,,,,,,,,,
null,,confidence_buffer,595066,confidence_buffer,,null,,,,,,,,,,,,,,,,,,
149.90000000037253,,pt2_memorable_rating,595218,Fictional_Cities_List/img_manmade_30.png,,51,,,3,,,,,,,,,,,,,,,
null,,confidence_buffer,595321,confidence_buffer,,null,,,,,,,,,,,,,,,,,,
3667.7999999998137,,recognition_phase,598992,Fictional_Cities_List/img_manmade_30.png,,52,,,,,,new,1,0.88,,,,,,,,,,
null,,confidence_buffer,599094,confidence_buffer,,null,,,,,,,,,,,,,,,,,,
null,,thebreak,599597,break,,null,,,,,,,,,,,,,,,,,,
3342.5,,pt2_realistic_rating,602941,Fictional_Cities_List/img_manmade_36.png,,50,Fictional_Cities_List/img_manmade_36.png,MM,2,,,,,,,,,,,,,,,
null,,confidence_buffer,603044,confidence_buffer,,null,,,,,,,,,,,,,,,,,,
535.0999999996275,,pt2_unique_rating,603582,Fictional_Cities_List/img_manmade_36.png,,51,,,3,,,,,,,,,,,,,,,
null,,confidence_buffer,603685,confidence_buffer,,null,,,,,,,,,,,,,,,,,,
850.3000000007451,,pt2_memorable_rating,604537,Fictional_Cities_List/img_manmade_36.png,,52,,,4,,,,,,,,,,,,,,,
null,,confidence_buffer,604640,confidence_buffer,,null,,,,,,,,,,,,,,,,,,
1399.699999999255,,recognition_phase,606043,Fictional_Cities_List/img_manmade_36.png,,50,,,,,,old,0,0.8461538461538461,,,,,,,,,,
null,,confidence_buffer,606146,confidence_buffer,,null,,,,,,,,,,,,,,,,,,
null,,thebreak,606649,break,,null,,,,,,,,,,,,,,,,,,
1700.9000000003725,,pt2_realistic_rating,608351,US_Cities_List/mm_athens.png,,49,US_Cities_List/mm_athens.png,MM,1,,,,,,,,,,,,,,,
null,,confidence_buffer,608454,confidence_buffer,,null,,,,,,,,,,,,,,,,,,
1958.5,,pt2_unique_rating,610414,US_Cities_List/mm_athens.png,,50,,,2,,,,,,,,,,,,,,,
null,,confidence_buffer,610516,confidence_buffer,,null,,,,,,,,,,,,,,,,,,
692.4000000003725,,pt2_memorable_rating,611211,US_Cities_List/mm_athens.png,,51,,,3,,,,,,,,,,,,,,,
null,,confidence_buffer,611313,confidence_buffer,,null,,,,,,,,,,,,,,,,,,
1618.5999999996275,,recognition_phase,612934,US_Cities_List/mm_athens.png,,49,,,,,,old,1,0.8518518518518519,,,,,,,,,,
null,,confidence_buffer,613037,confidence_buffer,,null,,,,,,,,,,,,,,,,,,
null,,thebreak,613539,break,,null,,,,,,,,,,,,,,,,,,
2732.100000000559,,pt2_realistic_rating,616273,US_Cities_List/mm_hilo.png,,53,US_Cities_List/mm_hilo.png,MM,5,,,,,,,,,,,,,,,
null,,confidence_buffer,616376,confidence_buffer,,null,,,,,,,,,,,,,,,,,,
373.3999999994412,,pt2_unique_rating,616752,US_Cities_List/mm_hilo.png,,52,,,4,,,,,,,,,,,,,,,
null,,confidence_buffer,616855,confidence_buffer,,null,,,,,,,,,,,,,,,,,,
663.0999999996275,,pt2_memorable_rating,617520,US_Cities_List/mm_hilo.png,,51,,,3,,,,,,,,,,,,,,,
null,,confidence_buffer,617623,confidence_buffer,,null,,,,,,,,,,,,,,,,,,
1248.2999999998137,,recognition_phase,618873,US_Cities_List/mm_hilo.png,,49,,,,,,old,1,0.8571428571428571,,,,,,,,,,
null,,confidence_buffer,618976,confidence_buffer,,null,,,,,,,,,,,,,,,,,,
null,,thebreak,619477,break,,null,,,,,,,,,,,,,,,,,,
1703,,pt2_realistic_rating,621182,Fictional_Cities_List/img_natural_09.png,,50,Fictional_Cities_List/img_natural_09.png,NAT,2,,,,,,,,,,,,,,,
null,,confidence_buffer,621285,confidence_buffer,,null,,,,,,,,,,,,,,,,,,
512.2000000001863,,pt2_unique_rating,621799,Fictional_Cities_List/img_natural_09.png,,52,,,4,,,,,,,,,,,,,,,
null,,confidence_buffer,621902,confidence_buffer,,null,,,,,,,,,,,,,,,,,,
681.7999999998137,,pt2_memorable_rating,622586,Fictional_Cities_List/img_natural_09.png,,51,,,3,,,,,,,,,,,,,,,
null,,confidence_buffer,622688,confidence_buffer,,null,,,,,,,,,,,,,,,,,,
1449.7999999998137,,recognition_phase,624141,Fictional_Cities_List/img_natural_09.png,,52,,,,,,new,1,0.8620689655172413,,,,,,,,,,
null,,confidence_buffer,624243,confidence_buffer,,null,,,,,,,,,,,,,,,,,,
null,,thebreak,624759,break,,null,,,,,,,,,,,,,,,,,,
2156.100000000559,,pt2_realistic_rating,626917,Fictional_Cities_List/img_natural_11.png,,53,Fictional_Cities_List/img_natural_11.png,NAT,5,,,,,,,,,,,,,,,
null,,confidence_buffer,627019,confidence_buffer,,null,,,,,,,,,,,,,,,,,,
2908.5,,pt2_unique_rating,629930,Fictional_Cities_List/img_natural_11.png,,50,,,2,,,,,,,,,,,,,,,
null,,confidence_buffer,630033,confidence_buffer,,null,,,,,,,,,,,,,,,,,,
215.29999999981374,,pt2_memorable_rating,630251,Fictional_Cities_List/img_natural_11.png,,52,,,4,,,,,,,,,,,,,,,
null,,confidence_buffer,630354,confidence_buffer,,null,,,,,,,,,,,,,,,,,,
1347.7000000001863,,recognition_phase,631704,Fictional_Cities_List/img_natural_11.png,,49,,,,,,old,1,0.8666666666666667,,,,,,,,,,
null,,confidence_buffer,631806,confidence_buffer,,null,,,,,,,,,,,,,,,,,,
null,,thebreak,632309,break,,null,,,,,,,,,,,,,,,,,,
2076.5,,pt2_realistic_rating,634387,US_Cities_List/nat_westpalmbeach.png,,51,US_Cities_List/nat_westpalmbeach.png,NAT,3,,,,,,,,,,,,,,,
null,,confidence_buffer,634490,confidence_buffer,,null,,,,,,,,,,,,,,,,,,
144.20000000018626,,pt2_unique_rating,634636,US_Cities_List/nat_westpalmbeach.png,,52,,,4,,,,,,,,,,,,,,,
null,,confidence_buffer,634739,confidence_buffer,,null,,,,,,,,,,,,,,,,,,
693.8999999994412,,pt2_memorable_rating,635435,US_Cities_List/nat_westpalmbeach.png,,53,,,5,,,,,,,,,,,,,,,
null,,confidence_buffer,635538,confidence_buffer,,null,,,,,,,,,,,,,,,,,,
3127.5999999996275,,recognition_phase,638668,US_Cities_List/nat_westpalmbeach.png,,52,,,,,,new,1,0.8709677419354839,,,,,,,,,,
null,,confidence_buffer,638772,confidence_buffer,,null,,,,,,,,,,,,,,,,,,
null,,thebreak,639274,break,,null,,,,,,,,,,,,,,,,,,
1373.4000000003725,,pt2_realistic_rating,640650,US_Cities_List/nat_hotsprings.png,,50,US_Cities_List/nat_hotsprings.png,NAT,2,,,,,,,,,,,,,,,
null,,confidence_buffer,640752,confidence_buffer,,null,,,,,,,,,,,,,,,,,,
296.40000000037253,,pt2_unique_rating,641051,US_Cities_List/nat_hotsprings.png,,51,,,3,,,,,,,,,,,,,,,
null,,confidence_buffer,641153,confidence_buffer,,null,,,,,,,,,,,,,,,,,,
625.1000000005588,,pt2_memorable_rating,641781,US_Cities_List/nat_hotsprings.png,,49,,,1,,,,,,,,,,,,,,,
null,,confidence_buffer,641884,confidence_buffer,,null,,,,,,,,,,,,,,,,,,
1077.8999999994412,,recognition_phase,642964,US_Cities_List/nat_hotsprings.png,,52,,,,,,new,1,0.875,,,,,,,,,,
null,,confidence_buffer,643067,confidence_buffer,,null,,,,,,,,,,,,,,,,,,
null,,thebreak,643569,break,,null,,,,,,,,,,,,,,,,,,
816.4000000003725,,pt2_realistic_rating,644387,US_Cities_List/mm_healdsburg.png,,51,US_Cities_List/mm_healdsburg.png,MM,3,,,,,,,,,,,,,,,
null,,confidence_buffer,644490,confidence_buffer,,null,,,,,,,,,,,,,,,,,,
688.2000000001863,,pt2_unique_rating,645180,US_Cities_List/mm_healdsburg.png,,49,,,1,,,,,,,,,,,,,,,
null,,confidence_buffer,645283,confidence_buffer,,null,,,,,,,,,,,,,,,,,,
862.2000000001863,,pt2_memorable_rating,646147,US_Cities_List/mm_healdsburg.png,,49,,,1,,,,,,,,,,,,,,,
null,,confidence_buffer,646250,confidence_buffer,,null,,,,,,,,,,,,,,,,,,
2637.899999999441,,recognition_phase,648891,US_Cities_List/mm_healdsburg.png,,51,,,,,,new,1,0.8787878787878788,,,,,,,,,,
null,,confidence_buffer,648993,confidence_buffer,,null,,,,,,,,,,,,,,,,,,
null,,thebreak,649495,break,,null,,,,,,,,,,,,,,,,,,
1325.5,,pt2_realistic_rating,650822,US_Cities_List/nat_okoboji.png,,52,US_Cities_List/nat_okoboji.png,NAT,4,,,,,,,,,,,,,,,
null,,confidence_buffer,650925,confidence_buffer,,null,,,,,,,,,,,,,,,,,,
174.29999999981374,,pt2_unique_rating,651101,US_Cities_List/nat_okoboji.png,,51,,,3,,,,,,,,,,,,,,,
null,,confidence_buffer,651204,confidence_buffer,,null,,,,,,,,,,,,,,,,,,
343,,pt2_memorable_rating,651549,US_Cities_List/nat_okoboji.png,,50,,,2,,,,,,,,,,,,,,,
null,,confidence_buffer,651653,confidence_buffer,,null,,,,,,,,,,,,,,,,,,
1299.7000000001863,,recognition_phase,652955,US_Cities_List/nat_okoboji.png,,51,,,,,,new,0,0.8529411764705882,,,,,,,,,,
null,,confidence_buffer,653057,confidence_buffer,,null,,,,,,,,,,,,,,,,,,
null,,thebreak,653559,break,,null,,,,,,,,,,,,,,,,,,
3479.2999999998137,,pt2_realistic_rating,657040,US_Cities_List/mm_cornwall.png,,49,US_Cities_List/mm_cornwall.png,MM,1,,,,,,,,,,,,,,,
null,,confidence_buffer,657143,confidence_buffer,,null,,,,,,,,,,,,,,,,,,
549.5999999996275,,pt2_unique_rating,657695,US_Cities_List/mm_cornwall.png,,50,,,2,,,,,,,,,,,,,,,
null,,confidence_buffer,657797,confidence_buffer,,null,,,,,,,,,,,,,,,,,,
255,,pt2_memorable_rating,658055,US_Cities_List/mm_cornwall.png,,51,,,3,,,,,,,,,,,,,,,
null,,confidence_buffer,658157,confidence_buffer,,null,,,,,,,,,,,,,,,,,,
2901.5999999996275,,probe_rating,661061,probe_rating,,49,,,,1,1,,,,,,,,,,,,,
null,,confidence_buffer,661165,confidence_buffer,,null,,,,,,,,,,,,,,,,,,
2707.0999999996275,,recognition_phase,663875,US_Cities_List/mm_cornwall.png,,52,,,,,,new,1,0.8571428571428571,,,,,,,,,,
null,,confidence_buffer,663978,confidence_buffer,,null,,,,,,,,,,,,,,,,,,
null,,thebreak,664480,break,,null,,,,,,,,,,,,,,,,,,
4096.700000000186,,pt2_realistic_rating,668579,US_Cities_List/mm_delawarecity.png,,51,US_Cities_List/mm_delawarecity.png,MM,3,,,,,,,,,,,,,,,
null,,confidence_buffer,668681,confidence_buffer,,null,,,,,,,,,,,,,,,,,,
1232.2000000001863,,pt2_unique_rating,669916,US_Cities_List/mm_delawarecity.png,,52,,,4,,,,,,,,,,,,,,,
null,,confidence_buffer,670019,confidence_buffer,,null,,,,,,,,,,,,,,,,,,
889.4000000003725,,pt2_memorable_rating,670911,US_Cities_List/mm_delawarecity.png,,50,,,2,,,,,,,,,,,,,,,
null,,confidence_buffer,671013,confidence_buffer,,null,,,,,,,,,,,,,,,,,,
2471.7000000001863,,recognition_phase,673487,US_Cities_List/mm_delawarecity.png,,52,,,,,,new,1,0.8611111111111112,,,,,,,,,,
null,,confidence_buffer,673590,confidence_buffer,,null,,,,,,,,,,,,,,,,,,
null,,thebreak,674092,break,,null,,,,,,,,,,,,,,,,,,
3543.7999999998137,,pt2_realistic_rating,677638,US_Cities_List/nat_abilene.png,,50,US_Cities_List/nat_abilene.png,NAT,2,,,,,,,,,,,,,,,
null,,confidence_buffer,677741,confidence_buffer,,null,,,,,,,,,,,,,,,,,,
659.5,,pt2_unique_rating,678403,US_Cities_List/nat_abilene.png,,51,,,3,,,,,,,,,,,,,,,
null,,confidence_buffer,678507,confidence_buffer,,null,,,,,,,,,,,,,,,,,,
3877.4000000003725,,pt2_memorable_rating,682386,US_Cities_List/nat_abilene.png,,52,,,4,,,,,,,,,,,,,,,
null,,confidence_buffer,682489,confidence_buffer,,null,,,,,,,,,,,,,,,,,,
652.2999999998137,,recognition_phase,683144,US_Cities_List/nat_abilene.png,,52,,,,,,new,1,0.8648648648648649,,,,,,,,,,
null,,confidence_buffer,683247,confidence_buffer,,null,,,,,,,,,,,,,,,,,,
null,,thebreak,683748,break,,null,,,,,,,,,,,,,,,,,,
2788.300000000745,,pt2_realistic_rating,686539,US_Cities_List/mm_westpalmbeach.png,,50,US_Cities_List/mm_westpalmbeach.png,MM,2,,,,,,,,,,,,,,,
null,,confidence_buffer,686642,confidence_buffer,,null,,,,,,,,,,,,,,,,,,
3207.2999999998137,,probe_rating,689851,probe_rating,,52,,,,4,1,,,,,,,,,,,,,
null,,confidence_buffer,689954,confidence_buffer,,null,,,,,,,,,,,,,,,,,,
1714,,pt2_unique_rating,691670,US_Cities_List/mm_westpalmbeach.png,,52,,,4,,,,,,,,,,,,,,,
null,,confidence_buffer,691773,confidence_buffer,,null,,,,,,,,,,,,,,,,,,
1766.0999999996275,,pt2_memorable_rating,693541,US_Cities_List/mm_westpalmbeach.png,,51,,,3,,,,,,,,,,,,,,,
null,,confidence_buffer,693644,confidence_buffer,,null,,,,,,,,,,,,,,,,,,
1268.2000000001863,,recognition_phase,694915,US_Cities_List/mm_westpalmbeach.png,,49,,,,,,old,1,0.868421052631579,,,,,,,,,,
null,,confidence_buffer,695017,confidence_buffer,,null,,,,,,,,,,,,,,,,,,
null,,thebreak,695519,break,,null,,,,,,,,,,,,,,,,,,
4480.799999999814,,pt2_realistic_rating,700002,Fictional_Cities_List/img_manmade_09.png,,53,Fictional_Cities_List/img_manmade_09.png,MM,5,,,,,,,,,,,,,,,
null,,confidence_buffer,700104,confidence_buffer,,null,,,,,,,,,,,,,,,,,,
1646.7999999998137,,pt2_unique_rating,701753,Fictional_Cities_List/img_manmade_09.png,,52,,,4,,,,,,,,,,,,,,,
null,,confidence_buffer,701856,confidence_buffer,,null,,,,,,,,,,,,,,,,,,
2682.300000000745,,pt2_memorable_rating,704540,Fictional_Cities_List/img_manmade_09.png,,53,,,5,,,,,,,,,,,,,,,
null,,confidence_buffer,704643,confidence_buffer,,null,,,,,,,,,,,,,,,,,,
2092.600000000559,,recognition_phase,706737,Fictional_Cities_List/img_manmade_09.png,,49,,,,,,old,1,0.8717948717948718,,,,,,,,,,
null,,confidence_buffer,706841,confidence_buffer,,null,,,,,,,,,,,,,,,,,,
null,,thebreak,707342,break,,null,,,,,,,,,,,,,,,,,,
6371.5,,pt2_realistic_rating,713716,Fictional_Cities_List/img_manmade_11.png,,51,Fictional_Cities_List/img_manmade_11.png,MM,3,,,,,,,,,,,,,,,
null,,confidence_buffer,713819,confidence_buffer,,null,,,,,,,,,,,,,,,,,,
2633.7999999998137,,pt2_unique_rating,716454,Fictional_Cities_List/img_manmade_11.png,,52,,,4,,,,,,,,,,,,,,,
null,,confidence_buffer,716557,confidence_buffer,,null,,,,,,,,,,,,,,,,,,
482.1000000005588,,probe_rating,717041,probe_rating,,53,,,,5,0,,,,,,,,,,,,,
null,,confidence_buffer,717144,confidence_buffer,,null,,,,,,,,,,,,,,,,,,
4439.799999999814,,pt2_memorable_rating,721586,Fictional_Cities_List/img_manmade_11.png,,52,,,4,,,,,,,,,,,,,,,
null,,confidence_buffer,721689,confidence_buffer,,null,,,,,,,,,,,,,,,,,,
2332,,recognition_phase,724024,Fictional_Cities_List/img_manmade_11.png,,49,,,,,,old,1,0.875,,,,,,,,,,
null,,confidence_buffer,724127,confidence_buffer,,null,,,,,,,,,,,,,,,,,,
null,,thebreak,724629,break,,null,,,,,,,,,,,,,,,,,,
2730.7999999998137,,pt2_realistic_rating,727362,Fictional_Cities_List/img_natural_26.png,,50,Fictional_Cities_List/img_natural_26.png,NAT,2,,,,,,,,,,,,,,,
null,,confidence_buffer,727465,confidence_buffer,,null,,,,,,,,,,,,,,,,,,
1001.2999999998137,,pt2_unique_rating,728468,Fictional_Cities_List/img_natural_26.png,,51,,,3,,,,,,,,,,,,,,,
null,,confidence_buffer,728571,confidence_buffer,,null,,,,,,,,,,,,,,,,,,
2212,,pt2_memorable_rating,730786,Fictional_Cities_List/img_natural_26.png,,53,,,5,,,,,,,,,,,,,,,
null,,confidence_buffer,730888,confidence_buffer,,null,,,,,,,,,,,,,,,,,,
2411.7999999998137,,recognition_phase,733302,Fictional_Cities_List/img_natural_26.png,,52,,,,,,new,1,0.8780487804878049,,,,,,,,,,
null,,confidence_buffer,733405,confidence_buffer,,null,,,,,,,,,,,,,,,,,,
null,,thebreak,733907,break,,null,,,,,,,,,,,,,,,,,,
2268.300000000745,,pt2_realistic_rating,736178,US_Cities_List/nat_bisbee.png,,51,US_Cities_List/nat_bisbee.png,NAT,3,,,,,,,,,,,,,,,
null,,confidence_buffer,736282,confidence_buffer,,null,,,,,,,,,,,,,,,,,,
747.9000000003725,,pt2_unique_rating,737032,US_Cities_List/nat_bisbee.png,,52,,,4,,,,,,,,,,,,,,,
null,,confidence_buffer,737143,confidence_buffer,,null,,,,,,,,,,,,,,,,,,
2039.2000000001863,,pt2_memorable_rating,739184,US_Cities_List/nat_bisbee.png,,53,,,5,,,,,,,,,,,,,,,
null,,confidence_buffer,739287,confidence_buffer,,null,,,,,,,,,,,,,,,,,,
1834.699999999255,,recognition_phase,741124,US_Cities_List/nat_bisbee.png,,49,,,,,,old,1,0.8809523809523809,,,,,,,,,,
null,,confidence_buffer,741226,confidence_buffer,,null,,,,,,,,,,,,,,,,,,
null,,thebreak,741728,break,,null,,,,,,,,,,,,,,,,,,
4959.700000001118,,pt2_realistic_rating,746690,US_Cities_List/nat_healdsburg.png,,53,US_Cities_List/nat_healdsburg.png,NAT,5,,,,,,,,,,,,,,,
null,,confidence_buffer,746793,confidence_buffer,,null,,,,,,,,,,,,,,,,,,
760.7000000011176,,pt2_unique_rating,747556,US_Cities_List/nat_healdsburg.png,,52,,,4,,,,,,,,,,,,,,,
null,,confidence_buffer,747658,confidence_buffer,,null,,,,,,,,,,,,,,,,,,
1189.5999999996275,,pt2_memorable_rating,748850,US_Cities_List/nat_healdsburg.png,,51,,,3,,,,,,,,,,,,,,,
null,,confidence_buffer,748952,confidence_buffer,,null,,,,,,,,,,,,,,,,,,
1815.6000000014901,,recognition_phase,750770,US_Cities_List/nat_healdsburg.png,,49,,,,,,old,1,0.8837209302325582,,,,,,,,,,
null,,confidence_buffer,750874,confidence_buffer,,null,,,,,,,,,,,,,,,,,,
null,,thebreak,751376,break,,null,,,,,,,,,,,,,,,,,,
2609.4000000003725,,pt2_realistic_rating,753988,Fictional_Cities_List/img_natural_06.png,,51,Fictional_Cities_List/img_natural_06.png,NAT,3,,,,,,,,,,,,,,,
null,,confidence_buffer,754091,confidence_buffer,,null,,,,,,,,,,,,,,,,,,
801.4000000003725,,pt2_unique_rating,754894,Fictional_Cities_List/img_natural_06.png,,52,,,4,,,,,,,,,,,,,,,
null,,confidence_buffer,754996,confidence_buffer,,null,,,,,,,,,,,,,,,,,,
762,,pt2_memorable_rating,755761,Fictional_Cities_List/img_natural_06.png,,53,,,5,,,,,,,,,,,,,,,
null,,confidence_buffer,755863,confidence_buffer,,null,,,,,,,,,,,,,,,,,,
1378,,recognition_phase,757244,Fictional_Cities_List/img_natural_06.png,,49,,,,,,old,1,0.8863636363636364,,,,,,,,,,
null,,confidence_buffer,757346,confidence_buffer,,null,,,,,,,,,,,,,,,,,,
null,,thebreak,757848,break,,null,,,,,,,,,,,,,,,,,,
3824.7999999988824,,pt2_realistic_rating,761674,US_Cities_List/mm_okoboji.png,,53,US_Cities_List/mm_okoboji.png,MM,5,,,,,,,,,,,,,,,
null,,confidence_buffer,761777,confidence_buffer,,null,,,,,,,,,,,,,,,,,,
850.5,,pt2_unique_rating,762630,US_Cities_List/mm_okoboji.png,,52,,,4,,,,,,,,,,,,,,,
null,,confidence_buffer,762733,confidence_buffer,,null,,,,,,,,,,,,,,,,,,
562.5,,pt2_memorable_rating,763297,US_Cities_List/mm_okoboji.png,,53,,,5,,,,,,,,,,,,,,,
null,,confidence_buffer,763401,confidence_buffer,,null,,,,,,,,,,,,,,,,,,
1288.699999999255,,recognition_phase,764692,US_Cities_List/mm_okoboji.png,,49,,,,,,old,1,0.8888888888888888,,,,,,,,,,
null,,confidence_buffer,764795,confidence_buffer,,null,,,,,,,,,,,,,,,,,,
null,,thebreak,765297,break,,null,,,,,,,,,,,,,,,,,,
2751.0999999996275,,pt2_realistic_rating,768050,Fictional_Cities_List/img_natural_07.png,,52,Fictional_Cities_List/img_natural_07.png,NAT,4,,,,,,,,,,,,,,,
null,,confidence_buffer,768153,confidence_buffer,,null,,,,,,,,,,,,,,,,,,
659.0999999996275,,pt2_unique_rating,768815,Fictional_Cities_List/img_natural_07.png,,53,,,5,,,,,,,,,,,,,,,
null,,confidence_buffer,768918,confidence_buffer,,null,,,,,,,,,,,,,,,,,,
1577.9000000003725,,pt2_memorable_rating,770498,Fictional_Cities_List/img_natural_07.png,,52,,,4,,,,,,,,,,,,,,,
null,,confidence_buffer,770601,confidence_buffer,,null,,,,,,,,,,,,,,,,,,
2351.0999999996275,,recognition_phase,772955,Fictional_Cities_List/img_natural_07.png,,52,,,,,,new,1,0.8913043478260869,,,,,,,,,,
null,,confidence_buffer,773057,confidence_buffer,,null,,,,,,,,,,,,,,,,,,
null,,thebreak,773559,break,,null,,,,,,,,,,,,,,,,,,
2704.5,,pt2_realistic_rating,776266,US_Cities_List/nat_boulder.png,,51,US_Cities_List/nat_boulder.png,NAT,3,,,,,,,,,,,,,,,
null,,confidence_buffer,776368,confidence_buffer,,null,,,,,,,,,,,,,,,,,,
2493.2999999988824,,pt2_unique_rating,778864,US_Cities_List/nat_boulder.png,,53,,,5,,,,,,,,,,,,,,,
null,,confidence_buffer,778982,confidence_buffer,,null,,,,,,,,,,,,,,,,,,
1260.4000000003725,,pt2_memorable_rating,780245,US_Cities_List/nat_boulder.png,,52,,,4,,,,,,,,,,,,,,,
null,,confidence_buffer,780348,confidence_buffer,,null,,,,,,,,,,,,,,,,,,
1654.699999999255,,recognition_phase,782005,US_Cities_List/nat_boulder.png,,52,,,,,,new,0,0.8723404255319149,,,,,,,,,,
null,,confidence_buffer,782108,confidence_buffer,,null,,,,,,,,,,,,,,,,,,
null,,thebreak,782609,break,,null,,,,,,,,,,,,,,,,,,
1691.4000000003725,,pt2_realistic_rating,784303,US_Cities_List/mm_abilene.png,,51,US_Cities_List/mm_abilene.png,MM,3,,,,,,,,,,,,,,,
null,,confidence_buffer,784406,confidence_buffer,,null,,,,,,,,,,,,,,,,,,
830.3999999985099,,pt2_unique_rating,785238,US_Cities_List/mm_abilene.png,,50,,,2,,,,,,,,,,,,,,,
null,,confidence_buffer,785342,confidence_buffer,,null,,,,,,,,,,,,,,,,,,
2320.7000000011176,,pt2_memorable_rating,787665,US_Cities_List/mm_abilene.png,,53,,,5,,,,,,,,,,,,,,,
null,,confidence_buffer,787768,confidence_buffer,,null,,,,,,,,,,,,,,,,,,
1667.4000000003725,,recognition_phase,789437,US_Cities_List/mm_abilene.png,,49,,,,,,old,1,0.875,,,,,,,,,,
null,,confidence_buffer,789540,confidence_buffer,,null,,,,,,,,,,,,,,,,,,
null,,thebreak,790042,break,,null,,,,,,,,,,,,,,,,,,
2371.9000000003725,,pt2_realistic_rating,792416,Fictional_Cities_List/img_natural_37.png,,51,Fictional_Cities_List/img_natural_37.png,NAT,3,,,,,,,,,,,,,,,
null,,confidence_buffer,792519,confidence_buffer,,null,,,,,,,,,,,,,,,,,,
592.3000000007451,,pt2_unique_rating,793113,Fictional_Cities_List/img_natural_37.png,,52,,,4,,,,,,,,,,,,,,,
null,,confidence_buffer,793215,confidence_buffer,,null,,,,,,,,,,,,,,,,,,
2064.7999999988824,,probe_rating,795282,probe_rating,,52,,,,4,1,,,,,,,,,,,,,
null,,confidence_buffer,795387,confidence_buffer,,null,,,,,,,,,,,,,,,,,,
2886.800000000745,,pt2_memorable_rating,798276,Fictional_Cities_List/img_natural_37.png,,53,,,5,,,,,,,,,,,,,,,
null,,confidence_buffer,798378,confidence_buffer,,null,,,,,,,,,,,,,,,,,,
1846.699999999255,,recognition_phase,800227,Fictional_Cities_List/img_natural_37.png,,52,,,,,,new,0,0.8571428571428571,,,,,,,,,,
null,,confidence_buffer,800331,confidence_buffer,,null,,,,,,,,,,,,,,,,,,
null,,thebreak,800833,break,,null,,,,,,,,,,,,,,,,,,
1667.800000000745,,pt2_realistic_rating,802503,Fictional_Cities_List/img_natural_32.png,,50,Fictional_Cities_List/img_natural_32.png,NAT,2,,,,,,,,,,,,,,,
null,,confidence_buffer,802605,confidence_buffer,,null,,,,,,,,,,,,,,,,,,
188,,pt2_unique_rating,802795,Fictional_Cities_List/img_natural_32.png,,51,,,3,,,,,,,,,,,,,,,
null,,confidence_buffer,802898,confidence_buffer,,null,,,,,,,,,,,,,,,,,,
2703.199999999255,,pt2_memorable_rating,805603,Fictional_Cities_List/img_natural_32.png,,53,,,5,,,,,,,,,,,,,,,
null,,confidence_buffer,805706,confidence_buffer,,null,,,,,,,,,,,,,,,,,,
1593.800000000745,,recognition_phase,807302,Fictional_Cities_List/img_natural_32.png,,49,,,,,,old,1,0.86,,,,,,,,,,
null,,confidence_buffer,807405,confidence_buffer,,null,,,,,,,,,,,,,,,,,,
null,,thebreak,807908,break,,null,,,,,,,,,,,,,,,,,,
3727.0999999996275,,pt2_realistic_rating,811637,Fictional_Cities_List/img_manmade_26.png,,52,Fictional_Cities_List/img_manmade_26.png,MM,4,,,,,,,,,,,,,,,
null,,confidence_buffer,811741,confidence_buffer,,null,,,,,,,,,,,,,,,,,,
917.4000000003725,,pt2_unique_rating,812661,Fictional_Cities_List/img_manmade_26.png,,51,,,3,,,,,,,,,,,,,,,
null,,confidence_buffer,812762,confidence_buffer,,null,,,,,,,,,,,,,,,,,,
1490,,pt2_memorable_rating,814254,Fictional_Cities_List/img_manmade_26.png,,53,,,5,,,,,,,,,,,,,,,
null,,confidence_buffer,814356,confidence_buffer,,null,,,,,,,,,,,,,,,,,,
1486.699999999255,,recognition_phase,815845,Fictional_Cities_List/img_manmade_26.png,,49,,,,,,old,1,0.8627450980392157,,,,,,,,,,
null,,confidence_buffer,815948,confidence_buffer,,null,,,,,,,,,,,,,,,,,,
null,,thebreak,816451,break,,null,,,,,,,,,,,,,,,,,,
3712.5999999996275,,pt2_realistic_rating,820166,Fictional_Cities_List/img_manmade_46.png,,52,Fictional_Cities_List/img_manmade_46.png,MM,4,,,,,,,,,,,,,,,
null,,confidence_buffer,820269,confidence_buffer,,null,,,,,,,,,,,,,,,,,,
1367,,pt2_unique_rating,821638,Fictional_Cities_List/img_manmade_46.png,,51,,,3,,,,,,,,,,,,,,,
null,,confidence_buffer,821742,confidence_buffer,,null,,,,,,,,,,,,,,,,,,
1348.1000000014901,,pt2_memorable_rating,823092,Fictional_Cities_List/img_manmade_46.png,,53,,,5,,,,,,,,,,,,,,,
null,,confidence_buffer,823195,confidence_buffer,,null,,,,,,,,,,,,,,,,,,
1616.4000000003725,,recognition_phase,824813,Fictional_Cities_List/img_manmade_46.png,,49,,,,,,old,1,0.8653846153846154,,,,,,,,,,
null,,confidence_buffer,824917,confidence_buffer,,null,,,,,,,,,,,,,,,,,,
null,,thebreak,825419,break,,null,,,,,,,,,,,,,,,,,,
3190,,pt2_realistic_rating,828611,US_Cities_List/nat_hilo.png,,52,US_Cities_List/nat_hilo.png,NAT,4,,,,,,,,,,,,,,,
null,,confidence_buffer,828715,confidence_buffer,,null,,,,,,,,,,,,,,,,,,
2914.89999999851,,pt2_unique_rating,831632,US_Cities_List/nat_hilo.png,,53,,,5,,,,,,,,,,,,,,,
null,,confidence_buffer,831735,confidence_buffer,,null,,,,,,,,,,,,,,,,,,
1227.2999999988824,,pt2_memorable_rating,832964,US_Cities_List/nat_hilo.png,,51,,,3,,,,,,,,,,,,,,,
null,,confidence_buffer,833068,confidence_buffer,,null,,,,,,,,,,,,,,,,,,
3881,,recognition_phase,836951,US_Cities_List/nat_hilo.png,,52,,,,,,new,1,0.8679245283018868,,,,,,,,,,
null,,confidence_buffer,837054,confidence_buffer,,null,,,,,,,,,,,,,,,,,,
null,,thebreak,837556,break,,null,,,,,,,,,,,,,,,,,,
11744.300000000745,,pt2_realistic_rating,849302,Fictional_Cities_List/img_natural_46.png,,49,Fictional_Cities_List/img_natural_46.png,NAT,1,,,,,,,,,,,,,,,
null,,confidence_buffer,849405,confidence_buffer,,null,,,,,,,,,,,,,,,,,,
2546.4000000003725,,pt2_unique_rating,851953,Fictional_Cities_List/img_natural_46.png,,53,,,5,,,,,,,,,,,,,,,
null,,confidence_buffer,852056,confidence_buffer,,null,,,,,,,,,,,,,,,,,,
2295.7999999988824,,pt2_memorable_rating,854354,Fictional_Cities_List/img_natural_46.png,,51,,,3,,,,,,,,,,,,,,,
null,,confidence_buffer,854457,confidence_buffer,,null,,,,,,,,,,,,,,,,,,
2223.2000000011176,,recognition_phase,856682,Fictional_Cities_List/img_natural_46.png,,52,,,,,,new,1,0.8703703703703703,,,,,,,,,,
null,,confidence_buffer,856784,confidence_buffer,,null,,,,,,,,,,,,,,,,,,
null,,thebreak,857286,break,,null,,,,,,,,,,,,,,,,,,
3769,,pt2_realistic_rating,861057,US_Cities_List/nat_sitka.png,,50,US_Cities_List/nat_sitka.png,NAT,2,,,,,,,,,,,,,,,
null,,confidence_buffer,861160,confidence_buffer,,null,,,,,,,,,,,,,,,,,,
394,,pt2_unique_rating,861556,US_Cities_List/nat_sitka.png,,51,,,3,,,,,,,,,,,,,,,
null,,confidence_buffer,861659,confidence_buffer,,null,,,,,,,,,,,,,,,,,,
464.19999999925494,,pt2_memorable_rating,862126,US_Cities_List/nat_sitka.png,,52,,,4,,,,,,,,,,,,,,,
null,,confidence_buffer,862228,confidence_buffer,,null,,,,,,,,,,,,,,,,,,
1646.5999999996275,,recognition_phase,863878,US_Cities_List/nat_sitka.png,,52,,,,,,new,1,0.8727272727272727,,,,,,,,,,
null,,confidence_buffer,863981,confidence_buffer,,null,,,,,,,,,,,,,,,,,,
null,,thebreak,864483,break,,null,,,,,,,,,,,,,,,,,,
1222.699999999255,,pt2_realistic_rating,865708,US_Cities_List/nat_peoria.png,,53,US_Cities_List/nat_peoria.png,NAT,5,,,,,,,,,,,,,,,
null,,confidence_buffer,865812,confidence_buffer,,null,,,,,,,,,,,,,,,,,,
709.6000000014901,,pt2_unique_rating,866524,US_Cities_List/nat_peoria.png,,52,,,4,,,,,,,,,,,,,,,
null,,confidence_buffer,866627,confidence_buffer,,null,,,,,,,,,,,,,,,,,,
602,,pt2_memorable_rating,867231,US_Cities_List/nat_peoria.png,,51,,,3,,,,,,,,,,,,,,,
null,,confidence_buffer,867334,confidence_buffer,,null,,,,,,,,,,,,,,,,,,
3813.60000000149,,recognition_phase,871150,US_Cities_List/nat_peoria.png,,49,,,,,,old,1,0.875,,,,,,,,,,
null,,confidence_buffer,871252,confidence_buffer,,null,,,,,,,,,,,,,,,,,,
null,,thebreak,871754,break,,null,,,,,,,,,,,,,,,,,,
2621.9000000003725,,pt2_realistic_rating,874378,US_Cities_List/nat_delawarecity.png,,50,US_Cities_List/nat_delawarecity.png,NAT,2,,,,,,,,,,,,,,,
null,,confidence_buffer,874482,confidence_buffer,,null,,,,,,,,,,,,,,,,,,
905,,pt2_unique_rating,875389,US_Cities_List/nat_delawarecity.png,,51,,,3,,,,,,,,,,,,,,,
null,,confidence_buffer,875496,confidence_buffer,,null,,,,,,,,,,,,,,,,,,
1810.5,,pt2_memorable_rating,877308,US_Cities_List/nat_delawarecity.png,,53,,,5,,,,,,,,,,,,,,,
null,,confidence_buffer,877412,confidence_buffer,,null,,,,,,,,,,,,,,,,,,
4386.299999998882,,recognition_phase,881800,US_Cities_List/nat_delawarecity.png,,52,,,,,,new,1,0.8771929824561403,,,,,,,,,,
null,,confidence_buffer,881903,confidence_buffer,,null,,,,,,,,,,,,,,,,,,
null,,thebreak,882404,break,,null,,,,,,,,,,,,,,,,,,
4305.9000000003725,,pt2_realistic_rating,886712,US_Cities_List/mm_peoria.png,,51,US_Cities_List/mm_peoria.png,MM,3,,,,,,,,,,,,,,,
null,,confidence_buffer,886817,confidence_buffer,,null,,,,,,,,,,,,,,,,,,
1616.6000000014901,,pt2_unique_rating,888436,US_Cities_List/mm_peoria.png,,53,,,5,,,,,,,,,,,,,,,
null,,confidence_buffer,888538,confidence_buffer,,null,,,,,,,,,,,,,,,,,,
612.8000000007451,,pt2_memorable_rating,889153,US_Cities_List/mm_peoria.png,,52,,,4,,,,,,,,,,,,,,,
null,,confidence_buffer,889255,confidence_buffer,,null,,,,,,,,,,,,,,,,,,
1327.2999999988824,,recognition_phase,890585,US_Cities_List/mm_peoria.png,,49,,,,,,old,1,0.8793103448275862,,,,,,,,,,
null,,confidence_buffer,890688,confidence_buffer,,null,,,,,,,,,,,,,,,,,,
null,,thebreak,891190,break,,null,,,,,,,,,,,,,,,,,,
4916.39999999851,,pt2_realistic_rating,896109,US_Cities_List/nat_coeurdalene.png,,53,US_Cities_List/nat_coeurdalene.png,NAT,5,,,,,,,,,,,,,,,
null,,confidence_buffer,896212,confidence_buffer,,null,,,,,,,,,,,,,,,,,,
263.30000000074506,,pt2_unique_rating,896477,US_Cities_List/nat_coeurdalene.png,,52,,,4,,,,,,,,,,,,,,,
null,,confidence_buffer,896580,confidence_buffer,,null,,,,,,,,,,,,,,,,,,
1257.800000000745,,pt2_memorable_rating,897840,US_Cities_List/nat_coeurdalene.png,,51,,,3,,,,,,,,,,,,,,,
null,,confidence_buffer,897943,confidence_buffer,,null,,,,,,,,,,,,,,,,,,
2423.2000000011176,,recognition_phase,900368,US_Cities_List/nat_coeurdalene.png,,52,,,,,,new,0,0.864406779661017,,,,,,,,,,
null,,confidence_buffer,900472,confidence_buffer,,null,,,,,,,,,,,,,,,,,,
null,,thebreak,900974,break,,null,,,,,,,,,,,,,,,,,,
2276.4000000003725,,pt2_realistic_rating,903253,US_Cities_List/mm_sitka.png,,50,US_Cities_List/mm_sitka.png,MM,2,,,,,,,,,,,,,,,
null,,confidence_buffer,903355,confidence_buffer,,null,,,,,,,,,,,,,,,,,,
433.7000000011176,,pt2_unique_rating,903791,US_Cities_List/mm_sitka.png,,51,,,3,,,,,,,,,,,,,,,
null,,confidence_buffer,903893,confidence_buffer,,null,,,,,,,,,,,,,,,,,,
580.7000000011176,,pt2_memorable_rating,904477,US_Cities_List/mm_sitka.png,,52,,,4,,,,,,,,,,,,,,,
null,,confidence_buffer,904580,confidence_buffer,,null,,,,,,,,,,,,,,,,,,
1318.7000000011176,,recognition_phase,905901,US_Cities_List/mm_sitka.png,,49,,,,,,old,1,0.8666666666666667,,,,,,,,,,
null,,confidence_buffer,906004,confidence_buffer,,null,,,,,,,,,,,,,,,,,,
null,,thebreak,906506,break,,null,,,,,,,,,,,,,,,,,,
,,survey,1200183,survey-questions,,,,,,,,,,,none,high,No,I looked keenly,If i had seen it before,Something fun,Something rare,Not abstract,No,None
