rt,responses,trial_type,time_elapsed,stimulus,button_pressed,key_press,name_trial,city_type,rating,probe,probe_accuracy,response,correct,accuracy,problems,smooth,distraction,strategies,familiar,memorable,unique,realistic,similar,comments
23054,{worker_id:5ecc6ffce3ca77849333e83e},id_enter,23056,,,,,,,,,,,,,,,,,,,,,
12243,,fullscreen,35304,fullscreen,0,,,,,,,,,,,,,,,,,,,
6853,,intro_0,42159,instruct,,32,,,,,,,,,,,,,,,,,,
20887,,intro_1,63049,instruct,,32,,,,,,,,,,,,,,,,,,
29102,,intro_2,92152,instruct,,32,,,,,,,,,,,,,,,,,,
null,,instruct_dir_4,93654,instruct,,null,,,,,,,,,,,,,,,,,,
null,,thebreak,94163,break,,null,,,,,,,,,,,,,,,,,,
7260,,familiar_rating,101424,US_Cities_List/nat_athens.png,,49,US_Cities_List/nat_athens.png,NAT,1,,,,,,,,,,,,,,,
null,,confidence_buffer,101538,confidence_buffer,,null,,,,,,,,,,,,,,,,,,
4285,,unique_rating,105823,US_Cities_List/nat_athens.png,,50,,,2,,,,,,,,,,,,,,,
null,,confidence_buffer,105930,confidence_buffer,,null,,,,,,,,,,,,,,,,,,
1532,,memorable_rating,107463,US_Cities_List/nat_athens.png,,49,,,1,,,,,,,,,,,,,,,
null,,confidence_buffer,107574,confidence_buffer,,null,,,,,,,,,,,,,,,,,,
null,,thebreak,108078,break,,null,,,,,,,,,,,,,,,,,,
4312,,familiar_rating,112392,US_Cities_List/nat_abilene.png,,49,US_Cities_List/nat_abilene.png,NAT,1,,,,,,,,,,,,,,,
null,,confidence_buffer,112495,confidence_buffer,,null,,,,,,,,,,,,,,,,,,
2032,,unique_rating,114528,US_Cities_List/nat_abilene.png,,50,,,2,,,,,,,,,,,,,,,
null,,confidence_buffer,114637,confidence_buffer,,null,,,,,,,,,,,,,,,,,,
1907,,memorable_rating,116544,US_Cities_List/nat_abilene.png,,49,,,1,,,,,,,,,,,,,,,
null,,confidence_buffer,116660,confidence_buffer,,null,,,,,,,,,,,,,,,,,,
2779,,probe_rating,119440,probe_rating,,53,,,,5,1,,,,,,,,,,,,,
null,,confidence_buffer,119554,confidence_buffer,,null,,,,,,,,,,,,,,,,,,
null,,thebreak,120056,break,,null,,,,,,,,,,,,,,,,,,
2543,,familiar_rating,122600,Fictional_Cities_List/img_natural_24.png,,49,Fictional_Cities_List/img_natural_24.png,NAT,1,,,,,,,,,,,,,,,
null,,confidence_buffer,122718,confidence_buffer,,null,,,,,,,,,,,,,,,,,,
6184,,unique_rating,128904,Fictional_Cities_List/img_natural_24.png,,52,,,4,,,,,,,,,,,,,,,
null,,confidence_buffer,129006,confidence_buffer,,null,,,,,,,,,,,,,,,,,,
2217,,probe_rating,131223,probe_rating,,50,,,,2,1,,,,,,,,,,,,,
null,,confidence_buffer,131329,confidence_buffer,,null,,,,,,,,,,,,,,,,,,
3286,,memorable_rating,134616,Fictional_Cities_List/img_natural_24.png,,49,,,1,,,,,,,,,,,,,,,
null,,confidence_buffer,134721,confidence_buffer,,null,,,,,,,,,,,,,,,,,,
null,,thebreak,135226,break,,null,,,,,,,,,,,,,,,,,,
2748,,familiar_rating,137976,US_Cities_List/nat_peoria.png,,49,US_Cities_List/nat_peoria.png,NAT,1,,,,,,,,,,,,,,,
null,,confidence_buffer,138086,confidence_buffer,,null,,,,,,,,,,,,,,,,,,
2057,,unique_rating,140144,US_Cities_List/nat_peoria.png,,50,,,2,,,,,,,,,,,,,,,
null,,confidence_buffer,140248,confidence_buffer,,null,,,,,,,,,,,,,,,,,,
1623,,memorable_rating,141872,US_Cities_List/nat_peoria.png,,49,,,1,,,,,,,,,,,,,,,
null,,confidence_buffer,141979,confidence_buffer,,null,,,,,,,,,,,,,,,,,,
null,,thebreak,142486,break,,null,,,,,,,,,,,,,,,,,,
1962,,familiar_rating,144447,US_Cities_List/mm_hotsprings.png,,49,US_Cities_List/mm_hotsprings.png,MM,1,,,,,,,,,,,,,,,
null,,confidence_buffer,144554,confidence_buffer,,null,,,,,,,,,,,,,,,,,,
2356,,unique_rating,146912,US_Cities_List/mm_hotsprings.png,,50,,,2,,,,,,,,,,,,,,,
null,,confidence_buffer,147018,confidence_buffer,,null,,,,,,,,,,,,,,,,,,
1221,,memorable_rating,148239,US_Cities_List/mm_hotsprings.png,,49,,,1,,,,,,,,,,,,,,,
null,,confidence_buffer,148344,confidence_buffer,,null,,,,,,,,,,,,,,,,,,
null,,thebreak,148848,break,,null,,,,,,,,,,,,,,,,,,
6047,,familiar_rating,154896,Fictional_Cities_List/img_manmade_16.png,,49,Fictional_Cities_List/img_manmade_16.png,MM,1,,,,,,,,,,,,,,,
null,,confidence_buffer,155005,confidence_buffer,,null,,,,,,,,,,,,,,,,,,
5955,,unique_rating,160959,Fictional_Cities_List/img_manmade_16.png,,51,,,3,,,,,,,,,,,,,,,
null,,confidence_buffer,161064,confidence_buffer,,null,,,,,,,,,,,,,,,,,,
1783,,memorable_rating,162848,Fictional_Cities_List/img_manmade_16.png,,49,,,1,,,,,,,,,,,,,,,
null,,confidence_buffer,162972,confidence_buffer,,null,,,,,,,,,,,,,,,,,,
null,,thebreak,163473,break,,null,,,,,,,,,,,,,,,,,,
2758,,familiar_rating,166232,US_Cities_List/mm_cornwall.png,,49,US_Cities_List/mm_cornwall.png,MM,1,,,,,,,,,,,,,,,
null,,confidence_buffer,166336,confidence_buffer,,null,,,,,,,,,,,,,,,,,,
3798,,unique_rating,170136,US_Cities_List/mm_cornwall.png,,52,,,4,,,,,,,,,,,,,,,
null,,confidence_buffer,170251,confidence_buffer,,null,,,,,,,,,,,,,,,,,,
2467,,memorable_rating,172719,US_Cities_List/mm_cornwall.png,,50,,,2,,,,,,,,,,,,,,,
null,,confidence_buffer,172823,confidence_buffer,,null,,,,,,,,,,,,,,,,,,
null,,thebreak,173324,break,,null,,,,,,,,,,,,,,,,,,
4619,,familiar_rating,177944,US_Cities_List/mm_hilo.png,,49,US_Cities_List/mm_hilo.png,MM,1,,,,,,,,,,,,,,,
null,,confidence_buffer,178057,confidence_buffer,,null,,,,,,,,,,,,,,,,,,
2310,,unique_rating,180368,US_Cities_List/mm_hilo.png,,52,,,4,,,,,,,,,,,,,,,
null,,confidence_buffer,180489,confidence_buffer,,null,,,,,,,,,,,,,,,,,,
2958,,memorable_rating,183447,US_Cities_List/mm_hilo.png,,50,,,2,,,,,,,,,,,,,,,
null,,confidence_buffer,183561,confidence_buffer,,null,,,,,,,,,,,,,,,,,,
2085,,probe_rating,185647,probe_rating,,51,,,,3,1,,,,,,,,,,,,,
null,,confidence_buffer,185754,confidence_buffer,,null,,,,,,,,,,,,,,,,,,
null,,thebreak,186255,break,,null,,,,,,,,,,,,,,,,,,
3359,,familiar_rating,189616,US_Cities_List/nat_sitka.png,,49,US_Cities_List/nat_sitka.png,NAT,1,,,,,,,,,,,,,,,
null,,confidence_buffer,189722,confidence_buffer,,null,,,,,,,,,,,,,,,,,,
3317,,unique_rating,193040,US_Cities_List/nat_sitka.png,,50,,,2,,,,,,,,,,,,,,,
null,,confidence_buffer,193149,confidence_buffer,,null,,,,,,,,,,,,,,,,,,
929,,memorable_rating,194080,US_Cities_List/nat_sitka.png,,49,,,1,,,,,,,,,,,,,,,
null,,confidence_buffer,194184,confidence_buffer,,null,,,,,,,,,,,,,,,,,,
null,,thebreak,194687,break,,null,,,,,,,,,,,,,,,,,,
3201,,familiar_rating,197887,Fictional_Cities_List/img_natural_20.png,,49,Fictional_Cities_List/img_natural_20.png,NAT,1,,,,,,,,,,,,,,,
null,,confidence_buffer,197999,confidence_buffer,,null,,,,,,,,,,,,,,,,,,
2137,,unique_rating,200136,Fictional_Cities_List/img_natural_20.png,,53,,,5,,,,,,,,,,,,,,,
null,,confidence_buffer,200237,confidence_buffer,,null,,,,,,,,,,,,,,,,,,
1825,,memorable_rating,202064,Fictional_Cities_List/img_natural_20.png,,50,,,2,,,,,,,,,,,,,,,
null,,confidence_buffer,202167,confidence_buffer,,null,,,,,,,,,,,,,,,,,,
null,,thebreak,202669,break,,null,,,,,,,,,,,,,,,,,,
7739,,familiar_rating,210407,Fictional_Cities_List/img_manmade_05.png,,50,Fictional_Cities_List/img_manmade_05.png,MM,2,,,,,,,,,,,,,,,
null,,confidence_buffer,210514,confidence_buffer,,null,,,,,,,,,,,,,,,,,,
1806,,probe_rating,212320,probe_rating,,51,,,,3,1,,,,,,,,,,,,,
null,,confidence_buffer,212421,confidence_buffer,,null,,,,,,,,,,,,,,,,,,
3514,,unique_rating,215936,Fictional_Cities_List/img_manmade_05.png,,50,,,2,,,,,,,,,,,,,,,
null,,confidence_buffer,216050,confidence_buffer,,null,,,,,,,,,,,,,,,,,,
2877,,memorable_rating,218928,Fictional_Cities_List/img_manmade_05.png,,49,,,1,,,,,,,,,,,,,,,
null,,confidence_buffer,219041,confidence_buffer,,null,,,,,,,,,,,,,,,,,,
null,,thebreak,219552,break,,null,,,,,,,,,,,,,,,,,,
1719,,familiar_rating,221272,Fictional_Cities_List/img_natural_01.png,,49,Fictional_Cities_List/img_natural_01.png,NAT,1,,,,,,,,,,,,,,,
null,,confidence_buffer,221384,confidence_buffer,,null,,,,,,,,,,,,,,,,,,
2247,,unique_rating,223631,Fictional_Cities_List/img_natural_01.png,,50,,,2,,,,,,,,,,,,,,,
null,,confidence_buffer,223740,confidence_buffer,,null,,,,,,,,,,,,,,,,,,
707,,memorable_rating,224448,Fictional_Cities_List/img_natural_01.png,,49,,,1,,,,,,,,,,,,,,,
null,,confidence_buffer,224557,confidence_buffer,,null,,,,,,,,,,,,,,,,,,
null,,thebreak,225061,break,,null,,,,,,,,,,,,,,,,,,
3346,,familiar_rating,228408,US_Cities_List/mm_abilene.png,,49,US_Cities_List/mm_abilene.png,MM,1,,,,,,,,,,,,,,,
null,,confidence_buffer,228520,confidence_buffer,,null,,,,,,,,,,,,,,,,,,
2822,,unique_rating,231344,US_Cities_List/mm_abilene.png,,52,,,4,,,,,,,,,,,,,,,
null,,confidence_buffer,231453,confidence_buffer,,null,,,,,,,,,,,,,,,,,,
762,,memorable_rating,232216,US_Cities_List/mm_abilene.png,,49,,,1,,,,,,,,,,,,,,,
null,,confidence_buffer,232327,confidence_buffer,,null,,,,,,,,,,,,,,,,,,
null,,thebreak,232841,break,,null,,,,,,,,,,,,,,,,,,
2540,,familiar_rating,235384,Fictional_Cities_List/img_manmade_14.png,,49,Fictional_Cities_List/img_manmade_14.png,MM,1,,,,,,,,,,,,,,,
null,,confidence_buffer,235487,confidence_buffer,,null,,,,,,,,,,,,,,,,,,
1430,,unique_rating,236920,Fictional_Cities_List/img_manmade_14.png,,50,,,2,,,,,,,,,,,,,,,
null,,confidence_buffer,237034,confidence_buffer,,null,,,,,,,,,,,,,,,,,,
1397,,memorable_rating,238432,Fictional_Cities_List/img_manmade_14.png,,49,,,1,,,,,,,,,,,,,,,
null,,confidence_buffer,238542,confidence_buffer,,null,,,,,,,,,,,,,,,,,,
null,,thebreak,239048,break,,null,,,,,,,,,,,,,,,,,,
2582,,familiar_rating,241632,US_Cities_List/mm_bisbee.png,,49,US_Cities_List/mm_bisbee.png,MM,1,,,,,,,,,,,,,,,
null,,confidence_buffer,241745,confidence_buffer,,null,,,,,,,,,,,,,,,,,,
1325,,unique_rating,243072,US_Cities_List/mm_bisbee.png,,50,,,2,,,,,,,,,,,,,,,
null,,confidence_buffer,243178,confidence_buffer,,null,,,,,,,,,,,,,,,,,,
1526,,memorable_rating,244704,US_Cities_List/mm_bisbee.png,,49,,,1,,,,,,,,,,,,,,,
null,,confidence_buffer,244813,confidence_buffer,,null,,,,,,,,,,,,,,,,,,
1754,,probe_rating,246568,probe_rating,,51,,,,3,1,,,,,,,,,,,,,
null,,confidence_buffer,246677,confidence_buffer,,null,,,,,,,,,,,,,,,,,,
null,,thebreak,247190,break,,null,,,,,,,,,,,,,,,,,,
2536,,familiar_rating,249728,US_Cities_List/mm_peoria.png,,49,US_Cities_List/mm_peoria.png,MM,1,,,,,,,,,,,,,,,
null,,confidence_buffer,249837,confidence_buffer,,null,,,,,,,,,,,,,,,,,,
3561,,unique_rating,253399,US_Cities_List/mm_peoria.png,,53,,,5,,,,,,,,,,,,,,,
null,,confidence_buffer,253512,confidence_buffer,,null,,,,,,,,,,,,,,,,,,
1600,,memorable_rating,255111,US_Cities_List/mm_peoria.png,,49,,,1,,,,,,,,,,,,,,,
null,,confidence_buffer,255213,confidence_buffer,,null,,,,,,,,,,,,,,,,,,
null,,thebreak,255725,break,,null,,,,,,,,,,,,,,,,,,
2632,,familiar_rating,258360,Fictional_Cities_List/img_natural_12.png,,49,Fictional_Cities_List/img_natural_12.png,NAT,1,,,,,,,,,,,,,,,
null,,confidence_buffer,258462,confidence_buffer,,null,,,,,,,,,,,,,,,,,,
3425,,unique_rating,261888,Fictional_Cities_List/img_natural_12.png,,50,,,2,,,,,,,,,,,,,,,
null,,confidence_buffer,261991,confidence_buffer,,null,,,,,,,,,,,,,,,,,,
1496,,memorable_rating,263487,Fictional_Cities_List/img_natural_12.png,,49,,,1,,,,,,,,,,,,,,,
null,,confidence_buffer,263596,confidence_buffer,,null,,,,,,,,,,,,,,,,,,
1051,,probe_rating,264647,probe_rating,,49,,,,1,1,,,,,,,,,,,,,
null,,confidence_buffer,264754,confidence_buffer,,null,,,,,,,,,,,,,,,,,,
null,,thebreak,265256,break,,null,,,,,,,,,,,,,,,,,,
2566,,familiar_rating,267824,US_Cities_List/mm_sitka.png,,49,US_Cities_List/mm_sitka.png,MM,1,,,,,,,,,,,,,,,
null,,confidence_buffer,267933,confidence_buffer,,null,,,,,,,,,,,,,,,,,,
2218,,unique_rating,270151,US_Cities_List/mm_sitka.png,,49,,,1,,,,,,,,,,,,,,,
null,,confidence_buffer,270263,confidence_buffer,,null,,,,,,,,,,,,,,,,,,
1327,,memorable_rating,271591,US_Cities_List/mm_sitka.png,,49,,,1,,,,,,,,,,,,,,,
null,,confidence_buffer,271700,confidence_buffer,,null,,,,,,,,,,,,,,,,,,
null,,thebreak,272202,break,,null,,,,,,,,,,,,,,,,,,
1845,,familiar_rating,274047,US_Cities_List/mm_carmel.png,,49,US_Cities_List/mm_carmel.png,MM,1,,,,,,,,,,,,,,,
null,,confidence_buffer,274155,confidence_buffer,,null,,,,,,,,,,,,,,,,,,
1468,,unique_rating,275624,US_Cities_List/mm_carmel.png,,50,,,2,,,,,,,,,,,,,,,
null,,confidence_buffer,275730,confidence_buffer,,null,,,,,,,,,,,,,,,,,,
749,,memorable_rating,276479,US_Cities_List/mm_carmel.png,,49,,,1,,,,,,,,,,,,,,,
null,,confidence_buffer,276587,confidence_buffer,,null,,,,,,,,,,,,,,,,,,
null,,thebreak,277088,break,,null,,,,,,,,,,,,,,,,,,
2047,,familiar_rating,279135,Fictional_Cities_List/img_natural_45.png,,49,Fictional_Cities_List/img_natural_45.png,NAT,1,,,,,,,,,,,,,,,
null,,confidence_buffer,279242,confidence_buffer,,null,,,,,,,,,,,,,,,,,,
1827,,unique_rating,281072,Fictional_Cities_List/img_natural_45.png,,50,,,2,,,,,,,,,,,,,,,
null,,confidence_buffer,281181,confidence_buffer,,null,,,,,,,,,,,,,,,,,,
554,,memorable_rating,281736,Fictional_Cities_List/img_natural_45.png,,49,,,1,,,,,,,,,,,,,,,
null,,confidence_buffer,281837,confidence_buffer,,null,,,,,,,,,,,,,,,,,,
null,,thebreak,282338,break,,null,,,,,,,,,,,,,,,,,,
1036,,familiar_rating,283375,US_Cities_List/nat_healdsburg.png,,49,US_Cities_List/nat_healdsburg.png,NAT,1,,,,,,,,,,,,,,,
null,,confidence_buffer,283489,confidence_buffer,,null,,,,,,,,,,,,,,,,,,
702,,unique_rating,284192,US_Cities_List/nat_healdsburg.png,,50,,,2,,,,,,,,,,,,,,,
null,,confidence_buffer,284292,confidence_buffer,,null,,,,,,,,,,,,,,,,,,
1035,,memorable_rating,285328,US_Cities_List/nat_healdsburg.png,,49,,,1,,,,,,,,,,,,,,,
null,,confidence_buffer,285434,confidence_buffer,,null,,,,,,,,,,,,,,,,,,
null,,thebreak,285935,break,,null,,,,,,,,,,,,,,,,,,
1599,,familiar_rating,287535,Fictional_Cities_List/img_natural_42.png,,49,Fictional_Cities_List/img_natural_42.png,NAT,1,,,,,,,,,,,,,,,
null,,confidence_buffer,287641,confidence_buffer,,null,,,,,,,,,,,,,,,,,,
1237,,unique_rating,288880,Fictional_Cities_List/img_natural_42.png,,53,,,5,,,,,,,,,,,,,,,
null,,confidence_buffer,288993,confidence_buffer,,null,,,,,,,,,,,,,,,,,,
1030,,memorable_rating,290023,Fictional_Cities_List/img_natural_42.png,,50,,,2,,,,,,,,,,,,,,,
null,,confidence_buffer,290135,confidence_buffer,,null,,,,,,,,,,,,,,,,,,
null,,thebreak,290637,break,,null,,,,,,,,,,,,,,,,,,
1498,,familiar_rating,292136,Fictional_Cities_List/img_natural_16.png,,49,Fictional_Cities_List/img_natural_16.png,NAT,1,,,,,,,,,,,,,,,
null,,confidence_buffer,292243,confidence_buffer,,null,,,,,,,,,,,,,,,,,,
1316,,unique_rating,293560,Fictional_Cities_List/img_natural_16.png,,51,,,3,,,,,,,,,,,,,,,
null,,confidence_buffer,293664,confidence_buffer,,null,,,,,,,,,,,,,,,,,,
1102,,memorable_rating,294768,Fictional_Cities_List/img_natural_16.png,,49,,,1,,,,,,,,,,,,,,,
null,,confidence_buffer,294868,confidence_buffer,,null,,,,,,,,,,,,,,,,,,
null,,thebreak,295370,break,,null,,,,,,,,,,,,,,,,,,
2893,,familiar_rating,298263,Fictional_Cities_List/img_manmade_41.png,,49,Fictional_Cities_List/img_manmade_41.png,MM,1,,,,,,,,,,,,,,,
null,,confidence_buffer,298365,confidence_buffer,,null,,,,,,,,,,,,,,,,,,
1210,,unique_rating,299576,Fictional_Cities_List/img_manmade_41.png,,51,,,3,,,,,,,,,,,,,,,
null,,confidence_buffer,299685,confidence_buffer,,null,,,,,,,,,,,,,,,,,,
994,,memorable_rating,300679,Fictional_Cities_List/img_manmade_41.png,,49,,,1,,,,,,,,,,,,,,,
null,,confidence_buffer,300790,confidence_buffer,,null,,,,,,,,,,,,,,,,,,
null,,thebreak,301291,break,,null,,,,,,,,,,,,,,,,,,
1956,,familiar_rating,303247,Fictional_Cities_List/img_manmade_12.png,,49,Fictional_Cities_List/img_manmade_12.png,MM,1,,,,,,,,,,,,,,,
null,,confidence_buffer,303362,confidence_buffer,,null,,,,,,,,,,,,,,,,,,
565,,unique_rating,303928,Fictional_Cities_List/img_manmade_12.png,,50,,,2,,,,,,,,,,,,,,,
null,,confidence_buffer,304032,confidence_buffer,,null,,,,,,,,,,,,,,,,,,
1543,,memorable_rating,305575,Fictional_Cities_List/img_manmade_12.png,,49,,,1,,,,,,,,,,,,,,,
null,,confidence_buffer,305692,confidence_buffer,,null,,,,,,,,,,,,,,,,,,
null,,thebreak,306193,break,,null,,,,,,,,,,,,,,,,,,
1933,,familiar_rating,308127,US_Cities_List/nat_okoboji.png,,49,US_Cities_List/nat_okoboji.png,NAT,1,,,,,,,,,,,,,,,
null,,confidence_buffer,308229,confidence_buffer,,null,,,,,,,,,,,,,,,,,,
2490,,unique_rating,310720,US_Cities_List/nat_okoboji.png,,50,,,2,,,,,,,,,,,,,,,
null,,confidence_buffer,310822,confidence_buffer,,null,,,,,,,,,,,,,,,,,,
929,,memorable_rating,311751,US_Cities_List/nat_okoboji.png,,49,,,1,,,,,,,,,,,,,,,
null,,confidence_buffer,311852,confidence_buffer,,null,,,,,,,,,,,,,,,,,,
null,,thebreak,312360,break,,null,,,,,,,,,,,,,,,,,,
3039,,familiar_rating,315400,Fictional_Cities_List/img_natural_14.png,,49,Fictional_Cities_List/img_natural_14.png,NAT,1,,,,,,,,,,,,,,,
null,,confidence_buffer,315513,confidence_buffer,,null,,,,,,,,,,,,,,,,,,
1326,,unique_rating,316839,Fictional_Cities_List/img_natural_14.png,,49,,,1,,,,,,,,,,,,,,,
null,,confidence_buffer,316952,confidence_buffer,,null,,,,,,,,,,,,,,,,,,
1302,,memorable_rating,318256,Fictional_Cities_List/img_natural_14.png,,49,,,1,,,,,,,,,,,,,,,
null,,confidence_buffer,318363,confidence_buffer,,null,,,,,,,,,,,,,,,,,,
1228,,probe_rating,319591,probe_rating,,50,,,,2,1,,,,,,,,,,,,,
null,,confidence_buffer,319707,confidence_buffer,,null,,,,,,,,,,,,,,,,,,
null,,thebreak,320219,break,,null,,,,,,,,,,,,,,,,,,
3293,,familiar_rating,323511,US_Cities_List/nat_cornwall.png,,49,US_Cities_List/nat_cornwall.png,NAT,1,,,,,,,,,,,,,,,
null,,confidence_buffer,323629,confidence_buffer,,null,,,,,,,,,,,,,,,,,,
2130,,unique_rating,325759,US_Cities_List/nat_cornwall.png,,49,,,1,,,,,,,,,,,,,,,
null,,confidence_buffer,325869,confidence_buffer,,null,,,,,,,,,,,,,,,,,,
954,,memorable_rating,326824,US_Cities_List/nat_cornwall.png,,49,,,1,,,,,,,,,,,,,,,
null,,confidence_buffer,326941,confidence_buffer,,null,,,,,,,,,,,,,,,,,,
null,,thebreak,327443,break,,null,,,,,,,,,,,,,,,,,,
2387,,familiar_rating,329831,Fictional_Cities_List/img_manmade_24.png,,49,Fictional_Cities_List/img_manmade_24.png,MM,1,,,,,,,,,,,,,,,
null,,confidence_buffer,329953,confidence_buffer,,null,,,,,,,,,,,,,,,,,,
1798,,unique_rating,331752,Fictional_Cities_List/img_manmade_24.png,,49,,,1,,,,,,,,,,,,,,,
null,,confidence_buffer,331859,confidence_buffer,,null,,,,,,,,,,,,,,,,,,
1330,,memorable_rating,333192,Fictional_Cities_List/img_manmade_24.png,,49,,,1,,,,,,,,,,,,,,,
null,,confidence_buffer,333295,confidence_buffer,,null,,,,,,,,,,,,,,,,,,
null,,thebreak,333797,break,,null,,,,,,,,,,,,,,,,,,
1186,,familiar_rating,334984,Fictional_Cities_List/img_manmade_19.png,,49,Fictional_Cities_List/img_manmade_19.png,MM,1,,,,,,,,,,,,,,,
null,,confidence_buffer,335087,confidence_buffer,,null,,,,,,,,,,,,,,,,,,
1449,,unique_rating,336535,Fictional_Cities_List/img_manmade_19.png,,50,,,2,,,,,,,,,,,,,,,
null,,confidence_buffer,336639,confidence_buffer,,null,,,,,,,,,,,,,,,,,,
1200,,memorable_rating,337839,Fictional_Cities_List/img_manmade_19.png,,49,,,1,,,,,,,,,,,,,,,
null,,confidence_buffer,337944,confidence_buffer,,null,,,,,,,,,,,,,,,,,,
911,,probe_rating,338855,probe_rating,,50,,,,2,1,,,,,,,,,,,,,
null,,confidence_buffer,338963,confidence_buffer,,null,,,,,,,,,,,,,,,,,,
null,,thebreak,339465,break,,null,,,,,,,,,,,,,,,,,,
6439,,intro_0,345904,instruct,,32,,,,,,,,,,,,,,,,,,
7816,,intro_1,353719,instruct,,32,,,,,,,,,,,,,,,,,,
11200,,intro_2,364920,instruct,,32,,,,,,,,,,,,,,,,,,
null,,instruct_dir_4,366422,instruct,,null,,,,,,,,,,,,,,,,,,
5048,,pt2_realistic_rating,371471,Fictional_Cities_List/img_natural_45.png,,50,Fictional_Cities_List/img_natural_45.png,NAT,2,,,,,,,,,,,,,,,
null,,confidence_buffer,371572,confidence_buffer,,null,,,,,,,,,,,,,,,,,,
3707,,pt2_unique_rating,375279,Fictional_Cities_List/img_natural_45.png,,50,,,2,,,,,,,,,,,,,,,
null,,confidence_buffer,375386,confidence_buffer,,null,,,,,,,,,,,,,,,,,,
1797,,pt2_memorable_rating,377184,Fictional_Cities_List/img_natural_45.png,,49,,,1,,,,,,,,,,,,,,,
null,,confidence_buffer,377293,confidence_buffer,,null,,,,,,,,,,,,,,,,,,
2106,,recognition_phase,379399,Fictional_Cities_List/img_natural_45.png,,49,,,,,,old,1,1,,,,,,,,,,
null,,confidence_buffer,379501,confidence_buffer,,null,,,,,,,,,,,,,,,,,,
null,,thebreak,380003,break,,null,,,,,,,,,,,,,,,,,,
3612,,pt2_realistic_rating,383616,US_Cities_List/mm_athens.png,,53,US_Cities_List/mm_athens.png,MM,5,,,,,,,,,,,,,,,
null,,confidence_buffer,383716,confidence_buffer,,null,,,,,,,,,,,,,,,,,,
2603,,pt2_unique_rating,386319,US_Cities_List/mm_athens.png,,50,,,2,,,,,,,,,,,,,,,
null,,confidence_buffer,386425,confidence_buffer,,null,,,,,,,,,,,,,,,,,,
1038,,pt2_memorable_rating,387463,US_Cities_List/mm_athens.png,,49,,,1,,,,,,,,,,,,,,,
null,,confidence_buffer,387565,confidence_buffer,,null,,,,,,,,,,,,,,,,,,
2625,,recognition_phase,390191,US_Cities_List/mm_athens.png,,52,,,,,,new,1,1,,,,,,,,,,
null,,confidence_buffer,390306,confidence_buffer,,null,,,,,,,,,,,,,,,,,,
null,,thebreak,390808,break,,null,,,,,,,,,,,,,,,,,,
8103,,pt2_realistic_rating,398912,US_Cities_List/mm_delawarecity.png,,51,US_Cities_List/mm_delawarecity.png,MM,3,,,,,,,,,,,,,,,
null,,confidence_buffer,399022,confidence_buffer,,null,,,,,,,,,,,,,,,,,,
2993,,pt2_unique_rating,402015,US_Cities_List/mm_delawarecity.png,,50,,,2,,,,,,,,,,,,,,,
null,,confidence_buffer,402118,confidence_buffer,,null,,,,,,,,,,,,,,,,,,
952,,pt2_memorable_rating,403071,US_Cities_List/mm_delawarecity.png,,49,,,1,,,,,,,,,,,,,,,
null,,confidence_buffer,403184,confidence_buffer,,null,,,,,,,,,,,,,,,,,,
2622,,recognition_phase,405807,US_Cities_List/mm_delawarecity.png,,52,,,,,,new,1,1,,,,,,,,,,
null,,confidence_buffer,405917,confidence_buffer,,null,,,,,,,,,,,,,,,,,,
null,,thebreak,406418,break,,null,,,,,,,,,,,,,,,,,,
2981,,pt2_realistic_rating,409399,US_Cities_List/nat_athens.png,,53,US_Cities_List/nat_athens.png,NAT,5,,,,,,,,,,,,,,,
null,,confidence_buffer,409508,confidence_buffer,,null,,,,,,,,,,,,,,,,,,
2275,,pt2_unique_rating,411784,US_Cities_List/nat_athens.png,,50,,,2,,,,,,,,,,,,,,,
null,,confidence_buffer,411893,confidence_buffer,,null,,,,,,,,,,,,,,,,,,
1042,,pt2_memorable_rating,412936,US_Cities_List/nat_athens.png,,49,,,1,,,,,,,,,,,,,,,
null,,confidence_buffer,413039,confidence_buffer,,null,,,,,,,,,,,,,,,,,,
1272,,recognition_phase,414312,US_Cities_List/nat_athens.png,,49,,,,,,old,1,1,,,,,,,,,,
null,,confidence_buffer,414418,confidence_buffer,,null,,,,,,,,,,,,,,,,,,
null,,thebreak,414920,break,,null,,,,,,,,,,,,,,,,,,
3407,,pt2_realistic_rating,418327,Fictional_Cities_List/img_natural_01.png,,53,Fictional_Cities_List/img_natural_01.png,NAT,5,,,,,,,,,,,,,,,
null,,confidence_buffer,418441,confidence_buffer,,null,,,,,,,,,,,,,,,,,,
2157,,pt2_unique_rating,420599,Fictional_Cities_List/img_natural_01.png,,50,,,2,,,,,,,,,,,,,,,
null,,confidence_buffer,420704,confidence_buffer,,null,,,,,,,,,,,,,,,,,,
1007,,pt2_memorable_rating,421712,Fictional_Cities_List/img_natural_01.png,,49,,,1,,,,,,,,,,,,,,,
null,,confidence_buffer,421822,confidence_buffer,,null,,,,,,,,,,,,,,,,,,
1265,,recognition_phase,423087,Fictional_Cities_List/img_natural_01.png,,49,,,,,,old,1,1,,,,,,,,,,
null,,confidence_buffer,423193,confidence_buffer,,null,,,,,,,,,,,,,,,,,,
null,,thebreak,423707,break,,null,,,,,,,,,,,,,,,,,,
2852,,pt2_realistic_rating,426559,US_Cities_List/nat_sitka.png,,53,US_Cities_List/nat_sitka.png,NAT,5,,,,,,,,,,,,,,,
null,,confidence_buffer,426670,confidence_buffer,,null,,,,,,,,,,,,,,,,,,
1825,,pt2_unique_rating,428496,US_Cities_List/nat_sitka.png,,50,,,2,,,,,,,,,,,,,,,
null,,confidence_buffer,428597,confidence_buffer,,null,,,,,,,,,,,,,,,,,,
1098,,pt2_memorable_rating,429695,US_Cities_List/nat_sitka.png,,49,,,1,,,,,,,,,,,,,,,
null,,confidence_buffer,429809,confidence_buffer,,null,,,,,,,,,,,,,,,,,,
1076,,recognition_phase,430888,US_Cities_List/nat_sitka.png,,49,,,,,,old,1,1,,,,,,,,,,
null,,confidence_buffer,431002,confidence_buffer,,null,,,,,,,,,,,,,,,,,,
null,,thebreak,431516,break,,null,,,,,,,,,,,,,,,,,,
3387,,pt2_realistic_rating,434904,US_Cities_List/nat_boulder.png,,52,US_Cities_List/nat_boulder.png,NAT,4,,,,,,,,,,,,,,,
null,,confidence_buffer,435007,confidence_buffer,,null,,,,,,,,,,,,,,,,,,
4856,,pt2_unique_rating,439864,US_Cities_List/nat_boulder.png,,50,,,2,,,,,,,,,,,,,,,
null,,confidence_buffer,439976,confidence_buffer,,null,,,,,,,,,,,,,,,,,,
830,,pt2_memorable_rating,440808,US_Cities_List/nat_boulder.png,,49,,,1,,,,,,,,,,,,,,,
null,,confidence_buffer,440909,confidence_buffer,,null,,,,,,,,,,,,,,,,,,
2155,,recognition_phase,443063,US_Cities_List/nat_boulder.png,,52,,,,,,new,1,1,,,,,,,,,,
null,,confidence_buffer,443168,confidence_buffer,,null,,,,,,,,,,,,,,,,,,
null,,thebreak,443670,break,,null,,,,,,,,,,,,,,,,,,
2962,,pt2_realistic_rating,446632,US_Cities_List/nat_peoria.png,,53,US_Cities_List/nat_peoria.png,NAT,5,,,,,,,,,,,,,,,
null,,confidence_buffer,446735,confidence_buffer,,null,,,,,,,,,,,,,,,,,,
1415,,pt2_unique_rating,448151,US_Cities_List/nat_peoria.png,,50,,,2,,,,,,,,,,,,,,,
null,,confidence_buffer,448257,confidence_buffer,,null,,,,,,,,,,,,,,,,,,
2310,,pt2_memorable_rating,450568,US_Cities_List/nat_peoria.png,,49,,,1,,,,,,,,,,,,,,,
null,,confidence_buffer,450681,confidence_buffer,,null,,,,,,,,,,,,,,,,,,
1165,,recognition_phase,451847,US_Cities_List/nat_peoria.png,,49,,,,,,old,1,1,,,,,,,,,,
null,,confidence_buffer,451954,confidence_buffer,,null,,,,,,,,,,,,,,,,,,
null,,thebreak,452456,break,,null,,,,,,,,,,,,,,,,,,
1951,,pt2_realistic_rating,454407,Fictional_Cities_List/img_natural_38.png,,53,Fictional_Cities_List/img_natural_38.png,NAT,5,,,,,,,,,,,,,,,
null,,confidence_buffer,454510,confidence_buffer,,null,,,,,,,,,,,,,,,,,,
1800,,pt2_unique_rating,456312,Fictional_Cities_List/img_natural_38.png,,50,,,2,,,,,,,,,,,,,,,
null,,confidence_buffer,456421,confidence_buffer,,null,,,,,,,,,,,,,,,,,,
939,,pt2_memorable_rating,457359,Fictional_Cities_List/img_natural_38.png,,49,,,1,,,,,,,,,,,,,,,
null,,confidence_buffer,457472,confidence_buffer,,null,,,,,,,,,,,,,,,,,,
1967,,recognition_phase,459439,Fictional_Cities_List/img_natural_38.png,,52,,,,,,new,1,1,,,,,,,,,,
null,,confidence_buffer,459545,confidence_buffer,,null,,,,,,,,,,,,,,,,,,
null,,thebreak,460058,break,,null,,,,,,,,,,,,,,,,,,
2780,,pt2_realistic_rating,462840,US_Cities_List/nat_delawarecity.png,,53,US_Cities_List/nat_delawarecity.png,NAT,5,,,,,,,,,,,,,,,
null,,confidence_buffer,462953,confidence_buffer,,null,,,,,,,,,,,,,,,,,,
1847,,pt2_unique_rating,464800,US_Cities_List/nat_delawarecity.png,,50,,,2,,,,,,,,,,,,,,,
null,,confidence_buffer,464913,confidence_buffer,,null,,,,,,,,,,,,,,,,,,
1142,,pt2_memorable_rating,466056,US_Cities_List/nat_delawarecity.png,,49,,,1,,,,,,,,,,,,,,,
null,,confidence_buffer,466160,confidence_buffer,,null,,,,,,,,,,,,,,,,,,
2398,,recognition_phase,468559,US_Cities_List/nat_delawarecity.png,,52,,,,,,new,1,1,,,,,,,,,,
null,,confidence_buffer,468673,confidence_buffer,,null,,,,,,,,,,,,,,,,,,
null,,thebreak,469187,break,,null,,,,,,,,,,,,,,,,,,
3635,,pt2_realistic_rating,472823,Fictional_Cities_List/img_manmade_45.png,,52,Fictional_Cities_List/img_manmade_45.png,MM,4,,,,,,,,,,,,,,,
null,,confidence_buffer,472935,confidence_buffer,,null,,,,,,,,,,,,,,,,,,
2416,,pt2_unique_rating,475352,Fictional_Cities_List/img_manmade_45.png,,50,,,2,,,,,,,,,,,,,,,
null,,confidence_buffer,475453,confidence_buffer,,null,,,,,,,,,,,,,,,,,,
1048,,probe_rating,476504,probe_rating,,50,,,,2,1,,,,,,,,,,,,,
null,,confidence_buffer,476606,confidence_buffer,,null,,,,,,,,,,,,,,,,,,
2073,,pt2_memorable_rating,478679,Fictional_Cities_List/img_manmade_45.png,,49,,,1,,,,,,,,,,,,,,,
null,,confidence_buffer,478782,confidence_buffer,,null,,,,,,,,,,,,,,,,,,
1786,,recognition_phase,480567,Fictional_Cities_List/img_manmade_45.png,,52,,,,,,new,1,1,,,,,,,,,,
null,,confidence_buffer,480693,confidence_buffer,,null,,,,,,,,,,,,,,,,,,
null,,thebreak,481200,break,,null,,,,,,,,,,,,,,,,,,
2943,,pt2_realistic_rating,484143,US_Cities_List/mm_hilo.png,,52,US_Cities_List/mm_hilo.png,MM,4,,,,,,,,,,,,,,,
null,,confidence_buffer,484255,confidence_buffer,,null,,,,,,,,,,,,,,,,,,
3784,,pt2_unique_rating,488040,US_Cities_List/mm_hilo.png,,52,,,4,,,,,,,,,,,,,,,
null,,confidence_buffer,488151,confidence_buffer,,null,,,,,,,,,,,,,,,,,,
3632,,pt2_memorable_rating,491783,US_Cities_List/mm_hilo.png,,50,,,2,,,,,,,,,,,,,,,
null,,confidence_buffer,491895,confidence_buffer,,null,,,,,,,,,,,,,,,,,,
1526,,probe_rating,493423,probe_rating,,52,,,,4,1,,,,,,,,,,,,,
null,,confidence_buffer,493532,confidence_buffer,,null,,,,,,,,,,,,,,,,,,
1299,,recognition_phase,494831,US_Cities_List/mm_hilo.png,,49,,,,,,old,1,1,,,,,,,,,,
null,,confidence_buffer,494937,confidence_buffer,,null,,,,,,,,,,,,,,,,,,
null,,thebreak,495439,break,,null,,,,,,,,,,,,,,,,,,
2600,,pt2_realistic_rating,498039,Fictional_Cities_List/img_manmade_14.png,,53,Fictional_Cities_List/img_manmade_14.png,MM,5,,,,,,,,,,,,,,,
null,,confidence_buffer,498149,confidence_buffer,,null,,,,,,,,,,,,,,,,,,
2442,,pt2_unique_rating,500592,Fictional_Cities_List/img_manmade_14.png,,50,,,2,,,,,,,,,,,,,,,
null,,confidence_buffer,500696,confidence_buffer,,null,,,,,,,,,,,,,,,,,,
1631,,pt2_memorable_rating,502327,Fictional_Cities_List/img_manmade_14.png,,49,,,1,,,,,,,,,,,,,,,
null,,confidence_buffer,502428,confidence_buffer,,null,,,,,,,,,,,,,,,,,,
1097,,recognition_phase,503527,Fictional_Cities_List/img_manmade_14.png,,49,,,,,,old,1,1,,,,,,,,,,
null,,confidence_buffer,503637,confidence_buffer,,null,,,,,,,,,,,,,,,,,,
null,,thebreak,504139,break,,null,,,,,,,,,,,,,,,,,,
3204,,pt2_realistic_rating,507344,Fictional_Cities_List/img_natural_05.png,,49,Fictional_Cities_List/img_natural_05.png,NAT,1,,,,,,,,,,,,,,,
null,,confidence_buffer,507444,confidence_buffer,,null,,,,,,,,,,,,,,,,,,
2019,,pt2_unique_rating,509463,Fictional_Cities_List/img_natural_05.png,,50,,,2,,,,,,,,,,,,,,,
null,,confidence_buffer,509567,confidence_buffer,,null,,,,,,,,,,,,,,,,,,
712,,pt2_memorable_rating,510279,Fictional_Cities_List/img_natural_05.png,,49,,,1,,,,,,,,,,,,,,,
null,,confidence_buffer,510391,confidence_buffer,,null,,,,,,,,,,,,,,,,,,
1808,,recognition_phase,512199,Fictional_Cities_List/img_natural_05.png,,52,,,,,,new,1,1,,,,,,,,,,
null,,confidence_buffer,512309,confidence_buffer,,null,,,,,,,,,,,,,,,,,,
null,,thebreak,512820,break,,null,,,,,,,,,,,,,,,,,,
2779,,pt2_realistic_rating,515599,US_Cities_List/nat_cornwall.png,,53,US_Cities_List/nat_cornwall.png,NAT,5,,,,,,,,,,,,,,,
null,,confidence_buffer,515708,confidence_buffer,,null,,,,,,,,,,,,,,,,,,
2251,,pt2_unique_rating,517959,US_Cities_List/nat_cornwall.png,,49,,,1,,,,,,,,,,,,,,,
null,,confidence_buffer,518070,confidence_buffer,,null,,,,,,,,,,,,,,,,,,
647,,pt2_memorable_rating,518719,US_Cities_List/nat_cornwall.png,,49,,,1,,,,,,,,,,,,,,,
null,,confidence_buffer,518824,confidence_buffer,,null,,,,,,,,,,,,,,,,,,
1335,,recognition_phase,520159,US_Cities_List/nat_cornwall.png,,49,,,,,,old,1,1,,,,,,,,,,
null,,confidence_buffer,520271,confidence_buffer,,null,,,,,,,,,,,,,,,,,,
null,,thebreak,520777,break,,null,,,,,,,,,,,,,,,,,,
2413,,pt2_realistic_rating,523191,US_Cities_List/mm_bisbee.png,,53,US_Cities_List/mm_bisbee.png,MM,5,,,,,,,,,,,,,,,
null,,confidence_buffer,523302,confidence_buffer,,null,,,,,,,,,,,,,,,,,,
1600,,probe_rating,524904,probe_rating,,53,,,,5,1,,,,,,,,,,,,,
null,,confidence_buffer,525015,confidence_buffer,,null,,,,,,,,,,,,,,,,,,
2056,,pt2_unique_rating,527071,US_Cities_List/mm_bisbee.png,,50,,,2,,,,,,,,,,,,,,,
null,,confidence_buffer,527172,confidence_buffer,,null,,,,,,,,,,,,,,,,,,
683,,pt2_memorable_rating,527855,US_Cities_List/mm_bisbee.png,,49,,,1,,,,,,,,,,,,,,,
null,,confidence_buffer,527960,confidence_buffer,,null,,,,,,,,,,,,,,,,,,
1134,,recognition_phase,529096,US_Cities_List/mm_bisbee.png,,49,,,,,,old,1,1,,,,,,,,,,
null,,confidence_buffer,529202,confidence_buffer,,null,,,,,,,,,,,,,,,,,,
null,,thebreak,529705,break,,null,,,,,,,,,,,,,,,,,,
2813,,pt2_realistic_rating,532519,US_Cities_List/nat_bisbee.png,,52,US_Cities_List/nat_bisbee.png,NAT,4,,,,,,,,,,,,,,,
null,,confidence_buffer,532627,confidence_buffer,,null,,,,,,,,,,,,,,,,,,
5268,,pt2_unique_rating,537896,US_Cities_List/nat_bisbee.png,,50,,,2,,,,,,,,,,,,,,,
null,,confidence_buffer,538005,confidence_buffer,,null,,,,,,,,,,,,,,,,,,
2625,,pt2_memorable_rating,540631,US_Cities_List/nat_bisbee.png,,49,,,1,,,,,,,,,,,,,,,
null,,confidence_buffer,540738,confidence_buffer,,null,,,,,,,,,,,,,,,,,,
1518,,recognition_phase,542255,US_Cities_List/nat_bisbee.png,,52,,,,,,new,1,1,,,,,,,,,,
null,,confidence_buffer,542356,confidence_buffer,,null,,,,,,,,,,,,,,,,,,
null,,thebreak,542864,break,,null,,,,,,,,,,,,,,,,,,
8791,,pt2_realistic_rating,551655,US_Cities_List/nat_westpalmbeach.png,,51,US_Cities_List/nat_westpalmbeach.png,NAT,3,,,,,,,,,,,,,,,
null,,confidence_buffer,551756,confidence_buffer,,null,,,,,,,,,,,,,,,,,,
6178,,pt2_unique_rating,557936,US_Cities_List/nat_westpalmbeach.png,,50,,,2,,,,,,,,,,,,,,,
null,,confidence_buffer,558048,confidence_buffer,,null,,,,,,,,,,,,,,,,,,
1543,,pt2_memorable_rating,559592,US_Cities_List/nat_westpalmbeach.png,,49,,,1,,,,,,,,,,,,,,,
null,,confidence_buffer,559701,confidence_buffer,,null,,,,,,,,,,,,,,,,,,
1338,,recognition_phase,561039,US_Cities_List/nat_westpalmbeach.png,,52,,,,,,new,1,1,,,,,,,,,,
null,,confidence_buffer,561144,confidence_buffer,,null,,,,,,,,,,,,,,,,,,
null,,thebreak,561661,break,,null,,,,,,,,,,,,,,,,,,
2025,,pt2_realistic_rating,563687,Fictional_Cities_List/img_natural_24.png,,49,Fictional_Cities_List/img_natural_24.png,NAT,1,,,,,,,,,,,,,,,
null,,confidence_buffer,563800,confidence_buffer,,null,,,,,,,,,,,,,,,,,,
1935,,pt2_unique_rating,565735,Fictional_Cities_List/img_natural_24.png,,50,,,2,,,,,,,,,,,,,,,
null,,confidence_buffer,565839,confidence_buffer,,null,,,,,,,,,,,,,,,,,,
1448,,pt2_memorable_rating,567287,Fictional_Cities_List/img_natural_24.png,,49,,,1,,,,,,,,,,,,,,,
null,,confidence_buffer,567403,confidence_buffer,,null,,,,,,,,,,,,,,,,,,
1236,,recognition_phase,568640,Fictional_Cities_List/img_natural_24.png,,49,,,,,,old,1,1,,,,,,,,,,
null,,confidence_buffer,568762,confidence_buffer,,null,,,,,,,,,,,,,,,,,,
null,,thebreak,569263,break,,null,,,,,,,,,,,,,,,,,,
2071,,pt2_realistic_rating,571335,Fictional_Cities_List/img_manmade_05.png,,49,Fictional_Cities_List/img_manmade_05.png,MM,1,,,,,,,,,,,,,,,
null,,confidence_buffer,571448,confidence_buffer,,null,,,,,,,,,,,,,,,,,,
2270,,pt2_unique_rating,573719,Fictional_Cities_List/img_manmade_05.png,,51,,,3,,,,,,,,,,,,,,,
null,,confidence_buffer,573826,confidence_buffer,,null,,,,,,,,,,,,,,,,,,
1533,,probe_rating,575359,probe_rating,,52,,,,4,1,,,,,,,,,,,,,
null,,confidence_buffer,575463,confidence_buffer,,null,,,,,,,,,,,,,,,,,,
4095,,pt2_memorable_rating,579560,Fictional_Cities_List/img_manmade_05.png,,49,,,1,,,,,,,,,,,,,,,
null,,confidence_buffer,579663,confidence_buffer,,null,,,,,,,,,,,,,,,,,,
1104,,recognition_phase,580768,Fictional_Cities_List/img_manmade_05.png,,49,,,,,,old,1,1,,,,,,,,,,
null,,confidence_buffer,580871,confidence_buffer,,null,,,,,,,,,,,,,,,,,,
null,,thebreak,581380,break,,null,,,,,,,,,,,,,,,,,,
2169,,pt2_realistic_rating,583551,US_Cities_List/mm_peoria.png,,53,US_Cities_List/mm_peoria.png,MM,5,,,,,,,,,,,,,,,
null,,confidence_buffer,583654,confidence_buffer,,null,,,,,,,,,,,,,,,,,,
2473,,probe_rating,586128,probe_rating,,49,,,,1,1,,,,,,,,,,,,,
null,,confidence_buffer,586229,confidence_buffer,,null,,,,,,,,,,,,,,,,,,
4370,,pt2_unique_rating,590599,US_Cities_List/mm_peoria.png,,53,,,5,,,,,,,,,,,,,,,
null,,confidence_buffer,590700,confidence_buffer,,null,,,,,,,,,,,,,,,,,,
1026,,pt2_memorable_rating,591727,US_Cities_List/mm_peoria.png,,49,,,1,,,,,,,,,,,,,,,
null,,confidence_buffer,591828,confidence_buffer,,null,,,,,,,,,,,,,,,,,,
1698,,recognition_phase,593527,US_Cities_List/mm_peoria.png,,49,,,,,,old,1,1,,,,,,,,,,
null,,confidence_buffer,593636,confidence_buffer,,null,,,,,,,,,,,,,,,,,,
null,,thebreak,594137,break,,null,,,,,,,,,,,,,,,,,,
5814,,pt2_realistic_rating,599952,US_Cities_List/nat_healdsburg.png,,52,US_Cities_List/nat_healdsburg.png,NAT,4,,,,,,,,,,,,,,,
null,,confidence_buffer,600059,confidence_buffer,,null,,,,,,,,,,,,,,,,,,
1812,,pt2_unique_rating,601871,US_Cities_List/nat_healdsburg.png,,50,,,2,,,,,,,,,,,,,,,
null,,confidence_buffer,601981,confidence_buffer,,null,,,,,,,,,,,,,,,,,,
2209,,pt2_memorable_rating,604191,US_Cities_List/nat_healdsburg.png,,49,,,1,,,,,,,,,,,,,,,
null,,confidence_buffer,604305,confidence_buffer,,null,,,,,,,,,,,,,,,,,,
6126,,recognition_phase,610432,US_Cities_List/nat_healdsburg.png,,51,,,,,,new,0,0.9545454545454546,,,,,,,,,,
null,,confidence_buffer,610543,confidence_buffer,,null,,,,,,,,,,,,,,,,,,
null,,thebreak,611045,break,,null,,,,,,,,,,,,,,,,,,
2514,,pt2_realistic_rating,613560,Fictional_Cities_List/img_manmade_24.png,,53,Fictional_Cities_List/img_manmade_24.png,MM,5,,,,,,,,,,,,,,,
null,,confidence_buffer,613671,confidence_buffer,,null,,,,,,,,,,,,,,,,,,
6864,,pt2_unique_rating,620535,Fictional_Cities_List/img_manmade_24.png,,50,,,2,,,,,,,,,,,,,,,
null,,confidence_buffer,620649,confidence_buffer,,null,,,,,,,,,,,,,,,,,,
1284,,pt2_memorable_rating,621936,Fictional_Cities_List/img_manmade_24.png,,49,,,1,,,,,,,,,,,,,,,
null,,confidence_buffer,622047,confidence_buffer,,null,,,,,,,,,,,,,,,,,,
807,,recognition_phase,622855,Fictional_Cities_List/img_manmade_24.png,,49,,,,,,old,1,0.9565217391304348,,,,,,,,,,
null,,confidence_buffer,622960,confidence_buffer,,null,,,,,,,,,,,,,,,,,,
null,,thebreak,623466,break,,null,,,,,,,,,,,,,,,,,,
3077,,pt2_realistic_rating,626543,US_Cities_List/mm_hotsprings.png,,53,US_Cities_List/mm_hotsprings.png,MM,5,,,,,,,,,,,,,,,
null,,confidence_buffer,626656,confidence_buffer,,null,,,,,,,,,,,,,,,,,,
2351,,probe_rating,629007,probe_rating,,52,,,,4,1,,,,,,,,,,,,,
null,,confidence_buffer,629121,confidence_buffer,,null,,,,,,,,,,,,,,,,,,
4366,,pt2_unique_rating,633487,US_Cities_List/mm_hotsprings.png,,49,,,1,,,,,,,,,,,,,,,
null,,confidence_buffer,633601,confidence_buffer,,null,,,,,,,,,,,,,,,,,,
838,,pt2_memorable_rating,634439,US_Cities_List/mm_hotsprings.png,,49,,,1,,,,,,,,,,,,,,,
null,,confidence_buffer,634547,confidence_buffer,,null,,,,,,,,,,,,,,,,,,
948,,recognition_phase,635495,US_Cities_List/mm_hotsprings.png,,49,,,,,,old,1,0.9583333333333334,,,,,,,,,,
null,,confidence_buffer,635600,confidence_buffer,,null,,,,,,,,,,,,,,,,,,
null,,thebreak,636105,break,,null,,,,,,,,,,,,,,,,,,
3726,,pt2_realistic_rating,639832,Fictional_Cities_List/img_manmade_20.png,,52,Fictional_Cities_List/img_manmade_20.png,MM,4,,,,,,,,,,,,,,,
null,,confidence_buffer,639938,confidence_buffer,,null,,,,,,,,,,,,,,,,,,
1477,,pt2_unique_rating,641415,Fictional_Cities_List/img_manmade_20.png,,50,,,2,,,,,,,,,,,,,,,
null,,confidence_buffer,641524,confidence_buffer,,null,,,,,,,,,,,,,,,,,,
739,,pt2_memorable_rating,642263,Fictional_Cities_List/img_manmade_20.png,,49,,,1,,,,,,,,,,,,,,,
null,,confidence_buffer,642378,confidence_buffer,,null,,,,,,,,,,,,,,,,,,
2412,,recognition_phase,644791,Fictional_Cities_List/img_manmade_20.png,,52,,,,,,new,1,0.96,,,,,,,,,,
null,,confidence_buffer,644900,confidence_buffer,,null,,,,,,,,,,,,,,,,,,
null,,thebreak,645403,break,,null,,,,,,,,,,,,,,,,,,
4428,,pt2_realistic_rating,649831,Fictional_Cities_List/img_manmade_29.png,,53,Fictional_Cities_List/img_manmade_29.png,MM,5,,,,,,,,,,,,,,,
null,,confidence_buffer,649937,confidence_buffer,,null,,,,,,,,,,,,,,,,,,
2261,,pt2_unique_rating,652199,Fictional_Cities_List/img_manmade_29.png,,50,,,2,,,,,,,,,,,,,,,
null,,confidence_buffer,652305,confidence_buffer,,null,,,,,,,,,,,,,,,,,,
565,,pt2_memorable_rating,652871,Fictional_Cities_List/img_manmade_29.png,,49,,,1,,,,,,,,,,,,,,,
null,,confidence_buffer,652985,confidence_buffer,,null,,,,,,,,,,,,,,,,,,
2060,,recognition_phase,655047,Fictional_Cities_List/img_manmade_29.png,,52,,,,,,new,1,0.9615384615384616,,,,,,,,,,
null,,confidence_buffer,655157,confidence_buffer,,null,,,,,,,,,,,,,,,,,,
null,,thebreak,655668,break,,null,,,,,,,,,,,,,,,,,,
3931,,pt2_realistic_rating,659599,US_Cities_List/mm_abilene.png,,53,US_Cities_List/mm_abilene.png,MM,5,,,,,,,,,,,,,,,
null,,confidence_buffer,659702,confidence_buffer,,null,,,,,,,,,,,,,,,,,,
2824,,pt2_unique_rating,662527,US_Cities_List/mm_abilene.png,,52,,,4,,,,,,,,,,,,,,,
null,,confidence_buffer,662635,confidence_buffer,,null,,,,,,,,,,,,,,,,,,
1043,,pt2_memorable_rating,663680,US_Cities_List/mm_abilene.png,,49,,,1,,,,,,,,,,,,,,,
null,,confidence_buffer,663792,confidence_buffer,,null,,,,,,,,,,,,,,,,,,
1728,,recognition_phase,665519,US_Cities_List/mm_abilene.png,,49,,,,,,old,1,0.9629629629629629,,,,,,,,,,
null,,confidence_buffer,665631,confidence_buffer,,null,,,,,,,,,,,,,,,,,,
null,,thebreak,666137,break,,null,,,,,,,,,,,,,,,,,,
3503,,pt2_realistic_rating,669639,Fictional_Cities_List/img_natural_40.png,,51,Fictional_Cities_List/img_natural_40.png,NAT,3,,,,,,,,,,,,,,,
null,,confidence_buffer,669750,confidence_buffer,,null,,,,,,,,,,,,,,,,,,
1880,,pt2_unique_rating,671632,Fictional_Cities_List/img_natural_40.png,,50,,,2,,,,,,,,,,,,,,,
null,,confidence_buffer,671733,confidence_buffer,,null,,,,,,,,,,,,,,,,,,
802,,pt2_memorable_rating,672535,Fictional_Cities_List/img_natural_40.png,,49,,,1,,,,,,,,,,,,,,,
null,,confidence_buffer,672647,confidence_buffer,,null,,,,,,,,,,,,,,,,,,
2191,,recognition_phase,674839,Fictional_Cities_List/img_natural_40.png,,52,,,,,,new,1,0.9642857142857143,,,,,,,,,,
null,,confidence_buffer,674941,confidence_buffer,,null,,,,,,,,,,,,,,,,,,
null,,thebreak,675446,break,,null,,,,,,,,,,,,,,,,,,
2704,,pt2_realistic_rating,678151,Fictional_Cities_List/img_natural_14.png,,49,Fictional_Cities_List/img_natural_14.png,NAT,1,,,,,,,,,,,,,,,
null,,confidence_buffer,678260,confidence_buffer,,null,,,,,,,,,,,,,,,,,,
1947,,pt2_unique_rating,680208,Fictional_Cities_List/img_natural_14.png,,50,,,2,,,,,,,,,,,,,,,
null,,confidence_buffer,680314,confidence_buffer,,null,,,,,,,,,,,,,,,,,,
1356,,pt2_memorable_rating,681671,Fictional_Cities_List/img_natural_14.png,,49,,,1,,,,,,,,,,,,,,,
null,,confidence_buffer,681773,confidence_buffer,,null,,,,,,,,,,,,,,,,,,
2512,,recognition_phase,684287,Fictional_Cities_List/img_natural_14.png,,50,,,,,,old,1,0.9655172413793104,,,,,,,,,,
null,,confidence_buffer,684399,confidence_buffer,,null,,,,,,,,,,,,,,,,,,
null,,thebreak,684900,break,,null,,,,,,,,,,,,,,,,,,
2858,,pt2_realistic_rating,687759,Fictional_Cities_List/img_manmade_12.png,,49,Fictional_Cities_List/img_manmade_12.png,MM,1,,,,,,,,,,,,,,,
null,,confidence_buffer,687865,confidence_buffer,,null,,,,,,,,,,,,,,,,,,
2214,,pt2_unique_rating,690079,Fictional_Cities_List/img_manmade_12.png,,50,,,2,,,,,,,,,,,,,,,
null,,confidence_buffer,690182,confidence_buffer,,null,,,,,,,,,,,,,,,,,,
929,,pt2_memorable_rating,691111,Fictional_Cities_List/img_manmade_12.png,,49,,,1,,,,,,,,,,,,,,,
null,,confidence_buffer,691216,confidence_buffer,,null,,,,,,,,,,,,,,,,,,
1029,,recognition_phase,692247,Fictional_Cities_List/img_manmade_12.png,,50,,,,,,old,1,0.9666666666666667,,,,,,,,,,
null,,confidence_buffer,692358,confidence_buffer,,null,,,,,,,,,,,,,,,,,,
null,,thebreak,692860,break,,null,,,,,,,,,,,,,,,,,,
3011,,pt2_realistic_rating,695871,Fictional_Cities_List/img_natural_19.png,,49,Fictional_Cities_List/img_natural_19.png,NAT,1,,,,,,,,,,,,,,,
null,,confidence_buffer,695987,confidence_buffer,,null,,,,,,,,,,,,,,,,,,
4372,,pt2_unique_rating,700359,Fictional_Cities_List/img_natural_19.png,,53,,,5,,,,,,,,,,,,,,,
null,,confidence_buffer,700472,confidence_buffer,,null,,,,,,,,,,,,,,,,,,
3614,,pt2_memorable_rating,704088,Fictional_Cities_List/img_natural_19.png,,50,,,2,,,,,,,,,,,,,,,
null,,confidence_buffer,704201,confidence_buffer,,null,,,,,,,,,,,,,,,,,,
2085,,recognition_phase,706287,Fictional_Cities_List/img_natural_19.png,,52,,,,,,new,1,0.967741935483871,,,,,,,,,,
null,,confidence_buffer,706394,confidence_buffer,,null,,,,,,,,,,,,,,,,,,
null,,thebreak,706896,break,,null,,,,,,,,,,,,,,,,,,
3006,,pt2_realistic_rating,709903,US_Cities_List/nat_hilo.png,,53,US_Cities_List/nat_hilo.png,NAT,5,,,,,,,,,,,,,,,
null,,confidence_buffer,710007,confidence_buffer,,null,,,,,,,,,,,,,,,,,,
2448,,pt2_unique_rating,712456,US_Cities_List/nat_hilo.png,,50,,,2,,,,,,,,,,,,,,,
null,,confidence_buffer,712563,confidence_buffer,,null,,,,,,,,,,,,,,,,,,
563,,pt2_memorable_rating,713128,US_Cities_List/nat_hilo.png,,49,,,1,,,,,,,,,,,,,,,
null,,confidence_buffer,713235,confidence_buffer,,null,,,,,,,,,,,,,,,,,,
1645,,probe_rating,714879,probe_rating,,51,,,,3,1,,,,,,,,,,,,,
null,,confidence_buffer,714987,confidence_buffer,,null,,,,,,,,,,,,,,,,,,
1660,,recognition_phase,716647,US_Cities_List/nat_hilo.png,,52,,,,,,new,1,0.96875,,,,,,,,,,
null,,confidence_buffer,716762,confidence_buffer,,null,,,,,,,,,,,,,,,,,,
null,,thebreak,717264,break,,null,,,,,,,,,,,,,,,,,,
5223,,pt2_realistic_rating,722487,US_Cities_List/nat_coeurdalene.png,,53,US_Cities_List/nat_coeurdalene.png,NAT,5,,,,,,,,,,,,,,,
null,,confidence_buffer,722599,confidence_buffer,,null,,,,,,,,,,,,,,,,,,
1575,,probe_rating,724175,probe_rating,,52,,,,4,1,,,,,,,,,,,,,
null,,confidence_buffer,724290,confidence_buffer,,null,,,,,,,,,,,,,,,,,,
5228,,pt2_unique_rating,729519,US_Cities_List/nat_coeurdalene.png,,49,,,1,,,,,,,,,,,,,,,
null,,confidence_buffer,729628,confidence_buffer,,null,,,,,,,,,,,,,,,,,,
715,,pt2_memorable_rating,730343,US_Cities_List/nat_coeurdalene.png,,49,,,1,,,,,,,,,,,,,,,
null,,confidence_buffer,730454,confidence_buffer,,null,,,,,,,,,,,,,,,,,,
1752,,recognition_phase,732207,US_Cities_List/nat_coeurdalene.png,,52,,,,,,new,1,0.9696969696969697,,,,,,,,,,
null,,confidence_buffer,732314,confidence_buffer,,null,,,,,,,,,,,,,,,,,,
null,,thebreak,732822,break,,null,,,,,,,,,,,,,,,,,,
3920,,pt2_realistic_rating,736744,Fictional_Cities_List/img_natural_29.png,,50,Fictional_Cities_List/img_natural_29.png,NAT,2,,,,,,,,,,,,,,,
null,,confidence_buffer,736843,confidence_buffer,,null,,,,,,,,,,,,,,,,,,
2163,,pt2_unique_rating,739007,Fictional_Cities_List/img_natural_29.png,,50,,,2,,,,,,,,,,,,,,,
null,,confidence_buffer,739108,confidence_buffer,,null,,,,,,,,,,,,,,,,,,
666,,pt2_memorable_rating,739775,Fictional_Cities_List/img_natural_29.png,,49,,,1,,,,,,,,,,,,,,,
null,,confidence_buffer,739884,confidence_buffer,,null,,,,,,,,,,,,,,,,,,
1523,,recognition_phase,741407,Fictional_Cities_List/img_natural_29.png,,52,,,,,,new,1,0.9705882352941176,,,,,,,,,,
null,,confidence_buffer,741519,confidence_buffer,,null,,,,,,,,,,,,,,,,,,
null,,thebreak,742023,break,,null,,,,,,,,,,,,,,,,,,
2480,,pt2_realistic_rating,744503,US_Cities_List/mm_sitka.png,,53,US_Cities_List/mm_sitka.png,MM,5,,,,,,,,,,,,,,,
null,,confidence_buffer,744610,confidence_buffer,,null,,,,,,,,,,,,,,,,,,
1940,,pt2_unique_rating,746551,US_Cities_List/mm_sitka.png,,49,,,1,,,,,,,,,,,,,,,
null,,confidence_buffer,746662,confidence_buffer,,null,,,,,,,,,,,,,,,,,,
1000,,pt2_memorable_rating,747664,US_Cities_List/mm_sitka.png,,49,,,1,,,,,,,,,,,,,,,
null,,confidence_buffer,747767,confidence_buffer,,null,,,,,,,,,,,,,,,,,,
1024,,probe_rating,748791,probe_rating,,49,,,,1,1,,,,,,,,,,,,,
null,,confidence_buffer,748903,confidence_buffer,,null,,,,,,,,,,,,,,,,,,
991,,recognition_phase,749895,US_Cities_List/mm_sitka.png,,49,,,,,,old,1,0.9714285714285714,,,,,,,,,,
null,,confidence_buffer,750008,confidence_buffer,,null,,,,,,,,,,,,,,,,,,
null,,thebreak,750511,break,,null,,,,,,,,,,,,,,,,,,
2007,,pt2_realistic_rating,752519,Fictional_Cities_List/img_natural_12.png,,49,Fictional_Cities_List/img_natural_12.png,NAT,1,,,,,,,,,,,,,,,
null,,confidence_buffer,752630,confidence_buffer,,null,,,,,,,,,,,,,,,,,,
1594,,pt2_unique_rating,754223,Fictional_Cities_List/img_natural_12.png,,50,,,2,,,,,,,,,,,,,,,
null,,confidence_buffer,754336,confidence_buffer,,null,,,,,,,,,,,,,,,,,,
959,,pt2_memorable_rating,755295,Fictional_Cities_List/img_natural_12.png,,49,,,1,,,,,,,,,,,,,,,
null,,confidence_buffer,755408,confidence_buffer,,null,,,,,,,,,,,,,,,,,,
1022,,recognition_phase,756431,Fictional_Cities_List/img_natural_12.png,,49,,,,,,old,1,0.9722222222222222,,,,,,,,,,
null,,confidence_buffer,756533,confidence_buffer,,null,,,,,,,,,,,,,,,,,,
null,,thebreak,757034,break,,null,,,,,,,,,,,,,,,,,,
2340,,pt2_realistic_rating,759375,Fictional_Cities_List/img_manmade_38.png,,53,Fictional_Cities_List/img_manmade_38.png,MM,5,,,,,,,,,,,,,,,
null,,confidence_buffer,759481,confidence_buffer,,null,,,,,,,,,,,,,,,,,,
1350,,probe_rating,760831,probe_rating,,53,,,,5,1,,,,,,,,,,,,,
null,,confidence_buffer,760942,confidence_buffer,,null,,,,,,,,,,,,,,,,,,
6312,,pt2_unique_rating,767255,Fictional_Cities_List/img_manmade_38.png,,53,,,5,,,,,,,,,,,,,,,
null,,confidence_buffer,767375,confidence_buffer,,null,,,,,,,,,,,,,,,,,,
1472,,pt2_memorable_rating,768847,Fictional_Cities_List/img_manmade_38.png,,49,,,1,,,,,,,,,,,,,,,
null,,confidence_buffer,768952,confidence_buffer,,null,,,,,,,,,,,,,,,,,,
1935,,recognition_phase,770888,Fictional_Cities_List/img_manmade_38.png,,52,,,,,,new,1,0.972972972972973,,,,,,,,,,
null,,confidence_buffer,770994,confidence_buffer,,null,,,,,,,,,,,,,,,,,,
null,,thebreak,771495,break,,null,,,,,,,,,,,,,,,,,,
2983,,pt2_realistic_rating,774479,US_Cities_List/nat_abilene.png,,53,US_Cities_List/nat_abilene.png,NAT,5,,,,,,,,,,,,,,,
null,,confidence_buffer,774583,confidence_buffer,,null,,,,,,,,,,,,,,,,,,
1904,,pt2_unique_rating,776487,US_Cities_List/nat_abilene.png,,50,,,2,,,,,,,,,,,,,,,
null,,confidence_buffer,776601,confidence_buffer,,null,,,,,,,,,,,,,,,,,,
767,,pt2_memorable_rating,777367,US_Cities_List/nat_abilene.png,,49,,,1,,,,,,,,,,,,,,,
null,,confidence_buffer,777487,confidence_buffer,,null,,,,,,,,,,,,,,,,,,
881,,recognition_phase,778367,US_Cities_List/nat_abilene.png,,49,,,,,,old,1,0.9736842105263158,,,,,,,,,,
null,,confidence_buffer,778488,confidence_buffer,,null,,,,,,,,,,,,,,,,,,
null,,thebreak,778988,break,,null,,,,,,,,,,,,,,,,,,
3402,,pt2_realistic_rating,782391,US_Cities_List/mm_okoboji.png,,52,US_Cities_List/mm_okoboji.png,MM,4,,,,,,,,,,,,,,,
null,,confidence_buffer,782492,confidence_buffer,,null,,,,,,,,,,,,,,,,,,
4081,,pt2_unique_rating,786575,US_Cities_List/mm_okoboji.png,,51,,,3,,,,,,,,,,,,,,,
null,,confidence_buffer,786697,confidence_buffer,,null,,,,,,,,,,,,,,,,,,
837,,pt2_memorable_rating,787535,US_Cities_List/mm_okoboji.png,,49,,,1,,,,,,,,,,,,,,,
null,,confidence_buffer,787643,confidence_buffer,,null,,,,,,,,,,,,,,,,,,
890,,probe_rating,788535,probe_rating,,51,,,,3,1,,,,,,,,,,,,,
null,,confidence_buffer,788644,confidence_buffer,,null,,,,,,,,,,,,,,,,,,
1450,,recognition_phase,790095,US_Cities_List/mm_okoboji.png,,52,,,,,,new,1,0.9743589743589743,,,,,,,,,,
null,,confidence_buffer,790201,confidence_buffer,,null,,,,,,,,,,,,,,,,,,
null,,thebreak,790701,break,,null,,,,,,,,,,,,,,,,,,
1434,,pt2_realistic_rating,792135,Fictional_Cities_List/img_manmade_16.png,,49,Fictional_Cities_List/img_manmade_16.png,MM,1,,,,,,,,,,,,,,,
null,,confidence_buffer,792249,confidence_buffer,,null,,,,,,,,,,,,,,,,,,
2806,,pt2_unique_rating,795055,Fictional_Cities_List/img_manmade_16.png,,50,,,2,,,,,,,,,,,,,,,
null,,confidence_buffer,795167,confidence_buffer,,null,,,,,,,,,,,,,,,,,,
743,,pt2_memorable_rating,795911,Fictional_Cities_List/img_manmade_16.png,,49,,,1,,,,,,,,,,,,,,,
null,,confidence_buffer,796023,confidence_buffer,,null,,,,,,,,,,,,,,,,,,
1143,,recognition_phase,797167,Fictional_Cities_List/img_manmade_16.png,,49,,,,,,old,1,0.975,,,,,,,,,,
null,,confidence_buffer,797269,confidence_buffer,,null,,,,,,,,,,,,,,,,,,
null,,thebreak,797770,break,,null,,,,,,,,,,,,,,,,,,
6140,,pt2_realistic_rating,803911,US_Cities_List/mm_westpalmbeach.png,,53,US_Cities_List/mm_westpalmbeach.png,MM,5,,,,,,,,,,,,,,,
null,,confidence_buffer,804017,confidence_buffer,,null,,,,,,,,,,,,,,,,,,
1662,,pt2_unique_rating,805679,US_Cities_List/mm_westpalmbeach.png,,53,,,5,,,,,,,,,,,,,,,
null,,confidence_buffer,805794,confidence_buffer,,null,,,,,,,,,,,,,,,,,,
1356,,pt2_memorable_rating,807151,US_Cities_List/mm_westpalmbeach.png,,49,,,1,,,,,,,,,,,,,,,
null,,confidence_buffer,807266,confidence_buffer,,null,,,,,,,,,,,,,,,,,,
1932,,recognition_phase,809199,US_Cities_List/mm_westpalmbeach.png,,52,,,,,,new,1,0.975609756097561,,,,,,,,,,
null,,confidence_buffer,809309,confidence_buffer,,null,,,,,,,,,,,,,,,,,,
null,,thebreak,809810,break,,null,,,,,,,,,,,,,,,,,,
2524,,pt2_realistic_rating,812335,Fictional_Cities_List/img_manmade_19.png,,52,Fictional_Cities_List/img_manmade_19.png,MM,4,,,,,,,,,,,,,,,
null,,confidence_buffer,812437,confidence_buffer,,null,,,,,,,,,,,,,,,,,,
1801,,pt2_unique_rating,814239,Fictional_Cities_List/img_manmade_19.png,,50,,,2,,,,,,,,,,,,,,,
null,,confidence_buffer,814339,confidence_buffer,,null,,,,,,,,,,,,,,,,,,
626,,pt2_memorable_rating,814967,Fictional_Cities_List/img_manmade_19.png,,49,,,1,,,,,,,,,,,,,,,
null,,confidence_buffer,815071,confidence_buffer,,null,,,,,,,,,,,,,,,,,,
1135,,recognition_phase,816207,Fictional_Cities_List/img_manmade_19.png,,49,,,,,,old,1,0.9761904761904762,,,,,,,,,,
null,,confidence_buffer,816322,confidence_buffer,,null,,,,,,,,,,,,,,,,,,
null,,thebreak,816822,break,,null,,,,,,,,,,,,,,,,,,
2576,,pt2_realistic_rating,819400,Fictional_Cities_List/img_manmade_40.png,,50,Fictional_Cities_List/img_manmade_40.png,MM,2,,,,,,,,,,,,,,,
null,,confidence_buffer,819502,confidence_buffer,,null,,,,,,,,,,,,,,,,,,
2497,,pt2_unique_rating,821999,Fictional_Cities_List/img_manmade_40.png,,53,,,5,,,,,,,,,,,,,,,
null,,confidence_buffer,822110,confidence_buffer,,null,,,,,,,,,,,,,,,,,,
1808,,pt2_memorable_rating,823919,Fictional_Cities_List/img_manmade_40.png,,49,,,1,,,,,,,,,,,,,,,
null,,confidence_buffer,824034,confidence_buffer,,null,,,,,,,,,,,,,,,,,,
1229,,probe_rating,825263,probe_rating,,49,,,,1,1,,,,,,,,,,,,,
null,,confidence_buffer,825376,confidence_buffer,,null,,,,,,,,,,,,,,,,,,
1399,,recognition_phase,826775,Fictional_Cities_List/img_manmade_40.png,,52,,,,,,new,1,0.9767441860465116,,,,,,,,,,
null,,confidence_buffer,826881,confidence_buffer,,null,,,,,,,,,,,,,,,,,,
null,,thebreak,827383,break,,null,,,,,,,,,,,,,,,,,,
3591,,pt2_realistic_rating,830975,US_Cities_List/mm_carmel.png,,51,US_Cities_List/mm_carmel.png,MM,3,,,,,,,,,,,,,,,
null,,confidence_buffer,831096,confidence_buffer,,null,,,,,,,,,,,,,,,,,,
2470,,pt2_unique_rating,833567,US_Cities_List/mm_carmel.png,,50,,,2,,,,,,,,,,,,,,,
null,,confidence_buffer,833668,confidence_buffer,,null,,,,,,,,,,,,,,,,,,
690,,pt2_memorable_rating,834359,US_Cities_List/mm_carmel.png,,49,,,1,,,,,,,,,,,,,,,
null,,confidence_buffer,834471,confidence_buffer,,null,,,,,,,,,,,,,,,,,,
2039,,recognition_phase,836512,US_Cities_List/mm_carmel.png,,50,,,,,,old,1,0.9772727272727273,,,,,,,,,,
null,,confidence_buffer,836616,confidence_buffer,,null,,,,,,,,,,,,,,,,,,
null,,thebreak,837118,break,,null,,,,,,,,,,,,,,,,,,
3944,,pt2_realistic_rating,841063,Fictional_Cities_List/img_manmade_32.png,,52,Fictional_Cities_List/img_manmade_32.png,MM,4,,,,,,,,,,,,,,,
null,,confidence_buffer,841164,confidence_buffer,,null,,,,,,,,,,,,,,,,,,
3666,,pt2_unique_rating,844831,Fictional_Cities_List/img_manmade_32.png,,51,,,3,,,,,,,,,,,,,,,
null,,confidence_buffer,844946,confidence_buffer,,null,,,,,,,,,,,,,,,,,,
3460,,pt2_memorable_rating,848407,Fictional_Cities_List/img_manmade_32.png,,49,,,1,,,,,,,,,,,,,,,
null,,confidence_buffer,848522,confidence_buffer,,null,,,,,,,,,,,,,,,,,,
1708,,recognition_phase,850231,Fictional_Cities_List/img_manmade_32.png,,51,,,,,,new,1,0.9777777777777777,,,,,,,,,,
null,,confidence_buffer,850344,confidence_buffer,,null,,,,,,,,,,,,,,,,,,
null,,thebreak,850845,break,,null,,,,,,,,,,,,,,,,,,
3448,,pt2_realistic_rating,854295,Fictional_Cities_List/img_natural_42.png,,53,Fictional_Cities_List/img_natural_42.png,NAT,5,,,,,,,,,,,,,,,
null,,confidence_buffer,854397,confidence_buffer,,null,,,,,,,,,,,,,,,,,,
2842,,pt2_unique_rating,857239,Fictional_Cities_List/img_natural_42.png,,50,,,2,,,,,,,,,,,,,,,
null,,confidence_buffer,857354,confidence_buffer,,null,,,,,,,,,,,,,,,,,,
1229,,pt2_memorable_rating,858583,Fictional_Cities_List/img_natural_42.png,,49,,,1,,,,,,,,,,,,,,,
null,,confidence_buffer,858696,confidence_buffer,,null,,,,,,,,,,,,,,,,,,
966,,recognition_phase,859664,Fictional_Cities_List/img_natural_42.png,,49,,,,,,old,1,0.9782608695652174,,,,,,,,,,
null,,confidence_buffer,859779,confidence_buffer,,null,,,,,,,,,,,,,,,,,,
null,,thebreak,860280,break,,null,,,,,,,,,,,,,,,,,,
2982,,pt2_realistic_rating,863263,US_Cities_List/nat_hotsprings.png,,53,US_Cities_List/nat_hotsprings.png,NAT,5,,,,,,,,,,,,,,,
null,,confidence_buffer,863376,confidence_buffer,,null,,,,,,,,,,,,,,,,,,
1822,,pt2_unique_rating,865199,US_Cities_List/nat_hotsprings.png,,50,,,2,,,,,,,,,,,,,,,
null,,confidence_buffer,865320,confidence_buffer,,null,,,,,,,,,,,,,,,,,,
494,,pt2_memorable_rating,865815,US_Cities_List/nat_hotsprings.png,,49,,,1,,,,,,,,,,,,,,,
null,,confidence_buffer,865923,confidence_buffer,,null,,,,,,,,,,,,,,,,,,
1660,,recognition_phase,867584,US_Cities_List/nat_hotsprings.png,,52,,,,,,new,1,0.9787234042553191,,,,,,,,,,
null,,confidence_buffer,867691,confidence_buffer,,null,,,,,,,,,,,,,,,,,,
null,,thebreak,868194,break,,null,,,,,,,,,,,,,,,,,,
2278,,pt2_realistic_rating,870471,US_Cities_List/mm_healdsburg.png,,53,US_Cities_List/mm_healdsburg.png,MM,5,,,,,,,,,,,,,,,
null,,confidence_buffer,870578,confidence_buffer,,null,,,,,,,,,,,,,,,,,,
3372,,pt2_unique_rating,873951,US_Cities_List/mm_healdsburg.png,,51,,,3,,,,,,,,,,,,,,,
null,,confidence_buffer,874053,confidence_buffer,,null,,,,,,,,,,,,,,,,,,
1706,,pt2_memorable_rating,875759,US_Cities_List/mm_healdsburg.png,,49,,,1,,,,,,,,,,,,,,,
null,,confidence_buffer,875860,confidence_buffer,,null,,,,,,,,,,,,,,,,,,
1890,,recognition_phase,877752,US_Cities_List/mm_healdsburg.png,,52,,,,,,new,1,0.9791666666666666,,,,,,,,,,
null,,confidence_buffer,877867,confidence_buffer,,null,,,,,,,,,,,,,,,,,,
null,,thebreak,878369,break,,null,,,,,,,,,,,,,,,,,,
4245,,pt2_realistic_rating,882615,Fictional_Cities_List/img_manmade_01.png,,52,Fictional_Cities_List/img_manmade_01.png,MM,4,,,,,,,,,,,,,,,
null,,confidence_buffer,882723,confidence_buffer,,null,,,,,,,,,,,,,,,,,,
900,,probe_rating,883623,probe_rating,,49,,,,1,1,,,,,,,,,,,,,
null,,confidence_buffer,883726,confidence_buffer,,null,,,,,,,,,,,,,,,,,,
3472,,pt2_unique_rating,887199,Fictional_Cities_List/img_manmade_01.png,,53,,,5,,,,,,,,,,,,,,,
null,,confidence_buffer,887302,confidence_buffer,,null,,,,,,,,,,,,,,,,,,
1641,,pt2_memorable_rating,888943,Fictional_Cities_List/img_manmade_01.png,,49,,,1,,,,,,,,,,,,,,,
null,,confidence_buffer,889046,confidence_buffer,,null,,,,,,,,,,,,,,,,,,
1841,,recognition_phase,890887,Fictional_Cities_List/img_manmade_01.png,,52,,,,,,new,1,0.9795918367346939,,,,,,,,,,
null,,confidence_buffer,890999,confidence_buffer,,null,,,,,,,,,,,,,,,,,,
null,,thebreak,891505,break,,null,,,,,,,,,,,,,,,,,,
2918,,pt2_realistic_rating,894423,Fictional_Cities_List/img_natural_32.png,,52,Fictional_Cities_List/img_natural_32.png,NAT,4,,,,,,,,,,,,,,,
null,,confidence_buffer,894529,confidence_buffer,,null,,,,,,,,,,,,,,,,,,
2190,,pt2_unique_rating,896719,Fictional_Cities_List/img_natural_32.png,,51,,,3,,,,,,,,,,,,,,,
null,,confidence_buffer,896820,confidence_buffer,,null,,,,,,,,,,,,,,,,,,
2762,,pt2_memorable_rating,899583,Fictional_Cities_List/img_natural_32.png,,49,,,1,,,,,,,,,,,,,,,
null,,confidence_buffer,899684,confidence_buffer,,null,,,,,,,,,,,,,,,,,,
1810,,recognition_phase,901495,Fictional_Cities_List/img_natural_32.png,,52,,,,,,new,1,0.98,,,,,,,,,,
null,,confidence_buffer,901606,confidence_buffer,,null,,,,,,,,,,,,,,,,,,
null,,thebreak,902112,break,,null,,,,,,,,,,,,,,,,,,
4951,,pt2_realistic_rating,907063,Fictional_Cities_List/img_natural_20.png,,50,Fictional_Cities_List/img_natural_20.png,NAT,2,,,,,,,,,,,,,,,
null,,confidence_buffer,907183,confidence_buffer,,null,,,,,,,,,,,,,,,,,,
3128,,pt2_unique_rating,910311,Fictional_Cities_List/img_natural_20.png,,52,,,4,,,,,,,,,,,,,,,
null,,confidence_buffer,910426,confidence_buffer,,null,,,,,,,,,,,,,,,,,,
1596,,pt2_memorable_rating,912023,Fictional_Cities_List/img_natural_20.png,,49,,,1,,,,,,,,,,,,,,,
null,,confidence_buffer,912132,confidence_buffer,,null,,,,,,,,,,,,,,,,,,
1905,,probe_rating,914039,probe_rating,,51,,,,3,1,,,,,,,,,,,,,
null,,confidence_buffer,914155,confidence_buffer,,null,,,,,,,,,,,,,,,,,,
1524,,recognition_phase,915680,Fictional_Cities_List/img_natural_20.png,,49,,,,,,old,1,0.9803921568627451,,,,,,,,,,
null,,confidence_buffer,915793,confidence_buffer,,null,,,,,,,,,,,,,,,,,,
null,,thebreak,916294,break,,null,,,,,,,,,,,,,,,,,,
2328,,pt2_realistic_rating,918623,US_Cities_List/nat_okoboji.png,,53,US_Cities_List/nat_okoboji.png,NAT,5,,,,,,,,,,,,,,,
null,,confidence_buffer,918725,confidence_buffer,,null,,,,,,,,,,,,,,,,,,
1576,,pt2_unique_rating,920303,US_Cities_List/nat_okoboji.png,,50,,,2,,,,,,,,,,,,,,,
null,,confidence_buffer,920409,confidence_buffer,,null,,,,,,,,,,,,,,,,,,
492,,pt2_memorable_rating,920903,US_Cities_List/nat_okoboji.png,,49,,,1,,,,,,,,,,,,,,,
null,,confidence_buffer,921012,confidence_buffer,,null,,,,,,,,,,,,,,,,,,
2098,,recognition_phase,923112,US_Cities_List/nat_okoboji.png,,50,,,,,,old,1,0.9807692307692307,,,,,,,,,,
null,,confidence_buffer,923219,confidence_buffer,,null,,,,,,,,,,,,,,,,,,
null,,thebreak,923720,break,,null,,,,,,,,,,,,,,,,,,
5206,,pt2_realistic_rating,928927,US_Cities_List/nat_carmel.png,,51,US_Cities_List/nat_carmel.png,NAT,3,,,,,,,,,,,,,,,
null,,confidence_buffer,929040,confidence_buffer,,null,,,,,,,,,,,,,,,,,,
3431,,pt2_unique_rating,932471,US_Cities_List/nat_carmel.png,,50,,,2,,,,,,,,,,,,,,,
null,,confidence_buffer,932573,confidence_buffer,,null,,,,,,,,,,,,,,,,,,
1321,,pt2_memorable_rating,933895,US_Cities_List/nat_carmel.png,,49,,,1,,,,,,,,,,,,,,,
null,,confidence_buffer,934016,confidence_buffer,,null,,,,,,,,,,,,,,,,,,
1255,,recognition_phase,935271,US_Cities_List/nat_carmel.png,,52,,,,,,new,1,0.9811320754716981,,,,,,,,,,
null,,confidence_buffer,935383,confidence_buffer,,null,,,,,,,,,,,,,,,,,,
null,,thebreak,935885,break,,null,,,,,,,,,,,,,,,,,,
4688,,pt2_realistic_rating,940575,Fictional_Cities_List/img_natural_41.png,,52,Fictional_Cities_List/img_natural_41.png,NAT,4,,,,,,,,,,,,,,,
null,,confidence_buffer,940684,confidence_buffer,,null,,,,,,,,,,,,,,,,,,
1275,,pt2_unique_rating,941959,Fictional_Cities_List/img_natural_41.png,,50,,,2,,,,,,,,,,,,,,,
null,,confidence_buffer,942061,confidence_buffer,,null,,,,,,,,,,,,,,,,,,
1296,,pt2_memorable_rating,943359,Fictional_Cities_List/img_natural_41.png,,49,,,1,,,,,,,,,,,,,,,
null,,confidence_buffer,943459,confidence_buffer,,null,,,,,,,,,,,,,,,,,,
1826,,recognition_phase,945287,Fictional_Cities_List/img_natural_41.png,,51,,,,,,new,1,0.9814814814814815,,,,,,,,,,
null,,confidence_buffer,945393,confidence_buffer,,null,,,,,,,,,,,,,,,,,,
null,,thebreak,945900,break,,null,,,,,,,,,,,,,,,,,,
3819,,pt2_realistic_rating,949719,US_Cities_List/mm_boulder.png,,53,US_Cities_List/mm_boulder.png,MM,5,,,,,,,,,,,,,,,
null,,confidence_buffer,949824,confidence_buffer,,null,,,,,,,,,,,,,,,,,,
2488,,pt2_unique_rating,952311,US_Cities_List/mm_boulder.png,,50,,,2,,,,,,,,,,,,,,,
null,,confidence_buffer,952414,confidence_buffer,,null,,,,,,,,,,,,,,,,,,
1264,,pt2_memorable_rating,953679,US_Cities_List/mm_boulder.png,,49,,,1,,,,,,,,,,,,,,,
null,,confidence_buffer,953788,confidence_buffer,,null,,,,,,,,,,,,,,,,,,
2890,,recognition_phase,956679,US_Cities_List/mm_boulder.png,,51,,,,,,new,1,0.9818181818181818,,,,,,,,,,
null,,confidence_buffer,956784,confidence_buffer,,null,,,,,,,,,,,,,,,,,,
null,,thebreak,957285,break,,null,,,,,,,,,,,,,,,,,,
3057,,pt2_realistic_rating,960343,US_Cities_List/mm_cornwall.png,,53,US_Cities_List/mm_cornwall.png,MM,5,,,,,,,,,,,,,,,
null,,confidence_buffer,960458,confidence_buffer,,null,,,,,,,,,,,,,,,,,,
3947,,pt2_unique_rating,964407,US_Cities_List/mm_cornwall.png,,50,,,2,,,,,,,,,,,,,,,
null,,confidence_buffer,964512,confidence_buffer,,null,,,,,,,,,,,,,,,,,,
751,,pt2_memorable_rating,965263,US_Cities_List/mm_cornwall.png,,49,,,1,,,,,,,,,,,,,,,
null,,confidence_buffer,965377,confidence_buffer,,null,,,,,,,,,,,,,,,,,,
1013,,recognition_phase,966391,US_Cities_List/mm_cornwall.png,,49,,,,,,old,1,0.9821428571428571,,,,,,,,,,
null,,confidence_buffer,966503,confidence_buffer,,null,,,,,,,,,,,,,,,,,,
null,,thebreak,967005,break,,null,,,,,,,,,,,,,,,,,,
2010,,pt2_realistic_rating,969015,US_Cities_List/mm_coeurdalene.png,,53,US_Cities_List/mm_coeurdalene.png,MM,5,,,,,,,,,,,,,,,
null,,confidence_buffer,969128,confidence_buffer,,null,,,,,,,,,,,,,,,,,,
2919,,pt2_unique_rating,972047,US_Cities_List/mm_coeurdalene.png,,49,,,1,,,,,,,,,,,,,,,
null,,confidence_buffer,972155,confidence_buffer,,null,,,,,,,,,,,,,,,,,,
828,,pt2_memorable_rating,972983,US_Cities_List/mm_coeurdalene.png,,49,,,1,,,,,,,,,,,,,,,
null,,confidence_buffer,973090,confidence_buffer,,null,,,,,,,,,,,,,,,,,,
1476,,recognition_phase,974567,US_Cities_List/mm_coeurdalene.png,,52,,,,,,new,1,0.9824561403508771,,,,,,,,,,
null,,confidence_buffer,974680,confidence_buffer,,null,,,,,,,,,,,,,,,,,,
null,,thebreak,975181,break,,null,,,,,,,,,,,,,,,,,,
1360,,pt2_realistic_rating,976543,Fictional_Cities_List/img_natural_16.png,,49,Fictional_Cities_List/img_natural_16.png,NAT,1,,,,,,,,,,,,,,,
null,,confidence_buffer,976655,confidence_buffer,,null,,,,,,,,,,,,,,,,,,
5559,,pt2_unique_rating,982215,Fictional_Cities_List/img_natural_16.png,,50,,,2,,,,,,,,,,,,,,,
null,,confidence_buffer,982323,confidence_buffer,,null,,,,,,,,,,,,,,,,,,
539,,pt2_memorable_rating,982864,Fictional_Cities_List/img_natural_16.png,,49,,,1,,,,,,,,,,,,,,,
null,,confidence_buffer,982978,confidence_buffer,,null,,,,,,,,,,,,,,,,,,
3236,,recognition_phase,986215,Fictional_Cities_List/img_natural_16.png,,51,,,,,,new,0,0.9655172413793104,,,,,,,,,,
null,,confidence_buffer,986322,confidence_buffer,,null,,,,,,,,,,,,,,,,,,
null,,thebreak,986824,break,,null,,,,,,,,,,,,,,,,,,
1920,,pt2_realistic_rating,988743,Fictional_Cities_List/img_manmade_41.png,,53,Fictional_Cities_List/img_manmade_41.png,MM,5,,,,,,,,,,,,,,,
null,,confidence_buffer,988861,confidence_buffer,,null,,,,,,,,,,,,,,,,,,
2425,,pt2_unique_rating,991287,Fictional_Cities_List/img_manmade_41.png,,50,,,2,,,,,,,,,,,,,,,
null,,confidence_buffer,991394,confidence_buffer,,null,,,,,,,,,,,,,,,,,,
413,,pt2_memorable_rating,991807,Fictional_Cities_List/img_manmade_41.png,,49,,,1,,,,,,,,,,,,,,,
null,,confidence_buffer,991918,confidence_buffer,,null,,,,,,,,,,,,,,,,,,
1128,,recognition_phase,993047,Fictional_Cities_List/img_manmade_41.png,,49,,,,,,old,1,0.9661016949152542,,,,,,,,,,
null,,confidence_buffer,993153,confidence_buffer,,null,,,,,,,,,,,,,,,,,,
null,,thebreak,993655,break,,null,,,,,,,,,,,,,,,,,,
2664,,pt2_realistic_rating,996319,Fictional_Cities_List/img_manmade_42.png,,53,Fictional_Cities_List/img_manmade_42.png,MM,5,,,,,,,,,,,,,,,
null,,confidence_buffer,996434,confidence_buffer,,null,,,,,,,,,,,,,,,,,,
1605,,pt2_unique_rating,998039,Fictional_Cities_List/img_manmade_42.png,,49,,,1,,,,,,,,,,,,,,,
null,,confidence_buffer,998140,confidence_buffer,,null,,,,,,,,,,,,,,,,,,
521,,pt2_memorable_rating,998663,Fictional_Cities_List/img_manmade_42.png,,49,,,1,,,,,,,,,,,,,,,
null,,confidence_buffer,998774,confidence_buffer,,null,,,,,,,,,,,,,,,,,,
1424,,recognition_phase,1000199,Fictional_Cities_List/img_manmade_42.png,,52,,,,,,new,1,0.9666666666666667,,,,,,,,,,
null,,confidence_buffer,1000301,confidence_buffer,,null,,,,,,,,,,,,,,,,,,
null,,thebreak,1000803,break,,null,,,,,,,,,,,,,,,,,,
,,survey,1263528,survey-questions,,,,,,,,,,,none,high,I did not do anything else.,I did not use any strategies.  I paid attention to the questions to check for attention questions.,I'm not familiar with most of the images.,None were memorable.,Most of the images are not very unique because many places have something similar.  If I think something is not found anywhere else, it will be higher in uniqueness.,Some images were clearly done by AI, so those were not realistic.  Some places look alien enough to not be realistic.,I think I've rated images on different criteria before on Prolific.,
