rt,responses,trial_type,time_elapsed,stimulus,button_pressed,key_press,name_trial,city_type,rating,probe,probe_accuracy,response,correct,accuracy,problems,smooth,distraction,strategies,familiar,memorable,unique,realistic,similar,comments
11030,{worker_id:65ccca52871269168cc029b5rolific.com},id_enter,11035,,,,,,,,,,,,,,,,,,,,,
9900,,fullscreen,20939,fullscreen,0,,,,,,,,,,,,,,,,,,,
3875,,intro_0,24817,instruct,,32,,,,,,,,,,,,,,,,,,
4415,,intro_1,29233,instruct,,32,,,,,,,,,,,,,,,,,,
3463,,intro_2,32697,instruct,,32,,,,,,,,,,,,,,,,,,
null,,instruct_dir_4,34210,instruct,,null,,,,,,,,,,,,,,,,,,
null,,thebreak,34721,break,,null,,,,,,,,,,,,,,,,,,
4423,,familiar_rating,39146,Fictional_Cities_List/img_manmade_35.png,,49,Fictional_Cities_List/img_manmade_35.png,MM,1,,,,,,,,,,,,,,,
null,,confidence_buffer,39250,confidence_buffer,,null,,,,,,,,,,,,,,,,,,
6967,,unique_rating,46218,Fictional_Cities_List/img_manmade_35.png,,50,,,2,,,,,,,,,,,,,,,
null,,confidence_buffer,46321,confidence_buffer,,null,,,,,,,,,,,,,,,,,,
1511,,memorable_rating,47834,Fictional_Cities_List/img_manmade_35.png,,50,,,2,,,,,,,,,,,,,,,
null,,confidence_buffer,47947,confidence_buffer,,null,,,,,,,,,,,,,,,,,,
null,,thebreak,48462,break,,null,,,,,,,,,,,,,,,,,,
6899,,familiar_rating,55362,Fictional_Cities_List/img_natural_05.png,,49,Fictional_Cities_List/img_natural_05.png,NAT,1,,,,,,,,,,,,,,,
null,,confidence_buffer,55476,confidence_buffer,,null,,,,,,,,,,,,,,,,,,
2605,,unique_rating,58082,Fictional_Cities_List/img_natural_05.png,,51,,,3,,,,,,,,,,,,,,,
null,,confidence_buffer,58187,confidence_buffer,,null,,,,,,,,,,,,,,,,,,
1389,,memorable_rating,59578,Fictional_Cities_List/img_natural_05.png,,51,,,3,,,,,,,,,,,,,,,
null,,confidence_buffer,59689,confidence_buffer,,null,,,,,,,,,,,,,,,,,,
null,,thebreak,60201,break,,null,,,,,,,,,,,,,,,,,,
1569,,familiar_rating,61770,Fictional_Cities_List/img_natural_31.png,,49,Fictional_Cities_List/img_natural_31.png,NAT,1,,,,,,,,,,,,,,,
null,,confidence_buffer,61884,confidence_buffer,,null,,,,,,,,,,,,,,,,,,
3558,,unique_rating,65442,Fictional_Cities_List/img_natural_31.png,,51,,,3,,,,,,,,,,,,,,,
null,,confidence_buffer,65546,confidence_buffer,,null,,,,,,,,,,,,,,,,,,
1695,,memorable_rating,67242,Fictional_Cities_List/img_natural_31.png,,52,,,4,,,,,,,,,,,,,,,
null,,confidence_buffer,67348,confidence_buffer,,null,,,,,,,,,,,,,,,,,,
null,,thebreak,67862,break,,null,,,,,,,,,,,,,,,,,,
3067,,familiar_rating,70930,Fictional_Cities_List/img_manmade_16.png,,49,Fictional_Cities_List/img_manmade_16.png,MM,1,,,,,,,,,,,,,,,
null,,confidence_buffer,71043,confidence_buffer,,null,,,,,,,,,,,,,,,,,,
3438,,unique_rating,74482,Fictional_Cities_List/img_manmade_16.png,,49,,,1,,,,,,,,,,,,,,,
null,,confidence_buffer,74591,confidence_buffer,,null,,,,,,,,,,,,,,,,,,
3331,,memorable_rating,77922,Fictional_Cities_List/img_manmade_16.png,,51,,,3,,,,,,,,,,,,,,,
null,,confidence_buffer,78037,confidence_buffer,,null,,,,,,,,,,,,,,,,,,
null,,thebreak,78548,break,,null,,,,,,,,,,,,,,,,,,
2807,,familiar_rating,81355,Fictional_Cities_List/img_manmade_25.png,,49,Fictional_Cities_List/img_manmade_25.png,MM,1,,,,,,,,,,,,,,,
null,,confidence_buffer,81467,confidence_buffer,,null,,,,,,,,,,,,,,,,,,
3191,,unique_rating,84659,Fictional_Cities_List/img_manmade_25.png,,50,,,2,,,,,,,,,,,,,,,
null,,confidence_buffer,84764,confidence_buffer,,null,,,,,,,,,,,,,,,,,,
2750,,memorable_rating,87515,Fictional_Cities_List/img_manmade_25.png,,51,,,3,,,,,,,,,,,,,,,
null,,confidence_buffer,87630,confidence_buffer,,null,,,,,,,,,,,,,,,,,,
null,,thebreak,88146,break,,null,,,,,,,,,,,,,,,,,,
2121,,familiar_rating,90267,US_Cities_List/mm_hilo.png,,49,US_Cities_List/mm_hilo.png,MM,1,,,,,,,,,,,,,,,
null,,confidence_buffer,90370,confidence_buffer,,null,,,,,,,,,,,,,,,,,,
4200,,unique_rating,94571,US_Cities_List/mm_hilo.png,,49,,,1,,,,,,,,,,,,,,,
null,,confidence_buffer,94672,confidence_buffer,,null,,,,,,,,,,,,,,,,,,
2546,,memorable_rating,97220,US_Cities_List/mm_hilo.png,,49,,,1,,,,,,,,,,,,,,,
null,,confidence_buffer,97329,confidence_buffer,,null,,,,,,,,,,,,,,,,,,
1385,,probe_rating,98715,probe_rating,,53,,,,5,1,,,,,,,,,,,,,
null,,confidence_buffer,98823,confidence_buffer,,null,,,,,,,,,,,,,,,,,,
null,,thebreak,99336,break,,null,,,,,,,,,,,,,,,,,,
2602,,familiar_rating,101939,US_Cities_List/nat_delawarecity.png,,49,US_Cities_List/nat_delawarecity.png,NAT,1,,,,,,,,,,,,,,,
null,,confidence_buffer,102045,confidence_buffer,,null,,,,,,,,,,,,,,,,,,
5352,,unique_rating,107397,US_Cities_List/nat_delawarecity.png,,50,,,2,,,,,,,,,,,,,,,
null,,confidence_buffer,107504,confidence_buffer,,null,,,,,,,,,,,,,,,,,,
8651,,memorable_rating,116155,US_Cities_List/nat_delawarecity.png,,50,,,2,,,,,,,,,,,,,,,
null,,confidence_buffer,116257,confidence_buffer,,null,,,,,,,,,,,,,,,,,,
null,,thebreak,116772,break,,null,,,,,,,,,,,,,,,,,,
1328,,familiar_rating,118100,US_Cities_List/mm_westpalmbeach.png,,49,US_Cities_List/mm_westpalmbeach.png,MM,1,,,,,,,,,,,,,,,
null,,confidence_buffer,118209,confidence_buffer,,null,,,,,,,,,,,,,,,,,,
6107,,unique_rating,124315,US_Cities_List/mm_westpalmbeach.png,,52,,,4,,,,,,,,,,,,,,,
null,,confidence_buffer,124432,confidence_buffer,,null,,,,,,,,,,,,,,,,,,
379,,memorable_rating,124812,US_Cities_List/mm_westpalmbeach.png,,52,,,4,,,,,,,,,,,,,,,
null,,confidence_buffer,124913,confidence_buffer,,null,,,,,,,,,,,,,,,,,,
null,,thebreak,125426,break,,null,,,,,,,,,,,,,,,,,,
3842,,familiar_rating,129269,Fictional_Cities_List/img_natural_37.png,,52,Fictional_Cities_List/img_natural_37.png,NAT,4,,,,,,,,,,,,,,,
null,,confidence_buffer,129383,confidence_buffer,,null,,,,,,,,,,,,,,,,,,
1563,,unique_rating,130948,Fictional_Cities_List/img_natural_37.png,,49,,,1,,,,,,,,,,,,,,,
null,,confidence_buffer,131059,confidence_buffer,,null,,,,,,,,,,,,,,,,,,
1882,,memorable_rating,132940,Fictional_Cities_List/img_natural_37.png,,49,,,1,,,,,,,,,,,,,,,
null,,confidence_buffer,133055,confidence_buffer,,null,,,,,,,,,,,,,,,,,,
null,,thebreak,133570,break,,null,,,,,,,,,,,,,,,,,,
1794,,familiar_rating,135364,Fictional_Cities_List/img_manmade_29.png,,49,Fictional_Cities_List/img_manmade_29.png,MM,1,,,,,,,,,,,,,,,
null,,confidence_buffer,135474,confidence_buffer,,null,,,,,,,,,,,,,,,,,,
3850,,unique_rating,139323,Fictional_Cities_List/img_manmade_29.png,,50,,,2,,,,,,,,,,,,,,,
null,,confidence_buffer,139435,confidence_buffer,,null,,,,,,,,,,,,,,,,,,
2232,,memorable_rating,141669,Fictional_Cities_List/img_manmade_29.png,,50,,,2,,,,,,,,,,,,,,,
null,,confidence_buffer,141781,confidence_buffer,,null,,,,,,,,,,,,,,,,,,
null,,thebreak,142283,break,,null,,,,,,,,,,,,,,,,,,
3025,,familiar_rating,145309,US_Cities_List/nat_athens.png,,49,US_Cities_List/nat_athens.png,NAT,1,,,,,,,,,,,,,,,
null,,confidence_buffer,145417,confidence_buffer,,null,,,,,,,,,,,,,,,,,,
4162,,probe_rating,149581,probe_rating,,49,,,,1,1,,,,,,,,,,,,,
null,,confidence_buffer,149682,confidence_buffer,,null,,,,,,,,,,,,,,,,,,
2026,,unique_rating,151709,US_Cities_List/nat_athens.png,,49,,,1,,,,,,,,,,,,,,,
null,,confidence_buffer,151820,confidence_buffer,,null,,,,,,,,,,,,,,,,,,
1528,,memorable_rating,153349,US_Cities_List/nat_athens.png,,49,,,1,,,,,,,,,,,,,,,
null,,confidence_buffer,153462,confidence_buffer,,null,,,,,,,,,,,,,,,,,,
null,,thebreak,153965,break,,null,,,,,,,,,,,,,,,,,,
2480,,familiar_rating,156445,US_Cities_List/mm_sitka.png,,49,US_Cities_List/mm_sitka.png,MM,1,,,,,,,,,,,,,,,
null,,confidence_buffer,156549,confidence_buffer,,null,,,,,,,,,,,,,,,,,,
1335,,unique_rating,157885,US_Cities_List/mm_sitka.png,,49,,,1,,,,,,,,,,,,,,,
null,,confidence_buffer,157996,confidence_buffer,,null,,,,,,,,,,,,,,,,,,
224,,memorable_rating,158221,US_Cities_List/mm_sitka.png,,49,,,1,,,,,,,,,,,,,,,
null,,confidence_buffer,158324,confidence_buffer,,null,,,,,,,,,,,,,,,,,,
null,,thebreak,158839,break,,null,,,,,,,,,,,,,,,,,,
1998,,familiar_rating,160837,Fictional_Cities_List/img_natural_29.png,,49,Fictional_Cities_List/img_natural_29.png,NAT,1,,,,,,,,,,,,,,,
null,,confidence_buffer,160938,confidence_buffer,,null,,,,,,,,,,,,,,,,,,
2994,,unique_rating,163933,Fictional_Cities_List/img_natural_29.png,,51,,,3,,,,,,,,,,,,,,,
null,,confidence_buffer,164043,confidence_buffer,,null,,,,,,,,,,,,,,,,,,
2769,,memorable_rating,166813,Fictional_Cities_List/img_natural_29.png,,51,,,3,,,,,,,,,,,,,,,
null,,confidence_buffer,166924,confidence_buffer,,null,,,,,,,,,,,,,,,,,,
null,,thebreak,167437,break,,null,,,,,,,,,,,,,,,,,,
1399,,familiar_rating,168836,US_Cities_List/nat_bisbee.png,,49,US_Cities_List/nat_bisbee.png,NAT,1,,,,,,,,,,,,,,,
null,,confidence_buffer,168954,confidence_buffer,,null,,,,,,,,,,,,,,,,,,
1403,,unique_rating,170357,US_Cities_List/nat_bisbee.png,,49,,,1,,,,,,,,,,,,,,,
null,,confidence_buffer,170467,confidence_buffer,,null,,,,,,,,,,,,,,,,,,
1185,,memorable_rating,171653,US_Cities_List/nat_bisbee.png,,51,,,3,,,,,,,,,,,,,,,
null,,confidence_buffer,171762,confidence_buffer,,null,,,,,,,,,,,,,,,,,,
null,,thebreak,172275,break,,null,,,,,,,,,,,,,,,,,,
18946,,familiar_rating,191223,US_Cities_List/nat_hotsprings.png,,49,US_Cities_List/nat_hotsprings.png,NAT,1,,,,,,,,,,,,,,,
null,,confidence_buffer,191330,confidence_buffer,,null,,,,,,,,,,,,,,,,,,
3477,,unique_rating,194806,US_Cities_List/nat_hotsprings.png,,49,,,1,,,,,,,,,,,,,,,
null,,confidence_buffer,194912,confidence_buffer,,null,,,,,,,,,,,,,,,,,,
1365,,memorable_rating,196278,US_Cities_List/nat_hotsprings.png,,49,,,1,,,,,,,,,,,,,,,
null,,confidence_buffer,196381,confidence_buffer,,null,,,,,,,,,,,,,,,,,,
null,,thebreak,196896,break,,null,,,,,,,,,,,,,,,,,,
1311,,familiar_rating,198207,Fictional_Cities_List/img_natural_16.png,,49,Fictional_Cities_List/img_natural_16.png,NAT,1,,,,,,,,,,,,,,,
null,,confidence_buffer,198314,confidence_buffer,,null,,,,,,,,,,,,,,,,,,
979,,probe_rating,199294,probe_rating,,51,,,,3,1,,,,,,,,,,,,,
null,,confidence_buffer,199404,confidence_buffer,,null,,,,,,,,,,,,,,,,,,
2130,,unique_rating,201534,Fictional_Cities_List/img_natural_16.png,,50,,,2,,,,,,,,,,,,,,,
null,,confidence_buffer,201645,confidence_buffer,,null,,,,,,,,,,,,,,,,,,
1472,,memorable_rating,203118,Fictional_Cities_List/img_natural_16.png,,51,,,3,,,,,,,,,,,,,,,
null,,confidence_buffer,203231,confidence_buffer,,null,,,,,,,,,,,,,,,,,,
null,,thebreak,203745,break,,null,,,,,,,,,,,,,,,,,,
1198,,familiar_rating,204942,US_Cities_List/mm_peoria.png,,49,US_Cities_List/mm_peoria.png,MM,1,,,,,,,,,,,,,,,
null,,confidence_buffer,205049,confidence_buffer,,null,,,,,,,,,,,,,,,,,,
1292,,unique_rating,206342,US_Cities_List/mm_peoria.png,,49,,,1,,,,,,,,,,,,,,,
null,,confidence_buffer,206448,confidence_buffer,,null,,,,,,,,,,,,,,,,,,
1110,,memorable_rating,207558,US_Cities_List/mm_peoria.png,,50,,,2,,,,,,,,,,,,,,,
null,,confidence_buffer,207668,confidence_buffer,,null,,,,,,,,,,,,,,,,,,
1137,,probe_rating,208806,probe_rating,,53,,,,5,1,,,,,,,,,,,,,
null,,confidence_buffer,208915,confidence_buffer,,null,,,,,,,,,,,,,,,,,,
null,,thebreak,209430,break,,null,,,,,,,,,,,,,,,,,,
5495,,familiar_rating,214926,Fictional_Cities_List/img_manmade_05.png,,51,Fictional_Cities_List/img_manmade_05.png,MM,3,,,,,,,,,,,,,,,
null,,confidence_buffer,215033,confidence_buffer,,null,,,,,,,,,,,,,,,,,,
1285,,unique_rating,216319,Fictional_Cities_List/img_manmade_05.png,,49,,,1,,,,,,,,,,,,,,,
null,,confidence_buffer,216422,confidence_buffer,,null,,,,,,,,,,,,,,,,,,
2024,,memorable_rating,218446,Fictional_Cities_List/img_manmade_05.png,,49,,,1,,,,,,,,,,,,,,,
null,,confidence_buffer,218562,confidence_buffer,,null,,,,,,,,,,,,,,,,,,
null,,thebreak,219064,break,,null,,,,,,,,,,,,,,,,,,
13399,,familiar_rating,232463,US_Cities_List/nat_carmel.png,,49,US_Cities_List/nat_carmel.png,NAT,1,,,,,,,,,,,,,,,
null,,confidence_buffer,232578,confidence_buffer,,null,,,,,,,,,,,,,,,,,,
1990,,unique_rating,234567,US_Cities_List/nat_carmel.png,,50,,,2,,,,,,,,,,,,,,,
null,,confidence_buffer,234679,confidence_buffer,,null,,,,,,,,,,,,,,,,,,
1344,,memorable_rating,236024,US_Cities_List/nat_carmel.png,,50,,,2,,,,,,,,,,,,,,,
null,,confidence_buffer,236131,confidence_buffer,,null,,,,,,,,,,,,,,,,,,
null,,thebreak,236632,break,,null,,,,,,,,,,,,,,,,,,
1447,,familiar_rating,238079,Fictional_Cities_List/img_manmade_37.png,,49,Fictional_Cities_List/img_manmade_37.png,MM,1,,,,,,,,,,,,,,,
null,,confidence_buffer,238195,confidence_buffer,,null,,,,,,,,,,,,,,,,,,
1460,,unique_rating,239655,Fictional_Cities_List/img_manmade_37.png,,49,,,1,,,,,,,,,,,,,,,
null,,confidence_buffer,239766,confidence_buffer,,null,,,,,,,,,,,,,,,,,,
825,,memorable_rating,240592,Fictional_Cities_List/img_manmade_37.png,,50,,,2,,,,,,,,,,,,,,,
null,,confidence_buffer,240700,confidence_buffer,,null,,,,,,,,,,,,,,,,,,
null,,thebreak,241215,break,,null,,,,,,,,,,,,,,,,,,
1143,,familiar_rating,242359,US_Cities_List/nat_healdsburg.png,,49,US_Cities_List/nat_healdsburg.png,NAT,1,,,,,,,,,,,,,,,
null,,confidence_buffer,242462,confidence_buffer,,null,,,,,,,,,,,,,,,,,,
1185,,unique_rating,243646,US_Cities_List/nat_healdsburg.png,,49,,,1,,,,,,,,,,,,,,,
null,,confidence_buffer,243756,confidence_buffer,,null,,,,,,,,,,,,,,,,,,
619,,memorable_rating,244376,US_Cities_List/nat_healdsburg.png,,50,,,2,,,,,,,,,,,,,,,
null,,confidence_buffer,244487,confidence_buffer,,null,,,,,,,,,,,,,,,,,,
null,,thebreak,244998,break,,null,,,,,,,,,,,,,,,,,,
1904,,familiar_rating,246904,US_Cities_List/mm_bisbee.png,,49,US_Cities_List/mm_bisbee.png,MM,1,,,,,,,,,,,,,,,
null,,confidence_buffer,247011,confidence_buffer,,null,,,,,,,,,,,,,,,,,,
2436,,unique_rating,249447,US_Cities_List/mm_bisbee.png,,49,,,1,,,,,,,,,,,,,,,
null,,confidence_buffer,249549,confidence_buffer,,null,,,,,,,,,,,,,,,,,,
2050,,memorable_rating,251600,US_Cities_List/mm_bisbee.png,,50,,,2,,,,,,,,,,,,,,,
null,,confidence_buffer,251713,confidence_buffer,,null,,,,,,,,,,,,,,,,,,
null,,thebreak,252227,break,,null,,,,,,,,,,,,,,,,,,
1676,,familiar_rating,253904,US_Cities_List/mm_okoboji.png,,49,US_Cities_List/mm_okoboji.png,MM,1,,,,,,,,,,,,,,,
null,,confidence_buffer,254006,confidence_buffer,,null,,,,,,,,,,,,,,,,,,
1290,,unique_rating,255296,US_Cities_List/mm_okoboji.png,,49,,,1,,,,,,,,,,,,,,,
null,,confidence_buffer,255412,confidence_buffer,,null,,,,,,,,,,,,,,,,,,
3690,,memorable_rating,259102,US_Cities_List/mm_okoboji.png,,50,,,2,,,,,,,,,,,,,,,
null,,confidence_buffer,259204,confidence_buffer,,null,,,,,,,,,,,,,,,,,,
null,,thebreak,259717,break,,null,,,,,,,,,,,,,,,,,,
34892,,familiar_rating,294610,US_Cities_List/nat_hilo.png,,49,US_Cities_List/nat_hilo.png,NAT,1,,,,,,,,,,,,,,,
null,,confidence_buffer,294715,confidence_buffer,,null,,,,,,,,,,,,,,,,,,
1164,,probe_rating,295880,probe_rating,,52,,,,4,1,,,,,,,,,,,,,
null,,confidence_buffer,295987,confidence_buffer,,null,,,,,,,,,,,,,,,,,,
2382,,unique_rating,298370,US_Cities_List/nat_hilo.png,,50,,,2,,,,,,,,,,,,,,,
null,,confidence_buffer,298480,confidence_buffer,,null,,,,,,,,,,,,,,,,,,
1017,,memorable_rating,299497,US_Cities_List/nat_hilo.png,,51,,,3,,,,,,,,,,,,,,,
null,,confidence_buffer,299618,confidence_buffer,,null,,,,,,,,,,,,,,,,,,
null,,thebreak,300132,break,,null,,,,,,,,,,,,,,,,,,
1468,,familiar_rating,301601,Fictional_Cities_List/img_natural_43.png,,49,Fictional_Cities_List/img_natural_43.png,NAT,1,,,,,,,,,,,,,,,
null,,confidence_buffer,301704,confidence_buffer,,null,,,,,,,,,,,,,,,,,,
1520,,unique_rating,303225,Fictional_Cities_List/img_natural_43.png,,49,,,1,,,,,,,,,,,,,,,
null,,confidence_buffer,303326,confidence_buffer,,null,,,,,,,,,,,,,,,,,,
2274,,memorable_rating,305602,Fictional_Cities_List/img_natural_43.png,,51,,,3,,,,,,,,,,,,,,,
null,,confidence_buffer,305707,confidence_buffer,,null,,,,,,,,,,,,,,,,,,
null,,thebreak,306223,break,,null,,,,,,,,,,,,,,,,,,
2139,,familiar_rating,308361,Fictional_Cities_List/img_natural_25.png,,49,Fictional_Cities_List/img_natural_25.png,NAT,1,,,,,,,,,,,,,,,
null,,confidence_buffer,308466,confidence_buffer,,null,,,,,,,,,,,,,,,,,,
1808,,unique_rating,310274,Fictional_Cities_List/img_natural_25.png,,51,,,3,,,,,,,,,,,,,,,
null,,confidence_buffer,310384,confidence_buffer,,null,,,,,,,,,,,,,,,,,,
1394,,memorable_rating,311778,Fictional_Cities_List/img_natural_25.png,,52,,,4,,,,,,,,,,,,,,,
null,,confidence_buffer,311891,confidence_buffer,,null,,,,,,,,,,,,,,,,,,
null,,thebreak,312405,break,,null,,,,,,,,,,,,,,,,,,
1204,,familiar_rating,313610,US_Cities_List/mm_healdsburg.png,,49,US_Cities_List/mm_healdsburg.png,MM,1,,,,,,,,,,,,,,,
null,,confidence_buffer,313713,confidence_buffer,,null,,,,,,,,,,,,,,,,,,
2223,,unique_rating,315937,US_Cities_List/mm_healdsburg.png,,49,,,1,,,,,,,,,,,,,,,
null,,confidence_buffer,316045,confidence_buffer,,null,,,,,,,,,,,,,,,,,,
1796,,memorable_rating,317842,US_Cities_List/mm_healdsburg.png,,50,,,2,,,,,,,,,,,,,,,
null,,confidence_buffer,317948,confidence_buffer,,null,,,,,,,,,,,,,,,,,,
null,,thebreak,318448,break,,null,,,,,,,,,,,,,,,,,,
1921,,familiar_rating,320369,Fictional_Cities_List/img_natural_35.png,,49,Fictional_Cities_List/img_natural_35.png,NAT,1,,,,,,,,,,,,,,,
null,,confidence_buffer,320474,confidence_buffer,,null,,,,,,,,,,,,,,,,,,
1327,,unique_rating,321802,Fictional_Cities_List/img_natural_35.png,,49,,,1,,,,,,,,,,,,,,,
null,,confidence_buffer,321906,confidence_buffer,,null,,,,,,,,,,,,,,,,,,
953,,memorable_rating,322858,Fictional_Cities_List/img_natural_35.png,,52,,,4,,,,,,,,,,,,,,,
null,,confidence_buffer,322968,confidence_buffer,,null,,,,,,,,,,,,,,,,,,
null,,thebreak,323469,break,,null,,,,,,,,,,,,,,,,,,
1349,,familiar_rating,324819,US_Cities_List/mm_hotsprings.png,,49,US_Cities_List/mm_hotsprings.png,MM,1,,,,,,,,,,,,,,,
null,,confidence_buffer,324933,confidence_buffer,,null,,,,,,,,,,,,,,,,,,
1307,,unique_rating,326241,US_Cities_List/mm_hotsprings.png,,49,,,1,,,,,,,,,,,,,,,
null,,confidence_buffer,326352,confidence_buffer,,null,,,,,,,,,,,,,,,,,,
721,,memorable_rating,327075,US_Cities_List/mm_hotsprings.png,,49,,,1,,,,,,,,,,,,,,,
null,,confidence_buffer,327179,confidence_buffer,,null,,,,,,,,,,,,,,,,,,
null,,thebreak,327690,break,,null,,,,,,,,,,,,,,,,,,
2046,,familiar_rating,329738,Fictional_Cities_List/img_manmade_21.png,,49,Fictional_Cities_List/img_manmade_21.png,MM,1,,,,,,,,,,,,,,,
null,,confidence_buffer,329853,confidence_buffer,,null,,,,,,,,,,,,,,,,,,
3597,,unique_rating,333450,Fictional_Cities_List/img_manmade_21.png,,49,,,1,,,,,,,,,,,,,,,
null,,confidence_buffer,333559,confidence_buffer,,null,,,,,,,,,,,,,,,,,,
898,,memorable_rating,334458,Fictional_Cities_List/img_manmade_21.png,,50,,,2,,,,,,,,,,,,,,,
null,,confidence_buffer,334559,confidence_buffer,,null,,,,,,,,,,,,,,,,,,
null,,thebreak,335074,break,,null,,,,,,,,,,,,,,,,,,
2598,,intro_0,337675,instruct,,32,,,,,,,,,,,,,,,,,,
4176,,intro_1,341850,instruct,,32,,,,,,,,,,,,,,,,,,
4384,,intro_2,346235,instruct,,32,,,,,,,,,,,,,,,,,,
null,,instruct_dir_4,347748,instruct,,null,,,,,,,,,,,,,,,,,,
6573,,pt2_realistic_rating,354323,Fictional_Cities_List/img_natural_05.png,,49,Fictional_Cities_List/img_natural_05.png,NAT,1,,,,,,,,,,,,,,,
null,,confidence_buffer,354430,confidence_buffer,,null,,,,,,,,,,,,,,,,,,
4124,,pt2_unique_rating,358555,Fictional_Cities_List/img_natural_05.png,,50,,,2,,,,,,,,,,,,,,,
null,,confidence_buffer,358669,confidence_buffer,,null,,,,,,,,,,,,,,,,,,
1597,,pt2_memorable_rating,360267,Fictional_Cities_List/img_natural_05.png,,52,,,4,,,,,,,,,,,,,,,
null,,confidence_buffer,360372,confidence_buffer,,null,,,,,,,,,,,,,,,,,,
1926,,recognition_phase,362299,Fictional_Cities_List/img_natural_05.png,,49,,,,,,old,1,1,,,,,,,,,,
null,,confidence_buffer,362410,confidence_buffer,,null,,,,,,,,,,,,,,,,,,
null,,thebreak,362926,break,,null,,,,,,,,,,,,,,,,,,
3430,,pt2_realistic_rating,366355,US_Cities_List/mm_coeurdalene.png,,53,US_Cities_List/mm_coeurdalene.png,MM,5,,,,,,,,,,,,,,,
null,,confidence_buffer,366467,confidence_buffer,,null,,,,,,,,,,,,,,,,,,
5968,,pt2_unique_rating,372436,US_Cities_List/mm_coeurdalene.png,,49,,,1,,,,,,,,,,,,,,,
null,,confidence_buffer,372539,confidence_buffer,,null,,,,,,,,,,,,,,,,,,
983,,pt2_memorable_rating,373524,US_Cities_List/mm_coeurdalene.png,,49,,,1,,,,,,,,,,,,,,,
null,,confidence_buffer,373625,confidence_buffer,,null,,,,,,,,,,,,,,,,,,
2785,,recognition_phase,376412,US_Cities_List/mm_coeurdalene.png,,52,,,,,,new,1,1,,,,,,,,,,
null,,confidence_buffer,376522,confidence_buffer,,null,,,,,,,,,,,,,,,,,,
null,,thebreak,377034,break,,null,,,,,,,,,,,,,,,,,,
6576,,pt2_realistic_rating,383612,US_Cities_List/mm_bisbee.png,,53,US_Cities_List/mm_bisbee.png,MM,5,,,,,,,,,,,,,,,
null,,confidence_buffer,383722,confidence_buffer,,null,,,,,,,,,,,,,,,,,,
921,,probe_rating,384643,probe_rating,,52,,,,4,1,,,,,,,,,,,,,
null,,confidence_buffer,384750,confidence_buffer,,null,,,,,,,,,,,,,,,,,,
1516,,pt2_unique_rating,386269,US_Cities_List/mm_bisbee.png,,49,,,1,,,,,,,,,,,,,,,
null,,confidence_buffer,386370,confidence_buffer,,null,,,,,,,,,,,,,,,,,,
712,,pt2_memorable_rating,387084,US_Cities_List/mm_bisbee.png,,50,,,2,,,,,,,,,,,,,,,
null,,confidence_buffer,387195,confidence_buffer,,null,,,,,,,,,,,,,,,,,,
1561,,recognition_phase,388755,US_Cities_List/mm_bisbee.png,,49,,,,,,old,1,1,,,,,,,,,,
null,,confidence_buffer,388857,confidence_buffer,,null,,,,,,,,,,,,,,,,,,
null,,thebreak,389371,break,,null,,,,,,,,,,,,,,,,,,
3905,,pt2_realistic_rating,393276,US_Cities_List/mm_athens.png,,52,US_Cities_List/mm_athens.png,MM,4,,,,,,,,,,,,,,,
null,,confidence_buffer,393384,confidence_buffer,,null,,,,,,,,,,,,,,,,,,
1900,,pt2_unique_rating,395285,US_Cities_List/mm_athens.png,,49,,,1,,,,,,,,,,,,,,,
null,,confidence_buffer,395398,confidence_buffer,,null,,,,,,,,,,,,,,,,,,
1030,,pt2_memorable_rating,396429,US_Cities_List/mm_athens.png,,49,,,1,,,,,,,,,,,,,,,
null,,confidence_buffer,396539,confidence_buffer,,null,,,,,,,,,,,,,,,,,,
1593,,recognition_phase,398133,US_Cities_List/mm_athens.png,,52,,,,,,new,1,1,,,,,,,,,,
null,,confidence_buffer,398239,confidence_buffer,,null,,,,,,,,,,,,,,,,,,
null,,thebreak,398752,break,,null,,,,,,,,,,,,,,,,,,
4788,,pt2_realistic_rating,403541,US_Cities_List/nat_boulder.png,,51,US_Cities_List/nat_boulder.png,NAT,3,,,,,,,,,,,,,,,
null,,confidence_buffer,403653,confidence_buffer,,null,,,,,,,,,,,,,,,,,,
2407,,pt2_unique_rating,406060,US_Cities_List/nat_boulder.png,,49,,,1,,,,,,,,,,,,,,,
null,,confidence_buffer,406169,confidence_buffer,,null,,,,,,,,,,,,,,,,,,
2218,,pt2_memorable_rating,408387,US_Cities_List/nat_boulder.png,,50,,,2,,,,,,,,,,,,,,,
null,,confidence_buffer,408491,confidence_buffer,,null,,,,,,,,,,,,,,,,,,
4130,,recognition_phase,412621,US_Cities_List/nat_boulder.png,,52,,,,,,new,1,1,,,,,,,,,,
null,,confidence_buffer,412733,confidence_buffer,,null,,,,,,,,,,,,,,,,,,
null,,thebreak,413248,break,,null,,,,,,,,,,,,,,,,,,
2069,,pt2_realistic_rating,415317,Fictional_Cities_List/img_natural_25.png,,49,Fictional_Cities_List/img_natural_25.png,NAT,1,,,,,,,,,,,,,,,
null,,confidence_buffer,415428,confidence_buffer,,null,,,,,,,,,,,,,,,,,,
2082,,pt2_unique_rating,417509,Fictional_Cities_List/img_natural_25.png,,51,,,3,,,,,,,,,,,,,,,
null,,confidence_buffer,417611,confidence_buffer,,null,,,,,,,,,,,,,,,,,,
1394,,pt2_memorable_rating,419005,Fictional_Cities_List/img_natural_25.png,,52,,,4,,,,,,,,,,,,,,,
null,,confidence_buffer,419108,confidence_buffer,,null,,,,,,,,,,,,,,,,,,
1193,,recognition_phase,420300,Fictional_Cities_List/img_natural_25.png,,49,,,,,,old,1,1,,,,,,,,,,
null,,confidence_buffer,420414,confidence_buffer,,null,,,,,,,,,,,,,,,,,,
null,,thebreak,420926,break,,null,,,,,,,,,,,,,,,,,,
3198,,pt2_realistic_rating,424125,US_Cities_List/mm_okoboji.png,,52,US_Cities_List/mm_okoboji.png,MM,4,,,,,,,,,,,,,,,
null,,confidence_buffer,424230,confidence_buffer,,null,,,,,,,,,,,,,,,,,,
2983,,pt2_unique_rating,427213,US_Cities_List/mm_okoboji.png,,49,,,1,,,,,,,,,,,,,,,
null,,confidence_buffer,427324,confidence_buffer,,null,,,,,,,,,,,,,,,,,,
1232,,pt2_memorable_rating,428556,US_Cities_List/mm_okoboji.png,,51,,,3,,,,,,,,,,,,,,,
null,,confidence_buffer,428666,confidence_buffer,,null,,,,,,,,,,,,,,,,,,
1659,,recognition_phase,430326,US_Cities_List/mm_okoboji.png,,49,,,,,,old,1,1,,,,,,,,,,
null,,confidence_buffer,430442,confidence_buffer,,null,,,,,,,,,,,,,,,,,,
null,,thebreak,430956,break,,null,,,,,,,,,,,,,,,,,,
24051,,pt2_realistic_rating,455007,US_Cities_List/mm_boulder.png,,51,US_Cities_List/mm_boulder.png,MM,3,,,,,,,,,,,,,,,
null,,confidence_buffer,455118,confidence_buffer,,null,,,,,,,,,,,,,,,,,,
1183,,pt2_unique_rating,456301,US_Cities_List/mm_boulder.png,,49,,,1,,,,,,,,,,,,,,,
null,,confidence_buffer,456410,confidence_buffer,,null,,,,,,,,,,,,,,,,,,
2866,,pt2_memorable_rating,459278,US_Cities_List/mm_boulder.png,,49,,,1,,,,,,,,,,,,,,,
null,,confidence_buffer,459386,confidence_buffer,,null,,,,,,,,,,,,,,,,,,
1779,,recognition_phase,461166,US_Cities_List/mm_boulder.png,,52,,,,,,new,1,1,,,,,,,,,,
null,,confidence_buffer,461267,confidence_buffer,,null,,,,,,,,,,,,,,,,,,
null,,thebreak,461770,break,,null,,,,,,,,,,,,,,,,,,
4548,,pt2_realistic_rating,466319,US_Cities_List/nat_coeurdalene.png,,52,US_Cities_List/nat_coeurdalene.png,NAT,4,,,,,,,,,,,,,,,
null,,confidence_buffer,466428,confidence_buffer,,null,,,,,,,,,,,,,,,,,,
3618,,pt2_unique_rating,470047,US_Cities_List/nat_coeurdalene.png,,51,,,3,,,,,,,,,,,,,,,
null,,confidence_buffer,470150,confidence_buffer,,null,,,,,,,,,,,,,,,,,,
4583,,pt2_memorable_rating,474734,US_Cities_List/nat_coeurdalene.png,,50,,,2,,,,,,,,,,,,,,,
null,,confidence_buffer,474842,confidence_buffer,,null,,,,,,,,,,,,,,,,,,
1524,,recognition_phase,476367,US_Cities_List/nat_coeurdalene.png,,52,,,,,,new,1,1,,,,,,,,,,
null,,confidence_buffer,476483,confidence_buffer,,null,,,,,,,,,,,,,,,,,,
null,,thebreak,476996,break,,null,,,,,,,,,,,,,,,,,,
4171,,pt2_realistic_rating,481167,Fictional_Cities_List/img_manmade_23.png,,50,Fictional_Cities_List/img_manmade_23.png,MM,2,,,,,,,,,,,,,,,
null,,confidence_buffer,481275,confidence_buffer,,null,,,,,,,,,,,,,,,,,,
2667,,pt2_unique_rating,483943,Fictional_Cities_List/img_manmade_23.png,,49,,,1,,,,,,,,,,,,,,,
null,,confidence_buffer,484049,confidence_buffer,,null,,,,,,,,,,,,,,,,,,
2222,,pt2_memorable_rating,486271,Fictional_Cities_List/img_manmade_23.png,,49,,,1,,,,,,,,,,,,,,,
null,,confidence_buffer,486386,confidence_buffer,,null,,,,,,,,,,,,,,,,,,
1253,,recognition_phase,487638,Fictional_Cities_List/img_manmade_23.png,,52,,,,,,new,1,1,,,,,,,,,,
null,,confidence_buffer,487743,confidence_buffer,,null,,,,,,,,,,,,,,,,,,
null,,thebreak,488277,break,,null,,,,,,,,,,,,,,,,,,
6754,,pt2_realistic_rating,495032,US_Cities_List/nat_bisbee.png,,52,US_Cities_List/nat_bisbee.png,NAT,4,,,,,,,,,,,,,,,
null,,confidence_buffer,495143,confidence_buffer,,null,,,,,,,,,,,,,,,,,,
2342,,pt2_unique_rating,497487,US_Cities_List/nat_bisbee.png,,49,,,1,,,,,,,,,,,,,,,
null,,confidence_buffer,497599,confidence_buffer,,null,,,,,,,,,,,,,,,,,,
1599,,pt2_memorable_rating,499199,US_Cities_List/nat_bisbee.png,,51,,,3,,,,,,,,,,,,,,,
null,,confidence_buffer,499311,confidence_buffer,,null,,,,,,,,,,,,,,,,,,
1264,,recognition_phase,500576,US_Cities_List/nat_bisbee.png,,49,,,,,,old,1,1,,,,,,,,,,
null,,confidence_buffer,500686,confidence_buffer,,null,,,,,,,,,,,,,,,,,,
null,,thebreak,501200,break,,null,,,,,,,,,,,,,,,,,,
4670,,pt2_realistic_rating,505870,Fictional_Cities_List/img_manmade_29.png,,51,Fictional_Cities_List/img_manmade_29.png,MM,3,,,,,,,,,,,,,,,
null,,confidence_buffer,505985,confidence_buffer,,null,,,,,,,,,,,,,,,,,,
2040,,pt2_unique_rating,508024,Fictional_Cities_List/img_manmade_29.png,,49,,,1,,,,,,,,,,,,,,,
null,,confidence_buffer,508134,confidence_buffer,,null,,,,,,,,,,,,,,,,,,
673,,pt2_memorable_rating,508808,Fictional_Cities_List/img_manmade_29.png,,50,,,2,,,,,,,,,,,,,,,
null,,confidence_buffer,508916,confidence_buffer,,null,,,,,,,,,,,,,,,,,,
1275,,recognition_phase,510192,Fictional_Cities_List/img_manmade_29.png,,49,,,,,,old,1,1,,,,,,,,,,
null,,confidence_buffer,510297,confidence_buffer,,null,,,,,,,,,,,,,,,,,,
null,,thebreak,510811,break,,null,,,,,,,,,,,,,,,,,,
3460,,pt2_realistic_rating,514272,Fictional_Cities_List/img_natural_06.png,,50,Fictional_Cities_List/img_natural_06.png,NAT,2,,,,,,,,,,,,,,,
null,,confidence_buffer,514385,confidence_buffer,,null,,,,,,,,,,,,,,,,,,
5495,,pt2_unique_rating,519880,Fictional_Cities_List/img_natural_06.png,,51,,,3,,,,,,,,,,,,,,,
null,,confidence_buffer,519985,confidence_buffer,,null,,,,,,,,,,,,,,,,,,
1567,,pt2_memorable_rating,521552,Fictional_Cities_List/img_natural_06.png,,52,,,4,,,,,,,,,,,,,,,
null,,confidence_buffer,521652,confidence_buffer,,null,,,,,,,,,,,,,,,,,,
1091,,recognition_phase,522744,Fictional_Cities_List/img_natural_06.png,,52,,,,,,new,1,1,,,,,,,,,,
null,,confidence_buffer,522849,confidence_buffer,,null,,,,,,,,,,,,,,,,,,
null,,thebreak,523365,break,,null,,,,,,,,,,,,,,,,,,
4028,,pt2_realistic_rating,527392,US_Cities_List/mm_hilo.png,,53,US_Cities_List/mm_hilo.png,MM,5,,,,,,,,,,,,,,,
null,,confidence_buffer,527507,confidence_buffer,,null,,,,,,,,,,,,,,,,,,
1125,,pt2_unique_rating,528632,US_Cities_List/mm_hilo.png,,49,,,1,,,,,,,,,,,,,,,
null,,confidence_buffer,528734,confidence_buffer,,null,,,,,,,,,,,,,,,,,,
1105,,pt2_memorable_rating,529841,US_Cities_List/mm_hilo.png,,49,,,1,,,,,,,,,,,,,,,
null,,confidence_buffer,529952,confidence_buffer,,null,,,,,,,,,,,,,,,,,,
856,,recognition_phase,530808,US_Cities_List/mm_hilo.png,,49,,,,,,old,1,1,,,,,,,,,,
null,,confidence_buffer,530917,confidence_buffer,,null,,,,,,,,,,,,,,,,,,
null,,thebreak,531421,break,,null,,,,,,,,,,,,,,,,,,
2252,,pt2_realistic_rating,533673,Fictional_Cities_List/img_natural_29.png,,49,Fictional_Cities_List/img_natural_29.png,NAT,1,,,,,,,,,,,,,,,
null,,confidence_buffer,533784,confidence_buffer,,null,,,,,,,,,,,,,,,,,,
4896,,pt2_unique_rating,538681,Fictional_Cities_List/img_natural_29.png,,51,,,3,,,,,,,,,,,,,,,
null,,confidence_buffer,538790,confidence_buffer,,null,,,,,,,,,,,,,,,,,,
1130,,pt2_memorable_rating,539920,Fictional_Cities_List/img_natural_29.png,,52,,,4,,,,,,,,,,,,,,,
null,,confidence_buffer,540035,confidence_buffer,,null,,,,,,,,,,,,,,,,,,
1221,,recognition_phase,541256,Fictional_Cities_List/img_natural_29.png,,49,,,,,,old,1,1,,,,,,,,,,
null,,confidence_buffer,541371,confidence_buffer,,null,,,,,,,,,,,,,,,,,,
null,,thebreak,541885,break,,null,,,,,,,,,,,,,,,,,,
3933,,pt2_realistic_rating,545818,US_Cities_List/mm_peoria.png,,53,US_Cities_List/mm_peoria.png,MM,5,,,,,,,,,,,,,,,
null,,confidence_buffer,545928,confidence_buffer,,null,,,,,,,,,,,,,,,,,,
12913,,pt2_unique_rating,558842,US_Cities_List/mm_peoria.png,,49,,,1,,,,,,,,,,,,,,,
null,,confidence_buffer,558945,confidence_buffer,,null,,,,,,,,,,,,,,,,,,
1200,,pt2_memorable_rating,560144,US_Cities_List/mm_peoria.png,,50,,,2,,,,,,,,,,,,,,,
null,,confidence_buffer,560254,confidence_buffer,,null,,,,,,,,,,,,,,,,,,
1211,,recognition_phase,561466,US_Cities_List/mm_peoria.png,,49,,,,,,old,1,1,,,,,,,,,,
null,,confidence_buffer,561571,confidence_buffer,,null,,,,,,,,,,,,,,,,,,
null,,thebreak,562082,break,,null,,,,,,,,,,,,,,,,,,
2134,,pt2_realistic_rating,564218,US_Cities_List/mm_healdsburg.png,,53,US_Cities_List/mm_healdsburg.png,MM,5,,,,,,,,,,,,,,,
null,,confidence_buffer,564334,confidence_buffer,,null,,,,,,,,,,,,,,,,,,
915,,pt2_unique_rating,565250,US_Cities_List/mm_healdsburg.png,,49,,,1,,,,,,,,,,,,,,,
null,,confidence_buffer,565359,confidence_buffer,,null,,,,,,,,,,,,,,,,,,
609,,pt2_memorable_rating,565969,US_Cities_List/mm_healdsburg.png,,49,,,1,,,,,,,,,,,,,,,
null,,confidence_buffer,566075,confidence_buffer,,null,,,,,,,,,,,,,,,,,,
702,,recognition_phase,566778,US_Cities_List/mm_healdsburg.png,,49,,,,,,old,1,1,,,,,,,,,,
null,,confidence_buffer,566886,confidence_buffer,,null,,,,,,,,,,,,,,,,,,
null,,thebreak,567399,break,,null,,,,,,,,,,,,,,,,,,
6297,,pt2_realistic_rating,573698,US_Cities_List/nat_hotsprings.png,,50,US_Cities_List/nat_hotsprings.png,NAT,2,,,,,,,,,,,,,,,
null,,confidence_buffer,573800,confidence_buffer,,null,,,,,,,,,,,,,,,,,,
1185,,pt2_unique_rating,574986,US_Cities_List/nat_hotsprings.png,,49,,,1,,,,,,,,,,,,,,,
null,,confidence_buffer,575089,confidence_buffer,,null,,,,,,,,,,,,,,,,,,
1664,,pt2_memorable_rating,576753,US_Cities_List/nat_hotsprings.png,,49,,,1,,,,,,,,,,,,,,,
null,,confidence_buffer,576861,confidence_buffer,,null,,,,,,,,,,,,,,,,,,
2628,,recognition_phase,579491,US_Cities_List/nat_hotsprings.png,,51,,,,,,new,0,0.9444444444444444,,,,,,,,,,
null,,confidence_buffer,579600,confidence_buffer,,null,,,,,,,,,,,,,,,,,,
null,,thebreak,580115,break,,null,,,,,,,,,,,,,,,,,,
5759,,pt2_realistic_rating,585874,Fictional_Cities_List/img_manmade_43.png,,51,Fictional_Cities_List/img_manmade_43.png,MM,3,,,,,,,,,,,,,,,
null,,confidence_buffer,585989,confidence_buffer,,null,,,,,,,,,,,,,,,,,,
5037,,pt2_unique_rating,591027,Fictional_Cities_List/img_manmade_43.png,,49,,,1,,,,,,,,,,,,,,,
null,,confidence_buffer,591137,confidence_buffer,,null,,,,,,,,,,,,,,,,,,
1041,,probe_rating,592179,probe_rating,,52,,,,4,1,,,,,,,,,,,,,
null,,confidence_buffer,592286,confidence_buffer,,null,,,,,,,,,,,,,,,,,,
6436,,pt2_memorable_rating,598722,Fictional_Cities_List/img_manmade_43.png,,49,,,1,,,,,,,,,,,,,,,
null,,confidence_buffer,598832,confidence_buffer,,null,,,,,,,,,,,,,,,,,,
1416,,recognition_phase,600250,Fictional_Cities_List/img_manmade_43.png,,52,,,,,,new,1,0.9473684210526315,,,,,,,,,,
null,,confidence_buffer,600357,confidence_buffer,,null,,,,,,,,,,,,,,,,,,
null,,thebreak,600871,break,,null,,,,,,,,,,,,,,,,,,
13332,,pt2_realistic_rating,614203,Fictional_Cities_List/img_manmade_47.png,,51,Fictional_Cities_List/img_manmade_47.png,MM,3,,,,,,,,,,,,,,,
null,,confidence_buffer,614316,confidence_buffer,,null,,,,,,,,,,,,,,,,,,
2094,,pt2_unique_rating,616411,Fictional_Cities_List/img_manmade_47.png,,49,,,1,,,,,,,,,,,,,,,
null,,confidence_buffer,616516,confidence_buffer,,null,,,,,,,,,,,,,,,,,,
1206,,pt2_memorable_rating,617723,Fictional_Cities_List/img_manmade_47.png,,50,,,2,,,,,,,,,,,,,,,
null,,confidence_buffer,617837,confidence_buffer,,null,,,,,,,,,,,,,,,,,,
814,,probe_rating,618652,probe_rating,,50,,,,2,1,,,,,,,,,,,,,
null,,confidence_buffer,618755,confidence_buffer,,null,,,,,,,,,,,,,,,,,,
1296,,recognition_phase,620051,Fictional_Cities_List/img_manmade_47.png,,52,,,,,,new,1,0.95,,,,,,,,,,
null,,confidence_buffer,620155,confidence_buffer,,null,,,,,,,,,,,,,,,,,,
null,,thebreak,620667,break,,null,,,,,,,,,,,,,,,,,,
7535,,pt2_realistic_rating,628204,US_Cities_List/nat_healdsburg.png,,51,US_Cities_List/nat_healdsburg.png,NAT,3,,,,,,,,,,,,,,,
null,,confidence_buffer,628309,confidence_buffer,,null,,,,,,,,,,,,,,,,,,
1070,,pt2_unique_rating,629379,US_Cities_List/nat_healdsburg.png,,49,,,1,,,,,,,,,,,,,,,
null,,confidence_buffer,629491,confidence_buffer,,null,,,,,,,,,,,,,,,,,,
807,,pt2_memorable_rating,630300,US_Cities_List/nat_healdsburg.png,,49,,,1,,,,,,,,,,,,,,,
null,,confidence_buffer,630414,confidence_buffer,,null,,,,,,,,,,,,,,,,,,
2244,,recognition_phase,632660,US_Cities_List/nat_healdsburg.png,,51,,,,,,new,0,0.9047619047619048,,,,,,,,,,
null,,confidence_buffer,632771,confidence_buffer,,null,,,,,,,,,,,,,,,,,,
null,,thebreak,633282,break,,null,,,,,,,,,,,,,,,,,,
8257,,pt2_realistic_rating,641540,US_Cities_List/mm_hotsprings.png,,52,US_Cities_List/mm_hotsprings.png,MM,4,,,,,,,,,,,,,,,
null,,confidence_buffer,641656,confidence_buffer,,null,,,,,,,,,,,,,,,,,,
3891,,pt2_unique_rating,645547,US_Cities_List/mm_hotsprings.png,,49,,,1,,,,,,,,,,,,,,,
null,,confidence_buffer,645654,confidence_buffer,,null,,,,,,,,,,,,,,,,,,
892,,pt2_memorable_rating,646548,US_Cities_List/mm_hotsprings.png,,49,,,1,,,,,,,,,,,,,,,
null,,confidence_buffer,646655,confidence_buffer,,null,,,,,,,,,,,,,,,,,,
4373,,recognition_phase,651027,US_Cities_List/mm_hotsprings.png,,51,,,,,,new,0,0.8636363636363636,,,,,,,,,,
null,,confidence_buffer,651130,confidence_buffer,,null,,,,,,,,,,,,,,,,,,
null,,thebreak,651642,break,,null,,,,,,,,,,,,,,,,,,
12057,,pt2_realistic_rating,663701,US_Cities_List/nat_westpalmbeach.png,,52,US_Cities_List/nat_westpalmbeach.png,NAT,4,,,,,,,,,,,,,,,
null,,confidence_buffer,663807,confidence_buffer,,null,,,,,,,,,,,,,,,,,,
2229,,pt2_unique_rating,666036,US_Cities_List/nat_westpalmbeach.png,,50,,,2,,,,,,,,,,,,,,,
null,,confidence_buffer,666145,confidence_buffer,,null,,,,,,,,,,,,,,,,,,
979,,pt2_memorable_rating,667124,US_Cities_List/nat_westpalmbeach.png,,52,,,4,,,,,,,,,,,,,,,
null,,confidence_buffer,667233,confidence_buffer,,null,,,,,,,,,,,,,,,,,,
1387,,recognition_phase,668621,US_Cities_List/nat_westpalmbeach.png,,52,,,,,,new,1,0.8695652173913043,,,,,,,,,,
null,,confidence_buffer,668733,confidence_buffer,,null,,,,,,,,,,,,,,,,,,
null,,thebreak,669236,break,,null,,,,,,,,,,,,,,,,,,
9209,,pt2_realistic_rating,678445,US_Cities_List/nat_carmel.png,,53,US_Cities_List/nat_carmel.png,NAT,5,,,,,,,,,,,,,,,
null,,confidence_buffer,678555,confidence_buffer,,null,,,,,,,,,,,,,,,,,,
1401,,pt2_unique_rating,679957,US_Cities_List/nat_carmel.png,,49,,,1,,,,,,,,,,,,,,,
null,,confidence_buffer,680071,confidence_buffer,,null,,,,,,,,,,,,,,,,,,
822,,pt2_memorable_rating,680893,US_Cities_List/nat_carmel.png,,50,,,2,,,,,,,,,,,,,,,
null,,confidence_buffer,681008,confidence_buffer,,null,,,,,,,,,,,,,,,,,,
1205,,recognition_phase,682213,US_Cities_List/nat_carmel.png,,49,,,,,,old,1,0.875,,,,,,,,,,
null,,confidence_buffer,682320,confidence_buffer,,null,,,,,,,,,,,,,,,,,,
null,,thebreak,682833,break,,null,,,,,,,,,,,,,,,,,,
2292,,pt2_realistic_rating,685125,Fictional_Cities_List/img_manmade_25.png,,49,Fictional_Cities_List/img_manmade_25.png,MM,1,,,,,,,,,,,,,,,
null,,confidence_buffer,685229,confidence_buffer,,null,,,,,,,,,,,,,,,,,,
991,,probe_rating,686221,probe_rating,,53,,,,5,1,,,,,,,,,,,,,
null,,confidence_buffer,686331,confidence_buffer,,null,,,,,,,,,,,,,,,,,,
3497,,pt2_unique_rating,689829,Fictional_Cities_List/img_manmade_25.png,,50,,,2,,,,,,,,,,,,,,,
null,,confidence_buffer,689931,confidence_buffer,,null,,,,,,,,,,,,,,,,,,
2074,,pt2_memorable_rating,692005,Fictional_Cities_List/img_manmade_25.png,,51,,,3,,,,,,,,,,,,,,,
null,,confidence_buffer,692109,confidence_buffer,,null,,,,,,,,,,,,,,,,,,
2440,,recognition_phase,694549,Fictional_Cities_List/img_manmade_25.png,,49,,,,,,old,1,0.88,,,,,,,,,,
null,,confidence_buffer,694655,confidence_buffer,,null,,,,,,,,,,,,,,,,,,
null,,thebreak,695170,break,,null,,,,,,,,,,,,,,,,,,
22771,,pt2_realistic_rating,717943,Fictional_Cities_List/img_manmade_31.png,,50,Fictional_Cities_List/img_manmade_31.png,MM,2,,,,,,,,,,,,,,,
null,,confidence_buffer,718056,confidence_buffer,,null,,,,,,,,,,,,,,,,,,
3837,,pt2_unique_rating,721894,Fictional_Cities_List/img_manmade_31.png,,49,,,1,,,,,,,,,,,,,,,
null,,confidence_buffer,721998,confidence_buffer,,null,,,,,,,,,,,,,,,,,,
2015,,pt2_memorable_rating,724014,Fictional_Cities_List/img_manmade_31.png,,50,,,2,,,,,,,,,,,,,,,
null,,confidence_buffer,724120,confidence_buffer,,null,,,,,,,,,,,,,,,,,,
1990,,recognition_phase,726110,Fictional_Cities_List/img_manmade_31.png,,52,,,,,,new,1,0.8846153846153846,,,,,,,,,,
null,,confidence_buffer,726225,confidence_buffer,,null,,,,,,,,,,,,,,,,,,
null,,thebreak,726739,break,,null,,,,,,,,,,,,,,,,,,
5563,,pt2_realistic_rating,732303,Fictional_Cities_List/img_natural_10.png,,50,Fictional_Cities_List/img_natural_10.png,NAT,2,,,,,,,,,,,,,,,
null,,confidence_buffer,732414,confidence_buffer,,null,,,,,,,,,,,,,,,,,,
2049,,pt2_unique_rating,734462,Fictional_Cities_List/img_natural_10.png,,50,,,2,,,,,,,,,,,,,,,
null,,confidence_buffer,734571,confidence_buffer,,null,,,,,,,,,,,,,,,,,,
963,,pt2_memorable_rating,735534,Fictional_Cities_List/img_natural_10.png,,51,,,3,,,,,,,,,,,,,,,
null,,confidence_buffer,735646,confidence_buffer,,null,,,,,,,,,,,,,,,,,,
1840,,recognition_phase,737487,Fictional_Cities_List/img_natural_10.png,,52,,,,,,new,1,0.8888888888888888,,,,,,,,,,
null,,confidence_buffer,737598,confidence_buffer,,null,,,,,,,,,,,,,,,,,,
null,,thebreak,738110,break,,null,,,,,,,,,,,,,,,,,,
6680,,pt2_realistic_rating,744790,US_Cities_List/mm_sitka.png,,53,US_Cities_List/mm_sitka.png,MM,5,,,,,,,,,,,,,,,
null,,confidence_buffer,744904,confidence_buffer,,null,,,,,,,,,,,,,,,,,,
16983,,pt2_unique_rating,761888,US_Cities_List/mm_sitka.png,,49,,,1,,,,,,,,,,,,,,,
null,,confidence_buffer,761989,confidence_buffer,,null,,,,,,,,,,,,,,,,,,
1930,,pt2_memorable_rating,763919,US_Cities_List/mm_sitka.png,,49,,,1,,,,,,,,,,,,,,,
null,,confidence_buffer,764029,confidence_buffer,,null,,,,,,,,,,,,,,,,,,
1219,,recognition_phase,765248,US_Cities_List/mm_sitka.png,,49,,,,,,old,1,0.8928571428571429,,,,,,,,,,
null,,confidence_buffer,765356,confidence_buffer,,null,,,,,,,,,,,,,,,,,,
null,,thebreak,765870,break,,null,,,,,,,,,,,,,,,,,,
5969,,pt2_realistic_rating,771840,Fictional_Cities_List/img_manmade_06.png,,52,Fictional_Cities_List/img_manmade_06.png,MM,4,,,,,,,,,,,,,,,
null,,confidence_buffer,771945,confidence_buffer,,null,,,,,,,,,,,,,,,,,,
1119,,pt2_unique_rating,773064,Fictional_Cities_List/img_manmade_06.png,,49,,,1,,,,,,,,,,,,,,,
null,,confidence_buffer,773174,confidence_buffer,,null,,,,,,,,,,,,,,,,,,
673,,pt2_memorable_rating,773847,Fictional_Cities_List/img_manmade_06.png,,49,,,1,,,,,,,,,,,,,,,
null,,confidence_buffer,773952,confidence_buffer,,null,,,,,,,,,,,,,,,,,,
2382,,recognition_phase,776335,Fictional_Cities_List/img_manmade_06.png,,52,,,,,,new,1,0.896551724137931,,,,,,,,,,
null,,confidence_buffer,776445,confidence_buffer,,null,,,,,,,,,,,,,,,,,,
null,,thebreak,776960,break,,null,,,,,,,,,,,,,,,,,,
10464,,pt2_realistic_rating,787424,Fictional_Cities_List/img_natural_21.png,,51,Fictional_Cities_List/img_natural_21.png,NAT,3,,,,,,,,,,,,,,,
null,,confidence_buffer,787530,confidence_buffer,,null,,,,,,,,,,,,,,,,,,
2806,,pt2_unique_rating,790336,Fictional_Cities_List/img_natural_21.png,,50,,,2,,,,,,,,,,,,,,,
null,,confidence_buffer,790452,confidence_buffer,,null,,,,,,,,,,,,,,,,,,
1019,,pt2_memorable_rating,791472,Fictional_Cities_List/img_natural_21.png,,51,,,3,,,,,,,,,,,,,,,
null,,confidence_buffer,791585,confidence_buffer,,null,,,,,,,,,,,,,,,,,,
3783,,recognition_phase,795369,Fictional_Cities_List/img_natural_21.png,,52,,,,,,new,1,0.9,,,,,,,,,,
null,,confidence_buffer,795482,confidence_buffer,,null,,,,,,,,,,,,,,,,,,
null,,thebreak,795992,break,,null,,,,,,,,,,,,,,,,,,
4936,,pt2_realistic_rating,800929,Fictional_Cities_List/img_manmade_10.png,,49,Fictional_Cities_List/img_manmade_10.png,MM,1,,,,,,,,,,,,,,,
null,,confidence_buffer,801038,confidence_buffer,,null,,,,,,,,,,,,,,,,,,
4763,,pt2_unique_rating,805801,Fictional_Cities_List/img_manmade_10.png,,50,,,2,,,,,,,,,,,,,,,
null,,confidence_buffer,805907,confidence_buffer,,null,,,,,,,,,,,,,,,,,,
10348,,pt2_memorable_rating,816257,Fictional_Cities_List/img_manmade_10.png,,51,,,3,,,,,,,,,,,,,,,
null,,confidence_buffer,816368,confidence_buffer,,null,,,,,,,,,,,,,,,,,,
1312,,recognition_phase,817681,Fictional_Cities_List/img_manmade_10.png,,52,,,,,,new,1,0.9032258064516129,,,,,,,,,,
null,,confidence_buffer,817786,confidence_buffer,,null,,,,,,,,,,,,,,,,,,
null,,thebreak,818298,break,,null,,,,,,,,,,,,,,,,,,
10439,,pt2_realistic_rating,828737,Fictional_Cities_List/img_natural_47.png,,50,Fictional_Cities_List/img_natural_47.png,NAT,2,,,,,,,,,,,,,,,
null,,confidence_buffer,828841,confidence_buffer,,null,,,,,,,,,,,,,,,,,,
1320,,pt2_unique_rating,830162,Fictional_Cities_List/img_natural_47.png,,49,,,1,,,,,,,,,,,,,,,
null,,confidence_buffer,830263,confidence_buffer,,null,,,,,,,,,,,,,,,,,,
1178,,pt2_memorable_rating,831441,Fictional_Cities_List/img_natural_47.png,,50,,,2,,,,,,,,,,,,,,,
null,,confidence_buffer,831543,confidence_buffer,,null,,,,,,,,,,,,,,,,,,
1594,,recognition_phase,833137,Fictional_Cities_List/img_natural_47.png,,52,,,,,,new,1,0.90625,,,,,,,,,,
null,,confidence_buffer,833239,confidence_buffer,,null,,,,,,,,,,,,,,,,,,
null,,thebreak,833740,break,,null,,,,,,,,,,,,,,,,,,
3845,,pt2_realistic_rating,837586,US_Cities_List/nat_peoria.png,,53,US_Cities_List/nat_peoria.png,NAT,5,,,,,,,,,,,,,,,
null,,confidence_buffer,837694,confidence_buffer,,null,,,,,,,,,,,,,,,,,,
1923,,pt2_unique_rating,839617,US_Cities_List/nat_peoria.png,,49,,,1,,,,,,,,,,,,,,,
null,,confidence_buffer,839730,confidence_buffer,,null,,,,,,,,,,,,,,,,,,
1079,,pt2_memorable_rating,840810,US_Cities_List/nat_peoria.png,,51,,,3,,,,,,,,,,,,,,,
null,,confidence_buffer,840917,confidence_buffer,,null,,,,,,,,,,,,,,,,,,
1019,,recognition_phase,841938,US_Cities_List/nat_peoria.png,,52,,,,,,new,1,0.9090909090909091,,,,,,,,,,
null,,confidence_buffer,842053,confidence_buffer,,null,,,,,,,,,,,,,,,,,,
null,,thebreak,842565,break,,null,,,,,,,,,,,,,,,,,,
4979,,pt2_realistic_rating,847546,Fictional_Cities_List/img_manmade_37.png,,49,Fictional_Cities_List/img_manmade_37.png,MM,1,,,,,,,,,,,,,,,
null,,confidence_buffer,847658,confidence_buffer,,null,,,,,,,,,,,,,,,,,,
3128,,pt2_unique_rating,850786,Fictional_Cities_List/img_manmade_37.png,,50,,,2,,,,,,,,,,,,,,,
null,,confidence_buffer,850897,confidence_buffer,,null,,,,,,,,,,,,,,,,,,
3360,,pt2_memorable_rating,854258,Fictional_Cities_List/img_manmade_37.png,,50,,,2,,,,,,,,,,,,,,,
null,,confidence_buffer,854360,confidence_buffer,,null,,,,,,,,,,,,,,,,,,
3346,,recognition_phase,857706,Fictional_Cities_List/img_manmade_37.png,,52,,,,,,new,0,0.8823529411764706,,,,,,,,,,
null,,confidence_buffer,857820,confidence_buffer,,null,,,,,,,,,,,,,,,,,,
null,,thebreak,858332,break,,null,,,,,,,,,,,,,,,,,,
16623,,pt2_realistic_rating,874956,Fictional_Cities_List/img_manmade_16.png,,50,Fictional_Cities_List/img_manmade_16.png,MM,2,,,,,,,,,,,,,,,
null,,confidence_buffer,875063,confidence_buffer,,null,,,,,,,,,,,,,,,,,,
1114,,pt2_unique_rating,876179,Fictional_Cities_List/img_manmade_16.png,,49,,,1,,,,,,,,,,,,,,,
null,,confidence_buffer,876293,confidence_buffer,,null,,,,,,,,,,,,,,,,,,
1132,,pt2_memorable_rating,877427,Fictional_Cities_List/img_manmade_16.png,,51,,,3,,,,,,,,,,,,,,,
null,,confidence_buffer,877538,confidence_buffer,,null,,,,,,,,,,,,,,,,,,
1104,,recognition_phase,878643,Fictional_Cities_List/img_manmade_16.png,,49,,,,,,old,1,0.8857142857142857,,,,,,,,,,
null,,confidence_buffer,878754,confidence_buffer,,null,,,,,,,,,,,,,,,,,,
null,,thebreak,879270,break,,null,,,,,,,,,,,,,,,,,,
41870,,pt2_realistic_rating,921140,US_Cities_List/nat_hilo.png,,50,US_Cities_List/nat_hilo.png,NAT,2,,,,,,,,,,,,,,,
null,,confidence_buffer,921244,confidence_buffer,,null,,,,,,,,,,,,,,,,,,
3360,,pt2_unique_rating,924604,US_Cities_List/nat_hilo.png,,49,,,1,,,,,,,,,,,,,,,
null,,confidence_buffer,924712,confidence_buffer,,null,,,,,,,,,,,,,,,,,,
1171,,pt2_memorable_rating,925884,US_Cities_List/nat_hilo.png,,50,,,2,,,,,,,,,,,,,,,
null,,confidence_buffer,925995,confidence_buffer,,null,,,,,,,,,,,,,,,,,,
2465,,recognition_phase,928460,US_Cities_List/nat_hilo.png,,51,,,,,,new,0,0.8611111111111112,,,,,,,,,,
null,,confidence_buffer,928563,confidence_buffer,,null,,,,,,,,,,,,,,,,,,
null,,thebreak,929065,break,,null,,,,,,,,,,,,,,,,,,
9579,,pt2_realistic_rating,938644,Fictional_Cities_List/img_natural_23.png,,50,Fictional_Cities_List/img_natural_23.png,NAT,2,,,,,,,,,,,,,,,
null,,confidence_buffer,938759,confidence_buffer,,null,,,,,,,,,,,,,,,,,,
1517,,pt2_unique_rating,940277,Fictional_Cities_List/img_natural_23.png,,50,,,2,,,,,,,,,,,,,,,
null,,confidence_buffer,940387,confidence_buffer,,null,,,,,,,,,,,,,,,,,,
1650,,pt2_memorable_rating,942037,Fictional_Cities_List/img_natural_23.png,,51,,,3,,,,,,,,,,,,,,,
null,,confidence_buffer,942148,confidence_buffer,,null,,,,,,,,,,,,,,,,,,
3880,,recognition_phase,946029,Fictional_Cities_List/img_natural_23.png,,51,,,,,,new,1,0.8648648648648649,,,,,,,,,,
null,,confidence_buffer,946144,confidence_buffer,,null,,,,,,,,,,,,,,,,,,
null,,thebreak,946659,break,,null,,,,,,,,,,,,,,,,,,
6209,,pt2_realistic_rating,952869,US_Cities_List/mm_carmel.png,,51,US_Cities_List/mm_carmel.png,MM,3,,,,,,,,,,,,,,,
null,,confidence_buffer,952970,confidence_buffer,,null,,,,,,,,,,,,,,,,,,
1899,,pt2_unique_rating,954869,US_Cities_List/mm_carmel.png,,50,,,2,,,,,,,,,,,,,,,
null,,confidence_buffer,954980,confidence_buffer,,null,,,,,,,,,,,,,,,,,,
3031,,pt2_memorable_rating,958012,US_Cities_List/mm_carmel.png,,51,,,3,,,,,,,,,,,,,,,
null,,confidence_buffer,958117,confidence_buffer,,null,,,,,,,,,,,,,,,,,,
1063,,recognition_phase,959182,US_Cities_List/mm_carmel.png,,52,,,,,,new,1,0.868421052631579,,,,,,,,,,
null,,confidence_buffer,959286,confidence_buffer,,null,,,,,,,,,,,,,,,,,,
null,,thebreak,959798,break,,null,,,,,,,,,,,,,,,,,,
6542,,pt2_realistic_rating,966342,Fictional_Cities_List/img_natural_31.png,,49,Fictional_Cities_List/img_natural_31.png,NAT,1,,,,,,,,,,,,,,,
null,,confidence_buffer,966455,confidence_buffer,,null,,,,,,,,,,,,,,,,,,
1957,,pt2_unique_rating,968413,Fictional_Cities_List/img_natural_31.png,,49,,,1,,,,,,,,,,,,,,,
null,,confidence_buffer,968527,confidence_buffer,,null,,,,,,,,,,,,,,,,,,
997,,pt2_memorable_rating,969525,Fictional_Cities_List/img_natural_31.png,,51,,,3,,,,,,,,,,,,,,,
null,,confidence_buffer,969628,confidence_buffer,,null,,,,,,,,,,,,,,,,,,
577,,recognition_phase,970205,Fictional_Cities_List/img_natural_31.png,,49,,,,,,old,1,0.8717948717948718,,,,,,,,,,
null,,confidence_buffer,970317,confidence_buffer,,null,,,,,,,,,,,,,,,,,,
null,,thebreak,970831,break,,null,,,,,,,,,,,,,,,,,,
7551,,pt2_realistic_rating,978383,Fictional_Cities_List/img_natural_16.png,,49,Fictional_Cities_List/img_natural_16.png,NAT,1,,,,,,,,,,,,,,,
null,,confidence_buffer,978499,confidence_buffer,,null,,,,,,,,,,,,,,,,,,
1354,,pt2_unique_rating,979853,Fictional_Cities_List/img_natural_16.png,,49,,,1,,,,,,,,,,,,,,,
null,,confidence_buffer,979963,confidence_buffer,,null,,,,,,,,,,,,,,,,,,
1730,,pt2_memorable_rating,981695,Fictional_Cities_List/img_natural_16.png,,51,,,3,,,,,,,,,,,,,,,
null,,confidence_buffer,981804,confidence_buffer,,null,,,,,,,,,,,,,,,,,,
1689,,recognition_phase,983494,Fictional_Cities_List/img_natural_16.png,,50,,,,,,old,1,0.875,,,,,,,,,,
null,,confidence_buffer,983597,confidence_buffer,,null,,,,,,,,,,,,,,,,,,
null,,thebreak,984110,break,,null,,,,,,,,,,,,,,,,,,
6816,,pt2_realistic_rating,990926,US_Cities_List/mm_cornwall.png,,52,US_Cities_List/mm_cornwall.png,MM,4,,,,,,,,,,,,,,,
null,,confidence_buffer,991030,confidence_buffer,,null,,,,,,,,,,,,,,,,,,
1321,,pt2_unique_rating,992351,US_Cities_List/mm_cornwall.png,,49,,,1,,,,,,,,,,,,,,,
null,,confidence_buffer,992464,confidence_buffer,,null,,,,,,,,,,,,,,,,,,
1004,,pt2_memorable_rating,993470,US_Cities_List/mm_cornwall.png,,49,,,1,,,,,,,,,,,,,,,
null,,confidence_buffer,993573,confidence_buffer,,null,,,,,,,,,,,,,,,,,,
5521,,recognition_phase,999095,US_Cities_List/mm_cornwall.png,,52,,,,,,new,1,0.8780487804878049,,,,,,,,,,
null,,confidence_buffer,999196,confidence_buffer,,null,,,,,,,,,,,,,,,,,,
null,,thebreak,999698,break,,null,,,,,,,,,,,,,,,,,,
6204,,pt2_realistic_rating,1005902,US_Cities_List/nat_sitka.png,,53,US_Cities_List/nat_sitka.png,NAT,5,,,,,,,,,,,,,,,
null,,confidence_buffer,1006019,confidence_buffer,,null,,,,,,,,,,,,,,,,,,
2052,,pt2_unique_rating,1008071,US_Cities_List/nat_sitka.png,,49,,,1,,,,,,,,,,,,,,,
null,,confidence_buffer,1008185,confidence_buffer,,null,,,,,,,,,,,,,,,,,,
1148,,pt2_memorable_rating,1009334,US_Cities_List/nat_sitka.png,,50,,,2,,,,,,,,,,,,,,,
null,,confidence_buffer,1009437,confidence_buffer,,null,,,,,,,,,,,,,,,,,,
1144,,probe_rating,1010583,probe_rating,,49,,,,1,1,,,,,,,,,,,,,
null,,confidence_buffer,1010688,confidence_buffer,,null,,,,,,,,,,,,,,,,,,
26040,,recognition_phase,1036728,US_Cities_List/nat_sitka.png,,51,,,,,,new,1,0.8809523809523809,,,,,,,,,,
null,,confidence_buffer,1036836,confidence_buffer,,null,,,,,,,,,,,,,,,,,,
null,,thebreak,1037349,break,,null,,,,,,,,,,,,,,,,,,
7386,,pt2_realistic_rating,1044735,Fictional_Cities_List/img_manmade_40.png,,51,Fictional_Cities_List/img_manmade_40.png,MM,3,,,,,,,,,,,,,,,
null,,confidence_buffer,1044843,confidence_buffer,,null,,,,,,,,,,,,,,,,,,
1475,,pt2_unique_rating,1046320,Fictional_Cities_List/img_manmade_40.png,,50,,,2,,,,,,,,,,,,,,,
null,,confidence_buffer,1046421,confidence_buffer,,null,,,,,,,,,,,,,,,,,,
682,,pt2_memorable_rating,1047104,Fictional_Cities_List/img_manmade_40.png,,51,,,3,,,,,,,,,,,,,,,
null,,confidence_buffer,1047219,confidence_buffer,,null,,,,,,,,,,,,,,,,,,
2661,,recognition_phase,1049880,Fictional_Cities_List/img_manmade_40.png,,52,,,,,,new,1,0.8837209302325582,,,,,,,,,,
null,,confidence_buffer,1049989,confidence_buffer,,null,,,,,,,,,,,,,,,,,,
null,,thebreak,1050499,break,,null,,,,,,,,,,,,,,,,,,
2973,,pt2_realistic_rating,1053472,Fictional_Cities_List/img_manmade_24.png,,53,Fictional_Cities_List/img_manmade_24.png,MM,5,,,,,,,,,,,,,,,
null,,confidence_buffer,1053580,confidence_buffer,,null,,,,,,,,,,,,,,,,,,
986,,probe_rating,1054568,probe_rating,,52,,,,4,1,,,,,,,,,,,,,
null,,confidence_buffer,1054671,confidence_buffer,,null,,,,,,,,,,,,,,,,,,
2721,,pt2_unique_rating,1057393,Fictional_Cities_List/img_manmade_24.png,,49,,,1,,,,,,,,,,,,,,,
null,,confidence_buffer,1057506,confidence_buffer,,null,,,,,,,,,,,,,,,,,,
590,,pt2_memorable_rating,1058096,Fictional_Cities_List/img_manmade_24.png,,49,,,1,,,,,,,,,,,,,,,
null,,confidence_buffer,1058208,confidence_buffer,,null,,,,,,,,,,,,,,,,,,
951,,recognition_phase,1059160,Fictional_Cities_List/img_manmade_24.png,,52,,,,,,new,1,0.8863636363636364,,,,,,,,,,
null,,confidence_buffer,1059269,confidence_buffer,,null,,,,,,,,,,,,,,,,,,
null,,thebreak,1059782,break,,null,,,,,,,,,,,,,,,,,,
13898,,pt2_realistic_rating,1073682,US_Cities_List/mm_delawarecity.png,,52,US_Cities_List/mm_delawarecity.png,MM,4,,,,,,,,,,,,,,,
null,,confidence_buffer,1073791,confidence_buffer,,null,,,,,,,,,,,,,,,,,,
7873,,pt2_unique_rating,1081665,US_Cities_List/mm_delawarecity.png,,49,,,1,,,,,,,,,,,,,,,
null,,confidence_buffer,1081776,confidence_buffer,,null,,,,,,,,,,,,,,,,,,
1553,,pt2_memorable_rating,1083329,US_Cities_List/mm_delawarecity.png,,50,,,2,,,,,,,,,,,,,,,
null,,confidence_buffer,1083440,confidence_buffer,,null,,,,,,,,,,,,,,,,,,
1263,,recognition_phase,1084705,US_Cities_List/mm_delawarecity.png,,52,,,,,,new,1,0.8888888888888888,,,,,,,,,,
null,,confidence_buffer,1084812,confidence_buffer,,null,,,,,,,,,,,,,,,,,,
null,,thebreak,1085326,break,,null,,,,,,,,,,,,,,,,,,
5852,,pt2_realistic_rating,1091178,Fictional_Cities_List/img_manmade_21.png,,52,Fictional_Cities_List/img_manmade_21.png,MM,4,,,,,,,,,,,,,,,
null,,confidence_buffer,1091294,confidence_buffer,,null,,,,,,,,,,,,,,,,,,
2875,,pt2_unique_rating,1094170,Fictional_Cities_List/img_manmade_21.png,,49,,,1,,,,,,,,,,,,,,,
null,,confidence_buffer,1094276,confidence_buffer,,null,,,,,,,,,,,,,,,,,,
3189,,pt2_memorable_rating,1097466,Fictional_Cities_List/img_manmade_21.png,,50,,,2,,,,,,,,,,,,,,,
null,,confidence_buffer,1097580,confidence_buffer,,null,,,,,,,,,,,,,,,,,,
4013,,recognition_phase,1101594,Fictional_Cities_List/img_manmade_21.png,,49,,,,,,old,1,0.8913043478260869,,,,,,,,,,
null,,confidence_buffer,1101708,confidence_buffer,,null,,,,,,,,,,,,,,,,,,
null,,thebreak,1102218,break,,null,,,,,,,,,,,,,,,,,,
2662,,pt2_realistic_rating,1104881,Fictional_Cities_List/img_natural_37.png,,53,Fictional_Cities_List/img_natural_37.png,NAT,5,,,,,,,,,,,,,,,
null,,confidence_buffer,1104989,confidence_buffer,,null,,,,,,,,,,,,,,,,,,
7246,,pt2_unique_rating,1112234,Fictional_Cities_List/img_natural_37.png,,49,,,1,,,,,,,,,,,,,,,
null,,confidence_buffer,1112336,confidence_buffer,,null,,,,,,,,,,,,,,,,,,
1521,,pt2_memorable_rating,1113858,Fictional_Cities_List/img_natural_37.png,,49,,,1,,,,,,,,,,,,,,,
null,,confidence_buffer,1113960,confidence_buffer,,null,,,,,,,,,,,,,,,,,,
1409,,recognition_phase,1115370,Fictional_Cities_List/img_natural_37.png,,49,,,,,,old,1,0.8936170212765957,,,,,,,,,,
null,,confidence_buffer,1115483,confidence_buffer,,null,,,,,,,,,,,,,,,,,,
null,,thebreak,1115995,break,,null,,,,,,,,,,,,,,,,,,
11030,,pt2_realistic_rating,1127026,Fictional_Cities_List/img_manmade_35.png,,50,Fictional_Cities_List/img_manmade_35.png,MM,2,,,,,,,,,,,,,,,
null,,confidence_buffer,1127132,confidence_buffer,,null,,,,,,,,,,,,,,,,,,
20863,,pt2_unique_rating,1147995,Fictional_Cities_List/img_manmade_35.png,,49,,,1,,,,,,,,,,,,,,,
null,,confidence_buffer,1148107,confidence_buffer,,null,,,,,,,,,,,,,,,,,,
1631,,pt2_memorable_rating,1149740,Fictional_Cities_List/img_manmade_35.png,,50,,,2,,,,,,,,,,,,,,,
null,,confidence_buffer,1149846,confidence_buffer,,null,,,,,,,,,,,,,,,,,,
1587,,recognition_phase,1151435,Fictional_Cities_List/img_manmade_35.png,,49,,,,,,old,1,0.8958333333333334,,,,,,,,,,
null,,confidence_buffer,1151541,confidence_buffer,,null,,,,,,,,,,,,,,,,,,
null,,thebreak,1152054,break,,null,,,,,,,,,,,,,,,,,,
22573,,pt2_realistic_rating,1174628,Fictional_Cities_List/img_natural_24.png,,49,Fictional_Cities_List/img_natural_24.png,NAT,1,,,,,,,,,,,,,,,
null,,confidence_buffer,1174729,confidence_buffer,,null,,,,,,,,,,,,,,,,,,
1514,,pt2_unique_rating,1176243,Fictional_Cities_List/img_natural_24.png,,50,,,2,,,,,,,,,,,,,,,
null,,confidence_buffer,1176352,confidence_buffer,,null,,,,,,,,,,,,,,,,,,
2796,,pt2_memorable_rating,1179148,Fictional_Cities_List/img_natural_24.png,,51,,,3,,,,,,,,,,,,,,,
null,,confidence_buffer,1179264,confidence_buffer,,null,,,,,,,,,,,,,,,,,,
803,,recognition_phase,1180068,Fictional_Cities_List/img_natural_24.png,,52,,,,,,new,1,0.8979591836734694,,,,,,,,,,
null,,confidence_buffer,1180179,confidence_buffer,,null,,,,,,,,,,,,,,,,,,
null,,thebreak,1180693,break,,null,,,,,,,,,,,,,,,,,,
4839,,pt2_realistic_rating,1185532,US_Cities_List/mm_westpalmbeach.png,,52,US_Cities_List/mm_westpalmbeach.png,MM,4,,,,,,,,,,,,,,,
null,,confidence_buffer,1185643,confidence_buffer,,null,,,,,,,,,,,,,,,,,,
5200,,pt2_unique_rating,1190844,US_Cities_List/mm_westpalmbeach.png,,49,,,1,,,,,,,,,,,,,,,
null,,confidence_buffer,1190957,confidence_buffer,,null,,,,,,,,,,,,,,,,,,
4118,,pt2_memorable_rating,1195077,US_Cities_List/mm_westpalmbeach.png,,51,,,3,,,,,,,,,,,,,,,
null,,confidence_buffer,1195193,confidence_buffer,,null,,,,,,,,,,,,,,,,,,
1210,,recognition_phase,1196404,US_Cities_List/mm_westpalmbeach.png,,49,,,,,,old,1,0.9,,,,,,,,,,
null,,confidence_buffer,1196516,confidence_buffer,,null,,,,,,,,,,,,,,,,,,
null,,thebreak,1197091,break,,null,,,,,,,,,,,,,,,,,,
3049,,pt2_realistic_rating,1200140,Fictional_Cities_List/img_manmade_05.png,,53,Fictional_Cities_List/img_manmade_05.png,MM,5,,,,,,,,,,,,,,,
null,,confidence_buffer,1200249,confidence_buffer,,null,,,,,,,,,,,,,,,,,,
5108,,pt2_unique_rating,1205357,Fictional_Cities_List/img_manmade_05.png,,50,,,2,,,,,,,,,,,,,,,
null,,confidence_buffer,1205462,confidence_buffer,,null,,,,,,,,,,,,,,,,,,
4630,,pt2_memorable_rating,1210093,Fictional_Cities_List/img_manmade_05.png,,50,,,2,,,,,,,,,,,,,,,
null,,confidence_buffer,1210205,confidence_buffer,,null,,,,,,,,,,,,,,,,,,
839,,probe_rating,1211045,probe_rating,,50,,,,2,1,,,,,,,,,,,,,
null,,confidence_buffer,1211156,confidence_buffer,,null,,,,,,,,,,,,,,,,,,
2417,,recognition_phase,1213573,Fictional_Cities_List/img_manmade_05.png,,49,,,,,,old,1,0.9019607843137255,,,,,,,,,,
null,,confidence_buffer,1213676,confidence_buffer,,null,,,,,,,,,,,,,,,,,,
null,,thebreak,1214177,break,,null,,,,,,,,,,,,,,,,,,
10637,,pt2_realistic_rating,1224814,US_Cities_List/nat_cornwall.png,,52,US_Cities_List/nat_cornwall.png,NAT,4,,,,,,,,,,,,,,,
null,,confidence_buffer,1224925,confidence_buffer,,null,,,,,,,,,,,,,,,,,,
3007,,pt2_unique_rating,1227934,US_Cities_List/nat_cornwall.png,,50,,,2,,,,,,,,,,,,,,,
null,,confidence_buffer,1228048,confidence_buffer,,null,,,,,,,,,,,,,,,,,,
2622,,pt2_memorable_rating,1230670,US_Cities_List/nat_cornwall.png,,51,,,3,,,,,,,,,,,,,,,
null,,confidence_buffer,1230778,confidence_buffer,,null,,,,,,,,,,,,,,,,,,
636,,recognition_phase,1231414,US_Cities_List/nat_cornwall.png,,52,,,,,,new,1,0.9038461538461539,,,,,,,,,,
null,,confidence_buffer,1231525,confidence_buffer,,null,,,,,,,,,,,,,,,,,,
null,,thebreak,1232040,break,,null,,,,,,,,,,,,,,,,,,
8885,,pt2_realistic_rating,1240926,Fictional_Cities_List/img_natural_43.png,,50,Fictional_Cities_List/img_natural_43.png,NAT,2,,,,,,,,,,,,,,,
null,,confidence_buffer,1241034,confidence_buffer,,null,,,,,,,,,,,,,,,,,,
4315,,pt2_unique_rating,1245350,Fictional_Cities_List/img_natural_43.png,,49,,,1,,,,,,,,,,,,,,,
null,,confidence_buffer,1245462,confidence_buffer,,null,,,,,,,,,,,,,,,,,,
1232,,pt2_memorable_rating,1246693,Fictional_Cities_List/img_natural_43.png,,51,,,3,,,,,,,,,,,,,,,
null,,confidence_buffer,1246802,confidence_buffer,,null,,,,,,,,,,,,,,,,,,
1043,,probe_rating,1247845,probe_rating,,52,,,,4,1,,,,,,,,,,,,,
null,,confidence_buffer,1247961,confidence_buffer,,null,,,,,,,,,,,,,,,,,,
1212,,recognition_phase,1249174,Fictional_Cities_List/img_natural_43.png,,49,,,,,,old,1,0.9056603773584906,,,,,,,,,,
null,,confidence_buffer,1249289,confidence_buffer,,null,,,,,,,,,,,,,,,,,,
null,,thebreak,1249846,break,,null,,,,,,,,,,,,,,,,,,
15857,,pt2_realistic_rating,1265703,Fictional_Cities_List/img_natural_35.png,,51,Fictional_Cities_List/img_natural_35.png,NAT,3,,,,,,,,,,,,,,,
null,,confidence_buffer,1265814,confidence_buffer,,null,,,,,,,,,,,,,,,,,,
1129,,pt2_unique_rating,1266942,Fictional_Cities_List/img_natural_35.png,,49,,,1,,,,,,,,,,,,,,,
null,,confidence_buffer,1267059,confidence_buffer,,null,,,,,,,,,,,,,,,,,,
1499,,pt2_memorable_rating,1268558,Fictional_Cities_List/img_natural_35.png,,50,,,2,,,,,,,,,,,,,,,
null,,confidence_buffer,1268665,confidence_buffer,,null,,,,,,,,,,,,,,,,,,
989,,probe_rating,1269654,probe_rating,,52,,,,4,1,,,,,,,,,,,,,
null,,confidence_buffer,1269769,confidence_buffer,,null,,,,,,,,,,,,,,,,,,
2981,,recognition_phase,1272750,Fictional_Cities_List/img_natural_35.png,,51,,,,,,new,0,0.8888888888888888,,,,,,,,,,
null,,confidence_buffer,1272851,confidence_buffer,,null,,,,,,,,,,,,,,,,,,
null,,thebreak,1273365,break,,null,,,,,,,,,,,,,,,,,,
12625,,pt2_realistic_rating,1285991,Fictional_Cities_List/img_natural_40.png,,51,Fictional_Cities_List/img_natural_40.png,NAT,3,,,,,,,,,,,,,,,
null,,confidence_buffer,1286097,confidence_buffer,,null,,,,,,,,,,,,,,,,,,
1572,,pt2_unique_rating,1287670,Fictional_Cities_List/img_natural_40.png,,49,,,1,,,,,,,,,,,,,,,
null,,confidence_buffer,1287771,confidence_buffer,,null,,,,,,,,,,,,,,,,,,
3547,,pt2_memorable_rating,1291319,Fictional_Cities_List/img_natural_40.png,,50,,,2,,,,,,,,,,,,,,,
null,,confidence_buffer,1291433,confidence_buffer,,null,,,,,,,,,,,,,,,,,,
1718,,recognition_phase,1293152,Fictional_Cities_List/img_natural_40.png,,51,,,,,,new,1,0.8909090909090909,,,,,,,,,,
null,,confidence_buffer,1293253,confidence_buffer,,null,,,,,,,,,,,,,,,,,,
null,,thebreak,1293765,break,,null,,,,,,,,,,,,,,,,,,
3937,,pt2_realistic_rating,1297703,US_Cities_List/nat_delawarecity.png,,53,US_Cities_List/nat_delawarecity.png,NAT,5,,,,,,,,,,,,,,,
null,,confidence_buffer,1297809,confidence_buffer,,null,,,,,,,,,,,,,,,,,,
1199,,pt2_unique_rating,1299008,US_Cities_List/nat_delawarecity.png,,49,,,1,,,,,,,,,,,,,,,
null,,confidence_buffer,1299116,confidence_buffer,,null,,,,,,,,,,,,,,,,,,
867,,pt2_memorable_rating,1299984,US_Cities_List/nat_delawarecity.png,,50,,,2,,,,,,,,,,,,,,,
null,,confidence_buffer,1300098,confidence_buffer,,null,,,,,,,,,,,,,,,,,,
3109,,recognition_phase,1303208,US_Cities_List/nat_delawarecity.png,,51,,,,,,new,0,0.875,,,,,,,,,,
null,,confidence_buffer,1303317,confidence_buffer,,null,,,,,,,,,,,,,,,,,,
null,,thebreak,1303831,break,,null,,,,,,,,,,,,,,,,,,
11673,,pt2_realistic_rating,1315505,US_Cities_List/nat_abilene.png,,51,US_Cities_List/nat_abilene.png,NAT,3,,,,,,,,,,,,,,,
null,,confidence_buffer,1315620,confidence_buffer,,null,,,,,,,,,,,,,,,,,,
3836,,pt2_unique_rating,1319456,US_Cities_List/nat_abilene.png,,50,,,2,,,,,,,,,,,,,,,
null,,confidence_buffer,1319562,confidence_buffer,,null,,,,,,,,,,,,,,,,,,
3383,,pt2_memorable_rating,1322945,US_Cities_List/nat_abilene.png,,51,,,3,,,,,,,,,,,,,,,
null,,confidence_buffer,1323053,confidence_buffer,,null,,,,,,,,,,,,,,,,,,
1299,,recognition_phase,1324353,US_Cities_List/nat_abilene.png,,52,,,,,,new,1,0.8771929824561403,,,,,,,,,,
null,,confidence_buffer,1324459,confidence_buffer,,null,,,,,,,,,,,,,,,,,,
null,,thebreak,1324972,break,,null,,,,,,,,,,,,,,,,,,
4645,,pt2_realistic_rating,1329617,US_Cities_List/nat_athens.png,,53,US_Cities_List/nat_athens.png,NAT,5,,,,,,,,,,,,,,,
null,,confidence_buffer,1329724,confidence_buffer,,null,,,,,,,,,,,,,,,,,,
7597,,pt2_unique_rating,1337321,US_Cities_List/nat_athens.png,,49,,,1,,,,,,,,,,,,,,,
null,,confidence_buffer,1337426,confidence_buffer,,null,,,,,,,,,,,,,,,,,,
2174,,pt2_memorable_rating,1339602,US_Cities_List/nat_athens.png,,50,,,2,,,,,,,,,,,,,,,
null,,confidence_buffer,1339716,confidence_buffer,,null,,,,,,,,,,,,,,,,,,
2363,,recognition_phase,1342081,US_Cities_List/nat_athens.png,,50,,,,,,old,1,0.8793103448275862,,,,,,,,,,
null,,confidence_buffer,1342195,confidence_buffer,,null,,,,,,,,,,,,,,,,,,
null,,thebreak,1342697,break,,null,,,,,,,,,,,,,,,,,,
10833,,pt2_realistic_rating,1353529,US_Cities_List/nat_okoboji.png,,51,US_Cities_List/nat_okoboji.png,NAT,3,,,,,,,,,,,,,,,
null,,confidence_buffer,1353635,confidence_buffer,,null,,,,,,,,,,,,,,,,,,
3119,,pt2_unique_rating,1356754,US_Cities_List/nat_okoboji.png,,50,,,2,,,,,,,,,,,,,,,
null,,confidence_buffer,1356862,confidence_buffer,,null,,,,,,,,,,,,,,,,,,
1851,,pt2_memorable_rating,1358714,US_Cities_List/nat_okoboji.png,,51,,,3,,,,,,,,,,,,,,,
null,,confidence_buffer,1358823,confidence_buffer,,null,,,,,,,,,,,,,,,,,,
1025,,recognition_phase,1359849,US_Cities_List/nat_okoboji.png,,52,,,,,,new,1,0.8813559322033898,,,,,,,,,,
null,,confidence_buffer,1359956,confidence_buffer,,null,,,,,,,,,,,,,,,,,,
null,,thebreak,1360472,break,,null,,,,,,,,,,,,,,,,,,
3193,,pt2_realistic_rating,1363665,US_Cities_List/mm_abilene.png,,53,US_Cities_List/mm_abilene.png,MM,5,,,,,,,,,,,,,,,
null,,confidence_buffer,1363768,confidence_buffer,,null,,,,,,,,,,,,,,,,,,
3905,,pt2_unique_rating,1367674,US_Cities_List/mm_abilene.png,,49,,,1,,,,,,,,,,,,,,,
null,,confidence_buffer,1367789,confidence_buffer,,null,,,,,,,,,,,,,,,,,,
3349,,pt2_memorable_rating,1371138,US_Cities_List/mm_abilene.png,,50,,,2,,,,,,,,,,,,,,,
null,,confidence_buffer,1371251,confidence_buffer,,null,,,,,,,,,,,,,,,,,,
1214,,recognition_phase,1372465,US_Cities_List/mm_abilene.png,,52,,,,,,new,1,0.8833333333333333,,,,,,,,,,
null,,confidence_buffer,1372575,confidence_buffer,,null,,,,,,,,,,,,,,,,,,
null,,thebreak,1373148,break,,null,,,,,,,,,,,,,,,,,,
,,survey,1726741,survey-questions,,,,,,,,,,,none,high,I declined one UberEats order during the second portion,I didn't use any strategies I just remembered what I did.,5 if I knew what it was (Stonehenge), 1 if I didn't, 2 (or 3 maybe) if it was vague enough to be multiple cities,Whatever I liked personally, usually landscapes,Lowest unless the image was really something I've never seen before or the photo looked like it was taken from a hard-to-reach angle.,Photos that looked too pristine lost points. Also they lost points if it was obviously digitally made. The only photos that got a 4 or 5 looked naturally flawed and were in easy-to-access spaces.,no,
