rt,responses,trial_type,time_elapsed,stimulus,button_pressed,key_press,name_trial,city_type,rating,probe,probe_accuracy,response,correct,accuracy,problems,smooth,distraction,strategies,familiar,memorable,unique,realistic,similar,comments
26445.599999964237,{worker_id:67f2b914d702155cbc0a3a2c},id_enter,26450,,,,,,,,,,,,,,,,,,,,,
12600.099999964237,,fullscreen,39055,fullscreen,0,,,,,,,,,,,,,,,,,,,
20761.5,,intro_0,59826,instruct,,32,,,,,,,,,,,,,,,,,,
15062.799999952316,,intro_1,74890,instruct,,32,,,,,,,,,,,,,,,,,,
10169,,intro_2,85060,instruct,,32,,,,,,,,,,,,,,,,,,
null,,instruct_dir_4,86562,instruct,,null,,,,,,,,,,,,,,,,,,
null,,thebreak,87063,break,,null,,,,,,,,,,,,,,,,,,
7958.300000011921,,familiar_rating,95022,Berkeley Springs,,49,Berkeley Springs,US,1,,,,,,,,,,,,,,,
null,,confidence_buffer,95125,confidence_buffer,,null,,,,,,,,,,,,,,,,,,
5944.600000023842,,unique_rating,101070,Berkeley Springs,,51,,,3,,,,,,,,,,,,,,,
null,,confidence_buffer,101173,confidence_buffer,,null,,,,,,,,,,,,,,,,,,
2635.400000035763,,memorable_rating,103809,Berkeley Springs,,52,,,4,,,,,,,,,,,,,,,
null,,confidence_buffer,103911,confidence_buffer,,null,,,,,,,,,,,,,,,,,,
null,,thebreak,104413,break,,null,,,,,,,,,,,,,,,,,,
2860.699999988079,,familiar_rating,107275,Rosehollow,,49,Rosehollow,Fictional,1,,,,,,,,,,,,,,,
null,,confidence_buffer,107376,confidence_buffer,,null,,,,,,,,,,,,,,,,,,
2900.100000023842,,unique_rating,110278,Rosehollow,,52,,,4,,,,,,,,,,,,,,,
null,,confidence_buffer,110379,confidence_buffer,,null,,,,,,,,,,,,,,,,,,
5196.099999964237,,probe_rating,115576,probe_rating,,50,,,,2,1,,,,,,,,,,,,,
null,,confidence_buffer,115692,confidence_buffer,,null,,,,,,,,,,,,,,,,,,
3577.699999988079,,memorable_rating,119271,Rosehollow,,53,,,5,,,,,,,,,,,,,,,
null,,confidence_buffer,119373,confidence_buffer,,null,,,,,,,,,,,,,,,,,,
null,,thebreak,119875,break,,null,,,,,,,,,,,,,,,,,,
6584.400000035763,,familiar_rating,126461,Riverlyn,,49,Riverlyn,Fictional,1,,,,,,,,,,,,,,,
null,,confidence_buffer,126564,confidence_buffer,,null,,,,,,,,,,,,,,,,,,
4860.400000035763,,unique_rating,131426,Riverlyn,,53,,,5,,,,,,,,,,,,,,,
null,,confidence_buffer,131528,confidence_buffer,,null,,,,,,,,,,,,,,,,,,
1985.5,,memorable_rating,133514,Riverlyn,,53,,,5,,,,,,,,,,,,,,,
null,,confidence_buffer,133615,confidence_buffer,,null,,,,,,,,,,,,,,,,,,
null,,thebreak,134116,break,,null,,,,,,,,,,,,,,,,,,
4229.300000011921,,familiar_rating,138347,Orr,,49,Orr,US,1,,,,,,,,,,,,,,,
null,,confidence_buffer,138448,confidence_buffer,,null,,,,,,,,,,,,,,,,,,
4269.300000011921,,unique_rating,142718,Orr,,51,,,3,,,,,,,,,,,,,,,
null,,confidence_buffer,142820,confidence_buffer,,null,,,,,,,,,,,,,,,,,,
4756.100000023842,,memorable_rating,147577,Orr,,53,,,5,,,,,,,,,,,,,,,
null,,confidence_buffer,147684,confidence_buffer,,null,,,,,,,,,,,,,,,,,,
null,,thebreak,148186,break,,null,,,,,,,,,,,,,,,,,,
2756.699999988079,,familiar_rating,150943,Ashford Hills,,49,Ashford Hills,Fictional,1,,,,,,,,,,,,,,,
null,,confidence_buffer,151046,confidence_buffer,,null,,,,,,,,,,,,,,,,,,
2818.099999964237,,unique_rating,153865,Ashford Hills,,50,,,2,,,,,,,,,,,,,,,
null,,confidence_buffer,153966,confidence_buffer,,null,,,,,,,,,,,,,,,,,,
9509.199999988079,,memorable_rating,163476,Ashford Hills,,51,,,3,,,,,,,,,,,,,,,
null,,confidence_buffer,163578,confidence_buffer,,null,,,,,,,,,,,,,,,,,,
null,,thebreak,164080,break,,null,,,,,,,,,,,,,,,,,,
7981.5,,familiar_rating,172062,Driftwood Bay,,50,Driftwood Bay,Fictional,2,,,,,,,,,,,,,,,
null,,confidence_buffer,172164,confidence_buffer,,null,,,,,,,,,,,,,,,,,,
4467.399999976158,,unique_rating,176632,Driftwood Bay,,50,,,2,,,,,,,,,,,,,,,
null,,confidence_buffer,176733,confidence_buffer,,null,,,,,,,,,,,,,,,,,,
4581.300000011921,,memorable_rating,181316,Driftwood Bay,,52,,,4,,,,,,,,,,,,,,,
null,,confidence_buffer,181418,confidence_buffer,,null,,,,,,,,,,,,,,,,,,
null,,thebreak,181920,break,,null,,,,,,,,,,,,,,,,,,
5461.5,,familiar_rating,187382,Millstone,,49,Millstone,Fictional,1,,,,,,,,,,,,,,,
null,,confidence_buffer,187484,confidence_buffer,,null,,,,,,,,,,,,,,,,,,
3917.199999988079,,unique_rating,191402,Millstone,,51,,,3,,,,,,,,,,,,,,,
null,,confidence_buffer,191503,confidence_buffer,,null,,,,,,,,,,,,,,,,,,
3526.800000011921,,memorable_rating,195031,Millstone,,52,,,4,,,,,,,,,,,,,,,
null,,confidence_buffer,195133,confidence_buffer,,null,,,,,,,,,,,,,,,,,,
null,,thebreak,195634,break,,null,,,,,,,,,,,,,,,,,,
4981.099999964237,,familiar_rating,200616,Cornwall,,51,Cornwall,US,3,,,,,,,,,,,,,,,
null,,confidence_buffer,200730,confidence_buffer,,null,,,,,,,,,,,,,,,,,,
3165.100000023842,,unique_rating,203896,Cornwall,,49,,,1,,,,,,,,,,,,,,,
null,,confidence_buffer,203997,confidence_buffer,,null,,,,,,,,,,,,,,,,,,
3391.600000023842,,memorable_rating,207390,Cornwall,,51,,,3,,,,,,,,,,,,,,,
null,,confidence_buffer,207491,confidence_buffer,,null,,,,,,,,,,,,,,,,,,
null,,thebreak,207993,break,,null,,,,,,,,,,,,,,,,,,
5929.399999976158,,familiar_rating,213924,Sitka,,49,Sitka,US,1,,,,,,,,,,,,,,,
null,,confidence_buffer,214025,confidence_buffer,,null,,,,,,,,,,,,,,,,,,
4853.699999988079,,unique_rating,218880,Sitka,,51,,,3,,,,,,,,,,,,,,,
null,,confidence_buffer,218983,confidence_buffer,,null,,,,,,,,,,,,,,,,,,
2373.599999964237,,memorable_rating,221357,Sitka,,53,,,5,,,,,,,,,,,,,,,
null,,confidence_buffer,221459,confidence_buffer,,null,,,,,,,,,,,,,,,,,,
null,,thebreak,221961,break,,null,,,,,,,,,,,,,,,,,,
6002.900000035763,,familiar_rating,227964,Maplehurst,,49,Maplehurst,Fictional,1,,,,,,,,,,,,,,,
null,,confidence_buffer,228067,confidence_buffer,,null,,,,,,,,,,,,,,,,,,
5295.700000047684,,unique_rating,233364,Maplehurst,,52,,,4,,,,,,,,,,,,,,,
null,,confidence_buffer,233465,confidence_buffer,,null,,,,,,,,,,,,,,,,,,
5701.100000023842,,probe_rating,239167,probe_rating,,52,,,,4,1,,,,,,,,,,,,,
null,,confidence_buffer,239269,confidence_buffer,,null,,,,,,,,,,,,,,,,,,
4451.899999976158,,memorable_rating,243722,Maplehurst,,52,,,4,,,,,,,,,,,,,,,
null,,confidence_buffer,243824,confidence_buffer,,null,,,,,,,,,,,,,,,,,,
null,,thebreak,244324,break,,null,,,,,,,,,,,,,,,,,,
6786.899999976158,,familiar_rating,251112,Lake of the Ozarks,,50,Lake of the Ozarks,US,2,,,,,,,,,,,,,,,
null,,confidence_buffer,251214,confidence_buffer,,null,,,,,,,,,,,,,,,,,,
3224.199999988079,,unique_rating,254440,Lake of the Ozarks,,50,,,2,,,,,,,,,,,,,,,
null,,confidence_buffer,254541,confidence_buffer,,null,,,,,,,,,,,,,,,,,,
2350.899999976158,,memorable_rating,256892,Lake of the Ozarks,,53,,,5,,,,,,,,,,,,,,,
null,,confidence_buffer,256993,confidence_buffer,,null,,,,,,,,,,,,,,,,,,
null,,thebreak,257495,break,,null,,,,,,,,,,,,,,,,,,
6160.300000011921,,familiar_rating,263656,Crestwood,,50,Crestwood,Fictional,2,,,,,,,,,,,,,,,
null,,confidence_buffer,263770,confidence_buffer,,null,,,,,,,,,,,,,,,,,,
4034.099999964237,,unique_rating,267805,Crestwood,,51,,,3,,,,,,,,,,,,,,,
null,,confidence_buffer,267906,confidence_buffer,,null,,,,,,,,,,,,,,,,,,
6333.5,,memorable_rating,274241,Crestwood,,53,,,5,,,,,,,,,,,,,,,
null,,confidence_buffer,274342,confidence_buffer,,null,,,,,,,,,,,,,,,,,,
null,,thebreak,274843,break,,null,,,,,,,,,,,,,,,,,,
3921.199999988079,,familiar_rating,278765,Racine,,49,Racine,US,1,,,,,,,,,,,,,,,
null,,confidence_buffer,278867,confidence_buffer,,null,,,,,,,,,,,,,,,,,,
3282.599999964237,,unique_rating,282151,Racine,,53,,,5,,,,,,,,,,,,,,,
null,,confidence_buffer,282252,confidence_buffer,,null,,,,,,,,,,,,,,,,,,
3770.899999976158,,memorable_rating,286024,Racine,,52,,,4,,,,,,,,,,,,,,,
null,,confidence_buffer,286125,confidence_buffer,,null,,,,,,,,,,,,,,,,,,
null,,thebreak,286626,break,,null,,,,,,,,,,,,,,,,,,
5374.5,,familiar_rating,292001,Cody,,50,Cody,US,2,,,,,,,,,,,,,,,
null,,confidence_buffer,292103,confidence_buffer,,null,,,,,,,,,,,,,,,,,,
2915.300000011921,,unique_rating,295019,Cody,,49,,,1,,,,,,,,,,,,,,,
null,,confidence_buffer,295122,confidence_buffer,,null,,,,,,,,,,,,,,,,,,
5737.800000011921,,memorable_rating,300860,Cody,,52,,,4,,,,,,,,,,,,,,,
null,,confidence_buffer,300963,confidence_buffer,,null,,,,,,,,,,,,,,,,,,
null,,thebreak,301464,break,,null,,,,,,,,,,,,,,,,,,
3765.800000011921,,familiar_rating,305230,Clearbrook,,51,Clearbrook,Fictional,3,,,,,,,,,,,,,,,
null,,confidence_buffer,305333,confidence_buffer,,null,,,,,,,,,,,,,,,,,,
4399.100000023842,,unique_rating,309733,Clearbrook,,49,,,1,,,,,,,,,,,,,,,
null,,confidence_buffer,309834,confidence_buffer,,null,,,,,,,,,,,,,,,,,,
1908.6000000238419,,memorable_rating,311743,Clearbrook,,51,,,3,,,,,,,,,,,,,,,
null,,confidence_buffer,311845,confidence_buffer,,null,,,,,,,,,,,,,,,,,,
null,,thebreak,312346,break,,null,,,,,,,,,,,,,,,,,,
6570.600000023842,,familiar_rating,318918,Pine Hollow,,50,Pine Hollow,Fictional,2,,,,,,,,,,,,,,,
null,,confidence_buffer,319020,confidence_buffer,,null,,,,,,,,,,,,,,,,,,
3684.599999964237,,unique_rating,322705,Pine Hollow,,50,,,2,,,,,,,,,,,,,,,
null,,confidence_buffer,322808,confidence_buffer,,null,,,,,,,,,,,,,,,,,,
3029.399999976158,,memorable_rating,325838,Pine Hollow,,51,,,3,,,,,,,,,,,,,,,
null,,confidence_buffer,325946,confidence_buffer,,null,,,,,,,,,,,,,,,,,,
null,,thebreak,326447,break,,null,,,,,,,,,,,,,,,,,,
9627.599999964237,,familiar_rating,336076,Maravilla Springs,,49,Maravilla Springs,Fictional,1,,,,,,,,,,,,,,,
null,,confidence_buffer,336178,confidence_buffer,,null,,,,,,,,,,,,,,,,,,
2448.699999988079,,unique_rating,338627,Maravilla Springs,,49,,,1,,,,,,,,,,,,,,,
null,,confidence_buffer,338729,confidence_buffer,,null,,,,,,,,,,,,,,,,,,
2403.599999964237,,memorable_rating,341134,Maravilla Springs,,51,,,3,,,,,,,,,,,,,,,
null,,confidence_buffer,341235,confidence_buffer,,null,,,,,,,,,,,,,,,,,,
null,,thebreak,341736,break,,null,,,,,,,,,,,,,,,,,,
7958.600000023842,,familiar_rating,349696,Stonebrook,,50,Stonebrook,Fictional,2,,,,,,,,,,,,,,,
null,,confidence_buffer,349797,confidence_buffer,,null,,,,,,,,,,,,,,,,,,
4825.799999952316,,unique_rating,354624,Stonebrook,,49,,,1,,,,,,,,,,,,,,,
null,,confidence_buffer,354726,confidence_buffer,,null,,,,,,,,,,,,,,,,,,
6333.400000035763,,memorable_rating,361060,Stonebrook,,50,,,2,,,,,,,,,,,,,,,
null,,confidence_buffer,361162,confidence_buffer,,null,,,,,,,,,,,,,,,,,,
null,,thebreak,361663,break,,null,,,,,,,,,,,,,,,,,,
4650.899999976158,,familiar_rating,366315,Coeur d'Alene,,49,Coeur d'Alene,US,1,,,,,,,,,,,,,,,
null,,confidence_buffer,366417,confidence_buffer,,null,,,,,,,,,,,,,,,,,,
2609.199999988079,,unique_rating,369027,Coeur d'Alene,,51,,,3,,,,,,,,,,,,,,,
null,,confidence_buffer,369143,confidence_buffer,,null,,,,,,,,,,,,,,,,,,
2157.199999988079,,memorable_rating,371301,Coeur d'Alene,,52,,,4,,,,,,,,,,,,,,,
null,,confidence_buffer,371403,confidence_buffer,,null,,,,,,,,,,,,,,,,,,
null,,thebreak,371904,break,,null,,,,,,,,,,,,,,,,,,
4838,,familiar_rating,376743,Natchez,,49,Natchez,US,1,,,,,,,,,,,,,,,
null,,confidence_buffer,376845,confidence_buffer,,null,,,,,,,,,,,,,,,,,,
4135.699999988079,,unique_rating,380981,Natchez,,52,,,4,,,,,,,,,,,,,,,
null,,confidence_buffer,381084,confidence_buffer,,null,,,,,,,,,,,,,,,,,,
1891.5,,memorable_rating,382976,Natchez,,53,,,5,,,,,,,,,,,,,,,
null,,confidence_buffer,383077,confidence_buffer,,null,,,,,,,,,,,,,,,,,,
null,,thebreak,383580,break,,null,,,,,,,,,,,,,,,,,,
3125.800000011921,,familiar_rating,386707,Ravenport,,50,Ravenport,Fictional,2,,,,,,,,,,,,,,,
null,,confidence_buffer,386813,confidence_buffer,,null,,,,,,,,,,,,,,,,,,
4834.699999988079,,unique_rating,391649,Ravenport,,50,,,2,,,,,,,,,,,,,,,
null,,confidence_buffer,391751,confidence_buffer,,null,,,,,,,,,,,,,,,,,,
2898.199999988079,,memorable_rating,394650,Ravenport,,51,,,3,,,,,,,,,,,,,,,
null,,confidence_buffer,394752,confidence_buffer,,null,,,,,,,,,,,,,,,,,,
null,,thebreak,395268,break,,null,,,,,,,,,,,,,,,,,,
3294.5,,familiar_rating,398563,Hot Springs,,50,Hot Springs,US,2,,,,,,,,,,,,,,,
null,,confidence_buffer,398665,confidence_buffer,,null,,,,,,,,,,,,,,,,,,
3028.800000011921,,unique_rating,401695,Hot Springs,,49,,,1,,,,,,,,,,,,,,,
null,,confidence_buffer,401812,confidence_buffer,,null,,,,,,,,,,,,,,,,,,
3711.300000011921,,memorable_rating,405524,Hot Springs,,50,,,2,,,,,,,,,,,,,,,
null,,confidence_buffer,405625,confidence_buffer,,null,,,,,,,,,,,,,,,,,,
null,,thebreak,406126,break,,null,,,,,,,,,,,,,,,,,,
8844.199999988079,,familiar_rating,414972,Bayshore Haven,,49,Bayshore Haven,Fictional,1,,,,,,,,,,,,,,,
null,,confidence_buffer,415073,confidence_buffer,,null,,,,,,,,,,,,,,,,,,
4595.100000023842,,unique_rating,419669,Bayshore Haven,,51,,,3,,,,,,,,,,,,,,,
null,,confidence_buffer,419771,confidence_buffer,,null,,,,,,,,,,,,,,,,,,
5352.699999988079,,probe_rating,425124,probe_rating,,53,,,,5,1,,,,,,,,,,,,,
null,,confidence_buffer,425226,confidence_buffer,,null,,,,,,,,,,,,,,,,,,
9927.399999976158,,memorable_rating,435154,Bayshore Haven,,51,,,3,,,,,,,,,,,,,,,
null,,confidence_buffer,435255,confidence_buffer,,null,,,,,,,,,,,,,,,,,,
null,,thebreak,435756,break,,null,,,,,,,,,,,,,,,,,,
4506.599999964237,,familiar_rating,440264,Delaro Park,,49,Delaro Park,Fictional,1,,,,,,,,,,,,,,,
null,,confidence_buffer,440365,confidence_buffer,,null,,,,,,,,,,,,,,,,,,
1866,,unique_rating,442232,Delaro Park,,51,,,3,,,,,,,,,,,,,,,
null,,confidence_buffer,442333,confidence_buffer,,null,,,,,,,,,,,,,,,,,,
1966.4000000357628,,memorable_rating,444301,Delaro Park,,52,,,4,,,,,,,,,,,,,,,
null,,confidence_buffer,444403,confidence_buffer,,null,,,,,,,,,,,,,,,,,,
null,,thebreak,444904,break,,null,,,,,,,,,,,,,,,,,,
5734.600000023842,,familiar_rating,450640,Redgrove,,49,Redgrove,Fictional,1,,,,,,,,,,,,,,,
null,,confidence_buffer,450741,confidence_buffer,,null,,,,,,,,,,,,,,,,,,
2836.099999964237,,unique_rating,453579,Redgrove,,51,,,3,,,,,,,,,,,,,,,
null,,confidence_buffer,453681,confidence_buffer,,null,,,,,,,,,,,,,,,,,,
2112.800000011921,,memorable_rating,455794,Redgrove,,51,,,3,,,,,,,,,,,,,,,
null,,confidence_buffer,455896,confidence_buffer,,null,,,,,,,,,,,,,,,,,,
null,,thebreak,456397,break,,null,,,,,,,,,,,,,,,,,,
2428.400000035763,,familiar_rating,458827,Boulder,,51,Boulder,US,3,,,,,,,,,,,,,,,
null,,confidence_buffer,458928,confidence_buffer,,null,,,,,,,,,,,,,,,,,,
2538,,unique_rating,461467,Boulder,,49,,,1,,,,,,,,,,,,,,,
null,,confidence_buffer,461579,confidence_buffer,,null,,,,,,,,,,,,,,,,,,
3962.199999988079,,memorable_rating,465543,Boulder,,51,,,3,,,,,,,,,,,,,,,
null,,confidence_buffer,465643,confidence_buffer,,null,,,,,,,,,,,,,,,,,,
null,,thebreak,466144,break,,null,,,,,,,,,,,,,,,,,,
2880.5,,familiar_rating,469026,Leesburg,,50,Leesburg,US,2,,,,,,,,,,,,,,,
null,,confidence_buffer,469127,confidence_buffer,,null,,,,,,,,,,,,,,,,,,
8242.899999976158,,unique_rating,477371,Leesburg,,50,,,2,,,,,,,,,,,,,,,
null,,confidence_buffer,477472,confidence_buffer,,null,,,,,,,,,,,,,,,,,,
2496.600000023842,,memorable_rating,479969,Leesburg,,51,,,3,,,,,,,,,,,,,,,
null,,confidence_buffer,480071,confidence_buffer,,null,,,,,,,,,,,,,,,,,,
4012.800000011921,,probe_rating,484084,probe_rating,,50,,,,2,1,,,,,,,,,,,,,
null,,confidence_buffer,484186,confidence_buffer,,null,,,,,,,,,,,,,,,,,,
null,,thebreak,484687,break,,null,,,,,,,,,,,,,,,,,,
4518.100000023842,,familiar_rating,489206,Custer,,49,Custer,US,1,,,,,,,,,,,,,,,
null,,confidence_buffer,489307,confidence_buffer,,null,,,,,,,,,,,,,,,,,,
6990,,unique_rating,496298,Custer,,51,,,3,,,,,,,,,,,,,,,
null,,confidence_buffer,496400,confidence_buffer,,null,,,,,,,,,,,,,,,,,,
3238.399999976158,,memorable_rating,499639,Custer,,52,,,4,,,,,,,,,,,,,,,
null,,confidence_buffer,499741,confidence_buffer,,null,,,,,,,,,,,,,,,,,,
null,,thebreak,500243,break,,null,,,,,,,,,,,,,,,,,,
4213.099999964237,,familiar_rating,504457,Carmel,,49,Carmel,US,1,,,,,,,,,,,,,,,
null,,confidence_buffer,504559,confidence_buffer,,null,,,,,,,,,,,,,,,,,,
3531.599999964237,,unique_rating,508091,Carmel,,50,,,2,,,,,,,,,,,,,,,
null,,confidence_buffer,508193,confidence_buffer,,null,,,,,,,,,,,,,,,,,,
6188.300000011921,,probe_rating,514382,probe_rating,,53,,,,5,1,,,,,,,,,,,,,
null,,confidence_buffer,514483,confidence_buffer,,null,,,,,,,,,,,,,,,,,,
3102.899999976158,,memorable_rating,517587,Carmel,,52,,,4,,,,,,,,,,,,,,,
null,,confidence_buffer,517698,confidence_buffer,,null,,,,,,,,,,,,,,,,,,
null,,thebreak,518200,break,,null,,,,,,,,,,,,,,,,,,
4899.600000023842,,familiar_rating,523101,Sammamish,,49,Sammamish,US,1,,,,,,,,,,,,,,,
null,,confidence_buffer,523203,confidence_buffer,,null,,,,,,,,,,,,,,,,,,
3071.100000023842,,unique_rating,526275,Sammamish,,51,,,3,,,,,,,,,,,,,,,
null,,confidence_buffer,526377,confidence_buffer,,null,,,,,,,,,,,,,,,,,,
3261.600000023842,,memorable_rating,529639,Sammamish,,52,,,4,,,,,,,,,,,,,,,
null,,confidence_buffer,529741,confidence_buffer,,null,,,,,,,,,,,,,,,,,,
null,,thebreak,530244,break,,null,,,,,,,,,,,,,,,,,,
7291.800000011921,,intro_0,537536,instruct,,32,,,,,,,,,,,,,,,,,,
10715.200000047684,,intro_1,548252,instruct,,32,,,,,,,,,,,,,,,,,,
27130.19999998808,,intro_2,575383,instruct,,32,,,,,,,,,,,,,,,,,,
null,,instruct_dir_4,576885,instruct,,null,,,,,,,,,,,,,,,,,,
7446.800000011921,,realistic_rating,584333,Redgrove,,51,Redgrove,Fictional,3,,,,,,,,,,,,,,,
null,,confidence_buffer,584435,confidence_buffer,,null,,,,,,,,,,,,,,,,,,
5441.900000035763,,pt2_unique_rating,589878,Redgrove,,50,,,2,,,,,,,,,,,,,,,
null,,confidence_buffer,589980,confidence_buffer,,null,,,,,,,,,,,,,,,,,,
2988.699999988079,,pt2_memorable_rating,592970,Redgrove,,52,,,4,,,,,,,,,,,,,,,
null,,confidence_buffer,593071,confidence_buffer,,null,,,,,,,,,,,,,,,,,,
3989.600000023842,,probe_rating,597062,probe_rating,,51,,,,3,1,,,,,,,,,,,,,
null,,confidence_buffer,597163,confidence_buffer,,null,,,,,,,,,,,,,,,,,,
5772.700000047684,,recognition_phase,602937,Redgrove,,49,,,,,,old,1,1,,,,,,,,,,
null,,confidence_buffer,603039,confidence_buffer,,null,,,,,,,,,,,,,,,,,,
null,,thebreak,603550,break,,null,,,,,,,,,,,,,,,,,,
10623.5,,realistic_rating,614175,Tamarisk Hills,,52,Tamarisk Hills,Fictional,4,,,,,,,,,,,,,,,
null,,confidence_buffer,614276,confidence_buffer,,null,,,,,,,,,,,,,,,,,,
7169.600000023842,,pt2_unique_rating,621447,Tamarisk Hills,,51,,,3,,,,,,,,,,,,,,,
null,,confidence_buffer,621557,confidence_buffer,,null,,,,,,,,,,,,,,,,,,
3663.900000035763,,pt2_memorable_rating,625222,Tamarisk Hills,,52,,,4,,,,,,,,,,,,,,,
null,,confidence_buffer,625324,confidence_buffer,,null,,,,,,,,,,,,,,,,,,
5658,,probe_rating,630983,probe_rating,,51,,,,3,1,,,,,,,,,,,,,
null,,confidence_buffer,631085,confidence_buffer,,null,,,,,,,,,,,,,,,,,,
4126.900000035763,,recognition_phase,635213,Tamarisk Hills,,52,,,,,,new,1,1,,,,,,,,,,
null,,confidence_buffer,635314,confidence_buffer,,null,,,,,,,,,,,,,,,,,,
null,,thebreak,635815,break,,null,,,,,,,,,,,,,,,,,,
6160.199999988079,,realistic_rating,641977,Coeur d'Alene,,51,Coeur d'Alene,US,3,,,,,,,,,,,,,,,
null,,confidence_buffer,642079,confidence_buffer,,null,,,,,,,,,,,,,,,,,,
3380.100000023842,,pt2_unique_rating,645460,Coeur d'Alene,,52,,,4,,,,,,,,,,,,,,,
null,,confidence_buffer,645562,confidence_buffer,,null,,,,,,,,,,,,,,,,,,
2441.099999964237,,pt2_memorable_rating,648004,Coeur d'Alene,,52,,,4,,,,,,,,,,,,,,,
null,,confidence_buffer,648107,confidence_buffer,,null,,,,,,,,,,,,,,,,,,
4717.399999976158,,recognition_phase,652825,Coeur d'Alene,,49,,,,,,old,1,1,,,,,,,,,,
null,,confidence_buffer,652927,confidence_buffer,,null,,,,,,,,,,,,,,,,,,
null,,thebreak,653428,break,,null,,,,,,,,,,,,,,,,,,
4802.5,,realistic_rating,658232,Elmsbury,,52,Elmsbury,Fictional,4,,,,,,,,,,,,,,,
null,,confidence_buffer,658333,confidence_buffer,,null,,,,,,,,,,,,,,,,,,
3922.300000011921,,pt2_unique_rating,662257,Elmsbury,,51,,,3,,,,,,,,,,,,,,,
null,,confidence_buffer,662358,confidence_buffer,,null,,,,,,,,,,,,,,,,,,
2318,,pt2_memorable_rating,664678,Elmsbury,,52,,,4,,,,,,,,,,,,,,,
null,,confidence_buffer,664779,confidence_buffer,,null,,,,,,,,,,,,,,,,,,
2528.199999988079,,recognition_phase,667308,Elmsbury,,52,,,,,,new,1,1,,,,,,,,,,
null,,confidence_buffer,667410,confidence_buffer,,null,,,,,,,,,,,,,,,,,,
null,,thebreak,667911,break,,null,,,,,,,,,,,,,,,,,,
4837,,realistic_rating,672749,Hollendale,,52,Hollendale,Fictional,4,,,,,,,,,,,,,,,
null,,confidence_buffer,672857,confidence_buffer,,null,,,,,,,,,,,,,,,,,,
3893.399999976158,,pt2_unique_rating,676751,Hollendale,,51,,,3,,,,,,,,,,,,,,,
null,,confidence_buffer,676852,confidence_buffer,,null,,,,,,,,,,,,,,,,,,
6076,,pt2_memorable_rating,682929,Hollendale,,52,,,4,,,,,,,,,,,,,,,
null,,confidence_buffer,683030,confidence_buffer,,null,,,,,,,,,,,,,,,,,,
2529.5,,recognition_phase,685561,Hollendale,,52,,,,,,new,1,1,,,,,,,,,,
null,,confidence_buffer,685662,confidence_buffer,,null,,,,,,,,,,,,,,,,,,
null,,thebreak,686164,break,,null,,,,,,,,,,,,,,,,,,
4827.199999988079,,realistic_rating,690992,Hilo,,51,Hilo,US,3,,,,,,,,,,,,,,,
null,,confidence_buffer,691093,confidence_buffer,,null,,,,,,,,,,,,,,,,,,
2078.099999964237,,pt2_unique_rating,693172,Hilo,,53,,,5,,,,,,,,,,,,,,,
null,,confidence_buffer,693274,confidence_buffer,,null,,,,,,,,,,,,,,,,,,
3173.199999988079,,pt2_memorable_rating,696449,Hilo,,52,,,4,,,,,,,,,,,,,,,
null,,confidence_buffer,696550,confidence_buffer,,null,,,,,,,,,,,,,,,,,,
2388.300000011921,,recognition_phase,698939,Hilo,,52,,,,,,new,1,1,,,,,,,,,,
null,,confidence_buffer,699040,confidence_buffer,,null,,,,,,,,,,,,,,,,,,
null,,thebreak,699542,break,,null,,,,,,,,,,,,,,,,,,
4792.399999976158,,realistic_rating,704336,Summershade,,51,Summershade,Fictional,3,,,,,,,,,,,,,,,
null,,confidence_buffer,704437,confidence_buffer,,null,,,,,,,,,,,,,,,,,,
9030.200000047684,,pt2_unique_rating,713468,Summershade,,49,,,1,,,,,,,,,,,,,,,
null,,confidence_buffer,713570,confidence_buffer,,null,,,,,,,,,,,,,,,,,,
3325,,pt2_memorable_rating,716896,Summershade,,52,,,4,,,,,,,,,,,,,,,
null,,confidence_buffer,716998,confidence_buffer,,null,,,,,,,,,,,,,,,,,,
2047.800000011921,,recognition_phase,719046,Summershade,,52,,,,,,new,1,1,,,,,,,,,,
null,,confidence_buffer,719160,confidence_buffer,,null,,,,,,,,,,,,,,,,,,
null,,thebreak,719662,break,,null,,,,,,,,,,,,,,,,,,
10210.699999988079,,realistic_rating,729873,Hawthorne Bluffs,,52,Hawthorne Bluffs,Fictional,4,,,,,,,,,,,,,,,
null,,confidence_buffer,729974,confidence_buffer,,null,,,,,,,,,,,,,,,,,,
3571.099999964237,,pt2_unique_rating,733547,Hawthorne Bluffs,,50,,,2,,,,,,,,,,,,,,,
null,,confidence_buffer,733660,confidence_buffer,,null,,,,,,,,,,,,,,,,,,
3271.800000011921,,pt2_memorable_rating,736933,Hawthorne Bluffs,,52,,,4,,,,,,,,,,,,,,,
null,,confidence_buffer,737036,confidence_buffer,,null,,,,,,,,,,,,,,,,,,
2394.699999988079,,recognition_phase,739431,Hawthorne Bluffs,,52,,,,,,new,1,1,,,,,,,,,,
null,,confidence_buffer,739533,confidence_buffer,,null,,,,,,,,,,,,,,,,,,
null,,thebreak,740035,break,,null,,,,,,,,,,,,,,,,,,
4232.099999964237,,realistic_rating,744268,Ironwood Heights,,52,Ironwood Heights,Fictional,4,,,,,,,,,,,,,,,
null,,confidence_buffer,744370,confidence_buffer,,null,,,,,,,,,,,,,,,,,,
9446.300000011921,,pt2_unique_rating,753817,Ironwood Heights,,50,,,2,,,,,,,,,,,,,,,
null,,confidence_buffer,753920,confidence_buffer,,null,,,,,,,,,,,,,,,,,,
2701.800000011921,,pt2_memorable_rating,756622,Ironwood Heights,,52,,,4,,,,,,,,,,,,,,,
null,,confidence_buffer,756725,confidence_buffer,,null,,,,,,,,,,,,,,,,,,
4410,,recognition_phase,761136,Ironwood Heights,,52,,,,,,new,1,1,,,,,,,,,,
null,,confidence_buffer,761238,confidence_buffer,,null,,,,,,,,,,,,,,,,,,
null,,thebreak,761739,break,,null,,,,,,,,,,,,,,,,,,
14749.800000011921,,realistic_rating,776489,Riverlyn,,52,Riverlyn,Fictional,4,,,,,,,,,,,,,,,
null,,confidence_buffer,776592,confidence_buffer,,null,,,,,,,,,,,,,,,,,,
2223.600000023842,,pt2_unique_rating,778816,Riverlyn,,52,,,4,,,,,,,,,,,,,,,
null,,confidence_buffer,778917,confidence_buffer,,null,,,,,,,,,,,,,,,,,,
3809,,pt2_memorable_rating,782727,Riverlyn,,51,,,3,,,,,,,,,,,,,,,
null,,confidence_buffer,782829,confidence_buffer,,null,,,,,,,,,,,,,,,,,,
1830.800000011921,,recognition_phase,784661,Riverlyn,,49,,,,,,old,1,1,,,,,,,,,,
null,,confidence_buffer,784763,confidence_buffer,,null,,,,,,,,,,,,,,,,,,
null,,thebreak,785265,break,,null,,,,,,,,,,,,,,,,,,
12155.199999988079,,realistic_rating,797421,Rosehollow,,52,Rosehollow,Fictional,4,,,,,,,,,,,,,,,
null,,confidence_buffer,797522,confidence_buffer,,null,,,,,,,,,,,,,,,,,,
3866,,pt2_unique_rating,801389,Rosehollow,,51,,,3,,,,,,,,,,,,,,,
null,,confidence_buffer,801492,confidence_buffer,,null,,,,,,,,,,,,,,,,,,
2499.899999976158,,pt2_memorable_rating,803993,Rosehollow,,52,,,4,,,,,,,,,,,,,,,
null,,confidence_buffer,804095,confidence_buffer,,null,,,,,,,,,,,,,,,,,,
1927.800000011921,,recognition_phase,806024,Rosehollow,,49,,,,,,old,1,1,,,,,,,,,,
null,,confidence_buffer,806126,confidence_buffer,,null,,,,,,,,,,,,,,,,,,
null,,thebreak,806627,break,,null,,,,,,,,,,,,,,,,,,
5009.400000035763,,realistic_rating,811637,Cody,,50,Cody,US,2,,,,,,,,,,,,,,,
null,,confidence_buffer,811739,confidence_buffer,,null,,,,,,,,,,,,,,,,,,
3209.100000023842,,pt2_unique_rating,814950,Cody,,52,,,4,,,,,,,,,,,,,,,
null,,confidence_buffer,815051,confidence_buffer,,null,,,,,,,,,,,,,,,,,,
2234.899999976158,,pt2_memorable_rating,817287,Cody,,52,,,4,,,,,,,,,,,,,,,
null,,confidence_buffer,817389,confidence_buffer,,null,,,,,,,,,,,,,,,,,,
1688.800000011921,,recognition_phase,819079,Cody,,49,,,,,,old,1,1,,,,,,,,,,
null,,confidence_buffer,819180,confidence_buffer,,null,,,,,,,,,,,,,,,,,,
null,,thebreak,819681,break,,null,,,,,,,,,,,,,,,,,,
5592.899999976158,,realistic_rating,825275,Duck,,49,Duck,US,1,,,,,,,,,,,,,,,
null,,confidence_buffer,825377,confidence_buffer,,null,,,,,,,,,,,,,,,,,,
5708.899999976158,,pt2_unique_rating,831087,Duck,,49,,,1,,,,,,,,,,,,,,,
null,,confidence_buffer,831201,confidence_buffer,,null,,,,,,,,,,,,,,,,,,
2867,,pt2_memorable_rating,834069,Duck,,53,,,5,,,,,,,,,,,,,,,
null,,confidence_buffer,834170,confidence_buffer,,null,,,,,,,,,,,,,,,,,,
2829.300000011921,,recognition_phase,837000,Duck,,52,,,,,,new,1,1,,,,,,,,,,
null,,confidence_buffer,837102,confidence_buffer,,null,,,,,,,,,,,,,,,,,,
null,,thebreak,837604,break,,null,,,,,,,,,,,,,,,,,,
5305.900000035763,,realistic_rating,842911,Driftwood Bay,,52,Driftwood Bay,Fictional,4,,,,,,,,,,,,,,,
null,,confidence_buffer,843012,confidence_buffer,,null,,,,,,,,,,,,,,,,,,
3696.199999988079,,pt2_unique_rating,846710,Driftwood Bay,,50,,,2,,,,,,,,,,,,,,,
null,,confidence_buffer,846811,confidence_buffer,,null,,,,,,,,,,,,,,,,,,
2153.800000011921,,pt2_memorable_rating,848966,Driftwood Bay,,52,,,4,,,,,,,,,,,,,,,
null,,confidence_buffer,849068,confidence_buffer,,null,,,,,,,,,,,,,,,,,,
3522.199999988079,,recognition_phase,852591,Driftwood Bay,,49,,,,,,old,1,1,,,,,,,,,,
null,,confidence_buffer,852692,confidence_buffer,,null,,,,,,,,,,,,,,,,,,
null,,thebreak,853194,break,,null,,,,,,,,,,,,,,,,,,
5802.699999988079,,realistic_rating,858998,Montelake,,51,Montelake,Fictional,3,,,,,,,,,,,,,,,
null,,confidence_buffer,859100,confidence_buffer,,null,,,,,,,,,,,,,,,,,,
4722.599999964237,,pt2_unique_rating,863824,Montelake,,52,,,4,,,,,,,,,,,,,,,
null,,confidence_buffer,863925,confidence_buffer,,null,,,,,,,,,,,,,,,,,,
3641.5,,pt2_memorable_rating,867568,Montelake,,52,,,4,,,,,,,,,,,,,,,
null,,confidence_buffer,867670,confidence_buffer,,null,,,,,,,,,,,,,,,,,,
2436.100000023842,,recognition_phase,870107,Montelake,,52,,,,,,new,1,1,,,,,,,,,,
null,,confidence_buffer,870209,confidence_buffer,,null,,,,,,,,,,,,,,,,,,
null,,thebreak,870710,break,,null,,,,,,,,,,,,,,,,,,
4553.300000011921,,realistic_rating,875265,Delaro Park,,51,Delaro Park,Fictional,3,,,,,,,,,,,,,,,
null,,confidence_buffer,875368,confidence_buffer,,null,,,,,,,,,,,,,,,,,,
3091.300000011921,,pt2_unique_rating,878460,Delaro Park,,52,,,4,,,,,,,,,,,,,,,
null,,confidence_buffer,878561,confidence_buffer,,null,,,,,,,,,,,,,,,,,,
2408.300000011921,,pt2_memorable_rating,880971,Delaro Park,,52,,,4,,,,,,,,,,,,,,,
null,,confidence_buffer,881072,confidence_buffer,,null,,,,,,,,,,,,,,,,,,
1854.3999999761581,,recognition_phase,882928,Delaro Park,,49,,,,,,old,1,1,,,,,,,,,,
null,,confidence_buffer,883030,confidence_buffer,,null,,,,,,,,,,,,,,,,,,
null,,thebreak,883531,break,,null,,,,,,,,,,,,,,,,,,
6791.399999976158,,realistic_rating,890324,Bowling Green,,49,Bowling Green,US,1,,,,,,,,,,,,,,,
null,,confidence_buffer,890426,confidence_buffer,,null,,,,,,,,,,,,,,,,,,
4876.699999988079,,pt2_unique_rating,895303,Bowling Green,,51,,,3,,,,,,,,,,,,,,,
null,,confidence_buffer,895405,confidence_buffer,,null,,,,,,,,,,,,,,,,,,
12381.899999976158,,pt2_memorable_rating,907788,Bowling Green,,52,,,4,,,,,,,,,,,,,,,
null,,confidence_buffer,907889,confidence_buffer,,null,,,,,,,,,,,,,,,,,,
2923.699999988079,,recognition_phase,910814,Bowling Green,,52,,,,,,new,1,1,,,,,,,,,,
null,,confidence_buffer,910917,confidence_buffer,,null,,,,,,,,,,,,,,,,,,
null,,thebreak,911419,break,,null,,,,,,,,,,,,,,,,,,
4515.199999988079,,realistic_rating,915936,Custer,,50,Custer,US,2,,,,,,,,,,,,,,,
null,,confidence_buffer,916044,confidence_buffer,,null,,,,,,,,,,,,,,,,,,
5178.899999976158,,probe_rating,921224,probe_rating,,50,,,,2,1,,,,,,,,,,,,,
null,,confidence_buffer,921325,confidence_buffer,,null,,,,,,,,,,,,,,,,,,
2952.100000023842,,pt2_unique_rating,924278,Custer,,52,,,4,,,,,,,,,,,,,,,
null,,confidence_buffer,924380,confidence_buffer,,null,,,,,,,,,,,,,,,,,,
2320.300000011921,,pt2_memorable_rating,926701,Custer,,52,,,4,,,,,,,,,,,,,,,
null,,confidence_buffer,926802,confidence_buffer,,null,,,,,,,,,,,,,,,,,,
1522.300000011921,,recognition_phase,928326,Custer,,49,,,,,,old,1,1,,,,,,,,,,
null,,confidence_buffer,928429,confidence_buffer,,null,,,,,,,,,,,,,,,,,,
null,,thebreak,928943,break,,null,,,,,,,,,,,,,,,,,,
4658.300000011921,,realistic_rating,933602,Natchez,,49,Natchez,US,1,,,,,,,,,,,,,,,
null,,confidence_buffer,933704,confidence_buffer,,null,,,,,,,,,,,,,,,,,,
3909.800000011921,,pt2_unique_rating,937615,Natchez,,53,,,5,,,,,,,,,,,,,,,
null,,confidence_buffer,937716,confidence_buffer,,null,,,,,,,,,,,,,,,,,,
2567.699999988079,,pt2_memorable_rating,940285,Natchez,,53,,,5,,,,,,,,,,,,,,,
null,,confidence_buffer,940386,confidence_buffer,,null,,,,,,,,,,,,,,,,,,
2528.599999964237,,recognition_phase,942916,Natchez,,49,,,,,,old,1,1,,,,,,,,,,
null,,confidence_buffer,943018,confidence_buffer,,null,,,,,,,,,,,,,,,,,,
null,,thebreak,943519,break,,null,,,,,,,,,,,,,,,,,,
6506.100000023842,,realistic_rating,950026,Clearbrook,,52,Clearbrook,Fictional,4,,,,,,,,,,,,,,,
null,,confidence_buffer,950128,confidence_buffer,,null,,,,,,,,,,,,,,,,,,
7127.699999988079,,pt2_unique_rating,957257,Clearbrook,,49,,,1,,,,,,,,,,,,,,,
null,,confidence_buffer,957358,confidence_buffer,,null,,,,,,,,,,,,,,,,,,
2863.899999976158,,pt2_memorable_rating,960223,Clearbrook,,52,,,4,,,,,,,,,,,,,,,
null,,confidence_buffer,960325,confidence_buffer,,null,,,,,,,,,,,,,,,,,,
4423.600000023842,,probe_rating,964750,probe_rating,,51,,,,3,1,,,,,,,,,,,,,
null,,confidence_buffer,964852,confidence_buffer,,null,,,,,,,,,,,,,,,,,,
5163.800000011921,,recognition_phase,970017,Clearbrook,,51,,,,,,new,0,0.95,,,,,,,,,,
null,,confidence_buffer,970118,confidence_buffer,,null,,,,,,,,,,,,,,,,,,
null,,thebreak,970620,break,,null,,,,,,,,,,,,,,,,,,
4404.599999964237,,realistic_rating,975025,Hot Springs,,52,Hot Springs,US,4,,,,,,,,,,,,,,,
null,,confidence_buffer,975129,confidence_buffer,,null,,,,,,,,,,,,,,,,,,
2523.800000011921,,pt2_unique_rating,977654,Hot Springs,,49,,,1,,,,,,,,,,,,,,,
null,,confidence_buffer,977756,confidence_buffer,,null,,,,,,,,,,,,,,,,,,
3118.400000035763,,pt2_memorable_rating,980876,Hot Springs,,51,,,3,,,,,,,,,,,,,,,
null,,confidence_buffer,980978,confidence_buffer,,null,,,,,,,,,,,,,,,,,,
4570.199999988079,,recognition_phase,985550,Hot Springs,,50,,,,,,old,1,0.9523809523809523,,,,,,,,,,
null,,confidence_buffer,985651,confidence_buffer,,null,,,,,,,,,,,,,,,,,,
null,,thebreak,986152,break,,null,,,,,,,,,,,,,,,,,,
4992.400000035763,,realistic_rating,991146,North Arroya,,52,North Arroya,Fictional,4,,,,,,,,,,,,,,,
null,,confidence_buffer,991248,confidence_buffer,,null,,,,,,,,,,,,,,,,,,
6493.199999988079,,pt2_unique_rating,997742,North Arroya,,51,,,3,,,,,,,,,,,,,,,
null,,confidence_buffer,997843,confidence_buffer,,null,,,,,,,,,,,,,,,,,,
4529.199999988079,,pt2_memorable_rating,1002374,North Arroya,,52,,,4,,,,,,,,,,,,,,,
null,,confidence_buffer,1002474,confidence_buffer,,null,,,,,,,,,,,,,,,,,,
2348.600000023842,,recognition_phase,1004824,North Arroya,,52,,,,,,new,1,0.9545454545454546,,,,,,,,,,
null,,confidence_buffer,1004926,confidence_buffer,,null,,,,,,,,,,,,,,,,,,
null,,thebreak,1005431,break,,null,,,,,,,,,,,,,,,,,,
5804.899999976158,,realistic_rating,1011237,Alliance,,51,Alliance,US,3,,,,,,,,,,,,,,,
null,,confidence_buffer,1011339,confidence_buffer,,null,,,,,,,,,,,,,,,,,,
2143.400000035763,,pt2_unique_rating,1013483,Alliance,,50,,,2,,,,,,,,,,,,,,,
null,,confidence_buffer,1013584,confidence_buffer,,null,,,,,,,,,,,,,,,,,,
3432,,pt2_memorable_rating,1017017,Alliance,,52,,,4,,,,,,,,,,,,,,,
null,,confidence_buffer,1017120,confidence_buffer,,null,,,,,,,,,,,,,,,,,,
2479.5,,recognition_phase,1019601,Alliance,,52,,,,,,new,1,0.9565217391304348,,,,,,,,,,
null,,confidence_buffer,1019703,confidence_buffer,,null,,,,,,,,,,,,,,,,,,
null,,thebreak,1020205,break,,null,,,,,,,,,,,,,,,,,,
3902.699999988079,,realistic_rating,1024109,Golden Trace,,51,Golden Trace,Fictional,3,,,,,,,,,,,,,,,
null,,confidence_buffer,1024210,confidence_buffer,,null,,,,,,,,,,,,,,,,,,
2667.5,,pt2_unique_rating,1026878,Golden Trace,,52,,,4,,,,,,,,,,,,,,,
null,,confidence_buffer,1026981,confidence_buffer,,null,,,,,,,,,,,,,,,,,,
3021.399999976158,,pt2_memorable_rating,1030003,Golden Trace,,52,,,4,,,,,,,,,,,,,,,
null,,confidence_buffer,1030105,confidence_buffer,,null,,,,,,,,,,,,,,,,,,
2283.199999988079,,recognition_phase,1032390,Golden Trace,,52,,,,,,new,1,0.9583333333333334,,,,,,,,,,
null,,confidence_buffer,1032491,confidence_buffer,,null,,,,,,,,,,,,,,,,,,
null,,thebreak,1032993,break,,null,,,,,,,,,,,,,,,,,,
4283.800000011921,,realistic_rating,1037277,Carmel,,50,Carmel,US,2,,,,,,,,,,,,,,,
null,,confidence_buffer,1037380,confidence_buffer,,null,,,,,,,,,,,,,,,,,,
6660.600000023842,,pt2_unique_rating,1044042,Carmel,,52,,,4,,,,,,,,,,,,,,,
null,,confidence_buffer,1044144,confidence_buffer,,null,,,,,,,,,,,,,,,,,,
2590.5,,pt2_memorable_rating,1046735,Carmel,,52,,,4,,,,,,,,,,,,,,,
null,,confidence_buffer,1046839,confidence_buffer,,null,,,,,,,,,,,,,,,,,,
3780.399999976158,,probe_rating,1050621,probe_rating,,52,,,,4,1,,,,,,,,,,,,,
null,,confidence_buffer,1050723,confidence_buffer,,null,,,,,,,,,,,,,,,,,,
5506.699999988079,,recognition_phase,1056231,Carmel,,49,,,,,,old,1,0.96,,,,,,,,,,
null,,confidence_buffer,1056332,confidence_buffer,,null,,,,,,,,,,,,,,,,,,
null,,thebreak,1056834,break,,null,,,,,,,,,,,,,,,,,,
3692.5,,realistic_rating,1060527,Westridge,,52,Westridge,Fictional,4,,,,,,,,,,,,,,,
null,,confidence_buffer,1060634,confidence_buffer,,null,,,,,,,,,,,,,,,,,,
2814.899999976158,,pt2_unique_rating,1063450,Westridge,,49,,,1,,,,,,,,,,,,,,,
null,,confidence_buffer,1063551,confidence_buffer,,null,,,,,,,,,,,,,,,,,,
3581.099999964237,,pt2_memorable_rating,1067133,Westridge,,53,,,5,,,,,,,,,,,,,,,
null,,confidence_buffer,1067235,confidence_buffer,,null,,,,,,,,,,,,,,,,,,
2498.100000023842,,recognition_phase,1069734,Westridge,,52,,,,,,new,1,0.9615384615384616,,,,,,,,,,
null,,confidence_buffer,1069835,confidence_buffer,,null,,,,,,,,,,,,,,,,,,
null,,thebreak,1070338,break,,null,,,,,,,,,,,,,,,,,,
3861.899999976158,,realistic_rating,1074200,Leesburg,,51,Leesburg,US,3,,,,,,,,,,,,,,,
null,,confidence_buffer,1074302,confidence_buffer,,null,,,,,,,,,,,,,,,,,,
6283.899999976158,,pt2_unique_rating,1080587,Leesburg,,50,,,2,,,,,,,,,,,,,,,
null,,confidence_buffer,1080689,confidence_buffer,,null,,,,,,,,,,,,,,,,,,
2945.899999976158,,pt2_memorable_rating,1083636,Leesburg,,52,,,4,,,,,,,,,,,,,,,
null,,confidence_buffer,1083737,confidence_buffer,,null,,,,,,,,,,,,,,,,,,
1877,,recognition_phase,1085615,Leesburg,,49,,,,,,old,1,0.9629629629629629,,,,,,,,,,
null,,confidence_buffer,1085716,confidence_buffer,,null,,,,,,,,,,,,,,,,,,
null,,thebreak,1086219,break,,null,,,,,,,,,,,,,,,,,,
4520.5,,realistic_rating,1090741,Cornwall,,53,Cornwall,US,5,,,,,,,,,,,,,,,
null,,confidence_buffer,1090842,confidence_buffer,,null,,,,,,,,,,,,,,,,,,
4803.300000011921,,pt2_unique_rating,1095646,Cornwall,,50,,,2,,,,,,,,,,,,,,,
null,,confidence_buffer,1095748,confidence_buffer,,null,,,,,,,,,,,,,,,,,,
2529.400000035763,,pt2_memorable_rating,1098279,Cornwall,,53,,,5,,,,,,,,,,,,,,,
null,,confidence_buffer,1098381,confidence_buffer,,null,,,,,,,,,,,,,,,,,,
2261.5,,recognition_phase,1100643,Cornwall,,49,,,,,,old,1,0.9642857142857143,,,,,,,,,,
null,,confidence_buffer,1100745,confidence_buffer,,null,,,,,,,,,,,,,,,,,,
null,,thebreak,1101247,break,,null,,,,,,,,,,,,,,,,,,
5444,,realistic_rating,1106691,Stonebrook,,53,Stonebrook,Fictional,5,,,,,,,,,,,,,,,
null,,confidence_buffer,1106793,confidence_buffer,,null,,,,,,,,,,,,,,,,,,
2929.300000011921,,pt2_unique_rating,1109723,Stonebrook,,50,,,2,,,,,,,,,,,,,,,
null,,confidence_buffer,1109824,confidence_buffer,,null,,,,,,,,,,,,,,,,,,
5061.399999976158,,probe_rating,1114887,probe_rating,,50,,,,2,1,,,,,,,,,,,,,
null,,confidence_buffer,1114988,confidence_buffer,,null,,,,,,,,,,,,,,,,,,
4027.199999988079,,pt2_memorable_rating,1119017,Stonebrook,,52,,,4,,,,,,,,,,,,,,,
null,,confidence_buffer,1119118,confidence_buffer,,null,,,,,,,,,,,,,,,,,,
1922.3999999761581,,recognition_phase,1121041,Stonebrook,,49,,,,,,old,1,0.9655172413793104,,,,,,,,,,
null,,confidence_buffer,1121143,confidence_buffer,,null,,,,,,,,,,,,,,,,,,
null,,thebreak,1121644,break,,null,,,,,,,,,,,,,,,,,,
4012.5,,realistic_rating,1125658,Delaware City,,53,Delaware City,US,5,,,,,,,,,,,,,,,
null,,confidence_buffer,1125759,confidence_buffer,,null,,,,,,,,,,,,,,,,,,
5787.5,,probe_rating,1131547,probe_rating,,49,,,,1,1,,,,,,,,,,,,,
null,,confidence_buffer,1131649,confidence_buffer,,null,,,,,,,,,,,,,,,,,,
2254,,pt2_unique_rating,1133904,Delaware City,,49,,,1,,,,,,,,,,,,,,,
null,,confidence_buffer,1134005,confidence_buffer,,null,,,,,,,,,,,,,,,,,,
3936.899999976158,,pt2_memorable_rating,1137943,Delaware City,,53,,,5,,,,,,,,,,,,,,,
null,,confidence_buffer,1138046,confidence_buffer,,null,,,,,,,,,,,,,,,,,,
3399.5,,recognition_phase,1141446,Delaware City,,52,,,,,,new,1,0.9666666666666667,,,,,,,,,,
null,,confidence_buffer,1141548,confidence_buffer,,null,,,,,,,,,,,,,,,,,,
null,,thebreak,1142050,break,,null,,,,,,,,,,,,,,,,,,
4471.300000011921,,realistic_rating,1146522,Ashford Hills,,52,Ashford Hills,Fictional,4,,,,,,,,,,,,,,,
null,,confidence_buffer,1146624,confidence_buffer,,null,,,,,,,,,,,,,,,,,,
4194.199999988079,,pt2_unique_rating,1150819,Ashford Hills,,50,,,2,,,,,,,,,,,,,,,
null,,confidence_buffer,1150920,confidence_buffer,,null,,,,,,,,,,,,,,,,,,
3111.2999999523163,,pt2_memorable_rating,1154033,Ashford Hills,,53,,,5,,,,,,,,,,,,,,,
null,,confidence_buffer,1154134,confidence_buffer,,null,,,,,,,,,,,,,,,,,,
3627.7999999523163,,recognition_phase,1157763,Ashford Hills,,49,,,,,,old,1,0.967741935483871,,,,,,,,,,
null,,confidence_buffer,1157864,confidence_buffer,,null,,,,,,,,,,,,,,,,,,
null,,thebreak,1158365,break,,null,,,,,,,,,,,,,,,,,,
4681.599999964237,,realistic_rating,1163048,Maplehurst,,51,Maplehurst,Fictional,3,,,,,,,,,,,,,,,
null,,confidence_buffer,1163150,confidence_buffer,,null,,,,,,,,,,,,,,,,,,
5044.699999988079,,probe_rating,1168195,probe_rating,,52,,,,4,1,,,,,,,,,,,,,
null,,confidence_buffer,1168296,confidence_buffer,,null,,,,,,,,,,,,,,,,,,
3928,,pt2_unique_rating,1172225,Maplehurst,,52,,,4,,,,,,,,,,,,,,,
null,,confidence_buffer,1172327,confidence_buffer,,null,,,,,,,,,,,,,,,,,,
4979.800000011921,,pt2_memorable_rating,1177308,Maplehurst,,53,,,5,,,,,,,,,,,,,,,
null,,confidence_buffer,1177409,confidence_buffer,,null,,,,,,,,,,,,,,,,,,
1593.5999999642372,,recognition_phase,1179004,Maplehurst,,49,,,,,,old,1,0.96875,,,,,,,,,,
null,,confidence_buffer,1179105,confidence_buffer,,null,,,,,,,,,,,,,,,,,,
null,,thebreak,1179606,break,,null,,,,,,,,,,,,,,,,,,
6024.5,,realistic_rating,1185632,Park City,,52,Park City,US,4,,,,,,,,,,,,,,,
null,,confidence_buffer,1185733,confidence_buffer,,null,,,,,,,,,,,,,,,,,,
2321,,pt2_unique_rating,1188055,Park City,,49,,,1,,,,,,,,,,,,,,,
null,,confidence_buffer,1188156,confidence_buffer,,null,,,,,,,,,,,,,,,,,,
2575.100000023842,,pt2_memorable_rating,1190732,Park City,,53,,,5,,,,,,,,,,,,,,,
null,,confidence_buffer,1190834,confidence_buffer,,null,,,,,,,,,,,,,,,,,,
2015,,recognition_phase,1192850,Park City,,52,,,,,,new,1,0.9696969696969697,,,,,,,,,,
null,,confidence_buffer,1192953,confidence_buffer,,null,,,,,,,,,,,,,,,,,,
null,,thebreak,1193454,break,,null,,,,,,,,,,,,,,,,,,
8054.900000035763,,realistic_rating,1201510,Bayshore Haven,,51,Bayshore Haven,Fictional,3,,,,,,,,,,,,,,,
null,,confidence_buffer,1201612,confidence_buffer,,null,,,,,,,,,,,,,,,,,,
2539,,pt2_unique_rating,1204152,Bayshore Haven,,52,,,4,,,,,,,,,,,,,,,
null,,confidence_buffer,1204253,confidence_buffer,,null,,,,,,,,,,,,,,,,,,
2211.800000011921,,pt2_memorable_rating,1206466,Bayshore Haven,,53,,,5,,,,,,,,,,,,,,,
null,,confidence_buffer,1206567,confidence_buffer,,null,,,,,,,,,,,,,,,,,,
2157.399999976158,,recognition_phase,1208726,Bayshore Haven,,49,,,,,,old,1,0.9705882352941176,,,,,,,,,,
null,,confidence_buffer,1208828,confidence_buffer,,null,,,,,,,,,,,,,,,,,,
null,,thebreak,1209330,break,,null,,,,,,,,,,,,,,,,,,
7662.5,,realistic_rating,1216993,Briarfield,,50,Briarfield,Fictional,2,,,,,,,,,,,,,,,
null,,confidence_buffer,1217095,confidence_buffer,,null,,,,,,,,,,,,,,,,,,
2887.100000023842,,pt2_unique_rating,1219983,Briarfield,,52,,,4,,,,,,,,,,,,,,,
null,,confidence_buffer,1220084,confidence_buffer,,null,,,,,,,,,,,,,,,,,,
2828.5,,pt2_memorable_rating,1222914,Briarfield,,52,,,4,,,,,,,,,,,,,,,
null,,confidence_buffer,1223015,confidence_buffer,,null,,,,,,,,,,,,,,,,,,
3070.900000035763,,recognition_phase,1226087,Briarfield,,52,,,,,,new,1,0.9714285714285714,,,,,,,,,,
null,,confidence_buffer,1226190,confidence_buffer,,null,,,,,,,,,,,,,,,,,,
null,,thebreak,1226691,break,,null,,,,,,,,,,,,,,,,,,
5708.599999964237,,realistic_rating,1232400,West Talora,,52,West Talora,Fictional,4,,,,,,,,,,,,,,,
null,,confidence_buffer,1232502,confidence_buffer,,null,,,,,,,,,,,,,,,,,,
3012.599999964237,,pt2_unique_rating,1235515,West Talora,,50,,,2,,,,,,,,,,,,,,,
null,,confidence_buffer,1235616,confidence_buffer,,null,,,,,,,,,,,,,,,,,,
2484.900000035763,,pt2_memorable_rating,1238102,West Talora,,52,,,4,,,,,,,,,,,,,,,
null,,confidence_buffer,1238203,confidence_buffer,,null,,,,,,,,,,,,,,,,,,
3025.599999964237,,recognition_phase,1241230,West Talora,,52,,,,,,new,1,0.9722222222222222,,,,,,,,,,
null,,confidence_buffer,1241332,confidence_buffer,,null,,,,,,,,,,,,,,,,,,
null,,thebreak,1241834,break,,null,,,,,,,,,,,,,,,,,,
5422.100000023842,,realistic_rating,1247257,Berkeley Springs,,52,Berkeley Springs,US,4,,,,,,,,,,,,,,,
null,,confidence_buffer,1247358,confidence_buffer,,null,,,,,,,,,,,,,,,,,,
5748.699999988079,,pt2_unique_rating,1253107,Berkeley Springs,,50,,,2,,,,,,,,,,,,,,,
null,,confidence_buffer,1253209,confidence_buffer,,null,,,,,,,,,,,,,,,,,,
2595.300000011921,,pt2_memorable_rating,1255805,Berkeley Springs,,52,,,4,,,,,,,,,,,,,,,
null,,confidence_buffer,1255907,confidence_buffer,,null,,,,,,,,,,,,,,,,,,
5338.699999988079,,recognition_phase,1261247,Berkeley Springs,,49,,,,,,old,1,0.972972972972973,,,,,,,,,,
null,,confidence_buffer,1261348,confidence_buffer,,null,,,,,,,,,,,,,,,,,,
null,,thebreak,1261849,break,,null,,,,,,,,,,,,,,,,,,
5109.300000011921,,realistic_rating,1266960,Racine,,50,Racine,US,2,,,,,,,,,,,,,,,
null,,confidence_buffer,1267061,confidence_buffer,,null,,,,,,,,,,,,,,,,,,
2894.899999976158,,pt2_unique_rating,1269957,Racine,,53,,,5,,,,,,,,,,,,,,,
null,,confidence_buffer,1270058,confidence_buffer,,null,,,,,,,,,,,,,,,,,,
3104.900000035763,,pt2_memorable_rating,1273164,Racine,,53,,,5,,,,,,,,,,,,,,,
null,,confidence_buffer,1273266,confidence_buffer,,null,,,,,,,,,,,,,,,,,,
1644.199999988079,,recognition_phase,1274911,Racine,,49,,,,,,old,1,0.9736842105263158,,,,,,,,,,
null,,confidence_buffer,1275014,confidence_buffer,,null,,,,,,,,,,,,,,,,,,
null,,thebreak,1275515,break,,null,,,,,,,,,,,,,,,,,,
5837.5,,realistic_rating,1281354,Bisbee,,51,Bisbee,US,3,,,,,,,,,,,,,,,
null,,confidence_buffer,1281456,confidence_buffer,,null,,,,,,,,,,,,,,,,,,
3099.2999999523163,,pt2_unique_rating,1284556,Bisbee,,52,,,4,,,,,,,,,,,,,,,
null,,confidence_buffer,1284657,confidence_buffer,,null,,,,,,,,,,,,,,,,,,
2369.2999999523163,,pt2_memorable_rating,1287028,Bisbee,,53,,,5,,,,,,,,,,,,,,,
null,,confidence_buffer,1287129,confidence_buffer,,null,,,,,,,,,,,,,,,,,,
4579.5,,recognition_phase,1291710,Bisbee,,52,,,,,,new,1,0.9743589743589743,,,,,,,,,,
null,,confidence_buffer,1291811,confidence_buffer,,null,,,,,,,,,,,,,,,,,,
null,,thebreak,1292312,break,,null,,,,,,,,,,,,,,,,,,
3586.899999976158,,realistic_rating,1295900,Lake of the Ozarks,,52,Lake of the Ozarks,US,4,,,,,,,,,,,,,,,
null,,confidence_buffer,1296002,confidence_buffer,,null,,,,,,,,,,,,,,,,,,
3254.100000023842,,pt2_unique_rating,1299257,Lake of the Ozarks,,51,,,3,,,,,,,,,,,,,,,
null,,confidence_buffer,1299365,confidence_buffer,,null,,,,,,,,,,,,,,,,,,
4316.899999976158,,pt2_memorable_rating,1303684,Lake of the Ozarks,,53,,,5,,,,,,,,,,,,,,,
null,,confidence_buffer,1303785,confidence_buffer,,null,,,,,,,,,,,,,,,,,,
2037.699999988079,,recognition_phase,1305824,Lake of the Ozarks,,49,,,,,,old,1,0.975,,,,,,,,,,
null,,confidence_buffer,1305926,confidence_buffer,,null,,,,,,,,,,,,,,,,,,
null,,thebreak,1306427,break,,null,,,,,,,,,,,,,,,,,,
4836.800000011921,,realistic_rating,1311265,Northbridge,,52,Northbridge,Fictional,4,,,,,,,,,,,,,,,
null,,confidence_buffer,1311367,confidence_buffer,,null,,,,,,,,,,,,,,,,,,
3277.100000023842,,pt2_unique_rating,1314645,Northbridge,,50,,,2,,,,,,,,,,,,,,,
null,,confidence_buffer,1314755,confidence_buffer,,null,,,,,,,,,,,,,,,,,,
2670.5,,pt2_memorable_rating,1317427,Northbridge,,53,,,5,,,,,,,,,,,,,,,
null,,confidence_buffer,1317542,confidence_buffer,,null,,,,,,,,,,,,,,,,,,
4144.5,,recognition_phase,1321687,Northbridge,,52,,,,,,new,1,0.975609756097561,,,,,,,,,,
null,,confidence_buffer,1321801,confidence_buffer,,null,,,,,,,,,,,,,,,,,,
null,,thebreak,1322303,break,,null,,,,,,,,,,,,,,,,,,
5381,,realistic_rating,1327685,Ravenport,,52,Ravenport,Fictional,4,,,,,,,,,,,,,,,
null,,confidence_buffer,1327787,confidence_buffer,,null,,,,,,,,,,,,,,,,,,
3896.199999988079,,pt2_unique_rating,1331684,Ravenport,,50,,,2,,,,,,,,,,,,,,,
null,,confidence_buffer,1331785,confidence_buffer,,null,,,,,,,,,,,,,,,,,,
6895.900000035763,,probe_rating,1338682,probe_rating,,51,,,,3,1,,,,,,,,,,,,,
null,,confidence_buffer,1338783,confidence_buffer,,null,,,,,,,,,,,,,,,,,,
3913.399999976158,,pt2_memorable_rating,1342697,Ravenport,,52,,,4,,,,,,,,,,,,,,,
null,,confidence_buffer,1342800,confidence_buffer,,null,,,,,,,,,,,,,,,,,,
1773.5999999642372,,recognition_phase,1344575,Ravenport,,49,,,,,,old,1,0.9761904761904762,,,,,,,,,,
null,,confidence_buffer,1344677,confidence_buffer,,null,,,,,,,,,,,,,,,,,,
null,,thebreak,1345178,break,,null,,,,,,,,,,,,,,,,,,
3604.800000011921,,realistic_rating,1348783,Orr,,49,Orr,US,1,,,,,,,,,,,,,,,
null,,confidence_buffer,1348885,confidence_buffer,,null,,,,,,,,,,,,,,,,,,
3093.599999964237,,pt2_unique_rating,1351979,Orr,,53,,,5,,,,,,,,,,,,,,,
null,,confidence_buffer,1352080,confidence_buffer,,null,,,,,,,,,,,,,,,,,,
2454.800000011921,,pt2_memorable_rating,1354536,Orr,,53,,,5,,,,,,,,,,,,,,,
null,,confidence_buffer,1354648,confidence_buffer,,null,,,,,,,,,,,,,,,,,,
1394.8999999761581,,recognition_phase,1356044,Orr,,49,,,,,,old,1,0.9767441860465116,,,,,,,,,,
null,,confidence_buffer,1356147,confidence_buffer,,null,,,,,,,,,,,,,,,,,,
null,,thebreak,1356648,break,,null,,,,,,,,,,,,,,,,,,
3234.599999964237,,realistic_rating,1359884,San Antonio,,53,San Antonio,US,5,,,,,,,,,,,,,,,
null,,confidence_buffer,1359986,confidence_buffer,,null,,,,,,,,,,,,,,,,,,
2095.5,,pt2_unique_rating,1362082,San Antonio,,49,,,1,,,,,,,,,,,,,,,
null,,confidence_buffer,1362185,confidence_buffer,,null,,,,,,,,,,,,,,,,,,
2976.900000035763,,pt2_memorable_rating,1365163,San Antonio,,52,,,4,,,,,,,,,,,,,,,
null,,confidence_buffer,1365265,confidence_buffer,,null,,,,,,,,,,,,,,,,,,
2755.300000011921,,recognition_phase,1368021,San Antonio,,52,,,,,,new,1,0.9772727272727273,,,,,,,,,,
null,,confidence_buffer,1368123,confidence_buffer,,null,,,,,,,,,,,,,,,,,,
null,,thebreak,1368624,break,,null,,,,,,,,,,,,,,,,,,
3922.600000023842,,realistic_rating,1372548,Sierra Hollow,,52,Sierra Hollow,Fictional,4,,,,,,,,,,,,,,,
null,,confidence_buffer,1372650,confidence_buffer,,null,,,,,,,,,,,,,,,,,,
2510.899999976158,,pt2_unique_rating,1375162,Sierra Hollow,,50,,,2,,,,,,,,,,,,,,,
null,,confidence_buffer,1375265,confidence_buffer,,null,,,,,,,,,,,,,,,,,,
3968,,pt2_memorable_rating,1379234,Sierra Hollow,,52,,,4,,,,,,,,,,,,,,,
null,,confidence_buffer,1379336,confidence_buffer,,null,,,,,,,,,,,,,,,,,,
2146.599999964237,,recognition_phase,1381483,Sierra Hollow,,52,,,,,,new,1,0.9777777777777777,,,,,,,,,,
null,,confidence_buffer,1381585,confidence_buffer,,null,,,,,,,,,,,,,,,,,,
null,,thebreak,1382088,break,,null,,,,,,,,,,,,,,,,,,
7985.900000035763,,realistic_rating,1390075,Linden Trace,,52,Linden Trace,Fictional,4,,,,,,,,,,,,,,,
null,,confidence_buffer,1390176,confidence_buffer,,null,,,,,,,,,,,,,,,,,,
5409.699999988079,,pt2_unique_rating,1395587,Linden Trace,,52,,,4,,,,,,,,,,,,,,,
null,,confidence_buffer,1395697,confidence_buffer,,null,,,,,,,,,,,,,,,,,,
2675.5,,pt2_memorable_rating,1398373,Linden Trace,,53,,,5,,,,,,,,,,,,,,,
null,,confidence_buffer,1398475,confidence_buffer,,null,,,,,,,,,,,,,,,,,,
7774.899999976158,,probe_rating,1406251,probe_rating,,53,,,,5,1,,,,,,,,,,,,,
null,,confidence_buffer,1406354,confidence_buffer,,null,,,,,,,,,,,,,,,,,,
3366,,recognition_phase,1409721,Linden Trace,,52,,,,,,new,1,0.9782608695652174,,,,,,,,,,
null,,confidence_buffer,1409824,confidence_buffer,,null,,,,,,,,,,,,,,,,,,
null,,thebreak,1410325,break,,null,,,,,,,,,,,,,,,,,,
3218.199999988079,,realistic_rating,1413544,Boulder,,53,Boulder,US,5,,,,,,,,,,,,,,,
null,,confidence_buffer,1413645,confidence_buffer,,null,,,,,,,,,,,,,,,,,,
5906.399999976158,,pt2_unique_rating,1419553,Boulder,,50,,,2,,,,,,,,,,,,,,,
null,,confidence_buffer,1419654,confidence_buffer,,null,,,,,,,,,,,,,,,,,,
3175.399999976158,,pt2_memorable_rating,1422830,Boulder,,53,,,5,,,,,,,,,,,,,,,
null,,confidence_buffer,1422932,confidence_buffer,,null,,,,,,,,,,,,,,,,,,
1658.8999999761581,,recognition_phase,1424592,Boulder,,49,,,,,,old,1,0.9787234042553191,,,,,,,,,,
null,,confidence_buffer,1424693,confidence_buffer,,null,,,,,,,,,,,,,,,,,,
null,,thebreak,1425195,break,,null,,,,,,,,,,,,,,,,,,
7417.600000023842,,realistic_rating,1432613,Pine Hollow,,52,Pine Hollow,Fictional,4,,,,,,,,,,,,,,,
null,,confidence_buffer,1432716,confidence_buffer,,null,,,,,,,,,,,,,,,,,,
2394.900000035763,,pt2_unique_rating,1435112,Pine Hollow,,50,,,2,,,,,,,,,,,,,,,
null,,confidence_buffer,1435214,confidence_buffer,,null,,,,,,,,,,,,,,,,,,
4413.600000023842,,pt2_memorable_rating,1439629,Pine Hollow,,52,,,4,,,,,,,,,,,,,,,
null,,confidence_buffer,1439731,confidence_buffer,,null,,,,,,,,,,,,,,,,,,
2237.2999999523163,,recognition_phase,1441970,Pine Hollow,,50,,,,,,old,1,0.9791666666666666,,,,,,,,,,
null,,confidence_buffer,1442071,confidence_buffer,,null,,,,,,,,,,,,,,,,,,
null,,thebreak,1442573,break,,null,,,,,,,,,,,,,,,,,,
3474,,realistic_rating,1446048,Sammamish,,50,Sammamish,US,2,,,,,,,,,,,,,,,
null,,confidence_buffer,1446150,confidence_buffer,,null,,,,,,,,,,,,,,,,,,
2262.2000000476837,,pt2_unique_rating,1448413,Sammamish,,53,,,5,,,,,,,,,,,,,,,
null,,confidence_buffer,1448515,confidence_buffer,,null,,,,,,,,,,,,,,,,,,
2351,,pt2_memorable_rating,1450867,Sammamish,,53,,,5,,,,,,,,,,,,,,,
null,,confidence_buffer,1450974,confidence_buffer,,null,,,,,,,,,,,,,,,,,,
2014.8999999761581,,recognition_phase,1452990,Sammamish,,49,,,,,,old,1,0.9795918367346939,,,,,,,,,,
null,,confidence_buffer,1453091,confidence_buffer,,null,,,,,,,,,,,,,,,,,,
null,,thebreak,1453593,break,,null,,,,,,,,,,,,,,,,,,
4521.599999964237,,realistic_rating,1458116,Crestwood,,53,Crestwood,Fictional,5,,,,,,,,,,,,,,,
null,,confidence_buffer,1458218,confidence_buffer,,null,,,,,,,,,,,,,,,,,,
3791.699999988079,,pt2_unique_rating,1462011,Crestwood,,49,,,1,,,,,,,,,,,,,,,
null,,confidence_buffer,1462112,confidence_buffer,,null,,,,,,,,,,,,,,,,,,
3063.900000035763,,pt2_memorable_rating,1465177,Crestwood,,53,,,5,,,,,,,,,,,,,,,
null,,confidence_buffer,1465279,confidence_buffer,,null,,,,,,,,,,,,,,,,,,
3491.100000023842,,recognition_phase,1468771,Crestwood,,51,,,,,,new,0,0.96,,,,,,,,,,
null,,confidence_buffer,1468872,confidence_buffer,,null,,,,,,,,,,,,,,,,,,
null,,thebreak,1469374,break,,null,,,,,,,,,,,,,,,,,,
4069.199999988079,,realistic_rating,1473445,Manistee,,50,Manistee,US,2,,,,,,,,,,,,,,,
null,,confidence_buffer,1473546,confidence_buffer,,null,,,,,,,,,,,,,,,,,,
3229.599999964237,,pt2_unique_rating,1476777,Manistee,,52,,,4,,,,,,,,,,,,,,,
null,,confidence_buffer,1476878,confidence_buffer,,null,,,,,,,,,,,,,,,,,,
2592.800000011921,,pt2_memorable_rating,1479472,Manistee,,53,,,5,,,,,,,,,,,,,,,
null,,confidence_buffer,1479574,confidence_buffer,,null,,,,,,,,,,,,,,,,,,
2910.800000011921,,recognition_phase,1482486,Manistee,,52,,,,,,new,1,0.9607843137254902,,,,,,,,,,
null,,confidence_buffer,1482588,confidence_buffer,,null,,,,,,,,,,,,,,,,,,
null,,thebreak,1483090,break,,null,,,,,,,,,,,,,,,,,,
3907,,realistic_rating,1486998,Maravilla Springs,,51,Maravilla Springs,Fictional,3,,,,,,,,,,,,,,,
null,,confidence_buffer,1487099,confidence_buffer,,null,,,,,,,,,,,,,,,,,,
2729.599999964237,,pt2_unique_rating,1489830,Maravilla Springs,,50,,,2,,,,,,,,,,,,,,,
null,,confidence_buffer,1489933,confidence_buffer,,null,,,,,,,,,,,,,,,,,,
2572.099999964237,,pt2_memorable_rating,1492506,Maravilla Springs,,52,,,4,,,,,,,,,,,,,,,
null,,confidence_buffer,1492607,confidence_buffer,,null,,,,,,,,,,,,,,,,,,
1741.7000000476837,,recognition_phase,1494350,Maravilla Springs,,49,,,,,,old,1,0.9615384615384616,,,,,,,,,,
null,,confidence_buffer,1494452,confidence_buffer,,null,,,,,,,,,,,,,,,,,,
null,,thebreak,1494953,break,,null,,,,,,,,,,,,,,,,,,
3120.699999988079,,realistic_rating,1498074,Sitka,,50,Sitka,US,2,,,,,,,,,,,,,,,
null,,confidence_buffer,1498176,confidence_buffer,,null,,,,,,,,,,,,,,,,,,
2687,,pt2_unique_rating,1500864,Sitka,,53,,,5,,,,,,,,,,,,,,,
null,,confidence_buffer,1500966,confidence_buffer,,null,,,,,,,,,,,,,,,,,,
2772.099999964237,,pt2_memorable_rating,1503739,Sitka,,53,,,5,,,,,,,,,,,,,,,
null,,confidence_buffer,1503842,confidence_buffer,,null,,,,,,,,,,,,,,,,,,
1524.1000000238419,,recognition_phase,1505367,Sitka,,49,,,,,,old,1,0.9622641509433962,,,,,,,,,,
null,,confidence_buffer,1505470,confidence_buffer,,null,,,,,,,,,,,,,,,,,,
null,,thebreak,1505971,break,,null,,,,,,,,,,,,,,,,,,
3366.2999999523163,,realistic_rating,1509339,Bar Harbor,,49,Bar Harbor,US,1,,,,,,,,,,,,,,,
null,,confidence_buffer,1509440,confidence_buffer,,null,,,,,,,,,,,,,,,,,,
5083,,pt2_unique_rating,1514524,Bar Harbor,,49,,,1,,,,,,,,,,,,,,,
null,,confidence_buffer,1514626,confidence_buffer,,null,,,,,,,,,,,,,,,,,,
2639.2000000476837,,pt2_memorable_rating,1517266,Bar Harbor,,53,,,5,,,,,,,,,,,,,,,
null,,confidence_buffer,1517369,confidence_buffer,,null,,,,,,,,,,,,,,,,,,
2907,,recognition_phase,1520277,Bar Harbor,,52,,,,,,new,1,0.9629629629629629,,,,,,,,,,
null,,confidence_buffer,1520392,confidence_buffer,,null,,,,,,,,,,,,,,,,,,
null,,thebreak,1520893,break,,null,,,,,,,,,,,,,,,,,,
3122.599999964237,,realistic_rating,1524017,Livingston,,53,Livingston,US,5,,,,,,,,,,,,,,,
null,,confidence_buffer,1524129,confidence_buffer,,null,,,,,,,,,,,,,,,,,,
2799.100000023842,,pt2_unique_rating,1526929,Livingston,,49,,,1,,,,,,,,,,,,,,,
null,,confidence_buffer,1527031,confidence_buffer,,null,,,,,,,,,,,,,,,,,,
2496,,pt2_memorable_rating,1529528,Livingston,,53,,,5,,,,,,,,,,,,,,,
null,,confidence_buffer,1529630,confidence_buffer,,null,,,,,,,,,,,,,,,,,,
2415.199999988079,,recognition_phase,1532046,Livingston,,52,,,,,,new,1,0.9636363636363636,,,,,,,,,,
null,,confidence_buffer,1532153,confidence_buffer,,null,,,,,,,,,,,,,,,,,,
null,,thebreak,1532655,break,,null,,,,,,,,,,,,,,,,,,
3187.400000035763,,realistic_rating,1535843,Athens,,53,Athens,US,5,,,,,,,,,,,,,,,
null,,confidence_buffer,1535944,confidence_buffer,,null,,,,,,,,,,,,,,,,,,
3784.899999976158,,pt2_unique_rating,1539730,Athens,,52,,,4,,,,,,,,,,,,,,,
null,,confidence_buffer,1539832,confidence_buffer,,null,,,,,,,,,,,,,,,,,,
2575.800000011921,,pt2_memorable_rating,1542409,Athens,,53,,,5,,,,,,,,,,,,,,,
null,,confidence_buffer,1542511,confidence_buffer,,null,,,,,,,,,,,,,,,,,,
2534.099999964237,,recognition_phase,1545046,Athens,,52,,,,,,new,1,0.9642857142857143,,,,,,,,,,
null,,confidence_buffer,1545147,confidence_buffer,,null,,,,,,,,,,,,,,,,,,
null,,thebreak,1545650,break,,null,,,,,,,,,,,,,,,,,,
6094.300000011921,,realistic_rating,1551745,Watkins Glen,,50,Watkins Glen,US,2,,,,,,,,,,,,,,,
null,,confidence_buffer,1551847,confidence_buffer,,null,,,,,,,,,,,,,,,,,,
3414.2000000476837,,pt2_unique_rating,1555262,Watkins Glen,,53,,,5,,,,,,,,,,,,,,,
null,,confidence_buffer,1555363,confidence_buffer,,null,,,,,,,,,,,,,,,,,,
2405.300000011921,,pt2_memorable_rating,1557770,Watkins Glen,,53,,,5,,,,,,,,,,,,,,,
null,,confidence_buffer,1557871,confidence_buffer,,null,,,,,,,,,,,,,,,,,,
1968.9000000357628,,recognition_phase,1559841,Watkins Glen,,52,,,,,,new,1,0.9649122807017544,,,,,,,,,,
null,,confidence_buffer,1559943,confidence_buffer,,null,,,,,,,,,,,,,,,,,,
null,,thebreak,1560445,break,,null,,,,,,,,,,,,,,,,,,
5284.099999964237,,realistic_rating,1565730,Millstone,,52,Millstone,Fictional,4,,,,,,,,,,,,,,,
null,,confidence_buffer,1565831,confidence_buffer,,null,,,,,,,,,,,,,,,,,,
2452.800000011921,,pt2_unique_rating,1568285,Millstone,,50,,,2,,,,,,,,,,,,,,,
null,,confidence_buffer,1568388,confidence_buffer,,null,,,,,,,,,,,,,,,,,,
2031.800000011921,,pt2_memorable_rating,1570421,Millstone,,52,,,4,,,,,,,,,,,,,,,
null,,confidence_buffer,1570522,confidence_buffer,,null,,,,,,,,,,,,,,,,,,
2528.899999976158,,recognition_phase,1573052,Millstone,,51,,,,,,new,0,0.9482758620689655,,,,,,,,,,
null,,confidence_buffer,1573154,confidence_buffer,,null,,,,,,,,,,,,,,,,,,
null,,thebreak,1573655,break,,null,,,,,,,,,,,,,,,,,,
4963.5,,realistic_rating,1578620,Gloucester,,53,Gloucester,US,5,,,,,,,,,,,,,,,
null,,confidence_buffer,1578722,confidence_buffer,,null,,,,,,,,,,,,,,,,,,
3353.300000011921,,pt2_unique_rating,1582076,Gloucester,,52,,,4,,,,,,,,,,,,,,,
null,,confidence_buffer,1582178,confidence_buffer,,null,,,,,,,,,,,,,,,,,,
1896.9000000357628,,pt2_memorable_rating,1584076,Gloucester,,53,,,5,,,,,,,,,,,,,,,
null,,confidence_buffer,1584177,confidence_buffer,,null,,,,,,,,,,,,,,,,,,
2757.800000011921,,recognition_phase,1586936,Gloucester,,52,,,,,,new,1,0.9491525423728814,,,,,,,,,,
null,,confidence_buffer,1587038,confidence_buffer,,null,,,,,,,,,,,,,,,,,,
null,,thebreak,1587539,break,,null,,,,,,,,,,,,,,,,,,
5766.399999976158,,realistic_rating,1593307,Hanover,,52,Hanover,US,4,,,,,,,,,,,,,,,
null,,confidence_buffer,1593410,confidence_buffer,,null,,,,,,,,,,,,,,,,,,
1798,,pt2_unique_rating,1595208,Hanover,,51,,,3,,,,,,,,,,,,,,,
null,,confidence_buffer,1595310,confidence_buffer,,null,,,,,,,,,,,,,,,,,,
2391.800000011921,,pt2_memorable_rating,1597702,Hanover,,52,,,4,,,,,,,,,,,,,,,
null,,confidence_buffer,1597805,confidence_buffer,,null,,,,,,,,,,,,,,,,,,
2759.899999976158,,recognition_phase,1600566,Hanover,,52,,,,,,new,1,0.95,,,,,,,,,,
null,,confidence_buffer,1600667,confidence_buffer,,null,,,,,,,,,,,,,,,,,,
null,,thebreak,1601168,break,,null,,,,,,,,,,,,,,,,,,
,,survey,2037852,survey-questions,,,,,,,,,,,none,high,I wasn't. I was trying to memorize the names of the cities.,I tried to attach the names of the cities with places I knew. Some were easy, some weren't. The more unique the name, the more it stuck out.,I tried to think If i knew an actual place with that name. I now many heights, villas, bays, hills and hollows.,If someone told me they lived there, would I remember or forget as soon as they leave?,Is there any real place I know by this name?,How likely is it that a city would go by that name?,I've done many memory tests on Prolific, but none to do with the names of cities.,It was interesting, though I would have loved to know how many cities I correctly recalled as old.
