rt,responses,trial_type,time_elapsed,stimulus,button_pressed,key_press,name_trial,city_type,rating,probe,probe_accuracy,response,correct,accuracy,problems,smooth,distraction,strategies,familiar,memorable,unique,realistic,similar,comments
5978.099999904633,{worker_id:60fd6618f9a377f54dcdf318},id_enter,5979,,,,,,,,,,,,,,,,,,,,,
1581.0999999046326,,fullscreen,7563,fullscreen,0,,,,,,,,,,,,,,,,,,,
1440.7999999523163,,intro_0,9006,instruct,,32,,,,,,,,,,,,,,,,,,
9476.900000095367,,intro_1,18485,instruct,,32,,,,,,,,,,,,,,,,,,
40857.89999985695,,intro_2,59344,instruct,,32,,,,,,,,,,,,,,,,,,
null,,instruct_dir_4,60847,instruct,,null,,,,,,,,,,,,,,,,,,
null,,thebreak,61351,break,,null,,,,,,,,,,,,,,,,,,
7011.800000190735,,familiar_rating,68365,Sisters,,49,Sisters,US,1,,,,,,,,,,,,,,,
null,,confidence_buffer,68468,confidence_buffer,,null,,,,,,,,,,,,,,,,,,
3785.2999999523163,,probe_rating,72256,probe_rating,,49,,,,1,1,,,,,,,,,,,,,
null,,confidence_buffer,72359,confidence_buffer,,null,,,,,,,,,,,,,,,,,,
3478.800000190735,,unique_rating,75840,Sisters,,52,,,4,,,,,,,,,,,,,,,
null,,confidence_buffer,75943,confidence_buffer,,null,,,,,,,,,,,,,,,,,,
1788,,memorable_rating,77733,Sisters,,52,,,4,,,,,,,,,,,,,,,
null,,confidence_buffer,77836,confidence_buffer,,null,,,,,,,,,,,,,,,,,,
null,,thebreak,78338,break,,null,,,,,,,,,,,,,,,,,,
3654.5,,familiar_rating,81995,Crestwood,,49,Crestwood,Fictional,1,,,,,,,,,,,,,,,
null,,confidence_buffer,82098,confidence_buffer,,null,,,,,,,,,,,,,,,,,,
1487.5,,unique_rating,83587,Crestwood,,49,,,1,,,,,,,,,,,,,,,
null,,confidence_buffer,83690,confidence_buffer,,null,,,,,,,,,,,,,,,,,,
1493.2999999523163,,memorable_rating,85186,Crestwood,,50,,,2,,,,,,,,,,,,,,,
null,,confidence_buffer,85288,confidence_buffer,,null,,,,,,,,,,,,,,,,,,
null,,thebreak,85791,break,,null,,,,,,,,,,,,,,,,,,
2401.5999999046326,,familiar_rating,88194,West Palm Beach,,52,West Palm Beach,US,4,,,,,,,,,,,,,,,
null,,confidence_buffer,88297,confidence_buffer,,null,,,,,,,,,,,,,,,,,,
1902.8000001907349,,unique_rating,90201,West Palm Beach,,51,,,3,,,,,,,,,,,,,,,
null,,confidence_buffer,90303,confidence_buffer,,null,,,,,,,,,,,,,,,,,,
1469.7000000476837,,memorable_rating,91774,West Palm Beach,,51,,,3,,,,,,,,,,,,,,,
null,,confidence_buffer,91877,confidence_buffer,,null,,,,,,,,,,,,,,,,,,
null,,thebreak,92380,break,,null,,,,,,,,,,,,,,,,,,
1996,,familiar_rating,94377,Cornwall,,50,Cornwall,US,2,,,,,,,,,,,,,,,
null,,confidence_buffer,94480,confidence_buffer,,null,,,,,,,,,,,,,,,,,,
707.5,,unique_rating,95189,Cornwall,,50,,,2,,,,,,,,,,,,,,,
null,,confidence_buffer,95292,confidence_buffer,,null,,,,,,,,,,,,,,,,,,
1260.8000001907349,,memorable_rating,96555,Cornwall,,51,,,3,,,,,,,,,,,,,,,
null,,confidence_buffer,96658,confidence_buffer,,null,,,,,,,,,,,,,,,,,,
null,,thebreak,97160,break,,null,,,,,,,,,,,,,,,,,,
2112.7000000476837,,familiar_rating,99274,Hilo,,49,Hilo,US,1,,,,,,,,,,,,,,,
null,,confidence_buffer,99377,confidence_buffer,,null,,,,,,,,,,,,,,,,,,
2669,,probe_rating,102048,probe_rating,,49,,,,1,1,,,,,,,,,,,,,
null,,confidence_buffer,102151,confidence_buffer,,null,,,,,,,,,,,,,,,,,,
1509.6999998092651,,unique_rating,103662,Hilo,,52,,,4,,,,,,,,,,,,,,,
null,,confidence_buffer,103765,confidence_buffer,,null,,,,,,,,,,,,,,,,,,
1126.7999999523163,,memorable_rating,104893,Hilo,,53,,,5,,,,,,,,,,,,,,,
null,,confidence_buffer,104996,confidence_buffer,,null,,,,,,,,,,,,,,,,,,
null,,thebreak,105498,break,,null,,,,,,,,,,,,,,,,,,
4213,,familiar_rating,109712,Sunmere,,49,Sunmere,Fictional,1,,,,,,,,,,,,,,,
null,,confidence_buffer,109814,confidence_buffer,,null,,,,,,,,,,,,,,,,,,
2231.2999999523163,,unique_rating,112047,Sunmere,,53,,,5,,,,,,,,,,,,,,,
null,,confidence_buffer,112149,confidence_buffer,,null,,,,,,,,,,,,,,,,,,
892.4000000953674,,memorable_rating,113043,Sunmere,,52,,,4,,,,,,,,,,,,,,,
null,,confidence_buffer,113146,confidence_buffer,,null,,,,,,,,,,,,,,,,,,
null,,thebreak,113649,break,,null,,,,,,,,,,,,,,,,,,
1599.2999999523163,,familiar_rating,115250,Meadowspire,,49,Meadowspire,Fictional,1,,,,,,,,,,,,,,,
null,,confidence_buffer,115353,confidence_buffer,,null,,,,,,,,,,,,,,,,,,
1276,,unique_rating,116630,Meadowspire,,53,,,5,,,,,,,,,,,,,,,
null,,confidence_buffer,116734,confidence_buffer,,null,,,,,,,,,,,,,,,,,,
580.7000000476837,,memorable_rating,117316,Meadowspire,,52,,,4,,,,,,,,,,,,,,,
null,,confidence_buffer,117419,confidence_buffer,,null,,,,,,,,,,,,,,,,,,
null,,thebreak,117921,break,,null,,,,,,,,,,,,,,,,,,
1726.5,,familiar_rating,119649,Albuquerque,,53,Albuquerque,US,5,,,,,,,,,,,,,,,
null,,confidence_buffer,119752,confidence_buffer,,null,,,,,,,,,,,,,,,,,,
1142.8000001907349,,unique_rating,120897,Albuquerque,,52,,,4,,,,,,,,,,,,,,,
null,,confidence_buffer,121000,confidence_buffer,,null,,,,,,,,,,,,,,,,,,
863.5999999046326,,memorable_rating,121865,Albuquerque,,50,,,2,,,,,,,,,,,,,,,
null,,confidence_buffer,121968,confidence_buffer,,null,,,,,,,,,,,,,,,,,,
null,,thebreak,122471,break,,null,,,,,,,,,,,,,,,,,,
1392.7999999523163,,familiar_rating,123866,Yukon,,53,Yukon,US,5,,,,,,,,,,,,,,,
null,,confidence_buffer,123969,confidence_buffer,,null,,,,,,,,,,,,,,,,,,
405.7999999523163,,unique_rating,124376,Yukon,,52,,,4,,,,,,,,,,,,,,,
null,,confidence_buffer,124479,confidence_buffer,,null,,,,,,,,,,,,,,,,,,
798.9000000953674,,memorable_rating,125280,Yukon,,52,,,4,,,,,,,,,,,,,,,
null,,confidence_buffer,125383,confidence_buffer,,null,,,,,,,,,,,,,,,,,,
null,,thebreak,125886,break,,null,,,,,,,,,,,,,,,,,,
1933.0999999046326,,familiar_rating,127821,Hanover,,52,Hanover,US,4,,,,,,,,,,,,,,,
null,,confidence_buffer,127923,confidence_buffer,,null,,,,,,,,,,,,,,,,,,
1383.8999998569489,,unique_rating,129308,Hanover,,50,,,2,,,,,,,,,,,,,,,
null,,confidence_buffer,129412,confidence_buffer,,null,,,,,,,,,,,,,,,,,,
1008.6999998092651,,memorable_rating,130422,Hanover,,50,,,2,,,,,,,,,,,,,,,
null,,confidence_buffer,130525,confidence_buffer,,null,,,,,,,,,,,,,,,,,,
null,,thebreak,131028,break,,null,,,,,,,,,,,,,,,,,,
2171.899999856949,,familiar_rating,133201,Coralridge,,49,Coralridge,Fictional,1,,,,,,,,,,,,,,,
null,,confidence_buffer,133304,confidence_buffer,,null,,,,,,,,,,,,,,,,,,
425.2000000476837,,unique_rating,133731,Coralridge,,52,,,4,,,,,,,,,,,,,,,
null,,confidence_buffer,133833,confidence_buffer,,null,,,,,,,,,,,,,,,,,,
582.5,,memorable_rating,134417,Coralridge,,52,,,4,,,,,,,,,,,,,,,
null,,confidence_buffer,134520,confidence_buffer,,null,,,,,,,,,,,,,,,,,,
1087.9000000953674,,probe_rating,135610,probe_rating,,50,,,,2,1,,,,,,,,,,,,,
null,,confidence_buffer,135713,confidence_buffer,,null,,,,,,,,,,,,,,,,,,
null,,thebreak,136214,break,,null,,,,,,,,,,,,,,,,,,
1353.0999999046326,,familiar_rating,137569,Stonebrook,,52,Stonebrook,Fictional,4,,,,,,,,,,,,,,,
null,,confidence_buffer,137672,confidence_buffer,,null,,,,,,,,,,,,,,,,,,
703,,unique_rating,138377,Stonebrook,,52,,,4,,,,,,,,,,,,,,,
null,,confidence_buffer,138479,confidence_buffer,,null,,,,,,,,,,,,,,,,,,
406.40000009536743,,memorable_rating,138888,Stonebrook,,50,,,2,,,,,,,,,,,,,,,
null,,confidence_buffer,138991,confidence_buffer,,null,,,,,,,,,,,,,,,,,,
null,,thebreak,139493,break,,null,,,,,,,,,,,,,,,,,,
1275,,familiar_rating,140770,Linden Trace,,49,Linden Trace,Fictional,1,,,,,,,,,,,,,,,
null,,confidence_buffer,140873,confidence_buffer,,null,,,,,,,,,,,,,,,,,,
266.40000009536743,,unique_rating,141141,Linden Trace,,52,,,4,,,,,,,,,,,,,,,
null,,confidence_buffer,141243,confidence_buffer,,null,,,,,,,,,,,,,,,,,,
237.79999995231628,,memorable_rating,141482,Linden Trace,,50,,,2,,,,,,,,,,,,,,,
null,,confidence_buffer,141585,confidence_buffer,,null,,,,,,,,,,,,,,,,,,
null,,thebreak,142088,break,,null,,,,,,,,,,,,,,,,,,
1339.5,,familiar_rating,143429,Summershade,,49,Summershade,Fictional,1,,,,,,,,,,,,,,,
null,,confidence_buffer,143531,confidence_buffer,,null,,,,,,,,,,,,,,,,,,
224.80000019073486,,unique_rating,143758,Summershade,,50,,,2,,,,,,,,,,,,,,,
null,,confidence_buffer,143860,confidence_buffer,,null,,,,,,,,,,,,,,,,,,
484.60000014305115,,memorable_rating,144346,Summershade,,49,,,1,,,,,,,,,,,,,,,
null,,confidence_buffer,144449,confidence_buffer,,null,,,,,,,,,,,,,,,,,,
null,,thebreak,144952,break,,null,,,,,,,,,,,,,,,,,,
1887.8000001907349,,familiar_rating,146842,Berkeley Springs,,52,Berkeley Springs,US,4,,,,,,,,,,,,,,,
null,,confidence_buffer,146945,confidence_buffer,,null,,,,,,,,,,,,,,,,,,
1539.8999998569489,,unique_rating,148487,Berkeley Springs,,52,,,4,,,,,,,,,,,,,,,
null,,confidence_buffer,148590,confidence_buffer,,null,,,,,,,,,,,,,,,,,,
835.2999999523163,,memorable_rating,149427,Berkeley Springs,,50,,,2,,,,,,,,,,,,,,,
null,,confidence_buffer,149530,confidence_buffer,,null,,,,,,,,,,,,,,,,,,
null,,thebreak,150032,break,,null,,,,,,,,,,,,,,,,,,
1039,,familiar_rating,151073,Brookmere,,49,Brookmere,Fictional,1,,,,,,,,,,,,,,,
null,,confidence_buffer,151176,confidence_buffer,,null,,,,,,,,,,,,,,,,,,
408.7000000476837,,unique_rating,151586,Brookmere,,50,,,2,,,,,,,,,,,,,,,
null,,confidence_buffer,151688,confidence_buffer,,null,,,,,,,,,,,,,,,,,,
666.6000001430511,,memorable_rating,152356,Brookmere,,52,,,4,,,,,,,,,,,,,,,
null,,confidence_buffer,152459,confidence_buffer,,null,,,,,,,,,,,,,,,,,,
null,,thebreak,152962,break,,null,,,,,,,,,,,,,,,,,,
1851.5,,familiar_rating,154815,Clearbrook,,52,Clearbrook,Fictional,4,,,,,,,,,,,,,,,
null,,confidence_buffer,154917,confidence_buffer,,null,,,,,,,,,,,,,,,,,,
628,,unique_rating,155546,Clearbrook,,50,,,2,,,,,,,,,,,,,,,
null,,confidence_buffer,155650,confidence_buffer,,null,,,,,,,,,,,,,,,,,,
455.10000014305115,,memorable_rating,156106,Clearbrook,,51,,,3,,,,,,,,,,,,,,,
null,,confidence_buffer,156209,confidence_buffer,,null,,,,,,,,,,,,,,,,,,
null,,thebreak,156712,break,,null,,,,,,,,,,,,,,,,,,
1195.0999999046326,,familiar_rating,157909,Maravilla Springs,,49,Maravilla Springs,Fictional,1,,,,,,,,,,,,,,,
null,,confidence_buffer,158012,confidence_buffer,,null,,,,,,,,,,,,,,,,,,
1250.2999999523163,,unique_rating,159264,Maravilla Springs,,50,,,2,,,,,,,,,,,,,,,
null,,confidence_buffer,159366,confidence_buffer,,null,,,,,,,,,,,,,,,,,,
1047.4000000953674,,memorable_rating,160415,Maravilla Springs,,52,,,4,,,,,,,,,,,,,,,
null,,confidence_buffer,160519,confidence_buffer,,null,,,,,,,,,,,,,,,,,,
null,,thebreak,161021,break,,null,,,,,,,,,,,,,,,,,,
1477.2000000476837,,familiar_rating,162500,Pine Hollow,,50,Pine Hollow,Fictional,2,,,,,,,,,,,,,,,
null,,confidence_buffer,162603,confidence_buffer,,null,,,,,,,,,,,,,,,,,,
468.30000019073486,,unique_rating,163073,Pine Hollow,,52,,,4,,,,,,,,,,,,,,,
null,,confidence_buffer,163177,confidence_buffer,,null,,,,,,,,,,,,,,,,,,
686.4000000953674,,memorable_rating,163865,Pine Hollow,,53,,,5,,,,,,,,,,,,,,,
null,,confidence_buffer,163967,confidence_buffer,,null,,,,,,,,,,,,,,,,,,
null,,thebreak,164469,break,,null,,,,,,,,,,,,,,,,,,
1540.5999999046326,,familiar_rating,166011,Delaware City,,53,Delaware City,US,5,,,,,,,,,,,,,,,
null,,confidence_buffer,166115,confidence_buffer,,null,,,,,,,,,,,,,,,,,,
1034.7000000476837,,unique_rating,167151,Delaware City,,52,,,4,,,,,,,,,,,,,,,
null,,confidence_buffer,167254,confidence_buffer,,null,,,,,,,,,,,,,,,,,,
775.9000000953674,,memorable_rating,168032,Delaware City,,52,,,4,,,,,,,,,,,,,,,
null,,confidence_buffer,168134,confidence_buffer,,null,,,,,,,,,,,,,,,,,,
null,,thebreak,168637,break,,null,,,,,,,,,,,,,,,,,,
2089.5,,familiar_rating,170728,Livingston,,51,Livingston,US,3,,,,,,,,,,,,,,,
null,,confidence_buffer,170831,confidence_buffer,,null,,,,,,,,,,,,,,,,,,
561.0999999046326,,unique_rating,171394,Livingston,,50,,,2,,,,,,,,,,,,,,,
null,,confidence_buffer,171497,confidence_buffer,,null,,,,,,,,,,,,,,,,,,
654.2999999523163,,memorable_rating,172153,Livingston,,51,,,3,,,,,,,,,,,,,,,
null,,confidence_buffer,172255,confidence_buffer,,null,,,,,,,,,,,,,,,,,,
null,,thebreak,172758,break,,null,,,,,,,,,,,,,,,,,,
1296.3999998569489,,familiar_rating,174056,New Hope,,49,New Hope,US,1,,,,,,,,,,,,,,,
null,,confidence_buffer,174159,confidence_buffer,,null,,,,,,,,,,,,,,,,,,
568.5,,unique_rating,174729,New Hope,,50,,,2,,,,,,,,,,,,,,,
null,,confidence_buffer,174833,confidence_buffer,,null,,,,,,,,,,,,,,,,,,
431.2000000476837,,memorable_rating,175266,New Hope,,51,,,3,,,,,,,,,,,,,,,
null,,confidence_buffer,175369,confidence_buffer,,null,,,,,,,,,,,,,,,,,,
null,,thebreak,175872,break,,null,,,,,,,,,,,,,,,,,,
2611,,familiar_rating,178484,Abilene,,51,Abilene,US,3,,,,,,,,,,,,,,,
null,,confidence_buffer,178587,confidence_buffer,,null,,,,,,,,,,,,,,,,,,
897,,unique_rating,179486,Abilene,,51,,,3,,,,,,,,,,,,,,,
null,,confidence_buffer,179588,confidence_buffer,,null,,,,,,,,,,,,,,,,,,
462.7000000476837,,memorable_rating,180053,Abilene,,50,,,2,,,,,,,,,,,,,,,
null,,confidence_buffer,180156,confidence_buffer,,null,,,,,,,,,,,,,,,,,,
1035.7999999523163,,probe_rating,181193,probe_rating,,49,,,,1,1,,,,,,,,,,,,,
null,,confidence_buffer,181296,confidence_buffer,,null,,,,,,,,,,,,,,,,,,
null,,thebreak,181798,break,,null,,,,,,,,,,,,,,,,,,
1414.8999998569489,,familiar_rating,183215,Northbridge,,50,Northbridge,Fictional,2,,,,,,,,,,,,,,,
null,,confidence_buffer,183318,confidence_buffer,,null,,,,,,,,,,,,,,,,,,
404.09999990463257,,unique_rating,183723,Northbridge,,51,,,3,,,,,,,,,,,,,,,
null,,confidence_buffer,183826,confidence_buffer,,null,,,,,,,,,,,,,,,,,,
140.90000009536743,,memorable_rating,183968,Northbridge,,52,,,4,,,,,,,,,,,,,,,
null,,confidence_buffer,184071,confidence_buffer,,null,,,,,,,,,,,,,,,,,,
null,,thebreak,184573,break,,null,,,,,,,,,,,,,,,,,,
701.6999998092651,,familiar_rating,185277,Park City,,50,Park City,US,2,,,,,,,,,,,,,,,
null,,confidence_buffer,185380,confidence_buffer,,null,,,,,,,,,,,,,,,,,,
308.80000019073486,,unique_rating,185690,Park City,,51,,,3,,,,,,,,,,,,,,,
null,,confidence_buffer,185793,confidence_buffer,,null,,,,,,,,,,,,,,,,,,
328.40000009536743,,memorable_rating,186123,Park City,,52,,,4,,,,,,,,,,,,,,,
null,,confidence_buffer,186226,confidence_buffer,,null,,,,,,,,,,,,,,,,,,
null,,thebreak,186729,break,,null,,,,,,,,,,,,,,,,,,
647.7999999523163,,familiar_rating,187379,Fairhaven,,50,Fairhaven,Fictional,2,,,,,,,,,,,,,,,
null,,confidence_buffer,187482,confidence_buffer,,null,,,,,,,,,,,,,,,,,,
89,,unique_rating,187572,Fairhaven,,52,,,4,,,,,,,,,,,,,,,
null,,confidence_buffer,187675,confidence_buffer,,null,,,,,,,,,,,,,,,,,,
377.90000009536743,,memorable_rating,188054,Fairhaven,,51,,,3,,,,,,,,,,,,,,,
null,,confidence_buffer,188156,confidence_buffer,,null,,,,,,,,,,,,,,,,,,
null,,thebreak,188659,break,,null,,,,,,,,,,,,,,,,,,
1077.2999999523163,,familiar_rating,189738,Cedarwyn,,49,Cedarwyn,Fictional,1,,,,,,,,,,,,,,,
null,,confidence_buffer,189841,confidence_buffer,,null,,,,,,,,,,,,,,,,,,
732.2999999523163,,unique_rating,190575,Cedarwyn,,50,,,2,,,,,,,,,,,,,,,
null,,confidence_buffer,190677,confidence_buffer,,null,,,,,,,,,,,,,,,,,,
548.8999998569489,,memorable_rating,191227,Cedarwyn,,52,,,4,,,,,,,,,,,,,,,
null,,confidence_buffer,191331,confidence_buffer,,null,,,,,,,,,,,,,,,,,,
null,,thebreak,191833,break,,null,,,,,,,,,,,,,,,,,,
650.7000000476837,,familiar_rating,192486,Ashford Hills,,50,Ashford Hills,Fictional,2,,,,,,,,,,,,,,,
null,,confidence_buffer,192588,confidence_buffer,,null,,,,,,,,,,,,,,,,,,
742.3999998569489,,unique_rating,193333,Ashford Hills,,50,,,2,,,,,,,,,,,,,,,
null,,confidence_buffer,193435,confidence_buffer,,null,,,,,,,,,,,,,,,,,,
300.2999999523163,,memorable_rating,193737,Ashford Hills,,52,,,4,,,,,,,,,,,,,,,
null,,confidence_buffer,193839,confidence_buffer,,null,,,,,,,,,,,,,,,,,,
null,,thebreak,194342,break,,null,,,,,,,,,,,,,,,,,,
1152.8999998569489,,familiar_rating,195496,Manistee,,49,Manistee,US,1,,,,,,,,,,,,,,,
null,,confidence_buffer,195599,confidence_buffer,,null,,,,,,,,,,,,,,,,,,
309.59999990463257,,unique_rating,195911,Manistee,,50,,,2,,,,,,,,,,,,,,,
null,,confidence_buffer,196013,confidence_buffer,,null,,,,,,,,,,,,,,,,,,
473.40000009536743,,memorable_rating,196488,Manistee,,49,,,1,,,,,,,,,,,,,,,
null,,confidence_buffer,196591,confidence_buffer,,null,,,,,,,,,,,,,,,,,,
1046.2000000476837,,probe_rating,197639,probe_rating,,50,,,,2,1,,,,,,,,,,,,,
null,,confidence_buffer,197742,confidence_buffer,,null,,,,,,,,,,,,,,,,,,
null,,thebreak,198245,break,,null,,,,,,,,,,,,,,,,,,
475.7000000476837,,familiar_rating,198723,Natchez,,52,Natchez,US,4,,,,,,,,,,,,,,,
null,,confidence_buffer,198826,confidence_buffer,,null,,,,,,,,,,,,,,,,,,
703,,unique_rating,199531,Natchez,,53,,,5,,,,,,,,,,,,,,,
null,,confidence_buffer,199634,confidence_buffer,,null,,,,,,,,,,,,,,,,,,
73.90000009536743,,memorable_rating,199709,Natchez,,49,,,1,,,,,,,,,,,,,,,
null,,confidence_buffer,199810,confidence_buffer,,null,,,,,,,,,,,,,,,,,,
null,,thebreak,200312,break,,null,,,,,,,,,,,,,,,,,,
2093.399999856949,,intro_0,202407,instruct,,32,,,,,,,,,,,,,,,,,,
4403.099999904633,,intro_1,206812,instruct,,32,,,,,,,,,,,,,,,,,,
2518,,intro_2,209331,instruct,,32,,,,,,,,,,,,,,,,,,
null,,instruct_dir_4,210835,instruct,,null,,,,,,,,,,,,,,,,,,
3748.399999856949,,realistic_rating,214585,Ashford Hills,,52,Ashford Hills,Fictional,4,,,,,,,,,,,,,,,
null,,confidence_buffer,214687,confidence_buffer,,null,,,,,,,,,,,,,,,,,,
2400.199999809265,,pt2_unique_rating,217089,Ashford Hills,,51,,,3,,,,,,,,,,,,,,,
null,,confidence_buffer,217192,confidence_buffer,,null,,,,,,,,,,,,,,,,,,
522.7999999523163,,pt2_memorable_rating,217716,Ashford Hills,,51,,,3,,,,,,,,,,,,,,,
null,,confidence_buffer,217819,confidence_buffer,,null,,,,,,,,,,,,,,,,,,
2955.5999999046326,,recognition_phase,220776,Ashford Hills,,49,,,,,,old,1,1,,,,,,,,,,
null,,confidence_buffer,220878,confidence_buffer,,null,,,,,,,,,,,,,,,,,,
null,,thebreak,221381,break,,null,,,,,,,,,,,,,,,,,,
2256.100000143051,,realistic_rating,223639,Okoboji,,50,Okoboji,US,2,,,,,,,,,,,,,,,
null,,confidence_buffer,223742,confidence_buffer,,null,,,,,,,,,,,,,,,,,,
1419.7999999523163,,pt2_unique_rating,225163,Okoboji,,52,,,4,,,,,,,,,,,,,,,
null,,confidence_buffer,225266,confidence_buffer,,null,,,,,,,,,,,,,,,,,,
438.59999990463257,,pt2_memorable_rating,225707,Okoboji,,50,,,2,,,,,,,,,,,,,,,
null,,confidence_buffer,225810,confidence_buffer,,null,,,,,,,,,,,,,,,,,,
2020.7999999523163,,recognition_phase,227833,Okoboji,,52,,,,,,new,1,1,,,,,,,,,,
null,,confidence_buffer,227935,confidence_buffer,,null,,,,,,,,,,,,,,,,,,
null,,thebreak,228438,break,,null,,,,,,,,,,,,,,,,,,
2757.2999999523163,,realistic_rating,231197,Maplehurst,,50,Maplehurst,Fictional,2,,,,,,,,,,,,,,,
null,,confidence_buffer,231300,confidence_buffer,,null,,,,,,,,,,,,,,,,,,
1218.3999998569489,,pt2_unique_rating,232520,Maplehurst,,51,,,3,,,,,,,,,,,,,,,
null,,confidence_buffer,232624,confidence_buffer,,null,,,,,,,,,,,,,,,,,,
1983,,pt2_memorable_rating,234609,Maplehurst,,50,,,2,,,,,,,,,,,,,,,
null,,confidence_buffer,234712,confidence_buffer,,null,,,,,,,,,,,,,,,,,,
2599.2999999523163,,recognition_phase,237313,Maplehurst,,52,,,,,,new,1,1,,,,,,,,,,
null,,confidence_buffer,237415,confidence_buffer,,null,,,,,,,,,,,,,,,,,,
null,,thebreak,237918,break,,null,,,,,,,,,,,,,,,,,,
3017.7000000476837,,realistic_rating,240937,Berkeley Springs,,53,Berkeley Springs,US,5,,,,,,,,,,,,,,,
null,,confidence_buffer,241041,confidence_buffer,,null,,,,,,,,,,,,,,,,,,
1310.5,,pt2_unique_rating,242353,Berkeley Springs,,52,,,4,,,,,,,,,,,,,,,
null,,confidence_buffer,242456,confidence_buffer,,null,,,,,,,,,,,,,,,,,,
1169.2999999523163,,pt2_memorable_rating,243628,Berkeley Springs,,52,,,4,,,,,,,,,,,,,,,
null,,confidence_buffer,243731,confidence_buffer,,null,,,,,,,,,,,,,,,,,,
1184.7999999523163,,recognition_phase,244918,Berkeley Springs,,49,,,,,,old,1,1,,,,,,,,,,
null,,confidence_buffer,245021,confidence_buffer,,null,,,,,,,,,,,,,,,,,,
null,,thebreak,245523,break,,null,,,,,,,,,,,,,,,,,,
1234.7999999523163,,realistic_rating,246760,Bar Harbor,,52,Bar Harbor,US,4,,,,,,,,,,,,,,,
null,,confidence_buffer,246863,confidence_buffer,,null,,,,,,,,,,,,,,,,,,
534.5999999046326,,pt2_unique_rating,247400,Bar Harbor,,53,,,5,,,,,,,,,,,,,,,
null,,confidence_buffer,247502,confidence_buffer,,null,,,,,,,,,,,,,,,,,,
1020.1999998092651,,pt2_memorable_rating,248524,Bar Harbor,,50,,,2,,,,,,,,,,,,,,,
null,,confidence_buffer,248628,confidence_buffer,,null,,,,,,,,,,,,,,,,,,
998.7999999523163,,recognition_phase,249628,Bar Harbor,,49,,,,,,old,0,0.8,,,,,,,,,,
null,,confidence_buffer,249732,confidence_buffer,,null,,,,,,,,,,,,,,,,,,
null,,thebreak,250234,break,,null,,,,,,,,,,,,,,,,,,
1474.5,,realistic_rating,251711,Sisters,,53,Sisters,US,5,,,,,,,,,,,,,,,
null,,confidence_buffer,251813,confidence_buffer,,null,,,,,,,,,,,,,,,,,,
25.100000143051147,,pt2_unique_rating,251840,Sisters,,52,,,4,,,,,,,,,,,,,,,
null,,confidence_buffer,251943,confidence_buffer,,null,,,,,,,,,,,,,,,,,,
1361.2999999523163,,pt2_memorable_rating,253306,Sisters,,52,,,4,,,,,,,,,,,,,,,
null,,confidence_buffer,253409,confidence_buffer,,null,,,,,,,,,,,,,,,,,,
719.0999999046326,,recognition_phase,254130,Sisters,,49,,,,,,old,1,0.8333333333333334,,,,,,,,,,
null,,confidence_buffer,254233,confidence_buffer,,null,,,,,,,,,,,,,,,,,,
null,,thebreak,254736,break,,null,,,,,,,,,,,,,,,,,,
1002.0999999046326,,realistic_rating,255740,Cedarwyn,,52,Cedarwyn,Fictional,4,,,,,,,,,,,,,,,
null,,confidence_buffer,255843,confidence_buffer,,null,,,,,,,,,,,,,,,,,,
50,,pt2_unique_rating,255895,Cedarwyn,,50,,,2,,,,,,,,,,,,,,,
null,,confidence_buffer,255999,confidence_buffer,,null,,,,,,,,,,,,,,,,,,
1594.6000001430511,,pt2_memorable_rating,257596,Cedarwyn,,52,,,4,,,,,,,,,,,,,,,
null,,confidence_buffer,257698,confidence_buffer,,null,,,,,,,,,,,,,,,,,,
2236.5,,recognition_phase,259936,Cedarwyn,,51,,,,,,new,0,0.7142857142857143,,,,,,,,,,
null,,confidence_buffer,260039,confidence_buffer,,null,,,,,,,,,,,,,,,,,,
null,,thebreak,260542,break,,null,,,,,,,,,,,,,,,,,,
2171.300000190735,,realistic_rating,262714,Clearbrook,,50,Clearbrook,Fictional,2,,,,,,,,,,,,,,,
null,,confidence_buffer,262816,confidence_buffer,,null,,,,,,,,,,,,,,,,,,
185.89999985694885,,pt2_unique_rating,263003,Clearbrook,,49,,,1,,,,,,,,,,,,,,,
null,,confidence_buffer,263104,confidence_buffer,,null,,,,,,,,,,,,,,,,,,
1094.1000001430511,,pt2_memorable_rating,264199,Clearbrook,,52,,,4,,,,,,,,,,,,,,,
null,,confidence_buffer,264302,confidence_buffer,,null,,,,,,,,,,,,,,,,,,
732.9000000953674,,recognition_phase,265037,Clearbrook,,49,,,,,,old,1,0.75,,,,,,,,,,
null,,confidence_buffer,265141,confidence_buffer,,null,,,,,,,,,,,,,,,,,,
null,,thebreak,265644,break,,null,,,,,,,,,,,,,,,,,,
1612.3000001907349,,realistic_rating,267258,Sitka,,52,Sitka,US,4,,,,,,,,,,,,,,,
null,,confidence_buffer,267361,confidence_buffer,,null,,,,,,,,,,,,,,,,,,
428.60000014305115,,pt2_unique_rating,267792,Sitka,,50,,,2,,,,,,,,,,,,,,,
null,,confidence_buffer,267895,confidence_buffer,,null,,,,,,,,,,,,,,,,,,
353.5,,pt2_memorable_rating,268250,Sitka,,53,,,5,,,,,,,,,,,,,,,
null,,confidence_buffer,268353,confidence_buffer,,null,,,,,,,,,,,,,,,,,,
720.2000000476837,,recognition_phase,269075,Sitka,,49,,,,,,old,0,0.6666666666666666,,,,,,,,,,
null,,confidence_buffer,269179,confidence_buffer,,null,,,,,,,,,,,,,,,,,,
null,,thebreak,269681,break,,null,,,,,,,,,,,,,,,,,,
789.2999999523163,,realistic_rating,270473,Manistee,,52,Manistee,US,4,,,,,,,,,,,,,,,
null,,confidence_buffer,270576,confidence_buffer,,null,,,,,,,,,,,,,,,,,,
576,,pt2_unique_rating,271154,Manistee,,50,,,2,,,,,,,,,,,,,,,
null,,confidence_buffer,271256,confidence_buffer,,null,,,,,,,,,,,,,,,,,,
998.2999999523163,,pt2_memorable_rating,272256,Manistee,,53,,,5,,,,,,,,,,,,,,,
null,,confidence_buffer,272359,confidence_buffer,,null,,,,,,,,,,,,,,,,,,
1076.5,,recognition_phase,273438,Manistee,,49,,,,,,old,1,0.7,,,,,,,,,,
null,,confidence_buffer,273541,confidence_buffer,,null,,,,,,,,,,,,,,,,,,
null,,thebreak,274044,break,,null,,,,,,,,,,,,,,,,,,
1607.7999999523163,,realistic_rating,275653,Park City,,53,Park City,US,5,,,,,,,,,,,,,,,
null,,confidence_buffer,275759,confidence_buffer,,null,,,,,,,,,,,,,,,,,,
838.3000001907349,,pt2_unique_rating,276599,Park City,,52,,,4,,,,,,,,,,,,,,,
null,,confidence_buffer,276703,confidence_buffer,,null,,,,,,,,,,,,,,,,,,
332.89999985694885,,pt2_memorable_rating,277037,Park City,,50,,,2,,,,,,,,,,,,,,,
null,,confidence_buffer,277141,confidence_buffer,,null,,,,,,,,,,,,,,,,,,
795.9000000953674,,recognition_phase,277938,Park City,,49,,,,,,old,1,0.7272727272727273,,,,,,,,,,
null,,confidence_buffer,278041,confidence_buffer,,null,,,,,,,,,,,,,,,,,,
null,,thebreak,278543,break,,null,,,,,,,,,,,,,,,,,,
1665.1000001430511,,realistic_rating,280210,Rosehollow,,50,Rosehollow,Fictional,2,,,,,,,,,,,,,,,
null,,confidence_buffer,280314,confidence_buffer,,null,,,,,,,,,,,,,,,,,,
310,,pt2_unique_rating,280626,Rosehollow,,52,,,4,,,,,,,,,,,,,,,
null,,confidence_buffer,280728,confidence_buffer,,null,,,,,,,,,,,,,,,,,,
1260.4000000953674,,pt2_memorable_rating,281990,Rosehollow,,53,,,5,,,,,,,,,,,,,,,
null,,confidence_buffer,282093,confidence_buffer,,null,,,,,,,,,,,,,,,,,,
2348.5999999046326,,recognition_phase,284444,Rosehollow,,52,,,,,,new,1,0.75,,,,,,,,,,
null,,confidence_buffer,284547,confidence_buffer,,null,,,,,,,,,,,,,,,,,,
null,,thebreak,285049,break,,null,,,,,,,,,,,,,,,,,,
1414.5,,realistic_rating,286465,Bisbee,,50,Bisbee,US,2,,,,,,,,,,,,,,,
null,,confidence_buffer,286568,confidence_buffer,,null,,,,,,,,,,,,,,,,,,
330.5,,pt2_unique_rating,286900,Bisbee,,52,,,4,,,,,,,,,,,,,,,
null,,confidence_buffer,287002,confidence_buffer,,null,,,,,,,,,,,,,,,,,,
904.0999999046326,,pt2_memorable_rating,287908,Bisbee,,50,,,2,,,,,,,,,,,,,,,
null,,confidence_buffer,288012,confidence_buffer,,null,,,,,,,,,,,,,,,,,,
458.39999985694885,,recognition_phase,288472,Bisbee,,49,,,,,,old,0,0.6923076923076923,,,,,,,,,,
null,,confidence_buffer,288576,confidence_buffer,,null,,,,,,,,,,,,,,,,,,
null,,thebreak,289079,break,,null,,,,,,,,,,,,,,,,,,
899.9000000953674,,realistic_rating,289980,Crestwood,,52,Crestwood,Fictional,4,,,,,,,,,,,,,,,
null,,confidence_buffer,290083,confidence_buffer,,null,,,,,,,,,,,,,,,,,,
720.6000001430511,,pt2_unique_rating,290805,Crestwood,,53,,,5,,,,,,,,,,,,,,,
null,,confidence_buffer,290908,confidence_buffer,,null,,,,,,,,,,,,,,,,,,
713,,pt2_memorable_rating,291623,Crestwood,,49,,,1,,,,,,,,,,,,,,,
null,,confidence_buffer,291726,confidence_buffer,,null,,,,,,,,,,,,,,,,,,
1126.4000000953674,,probe_rating,292854,probe_rating,,50,,,,2,1,,,,,,,,,,,,,
null,,confidence_buffer,292958,confidence_buffer,,null,,,,,,,,,,,,,,,,,,
1090.5,,recognition_phase,294050,Crestwood,,49,,,,,,old,1,0.7142857142857143,,,,,,,,,,
null,,confidence_buffer,294154,confidence_buffer,,null,,,,,,,,,,,,,,,,,,
null,,thebreak,294656,break,,null,,,,,,,,,,,,,,,,,,
808,,realistic_rating,295466,Northbridge,,52,Northbridge,Fictional,4,,,,,,,,,,,,,,,
null,,confidence_buffer,295569,confidence_buffer,,null,,,,,,,,,,,,,,,,,,
209.89999985694885,,pt2_unique_rating,295781,Northbridge,,50,,,2,,,,,,,,,,,,,,,
null,,confidence_buffer,295883,confidence_buffer,,null,,,,,,,,,,,,,,,,,,
167.90000009536743,,pt2_memorable_rating,296052,Northbridge,,53,,,5,,,,,,,,,,,,,,,
null,,confidence_buffer,296155,confidence_buffer,,null,,,,,,,,,,,,,,,,,,
794.9000000953674,,recognition_phase,296952,Northbridge,,49,,,,,,old,1,0.7333333333333333,,,,,,,,,,
null,,confidence_buffer,297055,confidence_buffer,,null,,,,,,,,,,,,,,,,,,
null,,thebreak,297558,break,,null,,,,,,,,,,,,,,,,,,
1607.4000000953674,,realistic_rating,299167,West Palm Beach,,53,West Palm Beach,US,5,,,,,,,,,,,,,,,
null,,confidence_buffer,299270,confidence_buffer,,null,,,,,,,,,,,,,,,,,,
833.2000000476837,,pt2_unique_rating,300105,West Palm Beach,,52,,,4,,,,,,,,,,,,,,,
null,,confidence_buffer,300208,confidence_buffer,,null,,,,,,,,,,,,,,,,,,
228.80000019073486,,pt2_memorable_rating,300439,West Palm Beach,,50,,,2,,,,,,,,,,,,,,,
null,,confidence_buffer,300542,confidence_buffer,,null,,,,,,,,,,,,,,,,,,
707.7999999523163,,recognition_phase,301252,West Palm Beach,,52,,,,,,new,0,0.6875,,,,,,,,,,
null,,confidence_buffer,301355,confidence_buffer,,null,,,,,,,,,,,,,,,,,,
null,,thebreak,301857,break,,null,,,,,,,,,,,,,,,,,,
1528,,realistic_rating,303387,Natchez,,53,Natchez,US,5,,,,,,,,,,,,,,,
null,,confidence_buffer,303491,confidence_buffer,,null,,,,,,,,,,,,,,,,,,
230.90000009536743,,pt2_unique_rating,303723,Natchez,,50,,,2,,,,,,,,,,,,,,,
null,,confidence_buffer,303827,confidence_buffer,,null,,,,,,,,,,,,,,,,,,
270.5,,probe_rating,304099,probe_rating,,52,,,,4,0,,,,,,,,,,,,,
null,,confidence_buffer,304202,confidence_buffer,,null,,,,,,,,,,,,,,,,,,
2069.0999999046326,,pt2_memorable_rating,306273,Natchez,,49,,,1,,,,,,,,,,,,,,,
null,,confidence_buffer,306376,confidence_buffer,,null,,,,,,,,,,,,,,,,,,
930.7999999523163,,recognition_phase,307309,Natchez,,52,,,,,,new,0,0.6470588235294118,,,,,,,,,,
null,,confidence_buffer,307412,confidence_buffer,,null,,,,,,,,,,,,,,,,,,
null,,thebreak,307914,break,,null,,,,,,,,,,,,,,,,,,
1350.3999998569489,,realistic_rating,309266,Hot Springs,,50,Hot Springs,US,2,,,,,,,,,,,,,,,
null,,confidence_buffer,309369,confidence_buffer,,null,,,,,,,,,,,,,,,,,,
490.39999985694885,,pt2_unique_rating,309861,Hot Springs,,52,,,4,,,,,,,,,,,,,,,
null,,confidence_buffer,309964,confidence_buffer,,null,,,,,,,,,,,,,,,,,,
471.7000000476837,,pt2_memorable_rating,310438,Hot Springs,,53,,,5,,,,,,,,,,,,,,,
null,,confidence_buffer,310542,confidence_buffer,,null,,,,,,,,,,,,,,,,,,
1704.3000001907349,,recognition_phase,312248,Hot Springs,,52,,,,,,new,1,0.6666666666666666,,,,,,,,,,
null,,confidence_buffer,312351,confidence_buffer,,null,,,,,,,,,,,,,,,,,,
null,,thebreak,312855,break,,null,,,,,,,,,,,,,,,,,,
905.5,,realistic_rating,313762,Maravilla Springs,,50,Maravilla Springs,Fictional,2,,,,,,,,,,,,,,,
null,,confidence_buffer,313863,confidence_buffer,,null,,,,,,,,,,,,,,,,,,
829.6000001430511,,pt2_unique_rating,314694,Maravilla Springs,,53,,,5,,,,,,,,,,,,,,,
null,,confidence_buffer,314797,confidence_buffer,,null,,,,,,,,,,,,,,,,,,
415.30000019073486,,pt2_memorable_rating,315214,Maravilla Springs,,52,,,4,,,,,,,,,,,,,,,
null,,confidence_buffer,315318,confidence_buffer,,null,,,,,,,,,,,,,,,,,,
1472.6000001430511,,probe_rating,316792,probe_rating,,52,,,,4,1,,,,,,,,,,,,,
null,,confidence_buffer,316895,confidence_buffer,,null,,,,,,,,,,,,,,,,,,
1527.5,,recognition_phase,318423,Maravilla Springs,,49,,,,,,old,1,0.6842105263157895,,,,,,,,,,
null,,confidence_buffer,318527,confidence_buffer,,null,,,,,,,,,,,,,,,,,,
null,,thebreak,319029,break,,null,,,,,,,,,,,,,,,,,,
961.1000001430511,,realistic_rating,319992,Golden Trace,,50,Golden Trace,Fictional,2,,,,,,,,,,,,,,,
null,,confidence_buffer,320095,confidence_buffer,,null,,,,,,,,,,,,,,,,,,
234.69999980926514,,pt2_unique_rating,320331,Golden Trace,,52,,,4,,,,,,,,,,,,,,,
null,,confidence_buffer,320433,confidence_buffer,,null,,,,,,,,,,,,,,,,,,
344.59999990463257,,pt2_memorable_rating,320779,Golden Trace,,53,,,5,,,,,,,,,,,,,,,
null,,confidence_buffer,320882,confidence_buffer,,null,,,,,,,,,,,,,,,,,,
1213.5,,probe_rating,322097,probe_rating,,52,,,,4,1,,,,,,,,,,,,,
null,,confidence_buffer,322200,confidence_buffer,,null,,,,,,,,,,,,,,,,,,
2329.100000143051,,recognition_phase,324530,Golden Trace,,52,,,,,,new,1,0.7,,,,,,,,,,
null,,confidence_buffer,324631,confidence_buffer,,null,,,,,,,,,,,,,,,,,,
null,,thebreak,325133,break,,null,,,,,,,,,,,,,,,,,,
1541.4000000953674,,realistic_rating,326676,West Talora,,50,West Talora,Fictional,2,,,,,,,,,,,,,,,
null,,confidence_buffer,326780,confidence_buffer,,null,,,,,,,,,,,,,,,,,,
762.0999999046326,,pt2_unique_rating,327543,West Talora,,52,,,4,,,,,,,,,,,,,,,
null,,confidence_buffer,327647,confidence_buffer,,null,,,,,,,,,,,,,,,,,,
474.2999999523163,,pt2_memorable_rating,328123,West Talora,,50,,,2,,,,,,,,,,,,,,,
null,,confidence_buffer,328226,confidence_buffer,,null,,,,,,,,,,,,,,,,,,
2740.199999809265,,recognition_phase,330967,West Talora,,51,,,,,,new,1,0.7142857142857143,,,,,,,,,,
null,,confidence_buffer,331070,confidence_buffer,,null,,,,,,,,,,,,,,,,,,
null,,thebreak,331573,break,,null,,,,,,,,,,,,,,,,,,
1762.2999999523163,,realistic_rating,333337,Albuquerque,,53,Albuquerque,US,5,,,,,,,,,,,,,,,
null,,confidence_buffer,333439,confidence_buffer,,null,,,,,,,,,,,,,,,,,,
660.1000001430511,,pt2_unique_rating,334100,Albuquerque,,52,,,4,,,,,,,,,,,,,,,
null,,confidence_buffer,334204,confidence_buffer,,null,,,,,,,,,,,,,,,,,,
420.09999990463257,,pt2_memorable_rating,334625,Albuquerque,,52,,,4,,,,,,,,,,,,,,,
null,,confidence_buffer,334728,confidence_buffer,,null,,,,,,,,,,,,,,,,,,
970.5999999046326,,probe_rating,335700,probe_rating,,51,,,,3,1,,,,,,,,,,,,,
null,,confidence_buffer,335803,confidence_buffer,,null,,,,,,,,,,,,,,,,,,
771.5,,recognition_phase,336576,Albuquerque,,49,,,,,,old,1,0.7272727272727273,,,,,,,,,,
null,,confidence_buffer,336679,confidence_buffer,,null,,,,,,,,,,,,,,,,,,
null,,thebreak,337181,break,,null,,,,,,,,,,,,,,,,,,
838.4000000953674,,realistic_rating,338021,Summershade,,53,Summershade,Fictional,5,,,,,,,,,,,,,,,
null,,confidence_buffer,338123,confidence_buffer,,null,,,,,,,,,,,,,,,,,,
96.5,,probe_rating,338221,probe_rating,,50,,,,2,0,,,,,,,,,,,,,
null,,confidence_buffer,338324,confidence_buffer,,null,,,,,,,,,,,,,,,,,,
129.09999990463257,,pt2_unique_rating,338454,Summershade,,52,,,4,,,,,,,,,,,,,,,
null,,confidence_buffer,338558,confidence_buffer,,null,,,,,,,,,,,,,,,,,,
1876.2999999523163,,pt2_memorable_rating,340436,Summershade,,52,,,4,,,,,,,,,,,,,,,
null,,confidence_buffer,340540,confidence_buffer,,null,,,,,,,,,,,,,,,,,,
661.5,,recognition_phase,341203,Summershade,,49,,,,,,old,1,0.7391304347826086,,,,,,,,,,
null,,confidence_buffer,341306,confidence_buffer,,null,,,,,,,,,,,,,,,,,,
null,,thebreak,341809,break,,null,,,,,,,,,,,,,,,,,,
1811.6999998092651,,realistic_rating,343622,Healdsburg,,52,Healdsburg,US,4,,,,,,,,,,,,,,,
null,,confidence_buffer,343726,confidence_buffer,,null,,,,,,,,,,,,,,,,,,
698.5,,pt2_unique_rating,344426,Healdsburg,,50,,,2,,,,,,,,,,,,,,,
null,,confidence_buffer,344528,confidence_buffer,,null,,,,,,,,,,,,,,,,,,
531.2999999523163,,pt2_memorable_rating,345061,Healdsburg,,53,,,5,,,,,,,,,,,,,,,
null,,confidence_buffer,345164,confidence_buffer,,null,,,,,,,,,,,,,,,,,,
1953.6000001430511,,recognition_phase,347118,Healdsburg,,52,,,,,,new,1,0.75,,,,,,,,,,
null,,confidence_buffer,347221,confidence_buffer,,null,,,,,,,,,,,,,,,,,,
null,,thebreak,347724,break,,null,,,,,,,,,,,,,,,,,,
1099,,realistic_rating,348824,Brookmere,,50,Brookmere,Fictional,2,,,,,,,,,,,,,,,
null,,confidence_buffer,348927,confidence_buffer,,null,,,,,,,,,,,,,,,,,,
615.2000000476837,,pt2_unique_rating,349544,Brookmere,,52,,,4,,,,,,,,,,,,,,,
null,,confidence_buffer,349649,confidence_buffer,,null,,,,,,,,,,,,,,,,,,
888.3000001907349,,pt2_memorable_rating,350539,Brookmere,,53,,,5,,,,,,,,,,,,,,,
null,,confidence_buffer,350642,confidence_buffer,,null,,,,,,,,,,,,,,,,,,
1252.2000000476837,,recognition_phase,351896,Brookmere,,49,,,,,,old,1,0.76,,,,,,,,,,
null,,confidence_buffer,351998,confidence_buffer,,null,,,,,,,,,,,,,,,,,,
null,,thebreak,352501,break,,null,,,,,,,,,,,,,,,,,,
926.8999998569489,,realistic_rating,353429,Redgrove,,50,Redgrove,Fictional,2,,,,,,,,,,,,,,,
null,,confidence_buffer,353532,confidence_buffer,,null,,,,,,,,,,,,,,,,,,
758.2999999523163,,pt2_unique_rating,354292,Redgrove,,52,,,4,,,,,,,,,,,,,,,
null,,confidence_buffer,354394,confidence_buffer,,null,,,,,,,,,,,,,,,,,,
628.8999998569489,,pt2_memorable_rating,355024,Redgrove,,53,,,5,,,,,,,,,,,,,,,
null,,confidence_buffer,355127,confidence_buffer,,null,,,,,,,,,,,,,,,,,,
1513.7000000476837,,recognition_phase,356642,Redgrove,,52,,,,,,new,1,0.7692307692307693,,,,,,,,,,
null,,confidence_buffer,356745,confidence_buffer,,null,,,,,,,,,,,,,,,,,,
null,,thebreak,357248,break,,null,,,,,,,,,,,,,,,,,,
1205.7999999523163,,realistic_rating,358455,Delaro Park,,50,Delaro Park,Fictional,2,,,,,,,,,,,,,,,
null,,confidence_buffer,358558,confidence_buffer,,null,,,,,,,,,,,,,,,,,,
691.7000000476837,,pt2_unique_rating,359252,Delaro Park,,52,,,4,,,,,,,,,,,,,,,
null,,confidence_buffer,359356,confidence_buffer,,null,,,,,,,,,,,,,,,,,,
531,,pt2_memorable_rating,359888,Delaro Park,,52,,,4,,,,,,,,,,,,,,,
null,,confidence_buffer,359991,confidence_buffer,,null,,,,,,,,,,,,,,,,,,
1483.2000000476837,,recognition_phase,361475,Delaro Park,,50,,,,,,old,0,0.7407407407407407,,,,,,,,,,
null,,confidence_buffer,361579,confidence_buffer,,null,,,,,,,,,,,,,,,,,,
null,,thebreak,362081,break,,null,,,,,,,,,,,,,,,,,,
1194.0999999046326,,realistic_rating,363277,Assateague Island,,50,Assateague Island,US,2,,,,,,,,,,,,,,,
null,,confidence_buffer,363380,confidence_buffer,,null,,,,,,,,,,,,,,,,,,
545.0999999046326,,pt2_unique_rating,363927,Assateague Island,,52,,,4,,,,,,,,,,,,,,,
null,,confidence_buffer,364030,confidence_buffer,,null,,,,,,,,,,,,,,,,,,
1126.8999998569489,,pt2_memorable_rating,365158,Assateague Island,,53,,,5,,,,,,,,,,,,,,,
null,,confidence_buffer,365261,confidence_buffer,,null,,,,,,,,,,,,,,,,,,
1474.7999999523163,,recognition_phase,366737,Assateague Island,,52,,,,,,new,1,0.75,,,,,,,,,,
null,,confidence_buffer,366840,confidence_buffer,,null,,,,,,,,,,,,,,,,,,
null,,thebreak,367343,break,,null,,,,,,,,,,,,,,,,,,
2770,,realistic_rating,370115,Cape May,,51,Cape May,US,3,,,,,,,,,,,,,,,
null,,confidence_buffer,370218,confidence_buffer,,null,,,,,,,,,,,,,,,,,,
676.8000001907349,,pt2_unique_rating,370896,Cape May,,52,,,4,,,,,,,,,,,,,,,
null,,confidence_buffer,371000,confidence_buffer,,null,,,,,,,,,,,,,,,,,,
694.3000001907349,,pt2_memorable_rating,371695,Cape May,,52,,,4,,,,,,,,,,,,,,,
null,,confidence_buffer,371798,confidence_buffer,,null,,,,,,,,,,,,,,,,,,
1402.8999998569489,,recognition_phase,373203,Cape May,,50,,,,,,old,0,0.7241379310344828,,,,,,,,,,
null,,confidence_buffer,373306,confidence_buffer,,null,,,,,,,,,,,,,,,,,,
null,,thebreak,373808,break,,null,,,,,,,,,,,,,,,,,,
1416.8999998569489,,realistic_rating,375227,Bayshore Haven,,52,Bayshore Haven,Fictional,4,,,,,,,,,,,,,,,
null,,confidence_buffer,375330,confidence_buffer,,null,,,,,,,,,,,,,,,,,,
922.7000000476837,,pt2_unique_rating,376254,Bayshore Haven,,50,,,2,,,,,,,,,,,,,,,
null,,confidence_buffer,376357,confidence_buffer,,null,,,,,,,,,,,,,,,,,,
678,,pt2_memorable_rating,377037,Bayshore Haven,,51,,,3,,,,,,,,,,,,,,,
null,,confidence_buffer,377140,confidence_buffer,,null,,,,,,,,,,,,,,,,,,
1140.9000000953674,,recognition_phase,378283,Bayshore Haven,,52,,,,,,new,1,0.7333333333333333,,,,,,,,,,
null,,confidence_buffer,378386,confidence_buffer,,null,,,,,,,,,,,,,,,,,,
null,,thebreak,378888,break,,null,,,,,,,,,,,,,,,,,,
1975.7999999523163,,realistic_rating,380866,Delaware City,,53,Delaware City,US,5,,,,,,,,,,,,,,,
null,,confidence_buffer,380969,confidence_buffer,,null,,,,,,,,,,,,,,,,,,
1906,,pt2_unique_rating,382877,Delaware City,,52,,,4,,,,,,,,,,,,,,,
null,,confidence_buffer,382979,confidence_buffer,,null,,,,,,,,,,,,,,,,,,
1287,,pt2_memorable_rating,384268,Delaware City,,52,,,4,,,,,,,,,,,,,,,
null,,confidence_buffer,384371,confidence_buffer,,null,,,,,,,,,,,,,,,,,,
1324.5,,recognition_phase,385697,Delaware City,,49,,,,,,old,1,0.7419354838709677,,,,,,,,,,
null,,confidence_buffer,385799,confidence_buffer,,null,,,,,,,,,,,,,,,,,,
null,,thebreak,386302,break,,null,,,,,,,,,,,,,,,,,,
1715.3999998569489,,realistic_rating,388018,Orr,,52,Orr,US,4,,,,,,,,,,,,,,,
null,,confidence_buffer,388121,confidence_buffer,,null,,,,,,,,,,,,,,,,,,
611.2000000476837,,pt2_unique_rating,388733,Orr,,51,,,3,,,,,,,,,,,,,,,
null,,confidence_buffer,388835,confidence_buffer,,null,,,,,,,,,,,,,,,,,,
764.1999998092651,,pt2_memorable_rating,389601,Orr,,53,,,5,,,,,,,,,,,,,,,
null,,confidence_buffer,389704,confidence_buffer,,null,,,,,,,,,,,,,,,,,,
1412.6999998092651,,recognition_phase,391118,Orr,,52,,,,,,new,1,0.75,,,,,,,,,,
null,,confidence_buffer,391221,confidence_buffer,,null,,,,,,,,,,,,,,,,,,
null,,thebreak,391724,break,,null,,,,,,,,,,,,,,,,,,
1528.4000000953674,,realistic_rating,393254,Riverlyn,,50,Riverlyn,Fictional,2,,,,,,,,,,,,,,,
null,,confidence_buffer,393357,confidence_buffer,,null,,,,,,,,,,,,,,,,,,
639.0999999046326,,pt2_unique_rating,393998,Riverlyn,,52,,,4,,,,,,,,,,,,,,,
null,,confidence_buffer,394101,confidence_buffer,,null,,,,,,,,,,,,,,,,,,
657.0999999046326,,pt2_memorable_rating,394760,Riverlyn,,51,,,3,,,,,,,,,,,,,,,
null,,confidence_buffer,394861,confidence_buffer,,null,,,,,,,,,,,,,,,,,,
631.5999999046326,,recognition_phase,395495,Riverlyn,,50,,,,,,old,0,0.7272727272727273,,,,,,,,,,
null,,confidence_buffer,395598,confidence_buffer,,null,,,,,,,,,,,,,,,,,,
null,,thebreak,396100,break,,null,,,,,,,,,,,,,,,,,,
681.6999998092651,,realistic_rating,396783,Abilene,,52,Abilene,US,4,,,,,,,,,,,,,,,
null,,confidence_buffer,396887,confidence_buffer,,null,,,,,,,,,,,,,,,,,,
1602.0999999046326,,probe_rating,398490,probe_rating,,49,,,,1,1,,,,,,,,,,,,,
null,,confidence_buffer,398594,confidence_buffer,,null,,,,,,,,,,,,,,,,,,
545.5999999046326,,pt2_unique_rating,399141,Abilene,,50,,,2,,,,,,,,,,,,,,,
null,,confidence_buffer,399244,confidence_buffer,,null,,,,,,,,,,,,,,,,,,
923.4000000953674,,pt2_memorable_rating,400169,Abilene,,53,,,5,,,,,,,,,,,,,,,
null,,confidence_buffer,400273,confidence_buffer,,null,,,,,,,,,,,,,,,,,,
813.2999999523163,,recognition_phase,401088,Abilene,,49,,,,,,old,1,0.7352941176470589,,,,,,,,,,
null,,confidence_buffer,401190,confidence_buffer,,null,,,,,,,,,,,,,,,,,,
null,,thebreak,401692,break,,null,,,,,,,,,,,,,,,,,,
1074,,realistic_rating,402768,Stonebrook,,52,Stonebrook,Fictional,4,,,,,,,,,,,,,,,
null,,confidence_buffer,402872,confidence_buffer,,null,,,,,,,,,,,,,,,,,,
587,,pt2_unique_rating,403460,Stonebrook,,50,,,2,,,,,,,,,,,,,,,
null,,confidence_buffer,403563,confidence_buffer,,null,,,,,,,,,,,,,,,,,,
828.4000000953674,,pt2_memorable_rating,404393,Stonebrook,,53,,,5,,,,,,,,,,,,,,,
null,,confidence_buffer,404495,confidence_buffer,,null,,,,,,,,,,,,,,,,,,
2677.9000000953674,,recognition_phase,407175,Stonebrook,,50,,,,,,old,1,0.7428571428571429,,,,,,,,,,
null,,confidence_buffer,407278,confidence_buffer,,null,,,,,,,,,,,,,,,,,,
null,,thebreak,407780,break,,null,,,,,,,,,,,,,,,,,,
1709.7999999523163,,realistic_rating,409492,Yukon,,53,Yukon,US,5,,,,,,,,,,,,,,,
null,,confidence_buffer,409595,confidence_buffer,,null,,,,,,,,,,,,,,,,,,
1034,,probe_rating,410630,probe_rating,,49,,,,1,1,,,,,,,,,,,,,
null,,confidence_buffer,410732,confidence_buffer,,null,,,,,,,,,,,,,,,,,,
1003.7000000476837,,pt2_unique_rating,411737,Yukon,,52,,,4,,,,,,,,,,,,,,,
null,,confidence_buffer,411841,confidence_buffer,,null,,,,,,,,,,,,,,,,,,
663.2000000476837,,pt2_memorable_rating,412506,Yukon,,50,,,2,,,,,,,,,,,,,,,
null,,confidence_buffer,412607,confidence_buffer,,null,,,,,,,,,,,,,,,,,,
271.69999980926514,,recognition_phase,412881,Yukon,,49,,,,,,old,1,0.75,,,,,,,,,,
null,,confidence_buffer,412983,confidence_buffer,,null,,,,,,,,,,,,,,,,,,
null,,thebreak,413486,break,,null,,,,,,,,,,,,,,,,,,
1786.2999999523163,,realistic_rating,415274,San Antonio,,53,San Antonio,US,5,,,,,,,,,,,,,,,
null,,confidence_buffer,415378,confidence_buffer,,null,,,,,,,,,,,,,,,,,,
1036.4000000953674,,pt2_unique_rating,416416,San Antonio,,52,,,4,,,,,,,,,,,,,,,
null,,confidence_buffer,416519,confidence_buffer,,null,,,,,,,,,,,,,,,,,,
530.6000001430511,,pt2_memorable_rating,417051,San Antonio,,52,,,4,,,,,,,,,,,,,,,
null,,confidence_buffer,417153,confidence_buffer,,null,,,,,,,,,,,,,,,,,,
1531.8000001907349,,recognition_phase,418686,San Antonio,,52,,,,,,new,1,0.7567567567567568,,,,,,,,,,
null,,confidence_buffer,418790,confidence_buffer,,null,,,,,,,,,,,,,,,,,,
null,,thebreak,419292,break,,null,,,,,,,,,,,,,,,,,,
846,,realistic_rating,420139,Millstone,,52,Millstone,Fictional,4,,,,,,,,,,,,,,,
null,,confidence_buffer,420242,confidence_buffer,,null,,,,,,,,,,,,,,,,,,
457.89999985694885,,pt2_unique_rating,420702,Millstone,,50,,,2,,,,,,,,,,,,,,,
null,,confidence_buffer,420806,confidence_buffer,,null,,,,,,,,,,,,,,,,,,
517.9000000953674,,pt2_memorable_rating,421326,Millstone,,52,,,4,,,,,,,,,,,,,,,
null,,confidence_buffer,421429,confidence_buffer,,null,,,,,,,,,,,,,,,,,,
787.2000000476837,,recognition_phase,422218,Millstone,,49,,,,,,old,0,0.7368421052631579,,,,,,,,,,
null,,confidence_buffer,422321,confidence_buffer,,null,,,,,,,,,,,,,,,,,,
null,,thebreak,422823,break,,null,,,,,,,,,,,,,,,,,,
955.2999999523163,,realistic_rating,423780,Hanover,,52,Hanover,US,4,,,,,,,,,,,,,,,
null,,confidence_buffer,423883,confidence_buffer,,null,,,,,,,,,,,,,,,,,,
1300.6000001430511,,pt2_unique_rating,425186,Hanover,,53,,,5,,,,,,,,,,,,,,,
null,,confidence_buffer,425289,confidence_buffer,,null,,,,,,,,,,,,,,,,,,
1088.4000000953674,,pt2_memorable_rating,426379,Hanover,,52,,,4,,,,,,,,,,,,,,,
null,,confidence_buffer,426483,confidence_buffer,,null,,,,,,,,,,,,,,,,,,
962.5999999046326,,recognition_phase,427447,Hanover,,49,,,,,,old,1,0.7435897435897436,,,,,,,,,,
null,,confidence_buffer,427549,confidence_buffer,,null,,,,,,,,,,,,,,,,,,
null,,thebreak,428051,break,,null,,,,,,,,,,,,,,,,,,
1432.7999999523163,,realistic_rating,429486,Ironwood Heights,,52,Ironwood Heights,Fictional,4,,,,,,,,,,,,,,,
null,,confidence_buffer,429589,confidence_buffer,,null,,,,,,,,,,,,,,,,,,
687.1000001430511,,pt2_unique_rating,430278,Ironwood Heights,,50,,,2,,,,,,,,,,,,,,,
null,,confidence_buffer,430382,confidence_buffer,,null,,,,,,,,,,,,,,,,,,
817.5,,pt2_memorable_rating,431201,Ironwood Heights,,50,,,2,,,,,,,,,,,,,,,
null,,confidence_buffer,431303,confidence_buffer,,null,,,,,,,,,,,,,,,,,,
1775.3999998569489,,recognition_phase,433080,Ironwood Heights,,52,,,,,,new,1,0.75,,,,,,,,,,
null,,confidence_buffer,433182,confidence_buffer,,null,,,,,,,,,,,,,,,,,,
null,,thebreak,433683,break,,null,,,,,,,,,,,,,,,,,,
953.2999999523163,,realistic_rating,434638,Solara Glen,,52,Solara Glen,Fictional,4,,,,,,,,,,,,,,,
null,,confidence_buffer,434741,confidence_buffer,,null,,,,,,,,,,,,,,,,,,
743.2999999523163,,pt2_unique_rating,435486,Solara Glen,,50,,,2,,,,,,,,,,,,,,,
null,,confidence_buffer,435590,confidence_buffer,,null,,,,,,,,,,,,,,,,,,
577.6000001430511,,pt2_memorable_rating,436170,Solara Glen,,51,,,3,,,,,,,,,,,,,,,
null,,confidence_buffer,436272,confidence_buffer,,null,,,,,,,,,,,,,,,,,,
1777.5,,recognition_phase,438052,Solara Glen,,52,,,,,,new,1,0.7560975609756098,,,,,,,,,,
null,,confidence_buffer,438155,confidence_buffer,,null,,,,,,,,,,,,,,,,,,
null,,thebreak,438657,break,,null,,,,,,,,,,,,,,,,,,
1882.2000000476837,,realistic_rating,440541,Boulder,,53,Boulder,US,5,,,,,,,,,,,,,,,
null,,confidence_buffer,440644,confidence_buffer,,null,,,,,,,,,,,,,,,,,,
599.5,,pt2_unique_rating,441245,Boulder,,50,,,2,,,,,,,,,,,,,,,
null,,confidence_buffer,441349,confidence_buffer,,null,,,,,,,,,,,,,,,,,,
551.8999998569489,,pt2_memorable_rating,441902,Boulder,,52,,,4,,,,,,,,,,,,,,,
null,,confidence_buffer,442006,confidence_buffer,,null,,,,,,,,,,,,,,,,,,
1139.5,,probe_rating,443147,probe_rating,,52,,,,4,1,,,,,,,,,,,,,
null,,confidence_buffer,443251,confidence_buffer,,null,,,,,,,,,,,,,,,,,,
1291.3999998569489,,recognition_phase,444544,Boulder,,52,,,,,,new,1,0.7619047619047619,,,,,,,,,,
null,,confidence_buffer,444647,confidence_buffer,,null,,,,,,,,,,,,,,,,,,
null,,thebreak,445149,break,,null,,,,,,,,,,,,,,,,,,
570.9000000953674,,realistic_rating,445722,Westridge,,50,Westridge,Fictional,2,,,,,,,,,,,,,,,
null,,confidence_buffer,445825,confidence_buffer,,null,,,,,,,,,,,,,,,,,,
358.40000009536743,,pt2_unique_rating,446185,Westridge,,53,,,5,,,,,,,,,,,,,,,
null,,confidence_buffer,446287,confidence_buffer,,null,,,,,,,,,,,,,,,,,,
491.10000014305115,,pt2_memorable_rating,446780,Westridge,,52,,,4,,,,,,,,,,,,,,,
null,,confidence_buffer,446883,confidence_buffer,,null,,,,,,,,,,,,,,,,,,
1333.5,,recognition_phase,448218,Westridge,,52,,,,,,new,1,0.7674418604651163,,,,,,,,,,
null,,confidence_buffer,448321,confidence_buffer,,null,,,,,,,,,,,,,,,,,,
null,,thebreak,448824,break,,null,,,,,,,,,,,,,,,,,,
1177.2999999523163,,realistic_rating,450003,Linden Trace,,52,Linden Trace,Fictional,4,,,,,,,,,,,,,,,
null,,confidence_buffer,450105,confidence_buffer,,null,,,,,,,,,,,,,,,,,,
582.2999999523163,,pt2_unique_rating,450689,Linden Trace,,50,,,2,,,,,,,,,,,,,,,
null,,confidence_buffer,450792,confidence_buffer,,null,,,,,,,,,,,,,,,,,,
667.7999999523163,,pt2_memorable_rating,451461,Linden Trace,,53,,,5,,,,,,,,,,,,,,,
null,,confidence_buffer,451563,confidence_buffer,,null,,,,,,,,,,,,,,,,,,
911.8000001907349,,recognition_phase,452477,Linden Trace,,49,,,,,,old,1,0.7727272727272727,,,,,,,,,,
null,,confidence_buffer,452580,confidence_buffer,,null,,,,,,,,,,,,,,,,,,
null,,thebreak,453084,break,,null,,,,,,,,,,,,,,,,,,
719.5,,realistic_rating,453805,New Hope,,52,New Hope,US,4,,,,,,,,,,,,,,,
null,,confidence_buffer,453909,confidence_buffer,,null,,,,,,,,,,,,,,,,,,
654.7999999523163,,pt2_unique_rating,454565,New Hope,,50,,,2,,,,,,,,,,,,,,,
null,,confidence_buffer,454668,confidence_buffer,,null,,,,,,,,,,,,,,,,,,
712.6000001430511,,pt2_memorable_rating,455383,New Hope,,53,,,5,,,,,,,,,,,,,,,
null,,confidence_buffer,455486,confidence_buffer,,null,,,,,,,,,,,,,,,,,,
2241.300000190735,,recognition_phase,457730,New Hope,,50,,,,,,old,1,0.7777777777777778,,,,,,,,,,
null,,confidence_buffer,457833,confidence_buffer,,null,,,,,,,,,,,,,,,,,,
null,,thebreak,458335,break,,null,,,,,,,,,,,,,,,,,,
975.3999998569489,,realistic_rating,459312,Livingston,,52,Livingston,US,4,,,,,,,,,,,,,,,
null,,confidence_buffer,459415,confidence_buffer,,null,,,,,,,,,,,,,,,,,,
577.7999999523163,,pt2_unique_rating,459995,Livingston,,53,,,5,,,,,,,,,,,,,,,
null,,confidence_buffer,460098,confidence_buffer,,null,,,,,,,,,,,,,,,,,,
629.7000000476837,,pt2_memorable_rating,460730,Livingston,,52,,,4,,,,,,,,,,,,,,,
null,,confidence_buffer,460833,confidence_buffer,,null,,,,,,,,,,,,,,,,,,
747.5,,recognition_phase,461582,Livingston,,50,,,,,,old,1,0.782608695652174,,,,,,,,,,
null,,confidence_buffer,461685,confidence_buffer,,null,,,,,,,,,,,,,,,,,,
null,,thebreak,462188,break,,null,,,,,,,,,,,,,,,,,,
684,,realistic_rating,462874,Sierra Hollow,,53,Sierra Hollow,Fictional,5,,,,,,,,,,,,,,,
null,,confidence_buffer,462978,confidence_buffer,,null,,,,,,,,,,,,,,,,,,
649.2000000476837,,pt2_unique_rating,463629,Sierra Hollow,,52,,,4,,,,,,,,,,,,,,,
null,,confidence_buffer,463732,confidence_buffer,,null,,,,,,,,,,,,,,,,,,
1055.6000001430511,,pt2_memorable_rating,464790,Sierra Hollow,,50,,,2,,,,,,,,,,,,,,,
null,,confidence_buffer,464893,confidence_buffer,,null,,,,,,,,,,,,,,,,,,
639.4000000953674,,recognition_phase,465534,Sierra Hollow,,50,,,,,,old,0,0.7659574468085106,,,,,,,,,,
null,,confidence_buffer,465638,confidence_buffer,,null,,,,,,,,,,,,,,,,,,
null,,thebreak,466140,break,,null,,,,,,,,,,,,,,,,,,
891.7999999523163,,realistic_rating,467033,Watkins Glen,,53,Watkins Glen,US,5,,,,,,,,,,,,,,,
null,,confidence_buffer,467136,confidence_buffer,,null,,,,,,,,,,,,,,,,,,
672.8999998569489,,pt2_unique_rating,467810,Watkins Glen,,52,,,4,,,,,,,,,,,,,,,
null,,confidence_buffer,467913,confidence_buffer,,null,,,,,,,,,,,,,,,,,,
622.7000000476837,,pt2_memorable_rating,468538,Watkins Glen,,50,,,2,,,,,,,,,,,,,,,
null,,confidence_buffer,468640,confidence_buffer,,null,,,,,,,,,,,,,,,,,,
669.3999998569489,,recognition_phase,469312,Watkins Glen,,49,,,,,,old,0,0.75,,,,,,,,,,
null,,confidence_buffer,469415,confidence_buffer,,null,,,,,,,,,,,,,,,,,,
null,,thebreak,469918,break,,null,,,,,,,,,,,,,,,,,,
689.4000000953674,,realistic_rating,470609,Tamarisk Hills,,52,Tamarisk Hills,Fictional,4,,,,,,,,,,,,,,,
null,,confidence_buffer,470712,confidence_buffer,,null,,,,,,,,,,,,,,,,,,
574.3999998569489,,pt2_unique_rating,471289,Tamarisk Hills,,53,,,5,,,,,,,,,,,,,,,
null,,confidence_buffer,471392,confidence_buffer,,null,,,,,,,,,,,,,,,,,,
601.5,,pt2_memorable_rating,471995,Tamarisk Hills,,52,,,4,,,,,,,,,,,,,,,
null,,confidence_buffer,472099,confidence_buffer,,null,,,,,,,,,,,,,,,,,,
1216.3999998569489,,recognition_phase,473317,Tamarisk Hills,,52,,,,,,new,1,0.7551020408163265,,,,,,,,,,
null,,confidence_buffer,473419,confidence_buffer,,null,,,,,,,,,,,,,,,,,,
null,,thebreak,473922,break,,null,,,,,,,,,,,,,,,,,,
927.1000001430511,,realistic_rating,474850,Meadowspire,,52,Meadowspire,Fictional,4,,,,,,,,,,,,,,,
null,,confidence_buffer,474954,confidence_buffer,,null,,,,,,,,,,,,,,,,,,
732.1000001430511,,pt2_unique_rating,475688,Meadowspire,,50,,,2,,,,,,,,,,,,,,,
null,,confidence_buffer,475791,confidence_buffer,,null,,,,,,,,,,,,,,,,,,
578.4000000953674,,pt2_memorable_rating,476371,Meadowspire,,50,,,2,,,,,,,,,,,,,,,
null,,confidence_buffer,476473,confidence_buffer,,null,,,,,,,,,,,,,,,,,,
670.0999999046326,,recognition_phase,477145,Meadowspire,,52,,,,,,new,0,0.74,,,,,,,,,,
null,,confidence_buffer,477248,confidence_buffer,,null,,,,,,,,,,,,,,,,,,
null,,thebreak,477751,break,,null,,,,,,,,,,,,,,,,,,
1399.3999998569489,,realistic_rating,479153,Sunmere,,52,Sunmere,Fictional,4,,,,,,,,,,,,,,,
null,,confidence_buffer,479256,confidence_buffer,,null,,,,,,,,,,,,,,,,,,
790.9000000953674,,pt2_unique_rating,480049,Sunmere,,52,,,4,,,,,,,,,,,,,,,
null,,confidence_buffer,480152,confidence_buffer,,null,,,,,,,,,,,,,,,,,,
892.8000001907349,,pt2_memorable_rating,481047,Sunmere,,50,,,2,,,,,,,,,,,,,,,
null,,confidence_buffer,481150,confidence_buffer,,null,,,,,,,,,,,,,,,,,,
901.5999999046326,,recognition_phase,482053,Sunmere,,49,,,,,,old,1,0.7450980392156863,,,,,,,,,,
null,,confidence_buffer,482156,confidence_buffer,,null,,,,,,,,,,,,,,,,,,
null,,thebreak,482659,break,,null,,,,,,,,,,,,,,,,,,
1447.4000000953674,,realistic_rating,484108,Coralridge,,52,Coralridge,Fictional,4,,,,,,,,,,,,,,,
null,,confidence_buffer,484212,confidence_buffer,,null,,,,,,,,,,,,,,,,,,
547.0999999046326,,pt2_unique_rating,484761,Coralridge,,50,,,2,,,,,,,,,,,,,,,
null,,confidence_buffer,484865,confidence_buffer,,null,,,,,,,,,,,,,,,,,,
685.4000000953674,,pt2_memorable_rating,485552,Coralridge,,52,,,4,,,,,,,,,,,,,,,
null,,confidence_buffer,485654,confidence_buffer,,null,,,,,,,,,,,,,,,,,,
644.5999999046326,,recognition_phase,486300,Coralridge,,50,,,,,,old,1,0.75,,,,,,,,,,
null,,confidence_buffer,486404,confidence_buffer,,null,,,,,,,,,,,,,,,,,,
null,,thebreak,486907,break,,null,,,,,,,,,,,,,,,,,,
1643.4000000953674,,realistic_rating,488552,Fairhaven,,52,Fairhaven,Fictional,4,,,,,,,,,,,,,,,
null,,confidence_buffer,488655,confidence_buffer,,null,,,,,,,,,,,,,,,,,,
1301,,probe_rating,489957,probe_rating,,52,,,,4,1,,,,,,,,,,,,,
null,,confidence_buffer,490060,confidence_buffer,,null,,,,,,,,,,,,,,,,,,
721.1999998092651,,pt2_unique_rating,490783,Fairhaven,,52,,,4,,,,,,,,,,,,,,,
null,,confidence_buffer,490886,confidence_buffer,,null,,,,,,,,,,,,,,,,,,
804.3000001907349,,pt2_memorable_rating,491691,Fairhaven,,50,,,2,,,,,,,,,,,,,,,
null,,confidence_buffer,491794,confidence_buffer,,null,,,,,,,,,,,,,,,,,,
1054.5999999046326,,recognition_phase,492851,Fairhaven,,50,,,,,,old,1,0.7547169811320755,,,,,,,,,,
null,,confidence_buffer,492953,confidence_buffer,,null,,,,,,,,,,,,,,,,,,
null,,thebreak,493455,break,,null,,,,,,,,,,,,,,,,,,
943.7999999523163,,realistic_rating,494400,Shreveport,,52,Shreveport,US,4,,,,,,,,,,,,,,,
null,,confidence_buffer,494504,confidence_buffer,,null,,,,,,,,,,,,,,,,,,
1138.7000000476837,,pt2_unique_rating,495644,Shreveport,,53,,,5,,,,,,,,,,,,,,,
null,,confidence_buffer,495747,confidence_buffer,,null,,,,,,,,,,,,,,,,,,
719.5,,pt2_memorable_rating,496468,Shreveport,,52,,,4,,,,,,,,,,,,,,,
null,,confidence_buffer,496571,confidence_buffer,,null,,,,,,,,,,,,,,,,,,
2151.100000143051,,recognition_phase,498724,Shreveport,,52,,,,,,new,1,0.7592592592592593,,,,,,,,,,
null,,confidence_buffer,498828,confidence_buffer,,null,,,,,,,,,,,,,,,,,,
null,,thebreak,499331,break,,null,,,,,,,,,,,,,,,,,,
989.0999999046326,,realistic_rating,500321,Cornwall,,52,Cornwall,US,4,,,,,,,,,,,,,,,
null,,confidence_buffer,500424,confidence_buffer,,null,,,,,,,,,,,,,,,,,,
619,,pt2_unique_rating,501045,Cornwall,,50,,,2,,,,,,,,,,,,,,,
null,,confidence_buffer,501148,confidence_buffer,,null,,,,,,,,,,,,,,,,,,
566.8000001907349,,pt2_memorable_rating,501716,Cornwall,,52,,,4,,,,,,,,,,,,,,,
null,,confidence_buffer,501818,confidence_buffer,,null,,,,,,,,,,,,,,,,,,
711.5,,recognition_phase,502531,Cornwall,,49,,,,,,old,1,0.7636363636363637,,,,,,,,,,
null,,confidence_buffer,502634,confidence_buffer,,null,,,,,,,,,,,,,,,,,,
null,,thebreak,503137,break,,null,,,,,,,,,,,,,,,,,,
1005.0999999046326,,realistic_rating,504144,Alliance,,52,Alliance,US,4,,,,,,,,,,,,,,,
null,,confidence_buffer,504248,confidence_buffer,,null,,,,,,,,,,,,,,,,,,
615.3999998569489,,pt2_unique_rating,504865,Alliance,,52,,,4,,,,,,,,,,,,,,,
null,,confidence_buffer,504968,confidence_buffer,,null,,,,,,,,,,,,,,,,,,
661.3999998569489,,pt2_memorable_rating,505631,Alliance,,50,,,2,,,,,,,,,,,,,,,
null,,confidence_buffer,505734,confidence_buffer,,null,,,,,,,,,,,,,,,,,,
1117.1000001430511,,probe_rating,506853,probe_rating,,51,,,,3,1,,,,,,,,,,,,,
null,,confidence_buffer,506956,confidence_buffer,,null,,,,,,,,,,,,,,,,,,
589.7000000476837,,recognition_phase,507547,Alliance,,52,,,,,,new,1,0.7678571428571429,,,,,,,,,,
null,,confidence_buffer,507651,confidence_buffer,,null,,,,,,,,,,,,,,,,,,
null,,thebreak,508153,break,,null,,,,,,,,,,,,,,,,,,
597.9000000953674,,realistic_rating,508753,Hilo,,52,Hilo,US,4,,,,,,,,,,,,,,,
null,,confidence_buffer,508857,confidence_buffer,,null,,,,,,,,,,,,,,,,,,
635.7999999523163,,pt2_unique_rating,509495,Hilo,,53,,,5,,,,,,,,,,,,,,,
null,,confidence_buffer,509597,confidence_buffer,,null,,,,,,,,,,,,,,,,,,
616.2000000476837,,pt2_memorable_rating,510215,Hilo,,50,,,2,,,,,,,,,,,,,,,
null,,confidence_buffer,510317,confidence_buffer,,null,,,,,,,,,,,,,,,,,,
828.7000000476837,,recognition_phase,511148,Hilo,,49,,,,,,old,1,0.7719298245614035,,,,,,,,,,
null,,confidence_buffer,511251,confidence_buffer,,null,,,,,,,,,,,,,,,,,,
null,,thebreak,511754,break,,null,,,,,,,,,,,,,,,,,,
863.5999999046326,,realistic_rating,512620,Claywater,,52,Claywater,Fictional,4,,,,,,,,,,,,,,,
null,,confidence_buffer,512722,confidence_buffer,,null,,,,,,,,,,,,,,,,,,
794.5,,pt2_unique_rating,513519,Claywater,,53,,,5,,,,,,,,,,,,,,,
null,,confidence_buffer,513622,confidence_buffer,,null,,,,,,,,,,,,,,,,,,
579.5,,pt2_memorable_rating,514203,Claywater,,52,,,4,,,,,,,,,,,,,,,
null,,confidence_buffer,514305,confidence_buffer,,null,,,,,,,,,,,,,,,,,,
1526.8000001907349,,recognition_phase,515834,Claywater,,52,,,,,,new,1,0.7758620689655172,,,,,,,,,,
null,,confidence_buffer,515937,confidence_buffer,,null,,,,,,,,,,,,,,,,,,
null,,thebreak,516439,break,,null,,,,,,,,,,,,,,,,,,
944.9000000953674,,realistic_rating,517385,Pine Hollow,,52,Pine Hollow,Fictional,4,,,,,,,,,,,,,,,
null,,confidence_buffer,517489,confidence_buffer,,null,,,,,,,,,,,,,,,,,,
624,,pt2_unique_rating,518114,Pine Hollow,,52,,,4,,,,,,,,,,,,,,,
null,,confidence_buffer,518217,confidence_buffer,,null,,,,,,,,,,,,,,,,,,
856.9000000953674,,pt2_memorable_rating,519075,Pine Hollow,,52,,,4,,,,,,,,,,,,,,,
null,,confidence_buffer,519178,confidence_buffer,,null,,,,,,,,,,,,,,,,,,
717.0999999046326,,recognition_phase,519897,Pine Hollow,,49,,,,,,old,1,0.7796610169491526,,,,,,,,,,
null,,confidence_buffer,520000,confidence_buffer,,null,,,,,,,,,,,,,,,,,,
null,,thebreak,520504,break,,null,,,,,,,,,,,,,,,,,,
1577.7000000476837,,realistic_rating,522083,Gatlinburg,,52,Gatlinburg,US,4,,,,,,,,,,,,,,,
null,,confidence_buffer,522186,confidence_buffer,,null,,,,,,,,,,,,,,,,,,
968.8999998569489,,pt2_unique_rating,523157,Gatlinburg,,52,,,4,,,,,,,,,,,,,,,
null,,confidence_buffer,523260,confidence_buffer,,null,,,,,,,,,,,,,,,,,,
1252.4000000953674,,pt2_memorable_rating,524514,Gatlinburg,,50,,,2,,,,,,,,,,,,,,,
null,,confidence_buffer,524617,confidence_buffer,,null,,,,,,,,,,,,,,,,,,
1963.2999999523163,,recognition_phase,526582,Gatlinburg,,51,,,,,,new,1,0.7833333333333333,,,,,,,,,,
null,,confidence_buffer,526685,confidence_buffer,,null,,,,,,,,,,,,,,,,,,
null,,thebreak,527188,break,,null,,,,,,,,,,,,,,,,,,
,,survey,1074155,survey-questions,,,,,,,,,,,none,high,no,i just memorized the words,if I heard of it or not,it i could easily recall it,the more syllable the more unique,the more english sounding the more likely it was realistic ,no,noe
