rt,responses,trial_type,time_elapsed,stimulus,button_pressed,key_press,name_trial,city_type,rating,probe,probe_accuracy,response,correct,accuracy,problems,smooth,distraction,strategies,familiar,memorable,unique,realistic,similar,comments
6304.5,{worker_id:672bf480b98fd6d326fd1f69},id_enter,6307,,,,,,,,,,,,,,,,,,,,,
15854.900000002235,,fullscreen,22165,fullscreen,0,,,,,,,,,,,,,,,,,,,
6322.699999999255,,intro_0,28489,instruct,,32,,,,,,,,,,,,,,,,,,
10227.300000000745,,intro_1,38717,instruct,,32,,,,,,,,,,,,,,,,,,
8350.900000002235,,intro_2,47069,instruct,,32,,,,,,,,,,,,,,,,,,
null,,instruct_dir_4,48571,instruct,,null,,,,,,,,,,,,,,,,,,
null,,thebreak,49073,break,,null,,,,,,,,,,,,,,,,,,
3801.60000000149,,familiar_rating,52875,Sammamish,,49,Sammamish,US,1,,,,,,,,,,,,,,,
null,,confidence_buffer,52978,confidence_buffer,,null,,,,,,,,,,,,,,,,,,
4932.800000000745,,unique_rating,57911,Sammamish,,51,,,3,,,,,,,,,,,,,,,
null,,confidence_buffer,58013,confidence_buffer,,null,,,,,,,,,,,,,,,,,,
4237.800000000745,,memorable_rating,62251,Sammamish,,51,,,3,,,,,,,,,,,,,,,
null,,confidence_buffer,62353,confidence_buffer,,null,,,,,,,,,,,,,,,,,,
null,,thebreak,62854,break,,null,,,,,,,,,,,,,,,,,,
4159.699999999255,,familiar_rating,67015,Pine Hollow,,49,Pine Hollow,Fictional,1,,,,,,,,,,,,,,,
null,,confidence_buffer,67116,confidence_buffer,,null,,,,,,,,,,,,,,,,,,
4329.79999999702,,unique_rating,71447,Pine Hollow,,53,,,5,,,,,,,,,,,,,,,
null,,confidence_buffer,71549,confidence_buffer,,null,,,,,,,,,,,,,,,,,,
4797,,memorable_rating,76347,Pine Hollow,,53,,,5,,,,,,,,,,,,,,,
null,,confidence_buffer,76448,confidence_buffer,,null,,,,,,,,,,,,,,,,,,
null,,thebreak,76949,break,,null,,,,,,,,,,,,,,,,,,
8315.800000000745,,familiar_rating,85265,Golden Trace,,49,Golden Trace,Fictional,1,,,,,,,,,,,,,,,
null,,confidence_buffer,85367,confidence_buffer,,null,,,,,,,,,,,,,,,,,,
3423,,unique_rating,88791,Golden Trace,,52,,,4,,,,,,,,,,,,,,,
null,,confidence_buffer,88893,confidence_buffer,,null,,,,,,,,,,,,,,,,,,
2027,,memorable_rating,90921,Golden Trace,,52,,,4,,,,,,,,,,,,,,,
null,,confidence_buffer,91022,confidence_buffer,,null,,,,,,,,,,,,,,,,,,
null,,thebreak,91523,break,,null,,,,,,,,,,,,,,,,,,
4296,,familiar_rating,95820,Sunmere,,49,Sunmere,Fictional,1,,,,,,,,,,,,,,,
null,,confidence_buffer,95921,confidence_buffer,,null,,,,,,,,,,,,,,,,,,
5000,,unique_rating,100922,Sunmere,,51,,,3,,,,,,,,,,,,,,,
null,,confidence_buffer,101024,confidence_buffer,,null,,,,,,,,,,,,,,,,,,
2180.699999999255,,memorable_rating,103206,Sunmere,,51,,,3,,,,,,,,,,,,,,,
null,,confidence_buffer,103322,confidence_buffer,,null,,,,,,,,,,,,,,,,,,
2938.10000000149,,probe_rating,106261,probe_rating,,52,,,,4,1,,,,,,,,,,,,,
null,,confidence_buffer,106363,confidence_buffer,,null,,,,,,,,,,,,,,,,,,
null,,thebreak,106864,break,,null,,,,,,,,,,,,,,,,,,
3716.699999999255,,familiar_rating,110581,Redgrove,,50,Redgrove,Fictional,2,,,,,,,,,,,,,,,
null,,confidence_buffer,110683,confidence_buffer,,null,,,,,,,,,,,,,,,,,,
3190,,probe_rating,113874,probe_rating,,51,,,,3,1,,,,,,,,,,,,,
null,,confidence_buffer,113975,confidence_buffer,,null,,,,,,,,,,,,,,,,,,
3429.89999999851,,unique_rating,117405,Redgrove,,52,,,4,,,,,,,,,,,,,,,
null,,confidence_buffer,117506,confidence_buffer,,null,,,,,,,,,,,,,,,,,,
2701.599999997765,,memorable_rating,120209,Redgrove,,52,,,4,,,,,,,,,,,,,,,
null,,confidence_buffer,120310,confidence_buffer,,null,,,,,,,,,,,,,,,,,,
null,,thebreak,120812,break,,null,,,,,,,,,,,,,,,,,,
1966.8999999985099,,familiar_rating,122780,Hot Springs,,53,Hot Springs,US,5,,,,,,,,,,,,,,,
null,,confidence_buffer,122882,confidence_buffer,,null,,,,,,,,,,,,,,,,,,
4270,,unique_rating,127153,Hot Springs,,53,,,5,,,,,,,,,,,,,,,
null,,confidence_buffer,127254,confidence_buffer,,null,,,,,,,,,,,,,,,,,,
2237,,memorable_rating,129492,Hot Springs,,53,,,5,,,,,,,,,,,,,,,
null,,confidence_buffer,129593,confidence_buffer,,null,,,,,,,,,,,,,,,,,,
null,,thebreak,130094,break,,null,,,,,,,,,,,,,,,,,,
5820,,familiar_rating,135915,Duck,,52,Duck,US,4,,,,,,,,,,,,,,,
null,,confidence_buffer,136017,confidence_buffer,,null,,,,,,,,,,,,,,,,,,
3321.10000000149,,unique_rating,139339,Duck,,53,,,5,,,,,,,,,,,,,,,
null,,confidence_buffer,139441,confidence_buffer,,null,,,,,,,,,,,,,,,,,,
3116.60000000149,,memorable_rating,142559,Duck,,53,,,5,,,,,,,,,,,,,,,
null,,confidence_buffer,142661,confidence_buffer,,null,,,,,,,,,,,,,,,,,,
null,,thebreak,143162,break,,null,,,,,,,,,,,,,,,,,,
4034.10000000149,,familiar_rating,147197,Cody,,51,Cody,US,3,,,,,,,,,,,,,,,
null,,confidence_buffer,147298,confidence_buffer,,null,,,,,,,,,,,,,,,,,,
3156.60000000149,,unique_rating,150455,Cody,,51,,,3,,,,,,,,,,,,,,,
null,,confidence_buffer,150564,confidence_buffer,,null,,,,,,,,,,,,,,,,,,
1039.699999999255,,memorable_rating,151605,Cody,,51,,,3,,,,,,,,,,,,,,,
null,,confidence_buffer,151706,confidence_buffer,,null,,,,,,,,,,,,,,,,,,
null,,thebreak,152207,break,,null,,,,,,,,,,,,,,,,,,
3855.10000000149,,familiar_rating,156063,Assateague Island,,50,Assateague Island,US,2,,,,,,,,,,,,,,,
null,,confidence_buffer,156164,confidence_buffer,,null,,,,,,,,,,,,,,,,,,
3564.5,,unique_rating,159729,Assateague Island,,53,,,5,,,,,,,,,,,,,,,
null,,confidence_buffer,159831,confidence_buffer,,null,,,,,,,,,,,,,,,,,,
4352.10000000149,,memorable_rating,164184,Assateague Island,,52,,,4,,,,,,,,,,,,,,,
null,,confidence_buffer,164285,confidence_buffer,,null,,,,,,,,,,,,,,,,,,
null,,thebreak,164787,break,,null,,,,,,,,,,,,,,,,,,
2323.300000000745,,familiar_rating,167111,North Arroya,,50,North Arroya,Fictional,2,,,,,,,,,,,,,,,
null,,confidence_buffer,167218,confidence_buffer,,null,,,,,,,,,,,,,,,,,,
5296.60000000149,,unique_rating,172515,North Arroya,,52,,,4,,,,,,,,,,,,,,,
null,,confidence_buffer,172616,confidence_buffer,,null,,,,,,,,,,,,,,,,,,
1924.1000000014901,,memorable_rating,174541,North Arroya,,52,,,4,,,,,,,,,,,,,,,
null,,confidence_buffer,174643,confidence_buffer,,null,,,,,,,,,,,,,,,,,,
null,,thebreak,175144,break,,null,,,,,,,,,,,,,,,,,,
1814.199999999255,,familiar_rating,176959,Lakehaven,,53,Lakehaven,Fictional,5,,,,,,,,,,,,,,,
null,,confidence_buffer,177062,confidence_buffer,,null,,,,,,,,,,,,,,,,,,
7806.5,,unique_rating,184869,Lakehaven,,50,,,2,,,,,,,,,,,,,,,
null,,confidence_buffer,184970,confidence_buffer,,null,,,,,,,,,,,,,,,,,,
2525.60000000149,,probe_rating,187497,probe_rating,,50,,,,2,1,,,,,,,,,,,,,
null,,confidence_buffer,187598,confidence_buffer,,null,,,,,,,,,,,,,,,,,,
4166.300000000745,,memorable_rating,191765,Lakehaven,,51,,,3,,,,,,,,,,,,,,,
null,,confidence_buffer,191867,confidence_buffer,,null,,,,,,,,,,,,,,,,,,
null,,thebreak,192369,break,,null,,,,,,,,,,,,,,,,,,
8889.5,,familiar_rating,201259,Folly Beach,,50,Folly Beach,US,2,,,,,,,,,,,,,,,
null,,confidence_buffer,201362,confidence_buffer,,null,,,,,,,,,,,,,,,,,,
4530.39999999851,,unique_rating,205893,Folly Beach,,51,,,3,,,,,,,,,,,,,,,
null,,confidence_buffer,205994,confidence_buffer,,null,,,,,,,,,,,,,,,,,,
2396,,memorable_rating,208391,Folly Beach,,50,,,2,,,,,,,,,,,,,,,
null,,confidence_buffer,208492,confidence_buffer,,null,,,,,,,,,,,,,,,,,,
null,,thebreak,208993,break,,null,,,,,,,,,,,,,,,,,,
2715.300000000745,,familiar_rating,211709,Abilene,,49,Abilene,US,1,,,,,,,,,,,,,,,
null,,confidence_buffer,211811,confidence_buffer,,null,,,,,,,,,,,,,,,,,,
2333.39999999851,,unique_rating,214145,Abilene,,53,,,5,,,,,,,,,,,,,,,
null,,confidence_buffer,214246,confidence_buffer,,null,,,,,,,,,,,,,,,,,,
3362,,memorable_rating,217609,Abilene,,52,,,4,,,,,,,,,,,,,,,
null,,confidence_buffer,217711,confidence_buffer,,null,,,,,,,,,,,,,,,,,,
null,,thebreak,218212,break,,null,,,,,,,,,,,,,,,,,,
3476.300000000745,,familiar_rating,221689,Leesburg,,49,Leesburg,US,1,,,,,,,,,,,,,,,
null,,confidence_buffer,221791,confidence_buffer,,null,,,,,,,,,,,,,,,,,,
1373.800000000745,,unique_rating,223166,Leesburg,,53,,,5,,,,,,,,,,,,,,,
null,,confidence_buffer,223267,confidence_buffer,,null,,,,,,,,,,,,,,,,,,
1687.6000000014901,,memorable_rating,224955,Leesburg,,53,,,5,,,,,,,,,,,,,,,
null,,confidence_buffer,225056,confidence_buffer,,null,,,,,,,,,,,,,,,,,,
null,,thebreak,225559,break,,null,,,,,,,,,,,,,,,,,,
4902.900000002235,,familiar_rating,230463,Bayshore Haven,,50,Bayshore Haven,Fictional,2,,,,,,,,,,,,,,,
null,,confidence_buffer,230565,confidence_buffer,,null,,,,,,,,,,,,,,,,,,
7588.199999999255,,unique_rating,238153,Bayshore Haven,,49,,,1,,,,,,,,,,,,,,,
null,,confidence_buffer,238255,confidence_buffer,,null,,,,,,,,,,,,,,,,,,
2861.199999999255,,memorable_rating,241117,Bayshore Haven,,50,,,2,,,,,,,,,,,,,,,
null,,confidence_buffer,241218,confidence_buffer,,null,,,,,,,,,,,,,,,,,,
null,,thebreak,241720,break,,null,,,,,,,,,,,,,,,,,,
2838.60000000149,,familiar_rating,244559,Ashford Hills,,49,Ashford Hills,Fictional,1,,,,,,,,,,,,,,,
null,,confidence_buffer,244661,confidence_buffer,,null,,,,,,,,,,,,,,,,,,
2723.60000000149,,unique_rating,247386,Ashford Hills,,49,,,1,,,,,,,,,,,,,,,
null,,confidence_buffer,247487,confidence_buffer,,null,,,,,,,,,,,,,,,,,,
1892.8999999985099,,memorable_rating,249381,Ashford Hills,,49,,,1,,,,,,,,,,,,,,,
null,,confidence_buffer,249482,confidence_buffer,,null,,,,,,,,,,,,,,,,,,
null,,thebreak,249983,break,,null,,,,,,,,,,,,,,,,,,
9675.60000000149,,familiar_rating,259659,Driftwood Bay,,50,Driftwood Bay,Fictional,2,,,,,,,,,,,,,,,
null,,confidence_buffer,259761,confidence_buffer,,null,,,,,,,,,,,,,,,,,,
3437.39999999851,,probe_rating,263200,probe_rating,,51,,,,3,1,,,,,,,,,,,,,
null,,confidence_buffer,263301,confidence_buffer,,null,,,,,,,,,,,,,,,,,,
8397.5,,unique_rating,271699,Driftwood Bay,,51,,,3,,,,,,,,,,,,,,,
null,,confidence_buffer,271802,confidence_buffer,,null,,,,,,,,,,,,,,,,,,
2190.2999999970198,,memorable_rating,273993,Driftwood Bay,,51,,,3,,,,,,,,,,,,,,,
null,,confidence_buffer,274094,confidence_buffer,,null,,,,,,,,,,,,,,,,,,
null,,thebreak,274596,break,,null,,,,,,,,,,,,,,,,,,
2778.199999999255,,familiar_rating,277375,Livingston,,53,Livingston,US,5,,,,,,,,,,,,,,,
null,,confidence_buffer,277476,confidence_buffer,,null,,,,,,,,,,,,,,,,,,
4232.199999999255,,unique_rating,281709,Livingston,,50,,,2,,,,,,,,,,,,,,,
null,,confidence_buffer,281811,confidence_buffer,,null,,,,,,,,,,,,,,,,,,
2535.5,,memorable_rating,284347,Livingston,,51,,,3,,,,,,,,,,,,,,,
null,,confidence_buffer,284448,confidence_buffer,,null,,,,,,,,,,,,,,,,,,
null,,thebreak,284949,break,,null,,,,,,,,,,,,,,,,,,
2552.699999999255,,familiar_rating,287503,West Palm Beach,,53,West Palm Beach,US,5,,,,,,,,,,,,,,,
null,,confidence_buffer,287604,confidence_buffer,,null,,,,,,,,,,,,,,,,,,
4204.199999999255,,unique_rating,291809,West Palm Beach,,49,,,1,,,,,,,,,,,,,,,
null,,confidence_buffer,291912,confidence_buffer,,null,,,,,,,,,,,,,,,,,,
3566.89999999851,,memorable_rating,295479,West Palm Beach,,49,,,1,,,,,,,,,,,,,,,
null,,confidence_buffer,295581,confidence_buffer,,null,,,,,,,,,,,,,,,,,,
null,,thebreak,296082,break,,null,,,,,,,,,,,,,,,,,,
2552.2999999970198,,familiar_rating,298636,Cleveland,,53,Cleveland,US,5,,,,,,,,,,,,,,,
null,,confidence_buffer,298737,confidence_buffer,,null,,,,,,,,,,,,,,,,,,
2900.699999999255,,unique_rating,301639,Cleveland,,49,,,1,,,,,,,,,,,,,,,
null,,confidence_buffer,301741,confidence_buffer,,null,,,,,,,,,,,,,,,,,,
2843.39999999851,,probe_rating,304585,probe_rating,,49,,,,1,1,,,,,,,,,,,,,
null,,confidence_buffer,304687,confidence_buffer,,null,,,,,,,,,,,,,,,,,,
3689.199999999255,,memorable_rating,308377,Cleveland,,49,,,1,,,,,,,,,,,,,,,
null,,confidence_buffer,308478,confidence_buffer,,null,,,,,,,,,,,,,,,,,,
null,,thebreak,308980,break,,null,,,,,,,,,,,,,,,,,,
5964.800000000745,,familiar_rating,314945,Northbridge,,49,Northbridge,Fictional,1,,,,,,,,,,,,,,,
null,,confidence_buffer,315047,confidence_buffer,,null,,,,,,,,,,,,,,,,,,
3497.39999999851,,unique_rating,318545,Northbridge,,51,,,3,,,,,,,,,,,,,,,
null,,confidence_buffer,318646,confidence_buffer,,null,,,,,,,,,,,,,,,,,,
3926.099999997765,,probe_rating,322573,probe_rating,,49,,,,1,1,,,,,,,,,,,,,
null,,confidence_buffer,322675,confidence_buffer,,null,,,,,,,,,,,,,,,,,,
6463.300000000745,,memorable_rating,329139,Northbridge,,50,,,2,,,,,,,,,,,,,,,
null,,confidence_buffer,329242,confidence_buffer,,null,,,,,,,,,,,,,,,,,,
null,,thebreak,329744,break,,null,,,,,,,,,,,,,,,,,,
2790.89999999851,,familiar_rating,332536,West Talora,,49,West Talora,Fictional,1,,,,,,,,,,,,,,,
null,,confidence_buffer,332638,confidence_buffer,,null,,,,,,,,,,,,,,,,,,
1566.800000000745,,unique_rating,334205,West Talora,,53,,,5,,,,,,,,,,,,,,,
null,,confidence_buffer,334307,confidence_buffer,,null,,,,,,,,,,,,,,,,,,
1831.0999999977648,,memorable_rating,336139,West Talora,,53,,,5,,,,,,,,,,,,,,,
null,,confidence_buffer,336241,confidence_buffer,,null,,,,,,,,,,,,,,,,,,
null,,thebreak,336742,break,,null,,,,,,,,,,,,,,,,,,
5896.099999997765,,familiar_rating,342639,Ravenport,,51,Ravenport,Fictional,3,,,,,,,,,,,,,,,
null,,confidence_buffer,342741,confidence_buffer,,null,,,,,,,,,,,,,,,,,,
5291.199999999255,,unique_rating,348033,Ravenport,,51,,,3,,,,,,,,,,,,,,,
null,,confidence_buffer,348135,confidence_buffer,,null,,,,,,,,,,,,,,,,,,
1676.2000000029802,,memorable_rating,349812,Ravenport,,51,,,3,,,,,,,,,,,,,,,
null,,confidence_buffer,349914,confidence_buffer,,null,,,,,,,,,,,,,,,,,,
null,,thebreak,350415,break,,null,,,,,,,,,,,,,,,,,,
3361.39999999851,,familiar_rating,353777,Orr,,49,Orr,US,1,,,,,,,,,,,,,,,
null,,confidence_buffer,353879,confidence_buffer,,null,,,,,,,,,,,,,,,,,,
1453.7999999970198,,unique_rating,355333,Orr,,53,,,5,,,,,,,,,,,,,,,
null,,confidence_buffer,355434,confidence_buffer,,null,,,,,,,,,,,,,,,,,,
1606.5,,memorable_rating,357041,Orr,,53,,,5,,,,,,,,,,,,,,,
null,,confidence_buffer,357144,confidence_buffer,,null,,,,,,,,,,,,,,,,,,
null,,thebreak,357646,break,,null,,,,,,,,,,,,,,,,,,
6065.300000000745,,familiar_rating,363711,Healdsburg,,50,Healdsburg,US,2,,,,,,,,,,,,,,,
null,,confidence_buffer,363814,confidence_buffer,,null,,,,,,,,,,,,,,,,,,
2032.800000000745,,unique_rating,365847,Healdsburg,,51,,,3,,,,,,,,,,,,,,,
null,,confidence_buffer,365949,confidence_buffer,,null,,,,,,,,,,,,,,,,,,
1681.6000000014901,,memorable_rating,367631,Healdsburg,,50,,,2,,,,,,,,,,,,,,,
null,,confidence_buffer,367734,confidence_buffer,,null,,,,,,,,,,,,,,,,,,
null,,thebreak,368235,break,,null,,,,,,,,,,,,,,,,,,
3155.300000000745,,familiar_rating,371391,Hawthorne Bluffs,,49,Hawthorne Bluffs,Fictional,1,,,,,,,,,,,,,,,
null,,confidence_buffer,371493,confidence_buffer,,null,,,,,,,,,,,,,,,,,,
1315.800000000745,,unique_rating,372810,Hawthorne Bluffs,,53,,,5,,,,,,,,,,,,,,,
null,,confidence_buffer,372911,confidence_buffer,,null,,,,,,,,,,,,,,,,,,
3491.60000000149,,memorable_rating,376404,Hawthorne Bluffs,,53,,,5,,,,,,,,,,,,,,,
null,,confidence_buffer,376505,confidence_buffer,,null,,,,,,,,,,,,,,,,,,
null,,thebreak,377006,break,,null,,,,,,,,,,,,,,,,,,
3570.39999999851,,familiar_rating,380578,Maplehurst,,50,Maplehurst,Fictional,2,,,,,,,,,,,,,,,
null,,confidence_buffer,380679,confidence_buffer,,null,,,,,,,,,,,,,,,,,,
3306.60000000149,,unique_rating,383987,Maplehurst,,51,,,3,,,,,,,,,,,,,,,
null,,confidence_buffer,384088,confidence_buffer,,null,,,,,,,,,,,,,,,,,,
1486.1000000014901,,memorable_rating,385575,Maplehurst,,51,,,3,,,,,,,,,,,,,,,
null,,confidence_buffer,385676,confidence_buffer,,null,,,,,,,,,,,,,,,,,,
null,,thebreak,386179,break,,null,,,,,,,,,,,,,,,,,,
2917.699999999255,,familiar_rating,389097,Sitka,,49,Sitka,US,1,,,,,,,,,,,,,,,
null,,confidence_buffer,389198,confidence_buffer,,null,,,,,,,,,,,,,,,,,,
1490.300000000745,,unique_rating,390689,Sitka,,53,,,5,,,,,,,,,,,,,,,
null,,confidence_buffer,390790,confidence_buffer,,null,,,,,,,,,,,,,,,,,,
1890.3999999985099,,memorable_rating,392681,Sitka,,52,,,4,,,,,,,,,,,,,,,
null,,confidence_buffer,392782,confidence_buffer,,null,,,,,,,,,,,,,,,,,,
null,,thebreak,393284,break,,null,,,,,,,,,,,,,,,,,,
6952.5,,familiar_rating,400237,Baymarsh,,49,Baymarsh,Fictional,1,,,,,,,,,,,,,,,
null,,confidence_buffer,400341,confidence_buffer,,null,,,,,,,,,,,,,,,,,,
4100,,unique_rating,404441,Baymarsh,,51,,,3,,,,,,,,,,,,,,,
null,,confidence_buffer,404543,confidence_buffer,,null,,,,,,,,,,,,,,,,,,
1981.7000000029802,,memorable_rating,406526,Baymarsh,,50,,,2,,,,,,,,,,,,,,,
null,,confidence_buffer,406627,confidence_buffer,,null,,,,,,,,,,,,,,,,,,
null,,thebreak,407137,break,,null,,,,,,,,,,,,,,,,,,
2611.599999997765,,familiar_rating,409750,Bisbee,,49,Bisbee,US,1,,,,,,,,,,,,,,,
null,,confidence_buffer,409851,confidence_buffer,,null,,,,,,,,,,,,,,,,,,
2307.7000000029802,,unique_rating,412159,Bisbee,,53,,,5,,,,,,,,,,,,,,,
null,,confidence_buffer,412260,confidence_buffer,,null,,,,,,,,,,,,,,,,,,
2750.300000000745,,memorable_rating,415011,Bisbee,,52,,,4,,,,,,,,,,,,,,,
null,,confidence_buffer,415113,confidence_buffer,,null,,,,,,,,,,,,,,,,,,
null,,thebreak,415614,break,,null,,,,,,,,,,,,,,,,,,
9186.39999999851,,intro_0,424801,instruct,,32,,,,,,,,,,,,,,,,,,
8497.300000000745,,intro_1,433299,instruct,,32,,,,,,,,,,,,,,,,,,
26375.800000000745,,intro_2,459675,instruct,,32,,,,,,,,,,,,,,,,,,
null,,instruct_dir_4,461176,instruct,,null,,,,,,,,,,,,,,,,,,
7807.900000002235,,realistic_rating,468985,Watkins Glen,,50,Watkins Glen,US,2,,,,,,,,,,,,,,,
null,,confidence_buffer,469086,confidence_buffer,,null,,,,,,,,,,,,,,,,,,
4526.400000002235,,pt2_unique_rating,473613,Watkins Glen,,51,,,3,,,,,,,,,,,,,,,
null,,confidence_buffer,473715,confidence_buffer,,null,,,,,,,,,,,,,,,,,,
5095.300000000745,,pt2_memorable_rating,478811,Watkins Glen,,52,,,4,,,,,,,,,,,,,,,
null,,confidence_buffer,478912,confidence_buffer,,null,,,,,,,,,,,,,,,,,,
2263.800000000745,,recognition_phase,481177,Watkins Glen,,52,,,,,,new,1,1,,,,,,,,,,
null,,confidence_buffer,481278,confidence_buffer,,null,,,,,,,,,,,,,,,,,,
null,,thebreak,481791,break,,null,,,,,,,,,,,,,,,,,,
3291.400000002235,,realistic_rating,485083,Yukon,,53,Yukon,US,5,,,,,,,,,,,,,,,
null,,confidence_buffer,485184,confidence_buffer,,null,,,,,,,,,,,,,,,,,,
1990.4000000022352,,probe_rating,487175,probe_rating,,49,,,,1,1,,,,,,,,,,,,,
null,,confidence_buffer,487276,confidence_buffer,,null,,,,,,,,,,,,,,,,,,
2844.199999999255,,pt2_unique_rating,490121,Yukon,,53,,,5,,,,,,,,,,,,,,,
null,,confidence_buffer,490225,confidence_buffer,,null,,,,,,,,,,,,,,,,,,
1635.800000000745,,pt2_memorable_rating,491861,Yukon,,53,,,5,,,,,,,,,,,,,,,
null,,confidence_buffer,491963,confidence_buffer,,null,,,,,,,,,,,,,,,,,,
1599.2999999970198,,recognition_phase,493563,Yukon,,52,,,,,,new,1,1,,,,,,,,,,
null,,confidence_buffer,493665,confidence_buffer,,null,,,,,,,,,,,,,,,,,,
null,,thebreak,494166,break,,null,,,,,,,,,,,,,,,,,,
7208.800000000745,,realistic_rating,501376,Meadowspire,,49,Meadowspire,Fictional,1,,,,,,,,,,,,,,,
null,,confidence_buffer,501478,confidence_buffer,,null,,,,,,,,,,,,,,,,,,
3492.099999997765,,pt2_unique_rating,504971,Meadowspire,,52,,,4,,,,,,,,,,,,,,,
null,,confidence_buffer,505072,confidence_buffer,,null,,,,,,,,,,,,,,,,,,
5182.199999999255,,pt2_memorable_rating,510255,Meadowspire,,53,,,5,,,,,,,,,,,,,,,
null,,confidence_buffer,510364,confidence_buffer,,null,,,,,,,,,,,,,,,,,,
3786.300000000745,,recognition_phase,514151,Meadowspire,,52,,,,,,new,1,1,,,,,,,,,,
null,,confidence_buffer,514253,confidence_buffer,,null,,,,,,,,,,,,,,,,,,
null,,thebreak,514754,break,,null,,,,,,,,,,,,,,,,,,
6774.29999999702,,realistic_rating,521529,Ashford Hills,,50,Ashford Hills,Fictional,2,,,,,,,,,,,,,,,
null,,confidence_buffer,521631,confidence_buffer,,null,,,,,,,,,,,,,,,,,,
2927.5,,pt2_unique_rating,524559,Ashford Hills,,49,,,1,,,,,,,,,,,,,,,
null,,confidence_buffer,524661,confidence_buffer,,null,,,,,,,,,,,,,,,,,,
5879.900000002235,,pt2_memorable_rating,530542,Ashford Hills,,51,,,3,,,,,,,,,,,,,,,
null,,confidence_buffer,530644,confidence_buffer,,null,,,,,,,,,,,,,,,,,,
1504.5,,recognition_phase,532149,Ashford Hills,,49,,,,,,old,1,1,,,,,,,,,,
null,,confidence_buffer,532251,confidence_buffer,,null,,,,,,,,,,,,,,,,,,
null,,thebreak,532753,break,,null,,,,,,,,,,,,,,,,,,
4732,,realistic_rating,537485,Sammamish,,51,Sammamish,US,3,,,,,,,,,,,,,,,
null,,confidence_buffer,537587,confidence_buffer,,null,,,,,,,,,,,,,,,,,,
3213.10000000149,,pt2_unique_rating,540801,Sammamish,,53,,,5,,,,,,,,,,,,,,,
null,,confidence_buffer,540904,confidence_buffer,,null,,,,,,,,,,,,,,,,,,
2778.39999999851,,pt2_memorable_rating,543683,Sammamish,,53,,,5,,,,,,,,,,,,,,,
null,,confidence_buffer,543784,confidence_buffer,,null,,,,,,,,,,,,,,,,,,
2082.2000000029802,,recognition_phase,545867,Sammamish,,49,,,,,,old,1,1,,,,,,,,,,
null,,confidence_buffer,545968,confidence_buffer,,null,,,,,,,,,,,,,,,,,,
null,,thebreak,546470,break,,null,,,,,,,,,,,,,,,,,,
2837.199999999255,,realistic_rating,549307,West Palm Beach,,53,West Palm Beach,US,5,,,,,,,,,,,,,,,
null,,confidence_buffer,549409,confidence_buffer,,null,,,,,,,,,,,,,,,,,,
2254,,pt2_unique_rating,551663,West Palm Beach,,49,,,1,,,,,,,,,,,,,,,
null,,confidence_buffer,551765,confidence_buffer,,null,,,,,,,,,,,,,,,,,,
1893.800000000745,,pt2_memorable_rating,553660,West Palm Beach,,53,,,5,,,,,,,,,,,,,,,
null,,confidence_buffer,553761,confidence_buffer,,null,,,,,,,,,,,,,,,,,,
1518.699999999255,,recognition_phase,555281,West Palm Beach,,49,,,,,,old,1,1,,,,,,,,,,
null,,confidence_buffer,555382,confidence_buffer,,null,,,,,,,,,,,,,,,,,,
null,,thebreak,555884,break,,null,,,,,,,,,,,,,,,,,,
2302.400000002235,,realistic_rating,558187,Cleveland,,53,Cleveland,US,5,,,,,,,,,,,,,,,
null,,confidence_buffer,558290,confidence_buffer,,null,,,,,,,,,,,,,,,,,,
4027.5,,pt2_unique_rating,562318,Cleveland,,49,,,1,,,,,,,,,,,,,,,
null,,confidence_buffer,562419,confidence_buffer,,null,,,,,,,,,,,,,,,,,,
2639.800000000745,,pt2_memorable_rating,565060,Cleveland,,53,,,5,,,,,,,,,,,,,,,
null,,confidence_buffer,565161,confidence_buffer,,null,,,,,,,,,,,,,,,,,,
2521.199999999255,,recognition_phase,567683,Cleveland,,49,,,,,,old,1,1,,,,,,,,,,
null,,confidence_buffer,567785,confidence_buffer,,null,,,,,,,,,,,,,,,,,,
null,,thebreak,568286,break,,null,,,,,,,,,,,,,,,,,,
3991.800000000745,,realistic_rating,572279,Cornwall,,50,Cornwall,US,2,,,,,,,,,,,,,,,
null,,confidence_buffer,572381,confidence_buffer,,null,,,,,,,,,,,,,,,,,,
4653.599999997765,,pt2_unique_rating,577035,Cornwall,,49,,,1,,,,,,,,,,,,,,,
null,,confidence_buffer,577136,confidence_buffer,,null,,,,,,,,,,,,,,,,,,
3301.60000000149,,pt2_memorable_rating,580439,Cornwall,,53,,,5,,,,,,,,,,,,,,,
null,,confidence_buffer,580539,confidence_buffer,,null,,,,,,,,,,,,,,,,,,
1818.800000000745,,recognition_phase,582359,Cornwall,,52,,,,,,new,1,1,,,,,,,,,,
null,,confidence_buffer,582461,confidence_buffer,,null,,,,,,,,,,,,,,,,,,
null,,thebreak,582962,break,,null,,,,,,,,,,,,,,,,,,
4856.800000000745,,realistic_rating,587820,Alliance,,49,Alliance,US,1,,,,,,,,,,,,,,,
null,,confidence_buffer,587921,confidence_buffer,,null,,,,,,,,,,,,,,,,,,
3482.39999999851,,pt2_unique_rating,591404,Alliance,,53,,,5,,,,,,,,,,,,,,,
null,,confidence_buffer,591505,confidence_buffer,,null,,,,,,,,,,,,,,,,,,
1759.5999999977648,,pt2_memorable_rating,593265,Alliance,,53,,,5,,,,,,,,,,,,,,,
null,,confidence_buffer,593366,confidence_buffer,,null,,,,,,,,,,,,,,,,,,
1958.2999999970198,,recognition_phase,595326,Alliance,,52,,,,,,new,1,1,,,,,,,,,,
null,,confidence_buffer,595427,confidence_buffer,,null,,,,,,,,,,,,,,,,,,
null,,thebreak,595929,break,,null,,,,,,,,,,,,,,,,,,
4173.800000000745,,realistic_rating,600103,Bisbee,,51,Bisbee,US,3,,,,,,,,,,,,,,,
null,,confidence_buffer,600205,confidence_buffer,,null,,,,,,,,,,,,,,,,,,
3772.89999999851,,pt2_unique_rating,603979,Bisbee,,53,,,5,,,,,,,,,,,,,,,
null,,confidence_buffer,604081,confidence_buffer,,null,,,,,,,,,,,,,,,,,,
1155.199999999255,,pt2_memorable_rating,605237,Bisbee,,53,,,5,,,,,,,,,,,,,,,
null,,confidence_buffer,605338,confidence_buffer,,null,,,,,,,,,,,,,,,,,,
1604.8999999985099,,recognition_phase,606944,Bisbee,,49,,,,,,old,1,1,,,,,,,,,,
null,,confidence_buffer,607045,confidence_buffer,,null,,,,,,,,,,,,,,,,,,
null,,thebreak,607546,break,,null,,,,,,,,,,,,,,,,,,
4334.099999997765,,realistic_rating,611881,Folly Beach,,50,Folly Beach,US,2,,,,,,,,,,,,,,,
null,,confidence_buffer,611983,confidence_buffer,,null,,,,,,,,,,,,,,,,,,
2695.199999999255,,pt2_unique_rating,614679,Folly Beach,,52,,,4,,,,,,,,,,,,,,,
null,,confidence_buffer,614781,confidence_buffer,,null,,,,,,,,,,,,,,,,,,
3139.60000000149,,probe_rating,617921,probe_rating,,51,,,,3,1,,,,,,,,,,,,,
null,,confidence_buffer,618023,confidence_buffer,,null,,,,,,,,,,,,,,,,,,
4133.800000000745,,pt2_memorable_rating,622157,Folly Beach,,52,,,4,,,,,,,,,,,,,,,
null,,confidence_buffer,622259,confidence_buffer,,null,,,,,,,,,,,,,,,,,,
4529.5,,recognition_phase,626789,Folly Beach,,49,,,,,,old,1,1,,,,,,,,,,
null,,confidence_buffer,626891,confidence_buffer,,null,,,,,,,,,,,,,,,,,,
null,,thebreak,627393,break,,null,,,,,,,,,,,,,,,,,,
4732.199999999255,,realistic_rating,632125,Healdsburg,,52,Healdsburg,US,4,,,,,,,,,,,,,,,
null,,confidence_buffer,632227,confidence_buffer,,null,,,,,,,,,,,,,,,,,,
2653.39999999851,,pt2_unique_rating,634881,Healdsburg,,52,,,4,,,,,,,,,,,,,,,
null,,confidence_buffer,634982,confidence_buffer,,null,,,,,,,,,,,,,,,,,,
3920.300000000745,,pt2_memorable_rating,638903,Healdsburg,,50,,,2,,,,,,,,,,,,,,,
null,,confidence_buffer,639004,confidence_buffer,,null,,,,,,,,,,,,,,,,,,
3658.10000000149,,recognition_phase,642663,Healdsburg,,50,,,,,,old,1,1,,,,,,,,,,
null,,confidence_buffer,642764,confidence_buffer,,null,,,,,,,,,,,,,,,,,,
null,,thebreak,643265,break,,null,,,,,,,,,,,,,,,,,,
7273.699999999255,,realistic_rating,650540,Coeur d'Alene,,52,Coeur d'Alene,US,4,,,,,,,,,,,,,,,
null,,confidence_buffer,650641,confidence_buffer,,null,,,,,,,,,,,,,,,,,,
2807.10000000149,,probe_rating,653449,probe_rating,,49,,,,1,1,,,,,,,,,,,,,
null,,confidence_buffer,653551,confidence_buffer,,null,,,,,,,,,,,,,,,,,,
4213.60000000149,,pt2_unique_rating,657765,Coeur d'Alene,,53,,,5,,,,,,,,,,,,,,,
null,,confidence_buffer,657867,confidence_buffer,,null,,,,,,,,,,,,,,,,,,
1651.300000000745,,pt2_memorable_rating,659519,Coeur d'Alene,,53,,,5,,,,,,,,,,,,,,,
null,,confidence_buffer,659621,confidence_buffer,,null,,,,,,,,,,,,,,,,,,
1549.800000000745,,recognition_phase,661172,Coeur d'Alene,,52,,,,,,new,1,1,,,,,,,,,,
null,,confidence_buffer,661273,confidence_buffer,,null,,,,,,,,,,,,,,,,,,
null,,thebreak,661774,break,,null,,,,,,,,,,,,,,,,,,
3614.39999999851,,realistic_rating,665389,Abilene,,52,Abilene,US,4,,,,,,,,,,,,,,,
null,,confidence_buffer,665491,confidence_buffer,,null,,,,,,,,,,,,,,,,,,
8840.5,,pt2_unique_rating,674333,Abilene,,50,,,2,,,,,,,,,,,,,,,
null,,confidence_buffer,674435,confidence_buffer,,null,,,,,,,,,,,,,,,,,,
2539.10000000149,,pt2_memorable_rating,676975,Abilene,,51,,,3,,,,,,,,,,,,,,,
null,,confidence_buffer,677076,confidence_buffer,,null,,,,,,,,,,,,,,,,,,
1917.800000000745,,recognition_phase,678995,Abilene,,51,,,,,,new,0,0.9285714285714286,,,,,,,,,,
null,,confidence_buffer,679096,confidence_buffer,,null,,,,,,,,,,,,,,,,,,
null,,thebreak,679598,break,,null,,,,,,,,,,,,,,,,,,
3269.7000000029802,,realistic_rating,682869,Hilo,,52,Hilo,US,4,,,,,,,,,,,,,,,
null,,confidence_buffer,682969,confidence_buffer,,null,,,,,,,,,,,,,,,,,,
3599.10000000149,,pt2_unique_rating,686569,Hilo,,53,,,5,,,,,,,,,,,,,,,
null,,confidence_buffer,686670,confidence_buffer,,null,,,,,,,,,,,,,,,,,,
1906.199999999255,,pt2_memorable_rating,688577,Hilo,,53,,,5,,,,,,,,,,,,,,,
null,,confidence_buffer,688679,confidence_buffer,,null,,,,,,,,,,,,,,,,,,
2135.699999999255,,probe_rating,690816,probe_rating,,52,,,,4,1,,,,,,,,,,,,,
null,,confidence_buffer,690917,confidence_buffer,,null,,,,,,,,,,,,,,,,,,
1893.699999999255,,recognition_phase,692811,Hilo,,52,,,,,,new,1,0.9333333333333333,,,,,,,,,,
null,,confidence_buffer,692913,confidence_buffer,,null,,,,,,,,,,,,,,,,,,
null,,thebreak,693414,break,,null,,,,,,,,,,,,,,,,,,
2184,,realistic_rating,695599,Peoria,,53,Peoria,US,5,,,,,,,,,,,,,,,
null,,confidence_buffer,695701,confidence_buffer,,null,,,,,,,,,,,,,,,,,,
2097,,probe_rating,697799,probe_rating,,49,,,,1,1,,,,,,,,,,,,,
null,,confidence_buffer,697902,confidence_buffer,,null,,,,,,,,,,,,,,,,,,
2792.10000000149,,pt2_unique_rating,700695,Peoria,,52,,,4,,,,,,,,,,,,,,,
null,,confidence_buffer,700796,confidence_buffer,,null,,,,,,,,,,,,,,,,,,
1310.3999999985099,,pt2_memorable_rating,702107,Peoria,,52,,,4,,,,,,,,,,,,,,,
null,,confidence_buffer,702208,confidence_buffer,,null,,,,,,,,,,,,,,,,,,
2291.900000002235,,recognition_phase,704501,Peoria,,52,,,,,,new,1,0.9375,,,,,,,,,,
null,,confidence_buffer,704603,confidence_buffer,,null,,,,,,,,,,,,,,,,,,
null,,thebreak,705106,break,,null,,,,,,,,,,,,,,,,,,
5890.900000002235,,realistic_rating,710997,Hawthorne Bluffs,,51,Hawthorne Bluffs,Fictional,3,,,,,,,,,,,,,,,
null,,confidence_buffer,711098,confidence_buffer,,null,,,,,,,,,,,,,,,,,,
2286.199999999255,,pt2_unique_rating,713385,Hawthorne Bluffs,,53,,,5,,,,,,,,,,,,,,,
null,,confidence_buffer,713486,confidence_buffer,,null,,,,,,,,,,,,,,,,,,
1808.199999999255,,pt2_memorable_rating,715295,Hawthorne Bluffs,,53,,,5,,,,,,,,,,,,,,,
null,,confidence_buffer,715397,confidence_buffer,,null,,,,,,,,,,,,,,,,,,
1902.8999999985099,,recognition_phase,717301,Hawthorne Bluffs,,49,,,,,,old,1,0.9411764705882353,,,,,,,,,,
null,,confidence_buffer,717403,confidence_buffer,,null,,,,,,,,,,,,,,,,,,
null,,thebreak,717904,break,,null,,,,,,,,,,,,,,,,,,
3952.60000000149,,realistic_rating,721858,New Hope,,49,New Hope,US,1,,,,,,,,,,,,,,,
null,,confidence_buffer,721960,confidence_buffer,,null,,,,,,,,,,,,,,,,,,
3202.10000000149,,pt2_unique_rating,725163,New Hope,,51,,,3,,,,,,,,,,,,,,,
null,,confidence_buffer,725264,confidence_buffer,,null,,,,,,,,,,,,,,,,,,
3043.89999999851,,probe_rating,728309,probe_rating,,49,,,,1,1,,,,,,,,,,,,,
null,,confidence_buffer,728411,confidence_buffer,,null,,,,,,,,,,,,,,,,,,
3604.199999999255,,pt2_memorable_rating,732016,New Hope,,53,,,5,,,,,,,,,,,,,,,
null,,confidence_buffer,732116,confidence_buffer,,null,,,,,,,,,,,,,,,,,,
2064,,recognition_phase,734181,New Hope,,52,,,,,,new,1,0.9444444444444444,,,,,,,,,,
null,,confidence_buffer,734283,confidence_buffer,,null,,,,,,,,,,,,,,,,,,
null,,thebreak,734784,break,,null,,,,,,,,,,,,,,,,,,
6077.5,,realistic_rating,740863,Bayshore Haven,,50,Bayshore Haven,Fictional,2,,,,,,,,,,,,,,,
null,,confidence_buffer,740964,confidence_buffer,,null,,,,,,,,,,,,,,,,,,
3468.199999999255,,pt2_unique_rating,744433,Bayshore Haven,,52,,,4,,,,,,,,,,,,,,,
null,,confidence_buffer,744534,confidence_buffer,,null,,,,,,,,,,,,,,,,,,
2793.89999999851,,probe_rating,747329,probe_rating,,49,,,,1,1,,,,,,,,,,,,,
null,,confidence_buffer,747431,confidence_buffer,,null,,,,,,,,,,,,,,,,,,
2071.2000000029802,,pt2_memorable_rating,749503,Bayshore Haven,,52,,,4,,,,,,,,,,,,,,,
null,,confidence_buffer,749606,confidence_buffer,,null,,,,,,,,,,,,,,,,,,
2573.099999997765,,recognition_phase,752179,Bayshore Haven,,49,,,,,,old,1,0.9473684210526315,,,,,,,,,,
null,,confidence_buffer,752282,confidence_buffer,,null,,,,,,,,,,,,,,,,,,
null,,thebreak,752783,break,,null,,,,,,,,,,,,,,,,,,
19982,,realistic_rating,772766,Tamarisk Hills,,51,Tamarisk Hills,Fictional,3,,,,,,,,,,,,,,,
null,,confidence_buffer,772868,confidence_buffer,,null,,,,,,,,,,,,,,,,,,
5610.5,,pt2_unique_rating,778479,Tamarisk Hills,,52,,,4,,,,,,,,,,,,,,,
null,,confidence_buffer,778581,confidence_buffer,,null,,,,,,,,,,,,,,,,,,
1871.199999999255,,pt2_memorable_rating,780453,Tamarisk Hills,,52,,,4,,,,,,,,,,,,,,,
null,,confidence_buffer,780555,confidence_buffer,,null,,,,,,,,,,,,,,,,,,
2443.199999999255,,recognition_phase,782999,Tamarisk Hills,,52,,,,,,new,1,0.95,,,,,,,,,,
null,,confidence_buffer,783101,confidence_buffer,,null,,,,,,,,,,,,,,,,,,
null,,thebreak,783602,break,,null,,,,,,,,,,,,,,,,,,
4592.10000000149,,realistic_rating,788195,North Arroya,,52,North Arroya,Fictional,4,,,,,,,,,,,,,,,
null,,confidence_buffer,788301,confidence_buffer,,null,,,,,,,,,,,,,,,,,,
2873.599999997765,,pt2_unique_rating,791175,North Arroya,,51,,,3,,,,,,,,,,,,,,,
null,,confidence_buffer,791277,confidence_buffer,,null,,,,,,,,,,,,,,,,,,
2067.900000002235,,pt2_memorable_rating,793346,North Arroya,,52,,,4,,,,,,,,,,,,,,,
null,,confidence_buffer,793448,confidence_buffer,,null,,,,,,,,,,,,,,,,,,
1840.7000000029802,,recognition_phase,795289,North Arroya,,49,,,,,,old,1,0.9523809523809523,,,,,,,,,,
null,,confidence_buffer,795391,confidence_buffer,,null,,,,,,,,,,,,,,,,,,
null,,thebreak,795893,break,,null,,,,,,,,,,,,,,,,,,
6095.199999999255,,realistic_rating,801989,Cape May,,52,Cape May,US,4,,,,,,,,,,,,,,,
null,,confidence_buffer,802101,confidence_buffer,,null,,,,,,,,,,,,,,,,,,
2339.800000000745,,pt2_unique_rating,804442,Cape May,,51,,,3,,,,,,,,,,,,,,,
null,,confidence_buffer,804543,confidence_buffer,,null,,,,,,,,,,,,,,,,,,
2235.800000000745,,pt2_memorable_rating,806780,Cape May,,51,,,3,,,,,,,,,,,,,,,
null,,confidence_buffer,806881,confidence_buffer,,null,,,,,,,,,,,,,,,,,,
2807.5,,recognition_phase,809689,Cape May,,52,,,,,,new,1,0.9545454545454546,,,,,,,,,,
null,,confidence_buffer,809791,confidence_buffer,,null,,,,,,,,,,,,,,,,,,
null,,thebreak,810292,break,,null,,,,,,,,,,,,,,,,,,
3163.099999997765,,realistic_rating,813456,East Ladera,,52,East Ladera,Fictional,4,,,,,,,,,,,,,,,
null,,confidence_buffer,813557,confidence_buffer,,null,,,,,,,,,,,,,,,,,,
2045.3999999985099,,pt2_unique_rating,815604,East Ladera,,52,,,4,,,,,,,,,,,,,,,
null,,confidence_buffer,815705,confidence_buffer,,null,,,,,,,,,,,,,,,,,,
3225.800000000745,,pt2_memorable_rating,818932,East Ladera,,53,,,5,,,,,,,,,,,,,,,
null,,confidence_buffer,819033,confidence_buffer,,null,,,,,,,,,,,,,,,,,,
1596.199999999255,,recognition_phase,820630,East Ladera,,52,,,,,,new,1,0.9565217391304348,,,,,,,,,,
null,,confidence_buffer,820731,confidence_buffer,,null,,,,,,,,,,,,,,,,,,
null,,thebreak,821233,break,,null,,,,,,,,,,,,,,,,,,
6030.199999999255,,realistic_rating,827264,Northbridge,,50,Northbridge,Fictional,2,,,,,,,,,,,,,,,
null,,confidence_buffer,827365,confidence_buffer,,null,,,,,,,,,,,,,,,,,,
3215.2999999970198,,pt2_unique_rating,830582,Northbridge,,49,,,1,,,,,,,,,,,,,,,
null,,confidence_buffer,830684,confidence_buffer,,null,,,,,,,,,,,,,,,,,,
4133.10000000149,,pt2_memorable_rating,834817,Northbridge,,51,,,3,,,,,,,,,,,,,,,
null,,confidence_buffer,834920,confidence_buffer,,null,,,,,,,,,,,,,,,,,,
2122.89999999851,,recognition_phase,837043,Northbridge,,52,,,,,,new,0,0.9166666666666666,,,,,,,,,,
null,,confidence_buffer,837146,confidence_buffer,,null,,,,,,,,,,,,,,,,,,
null,,thebreak,837648,break,,null,,,,,,,,,,,,,,,,,,
4633,,realistic_rating,842282,Sitka,,53,Sitka,US,5,,,,,,,,,,,,,,,
null,,confidence_buffer,842385,confidence_buffer,,null,,,,,,,,,,,,,,,,,,
2192,,pt2_unique_rating,844578,Sitka,,53,,,5,,,,,,,,,,,,,,,
null,,confidence_buffer,844679,confidence_buffer,,null,,,,,,,,,,,,,,,,,,
2012.9000000022352,,pt2_memorable_rating,846693,Sitka,,53,,,5,,,,,,,,,,,,,,,
null,,confidence_buffer,846795,confidence_buffer,,null,,,,,,,,,,,,,,,,,,
1512.3999999985099,,recognition_phase,848308,Sitka,,49,,,,,,old,1,0.92,,,,,,,,,,
null,,confidence_buffer,848410,confidence_buffer,,null,,,,,,,,,,,,,,,,,,
null,,thebreak,848911,break,,null,,,,,,,,,,,,,,,,,,
4250.099999997765,,realistic_rating,853162,Riverlyn,,51,Riverlyn,Fictional,3,,,,,,,,,,,,,,,
null,,confidence_buffer,853264,confidence_buffer,,null,,,,,,,,,,,,,,,,,,
2472,,probe_rating,855737,probe_rating,,50,,,,2,1,,,,,,,,,,,,,
null,,confidence_buffer,855839,confidence_buffer,,null,,,,,,,,,,,,,,,,,,
4253.599999997765,,pt2_unique_rating,860094,Riverlyn,,52,,,4,,,,,,,,,,,,,,,
null,,confidence_buffer,860195,confidence_buffer,,null,,,,,,,,,,,,,,,,,,
3075.300000000745,,pt2_memorable_rating,863271,Riverlyn,,53,,,5,,,,,,,,,,,,,,,
null,,confidence_buffer,863372,confidence_buffer,,null,,,,,,,,,,,,,,,,,,
2076.2000000029802,,recognition_phase,865449,Riverlyn,,52,,,,,,new,1,0.9230769230769231,,,,,,,,,,
null,,confidence_buffer,865551,confidence_buffer,,null,,,,,,,,,,,,,,,,,,
null,,thebreak,866053,break,,null,,,,,,,,,,,,,,,,,,
6799.60000000149,,realistic_rating,872853,West Talora,,50,West Talora,Fictional,2,,,,,,,,,,,,,,,
null,,confidence_buffer,872962,confidence_buffer,,null,,,,,,,,,,,,,,,,,,
3139.099999997765,,pt2_unique_rating,876101,West Talora,,52,,,4,,,,,,,,,,,,,,,
null,,confidence_buffer,876202,confidence_buffer,,null,,,,,,,,,,,,,,,,,,
2958.300000000745,,pt2_memorable_rating,879161,West Talora,,50,,,2,,,,,,,,,,,,,,,
null,,confidence_buffer,879263,confidence_buffer,,null,,,,,,,,,,,,,,,,,,
2331.5,,recognition_phase,881595,West Talora,,51,,,,,,new,0,0.8888888888888888,,,,,,,,,,
null,,confidence_buffer,881698,confidence_buffer,,null,,,,,,,,,,,,,,,,,,
null,,thebreak,882200,break,,null,,,,,,,,,,,,,,,,,,
3471.300000000745,,realistic_rating,885672,Orr,,53,Orr,US,5,,,,,,,,,,,,,,,
null,,confidence_buffer,885773,confidence_buffer,,null,,,,,,,,,,,,,,,,,,
1995.800000000745,,pt2_unique_rating,887769,Orr,,53,,,5,,,,,,,,,,,,,,,
null,,confidence_buffer,887871,confidence_buffer,,null,,,,,,,,,,,,,,,,,,
2691.300000000745,,pt2_memorable_rating,890563,Orr,,53,,,5,,,,,,,,,,,,,,,
null,,confidence_buffer,890665,confidence_buffer,,null,,,,,,,,,,,,,,,,,,
1881.9000000022352,,recognition_phase,892547,Orr,,49,,,,,,old,1,0.8928571428571429,,,,,,,,,,
null,,confidence_buffer,892649,confidence_buffer,,null,,,,,,,,,,,,,,,,,,
null,,thebreak,893150,break,,null,,,,,,,,,,,,,,,,,,
5070.60000000149,,realistic_rating,898221,Redgrove,,51,Redgrove,Fictional,3,,,,,,,,,,,,,,,
null,,confidence_buffer,898324,confidence_buffer,,null,,,,,,,,,,,,,,,,,,
2648,,probe_rating,900973,probe_rating,,50,,,,2,1,,,,,,,,,,,,,
null,,confidence_buffer,901075,confidence_buffer,,null,,,,,,,,,,,,,,,,,,
4161.599999997765,,pt2_unique_rating,905237,Redgrove,,49,,,1,,,,,,,,,,,,,,,
null,,confidence_buffer,905340,confidence_buffer,,null,,,,,,,,,,,,,,,,,,
4426.599999997765,,pt2_memorable_rating,909767,Redgrove,,49,,,1,,,,,,,,,,,,,,,
null,,confidence_buffer,909868,confidence_buffer,,null,,,,,,,,,,,,,,,,,,
2496.10000000149,,recognition_phase,912366,Redgrove,,50,,,,,,old,1,0.896551724137931,,,,,,,,,,
null,,confidence_buffer,912468,confidence_buffer,,null,,,,,,,,,,,,,,,,,,
null,,thebreak,912970,break,,null,,,,,,,,,,,,,,,,,,
7890.699999999255,,realistic_rating,920861,Baymarsh,,49,Baymarsh,Fictional,1,,,,,,,,,,,,,,,
null,,confidence_buffer,920962,confidence_buffer,,null,,,,,,,,,,,,,,,,,,
2254.199999999255,,pt2_unique_rating,923217,Baymarsh,,52,,,4,,,,,,,,,,,,,,,
null,,confidence_buffer,923318,confidence_buffer,,null,,,,,,,,,,,,,,,,,,
1974,,probe_rating,925293,probe_rating,,50,,,,2,1,,,,,,,,,,,,,
null,,confidence_buffer,925395,confidence_buffer,,null,,,,,,,,,,,,,,,,,,
1921,,pt2_memorable_rating,927316,Baymarsh,,51,,,3,,,,,,,,,,,,,,,
null,,confidence_buffer,927419,confidence_buffer,,null,,,,,,,,,,,,,,,,,,
2172,,recognition_phase,929591,Baymarsh,,49,,,,,,old,1,0.9,,,,,,,,,,
null,,confidence_buffer,929692,confidence_buffer,,null,,,,,,,,,,,,,,,,,,
null,,thebreak,930194,break,,null,,,,,,,,,,,,,,,,,,
3835,,realistic_rating,934030,Boulder,,53,Boulder,US,5,,,,,,,,,,,,,,,
null,,confidence_buffer,934131,confidence_buffer,,null,,,,,,,,,,,,,,,,,,
3744.199999999255,,pt2_unique_rating,937876,Boulder,,51,,,3,,,,,,,,,,,,,,,
null,,confidence_buffer,937978,confidence_buffer,,null,,,,,,,,,,,,,,,,,,
4445.29999999702,,pt2_memorable_rating,942424,Boulder,,50,,,2,,,,,,,,,,,,,,,
null,,confidence_buffer,942526,confidence_buffer,,null,,,,,,,,,,,,,,,,,,
2143.800000000745,,recognition_phase,944670,Boulder,,52,,,,,,new,1,0.9032258064516129,,,,,,,,,,
null,,confidence_buffer,944772,confidence_buffer,,null,,,,,,,,,,,,,,,,,,
null,,thebreak,945273,break,,null,,,,,,,,,,,,,,,,,,
3491.699999999255,,realistic_rating,948765,Millstone,,51,Millstone,Fictional,3,,,,,,,,,,,,,,,
null,,confidence_buffer,948866,confidence_buffer,,null,,,,,,,,,,,,,,,,,,
3176.89999999851,,pt2_unique_rating,952044,Millstone,,49,,,1,,,,,,,,,,,,,,,
null,,confidence_buffer,952145,confidence_buffer,,null,,,,,,,,,,,,,,,,,,
2705,,pt2_memorable_rating,954851,Millstone,,50,,,2,,,,,,,,,,,,,,,
null,,confidence_buffer,954952,confidence_buffer,,null,,,,,,,,,,,,,,,,,,
1890.5,,recognition_phase,956843,Millstone,,52,,,,,,new,1,0.90625,,,,,,,,,,
null,,confidence_buffer,956944,confidence_buffer,,null,,,,,,,,,,,,,,,,,,
null,,thebreak,957446,break,,null,,,,,,,,,,,,,,,,,,
4148.900000002235,,realistic_rating,961595,Medora,,52,Medora,US,4,,,,,,,,,,,,,,,
null,,confidence_buffer,961697,confidence_buffer,,null,,,,,,,,,,,,,,,,,,
4426,,pt2_unique_rating,966123,Medora,,52,,,4,,,,,,,,,,,,,,,
null,,confidence_buffer,966224,confidence_buffer,,null,,,,,,,,,,,,,,,,,,
2462.099999997765,,pt2_memorable_rating,968687,Medora,,52,,,4,,,,,,,,,,,,,,,
null,,confidence_buffer,968790,confidence_buffer,,null,,,,,,,,,,,,,,,,,,
2402.89999999851,,recognition_phase,971193,Medora,,52,,,,,,new,1,0.9090909090909091,,,,,,,,,,
null,,confidence_buffer,971296,confidence_buffer,,null,,,,,,,,,,,,,,,,,,
null,,thebreak,971797,break,,null,,,,,,,,,,,,,,,,,,
4739.900000002235,,realistic_rating,976538,Cedarwyn,,51,Cedarwyn,Fictional,3,,,,,,,,,,,,,,,
null,,confidence_buffer,976638,confidence_buffer,,null,,,,,,,,,,,,,,,,,,
5181.89999999851,,pt2_unique_rating,981821,Cedarwyn,,51,,,3,,,,,,,,,,,,,,,
null,,confidence_buffer,981922,confidence_buffer,,null,,,,,,,,,,,,,,,,,,
2098.300000000745,,pt2_memorable_rating,984021,Cedarwyn,,51,,,3,,,,,,,,,,,,,,,
null,,confidence_buffer,984122,confidence_buffer,,null,,,,,,,,,,,,,,,,,,
2313.900000002235,,recognition_phase,986437,Cedarwyn,,51,,,,,,new,1,0.9117647058823529,,,,,,,,,,
null,,confidence_buffer,986538,confidence_buffer,,null,,,,,,,,,,,,,,,,,,
null,,thebreak,987040,break,,null,,,,,,,,,,,,,,,,,,
10152.89999999851,,realistic_rating,997193,Ironwood Heights,,52,Ironwood Heights,Fictional,4,,,,,,,,,,,,,,,
null,,confidence_buffer,997295,confidence_buffer,,null,,,,,,,,,,,,,,,,,,
2743.199999999255,,pt2_unique_rating,1000040,Ironwood Heights,,53,,,5,,,,,,,,,,,,,,,
null,,confidence_buffer,1000141,confidence_buffer,,null,,,,,,,,,,,,,,,,,,
1475.4000000022352,,pt2_memorable_rating,1001617,Ironwood Heights,,53,,,5,,,,,,,,,,,,,,,
null,,confidence_buffer,1001719,confidence_buffer,,null,,,,,,,,,,,,,,,,,,
1294.8999999985099,,recognition_phase,1003015,Ironwood Heights,,52,,,,,,new,1,0.9142857142857143,,,,,,,,,,
null,,confidence_buffer,1003116,confidence_buffer,,null,,,,,,,,,,,,,,,,,,
null,,thebreak,1003617,break,,null,,,,,,,,,,,,,,,,,,
6101.199999999255,,realistic_rating,1009719,Barnard,,52,Barnard,US,4,,,,,,,,,,,,,,,
null,,confidence_buffer,1009822,confidence_buffer,,null,,,,,,,,,,,,,,,,,,
3846.800000000745,,pt2_unique_rating,1013670,Barnard,,51,,,3,,,,,,,,,,,,,,,
null,,confidence_buffer,1013771,confidence_buffer,,null,,,,,,,,,,,,,,,,,,
2095,,pt2_memorable_rating,1015867,Barnard,,51,,,3,,,,,,,,,,,,,,,
null,,confidence_buffer,1015968,confidence_buffer,,null,,,,,,,,,,,,,,,,,,
1894.3999999985099,,recognition_phase,1017863,Barnard,,52,,,,,,new,1,0.9166666666666666,,,,,,,,,,
null,,confidence_buffer,1017965,confidence_buffer,,null,,,,,,,,,,,,,,,,,,
null,,thebreak,1018467,break,,null,,,,,,,,,,,,,,,,,,
7836.800000000745,,realistic_rating,1026304,Coralridge,,50,Coralridge,Fictional,2,,,,,,,,,,,,,,,
null,,confidence_buffer,1026406,confidence_buffer,,null,,,,,,,,,,,,,,,,,,
2772,,pt2_unique_rating,1029179,Coralridge,,53,,,5,,,,,,,,,,,,,,,
null,,confidence_buffer,1029281,confidence_buffer,,null,,,,,,,,,,,,,,,,,,
1575.5,,pt2_memorable_rating,1030857,Coralridge,,53,,,5,,,,,,,,,,,,,,,
null,,confidence_buffer,1030958,confidence_buffer,,null,,,,,,,,,,,,,,,,,,
1482.9000000022352,,recognition_phase,1032442,Coralridge,,52,,,,,,new,1,0.918918918918919,,,,,,,,,,
null,,confidence_buffer,1032543,confidence_buffer,,null,,,,,,,,,,,,,,,,,,
null,,thebreak,1033044,break,,null,,,,,,,,,,,,,,,,,,
4192,,realistic_rating,1037237,Hot Springs,,53,Hot Springs,US,5,,,,,,,,,,,,,,,
null,,confidence_buffer,1037340,confidence_buffer,,null,,,,,,,,,,,,,,,,,,
5572.70000000298,,pt2_unique_rating,1042913,Hot Springs,,50,,,2,,,,,,,,,,,,,,,
null,,confidence_buffer,1043014,confidence_buffer,,null,,,,,,,,,,,,,,,,,,
5230.79999999702,,pt2_memorable_rating,1048246,Hot Springs,,49,,,1,,,,,,,,,,,,,,,
null,,confidence_buffer,1048348,confidence_buffer,,null,,,,,,,,,,,,,,,,,,
1432.6000000014901,,recognition_phase,1049781,Hot Springs,,49,,,,,,old,1,0.9210526315789473,,,,,,,,,,
null,,confidence_buffer,1049882,confidence_buffer,,null,,,,,,,,,,,,,,,,,,
null,,thebreak,1050383,break,,null,,,,,,,,,,,,,,,,,,
5203.800000000745,,realistic_rating,1055588,Montelake,,53,Montelake,Fictional,5,,,,,,,,,,,,,,,
null,,confidence_buffer,1055699,confidence_buffer,,null,,,,,,,,,,,,,,,,,,
1680,,pt2_unique_rating,1057379,Montelake,,53,,,5,,,,,,,,,,,,,,,
null,,confidence_buffer,1057482,confidence_buffer,,null,,,,,,,,,,,,,,,,,,
1946.2000000029802,,pt2_memorable_rating,1059429,Montelake,,53,,,5,,,,,,,,,,,,,,,
null,,confidence_buffer,1059531,confidence_buffer,,null,,,,,,,,,,,,,,,,,,
1529.199999999255,,recognition_phase,1061062,Montelake,,52,,,,,,new,1,0.9230769230769231,,,,,,,,,,
null,,confidence_buffer,1061162,confidence_buffer,,null,,,,,,,,,,,,,,,,,,
null,,thebreak,1061664,break,,null,,,,,,,,,,,,,,,,,,
5440.60000000149,,realistic_rating,1067105,Ravenport,,51,Ravenport,Fictional,3,,,,,,,,,,,,,,,
null,,confidence_buffer,1067214,confidence_buffer,,null,,,,,,,,,,,,,,,,,,
2796.7000000029802,,pt2_unique_rating,1070012,Ravenport,,51,,,3,,,,,,,,,,,,,,,
null,,confidence_buffer,1070113,confidence_buffer,,null,,,,,,,,,,,,,,,,,,
4665.39999999851,,pt2_memorable_rating,1074780,Ravenport,,52,,,4,,,,,,,,,,,,,,,
null,,confidence_buffer,1074881,confidence_buffer,,null,,,,,,,,,,,,,,,,,,
3079.800000000745,,probe_rating,1077962,probe_rating,,53,,,,5,1,,,,,,,,,,,,,
null,,confidence_buffer,1078064,confidence_buffer,,null,,,,,,,,,,,,,,,,,,
2722.60000000149,,recognition_phase,1080788,Ravenport,,49,,,,,,old,1,0.925,,,,,,,,,,
null,,confidence_buffer,1080889,confidence_buffer,,null,,,,,,,,,,,,,,,,,,
null,,thebreak,1081390,break,,null,,,,,,,,,,,,,,,,,,
4672.60000000149,,realistic_rating,1086063,Leesburg,,53,Leesburg,US,5,,,,,,,,,,,,,,,
null,,confidence_buffer,1086165,confidence_buffer,,null,,,,,,,,,,,,,,,,,,
4397.800000000745,,pt2_unique_rating,1090563,Leesburg,,53,,,5,,,,,,,,,,,,,,,
null,,confidence_buffer,1090665,confidence_buffer,,null,,,,,,,,,,,,,,,,,,
1715.3999999985099,,pt2_memorable_rating,1092381,Leesburg,,53,,,5,,,,,,,,,,,,,,,
null,,confidence_buffer,1092482,confidence_buffer,,null,,,,,,,,,,,,,,,,,,
1546.5,,recognition_phase,1094030,Leesburg,,49,,,,,,old,1,0.926829268292683,,,,,,,,,,
null,,confidence_buffer,1094131,confidence_buffer,,null,,,,,,,,,,,,,,,,,,
null,,thebreak,1094633,break,,null,,,,,,,,,,,,,,,,,,
5037.400000002235,,realistic_rating,1099672,Westridge,,52,Westridge,Fictional,4,,,,,,,,,,,,,,,
null,,confidence_buffer,1099773,confidence_buffer,,null,,,,,,,,,,,,,,,,,,
3513.300000000745,,pt2_unique_rating,1103287,Westridge,,50,,,2,,,,,,,,,,,,,,,
null,,confidence_buffer,1103389,confidence_buffer,,null,,,,,,,,,,,,,,,,,,
2484,,probe_rating,1105873,probe_rating,,53,,,,5,1,,,,,,,,,,,,,
null,,confidence_buffer,1105976,confidence_buffer,,null,,,,,,,,,,,,,,,,,,
4284.800000000745,,pt2_memorable_rating,1110261,Westridge,,49,,,1,,,,,,,,,,,,,,,
null,,confidence_buffer,1110363,confidence_buffer,,null,,,,,,,,,,,,,,,,,,
4988.300000000745,,recognition_phase,1115352,Westridge,,51,,,,,,new,1,0.9285714285714286,,,,,,,,,,
null,,confidence_buffer,1115453,confidence_buffer,,null,,,,,,,,,,,,,,,,,,
null,,thebreak,1115956,break,,null,,,,,,,,,,,,,,,,,,
5733.300000000745,,realistic_rating,1121690,Summershade,,49,Summershade,Fictional,1,,,,,,,,,,,,,,,
null,,confidence_buffer,1121792,confidence_buffer,,null,,,,,,,,,,,,,,,,,,
2254.800000000745,,pt2_unique_rating,1124047,Summershade,,49,,,1,,,,,,,,,,,,,,,
null,,confidence_buffer,1124148,confidence_buffer,,null,,,,,,,,,,,,,,,,,,
2782.400000002235,,pt2_memorable_rating,1126931,Summershade,,49,,,1,,,,,,,,,,,,,,,
null,,confidence_buffer,1127032,confidence_buffer,,null,,,,,,,,,,,,,,,,,,
1922.199999999255,,recognition_phase,1128955,Summershade,,52,,,,,,new,1,0.9302325581395349,,,,,,,,,,
null,,confidence_buffer,1129069,confidence_buffer,,null,,,,,,,,,,,,,,,,,,
null,,thebreak,1129571,break,,null,,,,,,,,,,,,,,,,,,
7371.39999999851,,realistic_rating,1136943,Golden Trace,,51,Golden Trace,Fictional,3,,,,,,,,,,,,,,,
null,,confidence_buffer,1137044,confidence_buffer,,null,,,,,,,,,,,,,,,,,,
2914.699999999255,,probe_rating,1139959,probe_rating,,52,,,,4,1,,,,,,,,,,,,,
null,,confidence_buffer,1140062,confidence_buffer,,null,,,,,,,,,,,,,,,,,,
4310.79999999702,,pt2_unique_rating,1144374,Golden Trace,,49,,,1,,,,,,,,,,,,,,,
null,,confidence_buffer,1144475,confidence_buffer,,null,,,,,,,,,,,,,,,,,,
2765.400000002235,,pt2_memorable_rating,1147241,Golden Trace,,49,,,1,,,,,,,,,,,,,,,
null,,confidence_buffer,1147343,confidence_buffer,,null,,,,,,,,,,,,,,,,,,
2995.2999999970198,,recognition_phase,1150340,Golden Trace,,50,,,,,,old,1,0.9318181818181818,,,,,,,,,,
null,,confidence_buffer,1150441,confidence_buffer,,null,,,,,,,,,,,,,,,,,,
null,,thebreak,1150943,break,,null,,,,,,,,,,,,,,,,,,
5458.5,,realistic_rating,1156403,Newport,,53,Newport,US,5,,,,,,,,,,,,,,,
null,,confidence_buffer,1156504,confidence_buffer,,null,,,,,,,,,,,,,,,,,,
13866.5,,pt2_unique_rating,1170371,Newport,,50,,,2,,,,,,,,,,,,,,,
null,,confidence_buffer,1170472,confidence_buffer,,null,,,,,,,,,,,,,,,,,,
3304.099999997765,,pt2_memorable_rating,1173777,Newport,,50,,,2,,,,,,,,,,,,,,,
null,,confidence_buffer,1173879,confidence_buffer,,null,,,,,,,,,,,,,,,,,,
1587.6000000014901,,recognition_phase,1175467,Newport,,52,,,,,,new,1,0.9333333333333333,,,,,,,,,,
null,,confidence_buffer,1175568,confidence_buffer,,null,,,,,,,,,,,,,,,,,,
null,,thebreak,1176069,break,,null,,,,,,,,,,,,,,,,,,
3310.7999999970198,,realistic_rating,1179381,Rosehollow,,52,Rosehollow,Fictional,4,,,,,,,,,,,,,,,
null,,confidence_buffer,1179482,confidence_buffer,,null,,,,,,,,,,,,,,,,,,
7916.699999999255,,pt2_unique_rating,1187399,Rosehollow,,52,,,4,,,,,,,,,,,,,,,
null,,confidence_buffer,1187501,confidence_buffer,,null,,,,,,,,,,,,,,,,,,
4320.300000000745,,pt2_memorable_rating,1191822,Rosehollow,,52,,,4,,,,,,,,,,,,,,,
null,,confidence_buffer,1191924,confidence_buffer,,null,,,,,,,,,,,,,,,,,,
1426.800000000745,,recognition_phase,1193351,Rosehollow,,52,,,,,,new,1,0.9347826086956522,,,,,,,,,,
null,,confidence_buffer,1193452,confidence_buffer,,null,,,,,,,,,,,,,,,,,,
null,,thebreak,1193954,break,,null,,,,,,,,,,,,,,,,,,
7775.199999999255,,realistic_rating,1201730,Maplehurst,,52,Maplehurst,Fictional,4,,,,,,,,,,,,,,,
null,,confidence_buffer,1201832,confidence_buffer,,null,,,,,,,,,,,,,,,,,,
2295.5,,pt2_unique_rating,1204128,Maplehurst,,51,,,3,,,,,,,,,,,,,,,
null,,confidence_buffer,1204229,confidence_buffer,,null,,,,,,,,,,,,,,,,,,
1209.5,,pt2_memorable_rating,1205439,Maplehurst,,50,,,2,,,,,,,,,,,,,,,
null,,confidence_buffer,1205541,confidence_buffer,,null,,,,,,,,,,,,,,,,,,
2024.699999999255,,probe_rating,1207567,probe_rating,,52,,,,4,1,,,,,,,,,,,,,
null,,confidence_buffer,1207668,confidence_buffer,,null,,,,,,,,,,,,,,,,,,
3086.7999999970198,,recognition_phase,1210755,Maplehurst,,50,,,,,,old,1,0.9361702127659575,,,,,,,,,,
null,,confidence_buffer,1210864,confidence_buffer,,null,,,,,,,,,,,,,,,,,,
null,,thebreak,1211366,break,,null,,,,,,,,,,,,,,,,,,
3156.60000000149,,realistic_rating,1214524,Livingston,,53,Livingston,US,5,,,,,,,,,,,,,,,
null,,confidence_buffer,1214626,confidence_buffer,,null,,,,,,,,,,,,,,,,,,
7940.800000000745,,pt2_unique_rating,1222567,Livingston,,49,,,1,,,,,,,,,,,,,,,
null,,confidence_buffer,1222669,confidence_buffer,,null,,,,,,,,,,,,,,,,,,
1940.2000000029802,,pt2_memorable_rating,1224610,Livingston,,49,,,1,,,,,,,,,,,,,,,
null,,confidence_buffer,1224711,confidence_buffer,,null,,,,,,,,,,,,,,,,,,
1780.9000000022352,,recognition_phase,1226493,Livingston,,50,,,,,,old,1,0.9375,,,,,,,,,,
null,,confidence_buffer,1226594,confidence_buffer,,null,,,,,,,,,,,,,,,,,,
null,,thebreak,1227095,break,,null,,,,,,,,,,,,,,,,,,
4228.199999999255,,realistic_rating,1231324,Granton Ridge,,52,Granton Ridge,Fictional,4,,,,,,,,,,,,,,,
null,,confidence_buffer,1231426,confidence_buffer,,null,,,,,,,,,,,,,,,,,,
3976.10000000149,,pt2_unique_rating,1235403,Granton Ridge,,49,,,1,,,,,,,,,,,,,,,
null,,confidence_buffer,1235504,confidence_buffer,,null,,,,,,,,,,,,,,,,,,
2484.5,,pt2_memorable_rating,1237989,Granton Ridge,,49,,,1,,,,,,,,,,,,,,,
null,,confidence_buffer,1238091,confidence_buffer,,null,,,,,,,,,,,,,,,,,,
2847.199999999255,,recognition_phase,1240939,Granton Ridge,,51,,,,,,new,1,0.9387755102040817,,,,,,,,,,
null,,confidence_buffer,1241040,confidence_buffer,,null,,,,,,,,,,,,,,,,,,
null,,thebreak,1241542,break,,null,,,,,,,,,,,,,,,,,,
5653.300000000745,,realistic_rating,1247197,Sunmere,,49,Sunmere,Fictional,1,,,,,,,,,,,,,,,
null,,confidence_buffer,1247299,confidence_buffer,,null,,,,,,,,,,,,,,,,,,
3735.699999999255,,pt2_unique_rating,1251035,Sunmere,,53,,,5,,,,,,,,,,,,,,,
null,,confidence_buffer,1251137,confidence_buffer,,null,,,,,,,,,,,,,,,,,,
1382.300000000745,,pt2_memorable_rating,1252520,Sunmere,,53,,,5,,,,,,,,,,,,,,,
null,,confidence_buffer,1252622,confidence_buffer,,null,,,,,,,,,,,,,,,,,,
1723.1000000014901,,recognition_phase,1254346,Sunmere,,49,,,,,,old,1,0.94,,,,,,,,,,
null,,confidence_buffer,1254448,confidence_buffer,,null,,,,,,,,,,,,,,,,,,
null,,thebreak,1254963,break,,null,,,,,,,,,,,,,,,,,,
6408.60000000149,,realistic_rating,1261373,Briarfield,,52,Briarfield,Fictional,4,,,,,,,,,,,,,,,
null,,confidence_buffer,1261474,confidence_buffer,,null,,,,,,,,,,,,,,,,,,
3294.199999999255,,pt2_unique_rating,1264769,Briarfield,,52,,,4,,,,,,,,,,,,,,,
null,,confidence_buffer,1264871,confidence_buffer,,null,,,,,,,,,,,,,,,,,,
2095.099999997765,,probe_rating,1266967,probe_rating,,50,,,,2,1,,,,,,,,,,,,,
null,,confidence_buffer,1267070,confidence_buffer,,null,,,,,,,,,,,,,,,,,,
5293.10000000149,,pt2_memorable_rating,1272364,Briarfield,,51,,,3,,,,,,,,,,,,,,,
null,,confidence_buffer,1272464,confidence_buffer,,null,,,,,,,,,,,,,,,,,,
2298.10000000149,,recognition_phase,1274763,Briarfield,,52,,,,,,new,1,0.9411764705882353,,,,,,,,,,
null,,confidence_buffer,1274865,confidence_buffer,,null,,,,,,,,,,,,,,,,,,
null,,thebreak,1275367,break,,null,,,,,,,,,,,,,,,,,,
4007.39999999851,,realistic_rating,1279375,Driftwood Bay,,51,Driftwood Bay,Fictional,3,,,,,,,,,,,,,,,
null,,confidence_buffer,1279477,confidence_buffer,,null,,,,,,,,,,,,,,,,,,
3714.400000002235,,pt2_unique_rating,1283193,Driftwood Bay,,51,,,3,,,,,,,,,,,,,,,
null,,confidence_buffer,1283294,confidence_buffer,,null,,,,,,,,,,,,,,,,,,
2386.2999999970198,,pt2_memorable_rating,1285681,Driftwood Bay,,51,,,3,,,,,,,,,,,,,,,
null,,confidence_buffer,1285783,confidence_buffer,,null,,,,,,,,,,,,,,,,,,
1958.0999999977648,,recognition_phase,1287741,Driftwood Bay,,49,,,,,,old,1,0.9423076923076923,,,,,,,,,,
null,,confidence_buffer,1287843,confidence_buffer,,null,,,,,,,,,,,,,,,,,,
null,,thebreak,1288345,break,,null,,,,,,,,,,,,,,,,,,
4217.5,,realistic_rating,1292563,Lakehaven,,53,Lakehaven,Fictional,5,,,,,,,,,,,,,,,
null,,confidence_buffer,1292664,confidence_buffer,,null,,,,,,,,,,,,,,,,,,
6335.300000000745,,pt2_unique_rating,1299000,Lakehaven,,50,,,2,,,,,,,,,,,,,,,
null,,confidence_buffer,1299102,confidence_buffer,,null,,,,,,,,,,,,,,,,,,
2299.7999999970198,,probe_rating,1301403,probe_rating,,51,,,,3,1,,,,,,,,,,,,,
null,,confidence_buffer,1301504,confidence_buffer,,null,,,,,,,,,,,,,,,,,,
4750.300000000745,,pt2_memorable_rating,1306256,Lakehaven,,51,,,3,,,,,,,,,,,,,,,
null,,confidence_buffer,1306357,confidence_buffer,,null,,,,,,,,,,,,,,,,,,
1269.4000000022352,,recognition_phase,1307628,Lakehaven,,49,,,,,,old,1,0.9433962264150944,,,,,,,,,,
null,,confidence_buffer,1307730,confidence_buffer,,null,,,,,,,,,,,,,,,,,,
null,,thebreak,1308231,break,,null,,,,,,,,,,,,,,,,,,
9637.39999999851,,realistic_rating,1317869,Pine Hollow,,49,Pine Hollow,Fictional,1,,,,,,,,,,,,,,,
null,,confidence_buffer,1317971,confidence_buffer,,null,,,,,,,,,,,,,,,,,,
10338.60000000149,,pt2_unique_rating,1328310,Pine Hollow,,51,,,3,,,,,,,,,,,,,,,
null,,confidence_buffer,1328412,confidence_buffer,,null,,,,,,,,,,,,,,,,,,
10114.60000000149,,pt2_memorable_rating,1338528,Pine Hollow,,51,,,3,,,,,,,,,,,,,,,
null,,confidence_buffer,1338630,confidence_buffer,,null,,,,,,,,,,,,,,,,,,
3063.5,,recognition_phase,1341695,Pine Hollow,,49,,,,,,old,1,0.9444444444444444,,,,,,,,,,
null,,confidence_buffer,1341797,confidence_buffer,,null,,,,,,,,,,,,,,,,,,
null,,thebreak,1342306,break,,null,,,,,,,,,,,,,,,,,,
3825,,realistic_rating,1346132,Oakridge,,53,Oakridge,Fictional,5,,,,,,,,,,,,,,,
null,,confidence_buffer,1346233,confidence_buffer,,null,,,,,,,,,,,,,,,,,,
4730.199999999255,,pt2_unique_rating,1350964,Oakridge,,51,,,3,,,,,,,,,,,,,,,
null,,confidence_buffer,1351065,confidence_buffer,,null,,,,,,,,,,,,,,,,,,
1625.1000000014901,,pt2_memorable_rating,1352691,Oakridge,,51,,,3,,,,,,,,,,,,,,,
null,,confidence_buffer,1352793,confidence_buffer,,null,,,,,,,,,,,,,,,,,,
1882.7999999970198,,recognition_phase,1354676,Oakridge,,52,,,,,,new,1,0.9454545454545454,,,,,,,,,,
null,,confidence_buffer,1354777,confidence_buffer,,null,,,,,,,,,,,,,,,,,,
null,,thebreak,1355279,break,,null,,,,,,,,,,,,,,,,,,
2314.400000002235,,realistic_rating,1357594,Athens,,53,Athens,US,5,,,,,,,,,,,,,,,
null,,confidence_buffer,1357695,confidence_buffer,,null,,,,,,,,,,,,,,,,,,
1675.699999999255,,pt2_unique_rating,1359372,Athens,,53,,,5,,,,,,,,,,,,,,,
null,,confidence_buffer,1359473,confidence_buffer,,null,,,,,,,,,,,,,,,,,,
1670.199999999255,,pt2_memorable_rating,1361144,Athens,,53,,,5,,,,,,,,,,,,,,,
null,,confidence_buffer,1361245,confidence_buffer,,null,,,,,,,,,,,,,,,,,,
1549.1000000014901,,recognition_phase,1362795,Athens,,52,,,,,,new,1,0.9464285714285714,,,,,,,,,,
null,,confidence_buffer,1362896,confidence_buffer,,null,,,,,,,,,,,,,,,,,,
null,,thebreak,1363398,break,,null,,,,,,,,,,,,,,,,,,
9168.699999999255,,realistic_rating,1372568,Assateague Island,,52,Assateague Island,US,4,,,,,,,,,,,,,,,
null,,confidence_buffer,1372670,confidence_buffer,,null,,,,,,,,,,,,,,,,,,
2892.89999999851,,pt2_unique_rating,1375564,Assateague Island,,53,,,5,,,,,,,,,,,,,,,
null,,confidence_buffer,1375666,confidence_buffer,,null,,,,,,,,,,,,,,,,,,
1441.7000000029802,,pt2_memorable_rating,1377108,Assateague Island,,53,,,5,,,,,,,,,,,,,,,
null,,confidence_buffer,1377210,confidence_buffer,,null,,,,,,,,,,,,,,,,,,
2376.800000000745,,recognition_phase,1379588,Assateague Island,,49,,,,,,old,1,0.9473684210526315,,,,,,,,,,
null,,confidence_buffer,1379689,confidence_buffer,,null,,,,,,,,,,,,,,,,,,
null,,thebreak,1380190,break,,null,,,,,,,,,,,,,,,,,,
8628.300000000745,,realistic_rating,1388820,Duck,,51,Duck,US,3,,,,,,,,,,,,,,,
null,,confidence_buffer,1388921,confidence_buffer,,null,,,,,,,,,,,,,,,,,,
3201.199999999255,,pt2_unique_rating,1392123,Duck,,53,,,5,,,,,,,,,,,,,,,
null,,confidence_buffer,1392225,confidence_buffer,,null,,,,,,,,,,,,,,,,,,
1071.3999999985099,,pt2_memorable_rating,1393297,Duck,,53,,,5,,,,,,,,,,,,,,,
null,,confidence_buffer,1393398,confidence_buffer,,null,,,,,,,,,,,,,,,,,,
6329.800000000745,,recognition_phase,1399729,Duck,,49,,,,,,old,1,0.9482758620689655,,,,,,,,,,
null,,confidence_buffer,1399830,confidence_buffer,,null,,,,,,,,,,,,,,,,,,
null,,thebreak,1400331,break,,null,,,,,,,,,,,,,,,,,,
4447.5,,realistic_rating,1404779,Cody,,51,Cody,US,3,,,,,,,,,,,,,,,
null,,confidence_buffer,1404881,confidence_buffer,,null,,,,,,,,,,,,,,,,,,
1975.3999999985099,,pt2_unique_rating,1406857,Cody,,50,,,2,,,,,,,,,,,,,,,
null,,confidence_buffer,1406959,confidence_buffer,,null,,,,,,,,,,,,,,,,,,
2022,,pt2_memorable_rating,1408982,Cody,,51,,,3,,,,,,,,,,,,,,,
null,,confidence_buffer,1409083,confidence_buffer,,null,,,,,,,,,,,,,,,,,,
1676.4000000022352,,recognition_phase,1410760,Cody,,49,,,,,,old,1,0.9491525423728814,,,,,,,,,,
null,,confidence_buffer,1410861,confidence_buffer,,null,,,,,,,,,,,,,,,,,,
null,,thebreak,1411362,break,,null,,,,,,,,,,,,,,,,,,
4750.300000000745,,realistic_rating,1416113,Gatlinburg,,52,Gatlinburg,US,4,,,,,,,,,,,,,,,
null,,confidence_buffer,1416214,confidence_buffer,,null,,,,,,,,,,,,,,,,,,
2017.8999999985099,,probe_rating,1418233,probe_rating,,53,,,,5,1,,,,,,,,,,,,,
null,,confidence_buffer,1418334,confidence_buffer,,null,,,,,,,,,,,,,,,,,,
3488.60000000149,,pt2_unique_rating,1421824,Gatlinburg,,52,,,4,,,,,,,,,,,,,,,
null,,confidence_buffer,1421925,confidence_buffer,,null,,,,,,,,,,,,,,,,,,
4363.800000000745,,pt2_memorable_rating,1426290,Gatlinburg,,51,,,3,,,,,,,,,,,,,,,
null,,confidence_buffer,1426391,confidence_buffer,,null,,,,,,,,,,,,,,,,,,
1719.1000000014901,,recognition_phase,1428111,Gatlinburg,,51,,,,,,new,1,0.95,,,,,,,,,,
null,,confidence_buffer,1428212,confidence_buffer,,null,,,,,,,,,,,,,,,,,,
null,,thebreak,1428714,break,,null,,,,,,,,,,,,,,,,,,
,,survey,1709474,survey-questions,,,,,,,,,,,none,high,I was focusing on the experiment the whole time.,If the name was really funny it made me remember the name better. I also tried to recall if I knew some of the places or had heard of them.,I tried to recall if I had heard of the city, or read about them.,If the name was funny, or I knew them then I mark them as memorable as I had an easier time remembering them. ,If the name of the city was truly Unique I had an easier time remembering the name of the city. Which made me mark it as Unique.,I really had to dig in deep within my memory for some, but others if it sounded realistic then I felt that it was realistic.,I have not,I rather enjoyed this experiment a lot.
