rt,responses,trial_type,time_elapsed,stimulus,button_pressed,key_press,name_trial,city_type,rating,probe,probe_accuracy,response,correct,accuracy
6827.300000071526,{worker_id:64db80772c860983ea3a7310},id_enter,6859,,,,,,,,,,,
14510.700000047684,,fullscreen,21375,fullscreen,0,,,,,,,,,
2087.600000023842,,intro_0,23469,instruct,,32,,,,,,,,
19475.700000047684,,intro_1,42946,instruct,,32,,,,,,,,
9739.600000023842,,intro_2,52686,instruct,,32,,,,,,,,
null,,instruct_dir_4,54188,instruct,,null,,,,,,,,
null,,thebreak,54690,break,,null,,,,,,,,
8560.100000023842,,familiar_rating,63251,Watkins Glen,,49,Watkins Glen,US,1,,,,,
null,,confidence_buffer,63354,confidence_buffer,,null,,,,,,,,
3216.3000000715256,,unique_rating,66572,Watkins Glen,,53,,,5,,,,,
null,,confidence_buffer,66676,confidence_buffer,,null,,,,,,,,
3044.5,,memorable_rating,69722,Watkins Glen,,53,,,5,,,,,
null,,confidence_buffer,69823,confidence_buffer,,null,,,,,,,,
null,,thebreak,70326,break,,null,,,,,,,,
7608.700000047684,,familiar_rating,77939,Rosehollow,,50,Rosehollow,Fictional,2,,,,,
null,,confidence_buffer,78042,confidence_buffer,,null,,,,,,,,
5995,,unique_rating,84038,Rosehollow,,52,,,4,,,,,
null,,confidence_buffer,84140,confidence_buffer,,null,,,,,,,,
3920.2000000476837,,memorable_rating,88062,Rosehollow,,52,,,4,,,,,
null,,confidence_buffer,88164,confidence_buffer,,null,,,,,,,,
null,,thebreak,88666,break,,null,,,,,,,,
7504.600000023842,,familiar_rating,96172,Millstone,,51,Millstone,Fictional,3,,,,,
null,,confidence_buffer,96275,confidence_buffer,,null,,,,,,,,
2574.600000023842,,unique_rating,98851,Millstone,,52,,,4,,,,,
null,,confidence_buffer,98952,confidence_buffer,,null,,,,,,,,
6940.299999952316,,memorable_rating,105894,Millstone,,53,,,5,,,,,
null,,confidence_buffer,105998,confidence_buffer,,null,,,,,,,,
null,,thebreak,106499,break,,null,,,,,,,,
3833.5,,familiar_rating,110334,Claywater,,49,Claywater,Fictional,1,,,,,
null,,confidence_buffer,110439,confidence_buffer,,null,,,,,,,,
2731.6999999284744,,unique_rating,113172,Claywater,,52,,,4,,,,,
null,,confidence_buffer,113275,confidence_buffer,,null,,,,,,,,
2339.600000023842,,memorable_rating,115615,Claywater,,53,,,5,,,,,
null,,confidence_buffer,115718,confidence_buffer,,null,,,,,,,,
null,,thebreak,116220,break,,null,,,,,,,,
3382.5,,familiar_rating,119603,Alliance,,52,Alliance,US,4,,,,,
null,,confidence_buffer,119707,confidence_buffer,,null,,,,,,,,
2462.7999999523163,,probe_rating,122172,probe_rating,,52,,,,4,1,,,
null,,confidence_buffer,122275,confidence_buffer,,null,,,,,,,,
2478.1999999284744,,unique_rating,124754,Alliance,,50,,,2,,,,,
null,,confidence_buffer,124856,confidence_buffer,,null,,,,,,,,
2098.7000000476837,,memorable_rating,126956,Alliance,,51,,,3,,,,,
null,,confidence_buffer,127058,confidence_buffer,,null,,,,,,,,
null,,thebreak,127559,break,,null,,,,,,,,
2996.5,,familiar_rating,130559,Solara Glen,,50,Solara Glen,Fictional,2,,,,,
null,,confidence_buffer,130662,confidence_buffer,,null,,,,,,,,
2486.899999976158,,unique_rating,133151,Solara Glen,,52,,,4,,,,,
null,,confidence_buffer,133254,confidence_buffer,,null,,,,,,,,
2303.600000023842,,memorable_rating,135559,Solara Glen,,51,,,3,,,,,
null,,confidence_buffer,135661,confidence_buffer,,null,,,,,,,,
null,,thebreak,136162,break,,null,,,,,,,,
2248.7999999523163,,familiar_rating,138413,Barnard,,50,Barnard,US,2,,,,,
null,,confidence_buffer,138516,confidence_buffer,,null,,,,,,,,
2653.100000023842,,unique_rating,141171,Barnard,,51,,,3,,,,,
null,,confidence_buffer,141273,confidence_buffer,,null,,,,,,,,
1515,,memorable_rating,142789,Barnard,,51,,,3,,,,,
null,,confidence_buffer,142891,confidence_buffer,,null,,,,,,,,
null,,thebreak,143393,break,,null,,,,,,,,
6729.700000047684,,familiar_rating,150124,Bar Harbor,,52,Bar Harbor,US,4,,,,,
null,,confidence_buffer,150227,confidence_buffer,,null,,,,,,,,
1509.1000000238419,,unique_rating,151738,Bar Harbor,,53,,,5,,,,,
null,,confidence_buffer,151840,confidence_buffer,,null,,,,,,,,
1883.8000000715256,,memorable_rating,153725,Bar Harbor,,51,,,3,,,,,
null,,confidence_buffer,153827,confidence_buffer,,null,,,,,,,,
null,,thebreak,154329,break,,null,,,,,,,,
1676.3000000715256,,familiar_rating,156007,Manistee,,51,Manistee,US,3,,,,,
null,,confidence_buffer,156109,confidence_buffer,,null,,,,,,,,
1526.2999999523163,,unique_rating,157637,Manistee,,52,,,4,,,,,
null,,confidence_buffer,157739,confidence_buffer,,null,,,,,,,,
1912,,memorable_rating,159653,Manistee,,50,,,2,,,,,
null,,confidence_buffer,159755,confidence_buffer,,null,,,,,,,,
null,,thebreak,160260,break,,null,,,,,,,,
14549.700000047684,,familiar_rating,174811,Hanover,,52,Hanover,US,4,,,,,
null,,confidence_buffer,174914,confidence_buffer,,null,,,,,,,,
1862.8999999761581,,unique_rating,176778,Hanover,,51,,,3,,,,,
null,,confidence_buffer,176879,confidence_buffer,,null,,,,,,,,
1381.2999999523163,,memorable_rating,178262,Hanover,,50,,,2,,,,,
null,,confidence_buffer,178364,confidence_buffer,,null,,,,,,,,
null,,thebreak,178865,break,,null,,,,,,,,
3701.399999976158,,familiar_rating,182568,Yukon,,53,Yukon,US,5,,,,,
null,,confidence_buffer,182670,confidence_buffer,,null,,,,,,,,
1716.5,,unique_rating,184388,Yukon,,52,,,4,,,,,
null,,confidence_buffer,184490,confidence_buffer,,null,,,,,,,,
2775,,probe_rating,187266,probe_rating,,51,,,,3,1,,,
null,,confidence_buffer,187367,confidence_buffer,,null,,,,,,,,
2155.600000023842,,memorable_rating,189524,Yukon,,53,,,5,,,,,
null,,confidence_buffer,189627,confidence_buffer,,null,,,,,,,,
null,,thebreak,190130,break,,null,,,,,,,,
2446,,familiar_rating,192579,Fairhaven,,51,Fairhaven,Fictional,3,,,,,
null,,confidence_buffer,192687,confidence_buffer,,null,,,,,,,,
1755.1000000238419,,unique_rating,194445,Fairhaven,,52,,,4,,,,,
null,,confidence_buffer,194546,confidence_buffer,,null,,,,,,,,
2456.3000000715256,,memorable_rating,197004,Fairhaven,,53,,,5,,,,,
null,,confidence_buffer,197106,confidence_buffer,,null,,,,,,,,
null,,thebreak,197607,break,,null,,,,,,,,
4551.699999928474,,familiar_rating,202160,Sierra Hollow,,50,Sierra Hollow,Fictional,2,,,,,
null,,confidence_buffer,202263,confidence_buffer,,null,,,,,,,,
1475.1000000238419,,unique_rating,203740,Sierra Hollow,,52,,,4,,,,,
null,,confidence_buffer,203842,confidence_buffer,,null,,,,,,,,
1513.5,,memorable_rating,205357,Sierra Hollow,,53,,,5,,,,,
null,,confidence_buffer,205459,confidence_buffer,,null,,,,,,,,
null,,thebreak,205961,break,,null,,,,,,,,
2632.6999999284744,,familiar_rating,208595,Maravilla Springs,,51,Maravilla Springs,Fictional,3,,,,,
null,,confidence_buffer,208697,confidence_buffer,,null,,,,,,,,
1597.7000000476837,,unique_rating,210296,Maravilla Springs,,53,,,5,,,,,
null,,confidence_buffer,210404,confidence_buffer,,null,,,,,,,,
1327.5,,memorable_rating,211733,Maravilla Springs,,52,,,4,,,,,
null,,confidence_buffer,211835,confidence_buffer,,null,,,,,,,,
null,,thebreak,212336,break,,null,,,,,,,,
2623.899999976158,,familiar_rating,214961,Gatlinburg,,53,Gatlinburg,US,5,,,,,
null,,confidence_buffer,215063,confidence_buffer,,null,,,,,,,,
1371.8999999761581,,unique_rating,216436,Gatlinburg,,52,,,4,,,,,
null,,confidence_buffer,216538,confidence_buffer,,null,,,,,,,,
1651.8999999761581,,memorable_rating,218192,Gatlinburg,,51,,,3,,,,,
null,,confidence_buffer,218295,confidence_buffer,,null,,,,,,,,
1783.1999999284744,,probe_rating,220079,probe_rating,,53,,,,5,1,,,
null,,confidence_buffer,220183,confidence_buffer,,null,,,,,,,,
null,,thebreak,220685,break,,null,,,,,,,,
1702,,familiar_rating,222389,Berkeley Springs,,52,Berkeley Springs,US,4,,,,,
null,,confidence_buffer,222492,confidence_buffer,,null,,,,,,,,
1731.0999999046326,,unique_rating,224225,Berkeley Springs,,51,,,3,,,,,
null,,confidence_buffer,224327,confidence_buffer,,null,,,,,,,,
2170.7999999523163,,memorable_rating,226499,Berkeley Springs,,53,,,5,,,,,
null,,confidence_buffer,226602,confidence_buffer,,null,,,,,,,,
null,,thebreak,227105,break,,null,,,,,,,,
20652.5,,familiar_rating,247758,Oakridge,,53,Oakridge,Fictional,5,,,,,
null,,confidence_buffer,247861,confidence_buffer,,null,,,,,,,,
1345.0999999046326,,unique_rating,249207,Oakridge,,52,,,4,,,,,
null,,confidence_buffer,249310,confidence_buffer,,null,,,,,,,,
1355.5,,memorable_rating,250667,Oakridge,,51,,,3,,,,,
null,,confidence_buffer,250770,confidence_buffer,,null,,,,,,,,
null,,thebreak,251273,break,,null,,,,,,,,
1584,,familiar_rating,252858,Briarfield,,51,Briarfield,Fictional,3,,,,,
null,,confidence_buffer,252961,confidence_buffer,,null,,,,,,,,
1522.4000000953674,,unique_rating,254484,Briarfield,,52,,,4,,,,,
null,,confidence_buffer,254586,confidence_buffer,,null,,,,,,,,
1448.3999999761581,,memorable_rating,256036,Briarfield,,53,,,5,,,,,
null,,confidence_buffer,256149,confidence_buffer,,null,,,,,,,,
null,,thebreak,256651,break,,null,,,,,,,,
1484.3999999761581,,familiar_rating,258136,Lake of the Ozarks,,53,Lake of the Ozarks,US,5,,,,,
null,,confidence_buffer,258244,confidence_buffer,,null,,,,,,,,
1220.6000000238419,,unique_rating,259466,Lake of the Ozarks,,52,,,4,,,,,
null,,confidence_buffer,259568,confidence_buffer,,null,,,,,,,,
1156.3999999761581,,memorable_rating,260725,Lake of the Ozarks,,51,,,3,,,,,
null,,confidence_buffer,260827,confidence_buffer,,null,,,,,,,,
null,,thebreak,261328,break,,null,,,,,,,,
3262.600000023842,,familiar_rating,264592,Sisters,,49,Sisters,US,1,,,,,
null,,confidence_buffer,264694,confidence_buffer,,null,,,,,,,,
1659.3999999761581,,unique_rating,266354,Sisters,,53,,,5,,,,,
null,,confidence_buffer,266457,confidence_buffer,,null,,,,,,,,
1329.8000000715256,,memorable_rating,267788,Sisters,,52,,,4,,,,,
null,,confidence_buffer,267890,confidence_buffer,,null,,,,,,,,
null,,thebreak,268391,break,,null,,,,,,,,
2491,,familiar_rating,270884,Custer,,49,Custer,US,1,,,,,
null,,confidence_buffer,270987,confidence_buffer,,null,,,,,,,,
1435.2999999523163,,unique_rating,272423,Custer,,51,,,3,,,,,
null,,confidence_buffer,272526,confidence_buffer,,null,,,,,,,,
2307.100000023842,,memorable_rating,274836,Custer,,52,,,4,,,,,
null,,confidence_buffer,274938,confidence_buffer,,null,,,,,,,,
null,,thebreak,275440,break,,null,,,,,,,,
2145.100000023842,,familiar_rating,277586,Ravenport,,51,Ravenport,Fictional,3,,,,,
null,,confidence_buffer,277689,confidence_buffer,,null,,,,,,,,
1549.5,,unique_rating,279239,Ravenport,,50,,,2,,,,,
null,,confidence_buffer,279341,confidence_buffer,,null,,,,,,,,
1740.2000000476837,,memorable_rating,281082,Ravenport,,49,,,1,,,,,
null,,confidence_buffer,281185,confidence_buffer,,null,,,,,,,,
1793,,probe_rating,282979,probe_rating,,49,,,,1,1,,,
null,,confidence_buffer,283081,confidence_buffer,,null,,,,,,,,
null,,thebreak,283582,break,,null,,,,,,,,
11645.900000095367,,familiar_rating,295229,Stonebrook,,53,Stonebrook,Fictional,5,,,,,
null,,confidence_buffer,295335,confidence_buffer,,null,,,,,,,,
1297.2999999523163,,unique_rating,296634,Stonebrook,,52,,,4,,,,,
null,,confidence_buffer,296738,confidence_buffer,,null,,,,,,,,
898.6000000238419,,memorable_rating,297637,Stonebrook,,51,,,3,,,,,
null,,confidence_buffer,297739,confidence_buffer,,null,,,,,,,,
null,,thebreak,298240,break,,null,,,,,,,,
1990.8999999761581,,familiar_rating,300232,Gloucester,,51,Gloucester,US,3,,,,,
null,,confidence_buffer,300334,confidence_buffer,,null,,,,,,,,
1707.8999999761581,,unique_rating,302043,Gloucester,,52,,,4,,,,,
null,,confidence_buffer,302148,confidence_buffer,,null,,,,,,,,
1513.3999999761581,,memorable_rating,303663,Gloucester,,50,,,2,,,,,
null,,confidence_buffer,303780,confidence_buffer,,null,,,,,,,,
null,,thebreak,304281,break,,null,,,,,,,,
2170.8000000715256,,familiar_rating,306453,Redgrove,,53,Redgrove,Fictional,5,,,,,
null,,confidence_buffer,306556,confidence_buffer,,null,,,,,,,,
1044,,unique_rating,307601,Redgrove,,52,,,4,,,,,
null,,confidence_buffer,307704,confidence_buffer,,null,,,,,,,,
1095.1000000238419,,memorable_rating,308801,Redgrove,,51,,,3,,,,,
null,,confidence_buffer,308903,confidence_buffer,,null,,,,,,,,
null,,thebreak,309406,break,,null,,,,,,,,
1881.1000000238419,,familiar_rating,311288,Bowling Green,,53,Bowling Green,US,5,,,,,
null,,confidence_buffer,311391,confidence_buffer,,null,,,,,,,,
1753.2999999523163,,probe_rating,313145,probe_rating,,50,,,,2,1,,,
null,,confidence_buffer,313247,confidence_buffer,,null,,,,,,,,
1375.5,,unique_rating,314624,Bowling Green,,52,,,4,,,,,
null,,confidence_buffer,314726,confidence_buffer,,null,,,,,,,,
2260.3000000715256,,memorable_rating,316987,Bowling Green,,52,,,4,,,,,
null,,confidence_buffer,317091,confidence_buffer,,null,,,,,,,,
null,,thebreak,317594,break,,null,,,,,,,,
2255.1999999284744,,familiar_rating,319851,Summershade,,51,Summershade,Fictional,3,,,,,
null,,confidence_buffer,319953,confidence_buffer,,null,,,,,,,,
1217.7999999523163,,unique_rating,321172,Summershade,,52,,,4,,,,,
null,,confidence_buffer,321274,confidence_buffer,,null,,,,,,,,
1116.1999999284744,,memorable_rating,322391,Summershade,,53,,,5,,,,,
null,,confidence_buffer,322493,confidence_buffer,,null,,,,,,,,
null,,thebreak,322994,break,,null,,,,,,,,
2084.1999999284744,,familiar_rating,325080,Bayshore Haven,,50,Bayshore Haven,Fictional,2,,,,,
null,,confidence_buffer,325183,confidence_buffer,,null,,,,,,,,
1467.0999999046326,,unique_rating,326651,Bayshore Haven,,52,,,4,,,,,
null,,confidence_buffer,326754,confidence_buffer,,null,,,,,,,,
1479.8999999761581,,memorable_rating,328235,Bayshore Haven,,53,,,5,,,,,
null,,confidence_buffer,328337,confidence_buffer,,null,,,,,,,,
null,,thebreak,328838,break,,null,,,,,,,,
1528.5,,familiar_rating,330368,Natchez,,49,Natchez,US,1,,,,,
null,,confidence_buffer,330469,confidence_buffer,,null,,,,,,,,
1913.3999999761581,,unique_rating,332384,Natchez,,51,,,3,,,,,
null,,confidence_buffer,332486,confidence_buffer,,null,,,,,,,,
1170.7000000476837,,memorable_rating,333658,Natchez,,50,,,2,,,,,
null,,confidence_buffer,333761,confidence_buffer,,null,,,,,,,,
null,,thebreak,334263,break,,null,,,,,,,,
1551.8000000715256,,familiar_rating,335816,Brookmere,,52,Brookmere,Fictional,4,,,,,
null,,confidence_buffer,335917,confidence_buffer,,null,,,,,,,,
1417.6000000238419,,unique_rating,337337,Brookmere,,53,,,5,,,,,
null,,confidence_buffer,337440,confidence_buffer,,null,,,,,,,,
1356.5,,memorable_rating,338797,Brookmere,,51,,,3,,,,,
null,,confidence_buffer,338900,confidence_buffer,,null,,,,,,,,
null,,thebreak,339404,break,,null,,,,,,,,
3179.4000000953674,,intro_0,342584,instruct,,32,,,,,,,,
6555.5,,intro_1,349140,instruct,,32,,,,,,,,
15184.700000047684,,intro_2,364326,instruct,,32,,,,,,,,
null,,instruct_dir_4,365828,instruct,,null,,,,,,,,
5625.200000047684,,realistic_rating,371454,Delaro Park,,53,Delaro Park,Fictional,5,,,,,
null,,confidence_buffer,371557,confidence_buffer,,null,,,,,,,,
1892.8999999761581,,pt2_unique_rating,373452,Delaro Park,,52,,,4,,,,,
null,,confidence_buffer,373554,confidence_buffer,,null,,,,,,,,
1833.6999999284744,,pt2_memorable_rating,375388,Delaro Park,,52,,,4,,,,,
null,,confidence_buffer,375491,confidence_buffer,,null,,,,,,,,
3326.399999976158,,recognition_phase,378819,Delaro Park,,52,,,,,,new,1,1
null,,confidence_buffer,378924,confidence_buffer,,null,,,,,,,,
null,,thebreak,379427,break,,null,,,,,,,,
2607.399999976158,,realistic_rating,382035,Hot Springs,,53,Hot Springs,US,5,,,,,
null,,confidence_buffer,382139,confidence_buffer,,null,,,,,,,,
1304.2999999523163,,pt2_unique_rating,383446,Hot Springs,,52,,,4,,,,,
null,,confidence_buffer,383548,confidence_buffer,,null,,,,,,,,
1349.8999999761581,,pt2_memorable_rating,384899,Hot Springs,,51,,,3,,,,,
null,,confidence_buffer,385001,confidence_buffer,,null,,,,,,,,
2953.100000023842,,recognition_phase,387955,Hot Springs,,50,,,,,,old,0,0.5
null,,confidence_buffer,388057,confidence_buffer,,null,,,,,,,,
null,,thebreak,388559,break,,null,,,,,,,,
5082.600000023842,,realistic_rating,393644,Riverlyn,,53,Riverlyn,Fictional,5,,,,,
null,,confidence_buffer,393746,confidence_buffer,,null,,,,,,,,
1181.2999999523163,,pt2_unique_rating,394928,Riverlyn,,52,,,4,,,,,
null,,confidence_buffer,395030,confidence_buffer,,null,,,,,,,,
1497.8999999761581,,pt2_memorable_rating,396529,Riverlyn,,51,,,3,,,,,
null,,confidence_buffer,396631,confidence_buffer,,null,,,,,,,,
2173.6999999284744,,recognition_phase,398806,Riverlyn,,50,,,,,,old,0,0.3333333333333333
null,,confidence_buffer,398909,confidence_buffer,,null,,,,,,,,
null,,thebreak,399412,break,,null,,,,,,,,
24907.399999976158,,realistic_rating,424321,Silverpine,,53,Silverpine,Fictional,5,,,,,
null,,confidence_buffer,424423,confidence_buffer,,null,,,,,,,,
1303.6000000238419,,pt2_unique_rating,425728,Silverpine,,52,,,4,,,,,
null,,confidence_buffer,425831,confidence_buffer,,null,,,,,,,,
1307.8999999761581,,pt2_memorable_rating,427141,Silverpine,,51,,,3,,,,,
null,,confidence_buffer,427242,confidence_buffer,,null,,,,,,,,
2967.899999976158,,recognition_phase,430211,Silverpine,,52,,,,,,new,1,0.5
null,,confidence_buffer,430314,confidence_buffer,,null,,,,,,,,
null,,thebreak,430815,break,,null,,,,,,,,
1813.1000000238419,,realistic_rating,432630,Cape May,,52,Cape May,US,4,,,,,
null,,confidence_buffer,432732,confidence_buffer,,null,,,,,,,,
1305.7000000476837,,pt2_unique_rating,434039,Cape May,,51,,,3,,,,,
null,,confidence_buffer,434142,confidence_buffer,,null,,,,,,,,
1661.5,,pt2_memorable_rating,435804,Cape May,,53,,,5,,,,,
null,,confidence_buffer,435906,confidence_buffer,,null,,,,,,,,
2745.8000000715256,,recognition_phase,438654,Cape May,,50,,,,,,old,0,0.4
null,,confidence_buffer,438756,confidence_buffer,,null,,,,,,,,
null,,thebreak,439257,break,,null,,,,,,,,
1502.7000000476837,,realistic_rating,440762,Claywater,,52,Claywater,Fictional,4,,,,,
null,,confidence_buffer,440864,confidence_buffer,,null,,,,,,,,
1617.6000000238419,,pt2_unique_rating,442482,Claywater,,51,,,3,,,,,
null,,confidence_buffer,442586,confidence_buffer,,null,,,,,,,,
2658.8000000715256,,probe_rating,445246,probe_rating,,50,,,,2,1,,,
null,,confidence_buffer,445347,confidence_buffer,,null,,,,,,,,
2326.3000000715256,,pt2_memorable_rating,447675,Claywater,,53,,,5,,,,,
null,,confidence_buffer,447777,confidence_buffer,,null,,,,,,,,
2640.3000000715256,,recognition_phase,450418,Claywater,,52,,,,,,new,0,0.3333333333333333
null,,confidence_buffer,450523,confidence_buffer,,null,,,,,,,,
null,,thebreak,451025,break,,null,,,,,,,,
8187.300000071526,,realistic_rating,459213,Hilo,,51,Hilo,US,3,,,,,
null,,confidence_buffer,459315,confidence_buffer,,null,,,,,,,,
1130.2999999523163,,pt2_unique_rating,460447,Hilo,,50,,,2,,,,,
null,,confidence_buffer,460550,confidence_buffer,,null,,,,,,,,
1243.6999999284744,,pt2_memorable_rating,461794,Hilo,,51,,,3,,,,,
null,,confidence_buffer,461896,confidence_buffer,,null,,,,,,,,
1231.6999999284744,,probe_rating,463129,probe_rating,,51,,,,3,1,,,
null,,confidence_buffer,463245,confidence_buffer,,null,,,,,,,,
1378.5,,recognition_phase,464624,Hilo,,52,,,,,,new,1,0.42857142857142855
null,,confidence_buffer,464727,confidence_buffer,,null,,,,,,,,
null,,thebreak,465228,break,,null,,,,,,,,
1437.8999999761581,,realistic_rating,466667,Watkins Glen,,53,Watkins Glen,US,5,,,,,
null,,confidence_buffer,466768,confidence_buffer,,null,,,,,,,,
1140.1000000238419,,pt2_unique_rating,467909,Watkins Glen,,51,,,3,,,,,
null,,confidence_buffer,468012,confidence_buffer,,null,,,,,,,,
1173.8999999761581,,pt2_memorable_rating,469189,Watkins Glen,,50,,,2,,,,,
null,,confidence_buffer,469291,confidence_buffer,,null,,,,,,,,
1201.9000000953674,,recognition_phase,470494,Watkins Glen,,52,,,,,,new,0,0.375
null,,confidence_buffer,470599,confidence_buffer,,null,,,,,,,,
null,,thebreak,471101,break,,null,,,,,,,,
3237.7999999523163,,realistic_rating,474340,Abilene,,53,Abilene,US,5,,,,,
null,,confidence_buffer,474451,confidence_buffer,,null,,,,,,,,
1809.7999999523163,,pt2_unique_rating,476262,Abilene,,52,,,4,,,,,
null,,confidence_buffer,476377,confidence_buffer,,null,,,,,,,,
1102.8000000715256,,pt2_memorable_rating,477481,Abilene,,51,,,3,,,,,
null,,confidence_buffer,477584,confidence_buffer,,null,,,,,,,,
2701.2000000476837,,recognition_phase,480286,Abilene,,49,,,,,,old,0,0.3333333333333333
null,,confidence_buffer,480389,confidence_buffer,,null,,,,,,,,
null,,thebreak,480892,break,,null,,,,,,,,
17396.600000023842,,realistic_rating,498290,Barnard,,53,Barnard,US,5,,,,,
null,,confidence_buffer,498393,confidence_buffer,,null,,,,,,,,
743.2000000476837,,pt2_unique_rating,499137,Barnard,,52,,,4,,,,,
null,,confidence_buffer,499239,confidence_buffer,,null,,,,,,,,
784.7000000476837,,pt2_memorable_rating,500025,Barnard,,51,,,3,,,,,
null,,confidence_buffer,500128,confidence_buffer,,null,,,,,,,,
1220.5,,recognition_phase,501351,Barnard,,50,,,,,,old,1,0.4
null,,confidence_buffer,501453,confidence_buffer,,null,,,,,,,,
null,,thebreak,501954,break,,null,,,,,,,,
944.5,,realistic_rating,502900,Berkeley Springs,,53,Berkeley Springs,US,5,,,,,
null,,confidence_buffer,503002,confidence_buffer,,null,,,,,,,,
974.7000000476837,,probe_rating,503978,probe_rating,,51,,,,3,0,,,
null,,confidence_buffer,504080,confidence_buffer,,null,,,,,,,,
1367.7999999523163,,pt2_unique_rating,505449,Berkeley Springs,,52,,,4,,,,,
null,,confidence_buffer,505550,confidence_buffer,,null,,,,,,,,
1352.3000000715256,,pt2_memorable_rating,506904,Berkeley Springs,,51,,,3,,,,,
null,,confidence_buffer,507006,confidence_buffer,,null,,,,,,,,
1566.3999999761581,,recognition_phase,508573,Berkeley Springs,,52,,,,,,new,0,0.36363636363636365
null,,confidence_buffer,508676,confidence_buffer,,null,,,,,,,,
null,,thebreak,509177,break,,null,,,,,,,,
2586.399999976158,,realistic_rating,511765,Sisters,,52,Sisters,US,4,,,,,
null,,confidence_buffer,511868,confidence_buffer,,null,,,,,,,,
1865.3999999761581,,pt2_unique_rating,513735,Sisters,,51,,,3,,,,,
null,,confidence_buffer,513837,confidence_buffer,,null,,,,,,,,
1804.3999999761581,,pt2_memorable_rating,515643,Sisters,,52,,,4,,,,,
null,,confidence_buffer,515745,confidence_buffer,,null,,,,,,,,
2819.899999976158,,recognition_phase,518566,Sisters,,52,,,,,,new,0,0.3333333333333333
null,,confidence_buffer,518669,confidence_buffer,,null,,,,,,,,
null,,thebreak,519172,break,,null,,,,,,,,
2537.7999999523163,,realistic_rating,521712,Orr,,52,Orr,US,4,,,,,
null,,confidence_buffer,521814,confidence_buffer,,null,,,,,,,,
1958.6000000238419,,pt2_unique_rating,523773,Orr,,51,,,3,,,,,
null,,confidence_buffer,523876,confidence_buffer,,null,,,,,,,,
3112.5,,pt2_memorable_rating,526989,Orr,,50,,,2,,,,,
null,,confidence_buffer,527092,confidence_buffer,,null,,,,,,,,
1753.5,,recognition_phase,528847,Orr,,49,,,,,,old,0,0.3076923076923077
null,,confidence_buffer,528950,confidence_buffer,,null,,,,,,,,
null,,thebreak,529451,break,,null,,,,,,,,
2779.100000023842,,realistic_rating,532232,Maravilla Springs,,53,Maravilla Springs,Fictional,5,,,,,
null,,confidence_buffer,532334,confidence_buffer,,null,,,,,,,,
1140.7000000476837,,pt2_unique_rating,533476,Maravilla Springs,,52,,,4,,,,,
null,,confidence_buffer,533577,confidence_buffer,,null,,,,,,,,
2275.9000000953674,,pt2_memorable_rating,535854,Maravilla Springs,,52,,,4,,,,,
null,,confidence_buffer,535957,confidence_buffer,,null,,,,,,,,
2937.7000000476837,,recognition_phase,538896,Maravilla Springs,,52,,,,,,new,0,0.2857142857142857
null,,confidence_buffer,539011,confidence_buffer,,null,,,,,,,,
null,,thebreak,539514,break,,null,,,,,,,,
3973.899999976158,,realistic_rating,543489,Cornwall,,53,Cornwall,US,5,,,,,
null,,confidence_buffer,543592,confidence_buffer,,null,,,,,,,,
1862,,pt2_unique_rating,545455,Cornwall,,52,,,4,,,,,
null,,confidence_buffer,545559,confidence_buffer,,null,,,,,,,,
1103.6999999284744,,pt2_memorable_rating,546664,Cornwall,,51,,,3,,,,,
null,,confidence_buffer,546767,confidence_buffer,,null,,,,,,,,
1340.3999999761581,,recognition_phase,548109,Cornwall,,51,,,,,,new,1,0.3333333333333333
null,,confidence_buffer,548210,confidence_buffer,,null,,,,,,,,
null,,thebreak,548718,break,,null,,,,,,,,
1877.3999999761581,,realistic_rating,550598,Falconridge,,53,Falconridge,Fictional,5,,,,,
null,,confidence_buffer,550699,confidence_buffer,,null,,,,,,,,
999.5,,pt2_unique_rating,551702,Falconridge,,51,,,3,,,,,
null,,confidence_buffer,551805,confidence_buffer,,null,,,,,,,,
1715.1000000238419,,pt2_memorable_rating,553522,Falconridge,,50,,,2,,,,,
null,,confidence_buffer,553635,confidence_buffer,,null,,,,,,,,
1365.3999999761581,,recognition_phase,555001,Falconridge,,52,,,,,,new,1,0.375
null,,confidence_buffer,555104,confidence_buffer,,null,,,,,,,,
null,,thebreak,555605,break,,null,,,,,,,,
33958.10000002384,,realistic_rating,589565,Baymarsh,,52,Baymarsh,Fictional,4,,,,,
null,,confidence_buffer,589667,confidence_buffer,,null,,,,,,,,
1818,,pt2_unique_rating,591486,Baymarsh,,51,,,3,,,,,
null,,confidence_buffer,591596,confidence_buffer,,null,,,,,,,,
1644.5,,pt2_memorable_rating,593241,Baymarsh,,50,,,2,,,,,
null,,confidence_buffer,593343,confidence_buffer,,null,,,,,,,,
2326,,recognition_phase,595670,Baymarsh,,52,,,,,,new,1,0.4117647058823529
null,,confidence_buffer,595772,confidence_buffer,,null,,,,,,,,
null,,thebreak,596274,break,,null,,,,,,,,
1416.1999999284744,,realistic_rating,597691,Meadowspire,,53,Meadowspire,Fictional,5,,,,,
null,,confidence_buffer,597793,confidence_buffer,,null,,,,,,,,
1152.6000000238419,,pt2_unique_rating,598946,Meadowspire,,52,,,4,,,,,
null,,confidence_buffer,599049,confidence_buffer,,null,,,,,,,,
994,,pt2_memorable_rating,600045,Meadowspire,,50,,,2,,,,,
null,,confidence_buffer,600147,confidence_buffer,,null,,,,,,,,
1204.6000000238419,,recognition_phase,601353,Meadowspire,,52,,,,,,new,1,0.4444444444444444
null,,confidence_buffer,601454,confidence_buffer,,null,,,,,,,,
null,,thebreak,601957,break,,null,,,,,,,,
1397.3999999761581,,realistic_rating,603356,Yukon,,53,Yukon,US,5,,,,,
null,,confidence_buffer,603458,confidence_buffer,,null,,,,,,,,
1145.4000000953674,,pt2_unique_rating,604605,Yukon,,52,,,4,,,,,
null,,confidence_buffer,604706,confidence_buffer,,null,,,,,,,,
1257.1999999284744,,pt2_memorable_rating,605964,Yukon,,50,,,2,,,,,
null,,confidence_buffer,606067,confidence_buffer,,null,,,,,,,,
3528.0999999046326,,recognition_phase,609596,Yukon,,49,,,,,,old,1,0.47368421052631576
null,,confidence_buffer,609700,confidence_buffer,,null,,,,,,,,
null,,thebreak,610203,break,,null,,,,,,,,
13020.200000047684,,realistic_rating,623226,Maplehurst,,53,Maplehurst,Fictional,5,,,,,
null,,confidence_buffer,623328,confidence_buffer,,null,,,,,,,,
1070.5999999046326,,pt2_unique_rating,624399,Maplehurst,,52,,,4,,,,,
null,,confidence_buffer,624502,confidence_buffer,,null,,,,,,,,
1606.7999999523163,,pt2_memorable_rating,626110,Maplehurst,,51,,,3,,,,,
null,,confidence_buffer,626212,confidence_buffer,,null,,,,,,,,
1741.8999999761581,,recognition_phase,627956,Maplehurst,,50,,,,,,old,0,0.45
null,,confidence_buffer,628058,confidence_buffer,,null,,,,,,,,
null,,thebreak,628561,break,,null,,,,,,,,
1384.5,,realistic_rating,629948,Oakridge,,53,Oakridge,Fictional,5,,,,,
null,,confidence_buffer,630050,confidence_buffer,,null,,,,,,,,
1813.5999999046326,,pt2_unique_rating,631865,Oakridge,,51,,,3,,,,,
null,,confidence_buffer,631967,confidence_buffer,,null,,,,,,,,
994.3000000715256,,pt2_memorable_rating,632963,Oakridge,,52,,,4,,,,,
null,,confidence_buffer,633065,confidence_buffer,,null,,,,,,,,
2436,,recognition_phase,635502,Oakridge,,49,,,,,,old,1,0.47619047619047616
null,,confidence_buffer,635607,confidence_buffer,,null,,,,,,,,
null,,thebreak,636122,break,,null,,,,,,,,
1997.6999999284744,,realistic_rating,638121,New Hope,,53,New Hope,US,5,,,,,
null,,confidence_buffer,638223,confidence_buffer,,null,,,,,,,,
1350.1000000238419,,pt2_unique_rating,639574,New Hope,,52,,,4,,,,,
null,,confidence_buffer,639675,confidence_buffer,,null,,,,,,,,
1147.2000000476837,,pt2_memorable_rating,640824,New Hope,,51,,,3,,,,,
null,,confidence_buffer,640928,confidence_buffer,,null,,,,,,,,
1906.3999999761581,,recognition_phase,642836,New Hope,,52,,,,,,new,1,0.5
null,,confidence_buffer,642938,confidence_buffer,,null,,,,,,,,
null,,thebreak,643440,break,,null,,,,,,,,
1712.4000000953674,,realistic_rating,645153,Athens,,53,Athens,US,5,,,,,
null,,confidence_buffer,645255,confidence_buffer,,null,,,,,,,,
2225.2999999523163,,pt2_unique_rating,647481,Athens,,51,,,3,,,,,
null,,confidence_buffer,647583,confidence_buffer,,null,,,,,,,,
1457.0999999046326,,pt2_memorable_rating,649041,Athens,,52,,,4,,,,,
null,,confidence_buffer,649142,confidence_buffer,,null,,,,,,,,
2830.8000000715256,,recognition_phase,651974,Athens,,49,,,,,,old,0,0.4782608695652174
null,,confidence_buffer,652076,confidence_buffer,,null,,,,,,,,
null,,thebreak,652578,break,,null,,,,,,,,
1288.2000000476837,,realistic_rating,653867,Newport,,53,Newport,US,5,,,,,
null,,confidence_buffer,653969,confidence_buffer,,null,,,,,,,,
1652.2999999523163,,pt2_unique_rating,655623,Newport,,51,,,3,,,,,
null,,confidence_buffer,655724,confidence_buffer,,null,,,,,,,,
1478.1000000238419,,pt2_memorable_rating,657204,Newport,,52,,,4,,,,,
null,,confidence_buffer,657306,confidence_buffer,,null,,,,,,,,
2360,,recognition_phase,659667,Newport,,50,,,,,,old,0,0.4583333333333333
null,,confidence_buffer,659769,confidence_buffer,,null,,,,,,,,
null,,thebreak,660270,break,,null,,,,,,,,
1237.6000000238419,,realistic_rating,661509,Brookmere,,53,Brookmere,Fictional,5,,,,,
null,,confidence_buffer,661611,confidence_buffer,,null,,,,,,,,
1460.5,,pt2_unique_rating,663072,Brookmere,,51,,,3,,,,,
null,,confidence_buffer,663175,confidence_buffer,,null,,,,,,,,
1050.5,,pt2_memorable_rating,664227,Brookmere,,52,,,4,,,,,
null,,confidence_buffer,664329,confidence_buffer,,null,,,,,,,,
1998.2999999523163,,recognition_phase,666328,Brookmere,,50,,,,,,old,1,0.48
null,,confidence_buffer,666429,confidence_buffer,,null,,,,,,,,
null,,thebreak,666934,break,,null,,,,,,,,
1625.3999999761581,,realistic_rating,668561,Rosehollow,,53,Rosehollow,Fictional,5,,,,,
null,,confidence_buffer,668663,confidence_buffer,,null,,,,,,,,
1396.5,,pt2_unique_rating,670061,Rosehollow,,51,,,3,,,,,
null,,confidence_buffer,670165,confidence_buffer,,null,,,,,,,,
1129,,pt2_memorable_rating,671296,Rosehollow,,52,,,4,,,,,
null,,confidence_buffer,671399,confidence_buffer,,null,,,,,,,,
1710.1000000238419,,recognition_phase,673111,Rosehollow,,51,,,,,,new,0,0.46153846153846156
null,,confidence_buffer,673213,confidence_buffer,,null,,,,,,,,
null,,thebreak,673715,break,,null,,,,,,,,
1179.7999999523163,,realistic_rating,674896,Bayshore Haven,,53,Bayshore Haven,Fictional,5,,,,,
null,,confidence_buffer,674998,confidence_buffer,,null,,,,,,,,
1273.1000000238419,,pt2_unique_rating,676272,Bayshore Haven,,51,,,3,,,,,
null,,confidence_buffer,676384,confidence_buffer,,null,,,,,,,,
1105.2000000476837,,pt2_memorable_rating,677491,Bayshore Haven,,52,,,4,,,,,
null,,confidence_buffer,677593,confidence_buffer,,null,,,,,,,,
3840,,recognition_phase,681435,Bayshore Haven,,52,,,,,,new,0,0.4444444444444444
null,,confidence_buffer,681538,confidence_buffer,,null,,,,,,,,
null,,thebreak,682040,break,,null,,,,,,,,
2246,,realistic_rating,684287,Briarfield,,53,Briarfield,Fictional,5,,,,,
null,,confidence_buffer,684389,confidence_buffer,,null,,,,,,,,
1402.4000000953674,,pt2_unique_rating,685793,Briarfield,,52,,,4,,,,,
null,,confidence_buffer,685895,confidence_buffer,,null,,,,,,,,
2394.1999999284744,,probe_rating,688291,probe_rating,,53,,,,5,1,,,
null,,confidence_buffer,688395,confidence_buffer,,null,,,,,,,,
1635.1000000238419,,pt2_memorable_rating,690031,Briarfield,,52,,,4,,,,,
null,,confidence_buffer,690133,confidence_buffer,,null,,,,,,,,
1176.4000000953674,,recognition_phase,691311,Briarfield,,51,,,,,,new,0,0.42857142857142855
null,,confidence_buffer,691412,confidence_buffer,,null,,,,,,,,
null,,thebreak,691914,break,,null,,,,,,,,
4710.799999952316,,realistic_rating,696626,Montelake,,51,Montelake,Fictional,3,,,,,
null,,confidence_buffer,696728,confidence_buffer,,null,,,,,,,,
3504.2999999523163,,pt2_unique_rating,700233,Montelake,,52,,,4,,,,,
null,,confidence_buffer,700336,confidence_buffer,,null,,,,,,,,
2995.5999999046326,,pt2_memorable_rating,703332,Montelake,,53,,,5,,,,,
null,,confidence_buffer,703441,confidence_buffer,,null,,,,,,,,
2288,,probe_rating,705731,probe_rating,,50,,,,2,1,,,
null,,confidence_buffer,705833,confidence_buffer,,null,,,,,,,,
5132.600000023842,,recognition_phase,710967,Montelake,,52,,,,,,new,1,0.4482758620689655
null,,confidence_buffer,711069,confidence_buffer,,null,,,,,,,,
null,,thebreak,711571,break,,null,,,,,,,,
3748.8000000715256,,realistic_rating,715321,Gloucester,,50,Gloucester,US,2,,,,,
null,,confidence_buffer,715423,confidence_buffer,,null,,,,,,,,
2852.7999999523163,,pt2_unique_rating,718277,Gloucester,,49,,,1,,,,,
null,,confidence_buffer,718379,confidence_buffer,,null,,,,,,,,
1636.1999999284744,,pt2_memorable_rating,720016,Gloucester,,49,,,1,,,,,
null,,confidence_buffer,720121,confidence_buffer,,null,,,,,,,,
2691.2999999523163,,recognition_phase,722816,Gloucester,,51,,,,,,new,0,0.43333333333333335
null,,confidence_buffer,722923,confidence_buffer,,null,,,,,,,,
null,,thebreak,723424,break,,null,,,,,,,,
1100.2999999523163,,realistic_rating,724526,Westridge,,53,Westridge,Fictional,5,,,,,
null,,confidence_buffer,724631,confidence_buffer,,null,,,,,,,,
1123.3999999761581,,pt2_unique_rating,725755,Westridge,,51,,,3,,,,,
null,,confidence_buffer,725856,confidence_buffer,,null,,,,,,,,
936.1000000238419,,pt2_memorable_rating,726794,Westridge,,52,,,4,,,,,
null,,confidence_buffer,726896,confidence_buffer,,null,,,,,,,,
2348.7999999523163,,recognition_phase,729247,Westridge,,49,,,,,,old,0,0.41935483870967744
null,,confidence_buffer,729350,confidence_buffer,,null,,,,,,,,
null,,thebreak,729851,break,,null,,,,,,,,
1119.8000000715256,,realistic_rating,730972,Driftwood Bay,,53,Driftwood Bay,Fictional,5,,,,,
null,,confidence_buffer,731075,confidence_buffer,,null,,,,,,,,
904.1000000238419,,pt2_unique_rating,731980,Driftwood Bay,,52,,,4,,,,,
null,,confidence_buffer,732082,confidence_buffer,,null,,,,,,,,
870.5,,pt2_memorable_rating,732954,Driftwood Bay,,51,,,3,,,,,
null,,confidence_buffer,733060,confidence_buffer,,null,,,,,,,,
1462.3999999761581,,recognition_phase,734523,Driftwood Bay,,50,,,,,,old,0,0.40625
null,,confidence_buffer,734625,confidence_buffer,,null,,,,,,,,
null,,thebreak,735126,break,,null,,,,,,,,
15408.699999928474,,realistic_rating,750536,Sierra Hollow,,53,Sierra Hollow,Fictional,5,,,,,
null,,confidence_buffer,750639,confidence_buffer,,null,,,,,,,,
1074,,pt2_unique_rating,751714,Sierra Hollow,,52,,,4,,,,,
null,,confidence_buffer,751833,confidence_buffer,,null,,,,,,,,
1349.8999999761581,,pt2_memorable_rating,753184,Sierra Hollow,,52,,,4,,,,,
null,,confidence_buffer,753286,confidence_buffer,,null,,,,,,,,
2882.2000000476837,,recognition_phase,756169,Sierra Hollow,,52,,,,,,new,0,0.3939393939393939
null,,confidence_buffer,756272,confidence_buffer,,null,,,,,,,,
null,,thebreak,756774,break,,null,,,,,,,,
1516.7000000476837,,realistic_rating,758292,Custer,,53,Custer,US,5,,,,,
null,,confidence_buffer,758395,confidence_buffer,,null,,,,,,,,
1630.7000000476837,,pt2_unique_rating,760027,Custer,,52,,,4,,,,,
null,,confidence_buffer,760130,confidence_buffer,,null,,,,,,,,
1677.5999999046326,,pt2_memorable_rating,761809,Custer,,52,,,4,,,,,
null,,confidence_buffer,761913,confidence_buffer,,null,,,,,,,,
3590.7999999523163,,recognition_phase,765505,Custer,,52,,,,,,new,0,0.38235294117647056
null,,confidence_buffer,765606,confidence_buffer,,null,,,,,,,,
null,,thebreak,766107,break,,null,,,,,,,,
2195.100000023842,,realistic_rating,768303,Solara Glen,,53,Solara Glen,Fictional,5,,,,,
null,,confidence_buffer,768405,confidence_buffer,,null,,,,,,,,
1949.4000000953674,,pt2_unique_rating,770356,Solara Glen,,51,,,3,,,,,
null,,confidence_buffer,770458,confidence_buffer,,null,,,,,,,,
1376.8000000715256,,pt2_memorable_rating,771836,Solara Glen,,52,,,4,,,,,
null,,confidence_buffer,771938,confidence_buffer,,null,,,,,,,,
2769.7999999523163,,recognition_phase,774709,Solara Glen,,52,,,,,,new,0,0.37142857142857144
null,,confidence_buffer,774812,confidence_buffer,,null,,,,,,,,
null,,thebreak,775314,break,,null,,,,,,,,
3092.7000000476837,,realistic_rating,778407,Livingston,,51,Livingston,US,3,,,,,
null,,confidence_buffer,778510,confidence_buffer,,null,,,,,,,,
1591.5,,pt2_unique_rating,780103,Livingston,,50,,,2,,,,,
null,,confidence_buffer,780205,confidence_buffer,,null,,,,,,,,
1415.2000000476837,,pt2_memorable_rating,781622,Livingston,,52,,,4,,,,,
null,,confidence_buffer,781724,confidence_buffer,,null,,,,,,,,
2891.9000000953674,,recognition_phase,784617,Livingston,,52,,,,,,new,1,0.3888888888888889
null,,confidence_buffer,784719,confidence_buffer,,null,,,,,,,,
null,,thebreak,785220,break,,null,,,,,,,,
4366.299999952316,,realistic_rating,789588,Alliance,,50,Alliance,US,2,,,,,
null,,confidence_buffer,789692,confidence_buffer,,null,,,,,,,,
2064.5,,pt2_unique_rating,791761,Alliance,,52,,,4,,,,,
null,,confidence_buffer,791864,confidence_buffer,,null,,,,,,,,
1198.2999999523163,,pt2_memorable_rating,793063,Alliance,,51,,,3,,,,,
null,,confidence_buffer,793165,confidence_buffer,,null,,,,,,,,
2185.899999976158,,recognition_phase,795352,Alliance,,51,,,,,,new,0,0.3783783783783784
null,,confidence_buffer,795459,confidence_buffer,,null,,,,,,,,
null,,thebreak,795976,break,,null,,,,,,,,
3041.2000000476837,,realistic_rating,799018,Hanover,,53,Hanover,US,5,,,,,
null,,confidence_buffer,799120,confidence_buffer,,null,,,,,,,,
2083.399999976158,,pt2_unique_rating,801205,Hanover,,52,,,4,,,,,
null,,confidence_buffer,801306,confidence_buffer,,null,,,,,,,,
1276.5,,pt2_memorable_rating,802585,Hanover,,52,,,4,,,,,
null,,confidence_buffer,802695,confidence_buffer,,null,,,,,,,,
1593,,recognition_phase,804290,Hanover,,51,,,,,,new,0,0.3684210526315789
null,,confidence_buffer,804392,confidence_buffer,,null,,,,,,,,
null,,thebreak,804894,break,,null,,,,,,,,
29509.099999904633,,realistic_rating,834404,Redgrove,,53,Redgrove,Fictional,5,,,,,
null,,confidence_buffer,834506,confidence_buffer,,null,,,,,,,,
1271.2999999523163,,pt2_unique_rating,835778,Redgrove,,52,,,4,,,,,
null,,confidence_buffer,835880,confidence_buffer,,null,,,,,,,,
1266.5,,pt2_memorable_rating,837147,Redgrove,,52,,,4,,,,,
null,,confidence_buffer,837251,confidence_buffer,,null,,,,,,,,
3064.8000000715256,,recognition_phase,840318,Redgrove,,52,,,,,,new,0,0.358974358974359
null,,confidence_buffer,840419,confidence_buffer,,null,,,,,,,,
null,,thebreak,840921,break,,null,,,,,,,,
2817.2000000476837,,realistic_rating,843739,Elmsbury,,53,Elmsbury,Fictional,5,,,,,
null,,confidence_buffer,843841,confidence_buffer,,null,,,,,,,,
1366.8999999761581,,pt2_unique_rating,845209,Elmsbury,,51,,,3,,,,,
null,,confidence_buffer,845322,confidence_buffer,,null,,,,,,,,
1552.5999999046326,,pt2_memorable_rating,846876,Elmsbury,,52,,,4,,,,,
null,,confidence_buffer,846978,confidence_buffer,,null,,,,,,,,
1957.1999999284744,,recognition_phase,848937,Elmsbury,,52,,,,,,new,1,0.375
null,,confidence_buffer,849039,confidence_buffer,,null,,,,,,,,
null,,thebreak,849542,break,,null,,,,,,,,
1992.7000000476837,,realistic_rating,851536,Lake of the Ozarks,,53,Lake of the Ozarks,US,5,,,,,
null,,confidence_buffer,851638,confidence_buffer,,null,,,,,,,,
2103,,pt2_unique_rating,853742,Lake of the Ozarks,,52,,,4,,,,,
null,,confidence_buffer,853844,confidence_buffer,,null,,,,,,,,
1036.1000000238419,,pt2_memorable_rating,854881,Lake of the Ozarks,,51,,,3,,,,,
null,,confidence_buffer,854983,confidence_buffer,,null,,,,,,,,
2415.399999976158,,recognition_phase,857400,Lake of the Ozarks,,52,,,,,,new,0,0.36585365853658536
null,,confidence_buffer,857503,confidence_buffer,,null,,,,,,,,
null,,thebreak,858004,break,,null,,,,,,,,
2083.100000023842,,realistic_rating,860088,Coralridge,,52,Coralridge,Fictional,4,,,,,
null,,confidence_buffer,860193,confidence_buffer,,null,,,,,,,,
1373.6000000238419,,pt2_unique_rating,861568,Coralridge,,51,,,3,,,,,
null,,confidence_buffer,861673,confidence_buffer,,null,,,,,,,,
1367.8999999761581,,pt2_memorable_rating,863042,Coralridge,,50,,,2,,,,,
null,,confidence_buffer,863145,confidence_buffer,,null,,,,,,,,
1863.1999999284744,,recognition_phase,865009,Coralridge,,50,,,,,,old,0,0.35714285714285715
null,,confidence_buffer,865119,confidence_buffer,,null,,,,,,,,
null,,thebreak,865635,break,,null,,,,,,,,
2117.5,,realistic_rating,867754,Natchez,,52,Natchez,US,4,,,,,
null,,confidence_buffer,867858,confidence_buffer,,null,,,,,,,,
2216.7000000476837,,pt2_unique_rating,870076,Natchez,,51,,,3,,,,,
null,,confidence_buffer,870180,confidence_buffer,,null,,,,,,,,
1449.3999999761581,,pt2_memorable_rating,871631,Natchez,,50,,,2,,,,,
null,,confidence_buffer,871742,confidence_buffer,,null,,,,,,,,
2030.0999999046326,,recognition_phase,873773,Natchez,,51,,,,,,new,0,0.3488372093023256
null,,confidence_buffer,873875,confidence_buffer,,null,,,,,,,,
null,,thebreak,874377,break,,null,,,,,,,,
33873.89999997616,,realistic_rating,908252,Stonebrook,,53,Stonebrook,Fictional,5,,,,,
null,,confidence_buffer,908355,confidence_buffer,,null,,,,,,,,
1480.8999999761581,,pt2_unique_rating,909837,Stonebrook,,52,,,4,,,,,
null,,confidence_buffer,909939,confidence_buffer,,null,,,,,,,,
1063.7999999523163,,pt2_memorable_rating,911005,Stonebrook,,51,,,3,,,,,
null,,confidence_buffer,911108,confidence_buffer,,null,,,,,,,,
3889.3000000715256,,recognition_phase,914998,Stonebrook,,52,,,,,,new,0,0.3409090909090909
null,,confidence_buffer,915101,confidence_buffer,,null,,,,,,,,
null,,thebreak,915602,break,,null,,,,,,,,
3448.2999999523163,,realistic_rating,919052,Ravenport,,52,Ravenport,Fictional,4,,,,,
null,,confidence_buffer,919154,confidence_buffer,,null,,,,,,,,
1215.5,,probe_rating,920372,probe_rating,,51,,,,3,1,,,
null,,confidence_buffer,920474,confidence_buffer,,null,,,,,,,,
1068.8999999761581,,pt2_unique_rating,921544,Ravenport,,51,,,3,,,,,
null,,confidence_buffer,921646,confidence_buffer,,null,,,,,,,,
1443.6000000238419,,pt2_memorable_rating,923090,Ravenport,,50,,,2,,,,,
null,,confidence_buffer,923192,confidence_buffer,,null,,,,,,,,
1060.5,,recognition_phase,924254,Ravenport,,52,,,,,,new,0,0.3333333333333333
null,,confidence_buffer,924360,confidence_buffer,,null,,,,,,,,
null,,thebreak,924862,break,,null,,,,,,,,
3485,,realistic_rating,928348,Summershade,,52,Summershade,Fictional,4,,,,,
null,,confidence_buffer,928450,confidence_buffer,,null,,,,,,,,
1559.9000000953674,,pt2_unique_rating,930011,Summershade,,52,,,4,,,,,
null,,confidence_buffer,930114,confidence_buffer,,null,,,,,,,,
880.8000000715256,,pt2_memorable_rating,930996,Summershade,,51,,,3,,,,,
null,,confidence_buffer,931100,confidence_buffer,,null,,,,,,,,
1310.6000000238419,,recognition_phase,932411,Summershade,,52,,,,,,new,0,0.32608695652173914
null,,confidence_buffer,932514,confidence_buffer,,null,,,,,,,,
null,,thebreak,933016,break,,null,,,,,,,,
1570.5,,realistic_rating,934588,Sitka,,51,Sitka,US,3,,,,,
null,,confidence_buffer,934690,confidence_buffer,,null,,,,,,,,
1622.5,,pt2_unique_rating,936313,Sitka,,50,,,2,,,,,
null,,confidence_buffer,936424,confidence_buffer,,null,,,,,,,,
984.0999999046326,,pt2_memorable_rating,937410,Sitka,,51,,,3,,,,,
null,,confidence_buffer,937512,confidence_buffer,,null,,,,,,,,
2096.5,,recognition_phase,939610,Sitka,,50,,,,,,old,0,0.3191489361702128
null,,confidence_buffer,939713,confidence_buffer,,null,,,,,,,,
null,,thebreak,940216,break,,null,,,,,,,,
11439.600000023842,,realistic_rating,951657,Boulder,,53,Boulder,US,5,,,,,
null,,confidence_buffer,951759,confidence_buffer,,null,,,,,,,,
1233.4000000953674,,pt2_unique_rating,952994,Boulder,,51,,,3,,,,,
null,,confidence_buffer,953096,confidence_buffer,,null,,,,,,,,
804.7000000476837,,pt2_memorable_rating,953902,Boulder,,52,,,4,,,,,
null,,confidence_buffer,954006,confidence_buffer,,null,,,,,,,,
1088.6999999284744,,recognition_phase,955096,Boulder,,50,,,,,,old,0,0.3125
null,,confidence_buffer,955198,confidence_buffer,,null,,,,,,,,
null,,thebreak,955703,break,,null,,,,,,,,
3990.7000000476837,,realistic_rating,959695,Orchard Bend,,52,Orchard Bend,Fictional,4,,,,,
null,,confidence_buffer,959797,confidence_buffer,,null,,,,,,,,
1257.1999999284744,,pt2_unique_rating,961056,Orchard Bend,,52,,,4,,,,,
null,,confidence_buffer,961158,confidence_buffer,,null,,,,,,,,
784.1000000238419,,pt2_memorable_rating,961943,Orchard Bend,,51,,,3,,,,,
null,,confidence_buffer,962046,confidence_buffer,,null,,,,,,,,
1932.4000000953674,,recognition_phase,963979,Orchard Bend,,50,,,,,,old,0,0.30612244897959184
null,,confidence_buffer,964082,confidence_buffer,,null,,,,,,,,
null,,thebreak,964583,break,,null,,,,,,,,
1311.5999999046326,,realistic_rating,965896,Gatlinburg,,53,Gatlinburg,US,5,,,,,
null,,confidence_buffer,965998,confidence_buffer,,null,,,,,,,,
1124.1000000238419,,pt2_unique_rating,967125,Gatlinburg,,52,,,4,,,,,
null,,confidence_buffer,967227,confidence_buffer,,null,,,,,,,,
950.6000000238419,,pt2_memorable_rating,968178,Gatlinburg,,51,,,3,,,,,
null,,confidence_buffer,968282,confidence_buffer,,null,,,,,,,,
2718.7999999523163,,recognition_phase,971002,Gatlinburg,,49,,,,,,old,1,0.32
null,,confidence_buffer,971105,confidence_buffer,,null,,,,,,,,
null,,thebreak,971607,break,,null,,,,,,,,
1265,,realistic_rating,972874,Bar Harbor,,53,Bar Harbor,US,5,,,,,
null,,confidence_buffer,972976,confidence_buffer,,null,,,,,,,,
1306,,pt2_unique_rating,974283,Bar Harbor,,51,,,3,,,,,
null,,confidence_buffer,974385,confidence_buffer,,null,,,,,,,,
835.1999999284744,,pt2_memorable_rating,975221,Bar Harbor,,52,,,4,,,,,
null,,confidence_buffer,975326,confidence_buffer,,null,,,,,,,,
1649.3999999761581,,recognition_phase,976977,Bar Harbor,,49,,,,,,old,1,0.3333333333333333
null,,confidence_buffer,977093,confidence_buffer,,null,,,,,,,,
null,,thebreak,977595,break,,null,,,,,,,,
1348.5,,realistic_rating,978944,Racine,,53,Racine,US,5,,,,,
null,,confidence_buffer,979046,confidence_buffer,,null,,,,,,,,
1311.7000000476837,,pt2_unique_rating,980358,Racine,,52,,,4,,,,,
null,,confidence_buffer,980460,confidence_buffer,,null,,,,,,,,
865.3000000715256,,pt2_memorable_rating,981327,Racine,,51,,,3,,,,,
null,,confidence_buffer,981429,confidence_buffer,,null,,,,,,,,
1822.6999999284744,,recognition_phase,983254,Racine,,50,,,,,,old,0,0.3269230769230769
null,,confidence_buffer,983356,confidence_buffer,,null,,,,,,,,
null,,thebreak,983858,break,,null,,,,,,,,
64923.5,,realistic_rating,1048783,Manistee,,50,Manistee,US,2,,,,,
null,,confidence_buffer,1048888,confidence_buffer,,null,,,,,,,,
1785.3000000715256,,pt2_unique_rating,1050675,Manistee,,51,,,3,,,,,
null,,confidence_buffer,1050777,confidence_buffer,,null,,,,,,,,
1269.8999999761581,,pt2_memorable_rating,1052048,Manistee,,49,,,1,,,,,
null,,confidence_buffer,1052152,confidence_buffer,,null,,,,,,,,
2383.5,,recognition_phase,1054537,Manistee,,52,,,,,,new,0,0.32075471698113206
null,,confidence_buffer,1054638,confidence_buffer,,null,,,,,,,,
null,,thebreak,1055141,break,,null,,,,,,,,
2911.100000023842,,realistic_rating,1058053,Huntsville,,53,Huntsville,US,5,,,,,
null,,confidence_buffer,1058155,confidence_buffer,,null,,,,,,,,
1037.5,,pt2_unique_rating,1059194,Huntsville,,52,,,4,,,,,
null,,confidence_buffer,1059296,confidence_buffer,,null,,,,,,,,
823.6000000238419,,pt2_memorable_rating,1060121,Huntsville,,51,,,3,,,,,
null,,confidence_buffer,1060223,confidence_buffer,,null,,,,,,,,
1947.8999999761581,,recognition_phase,1062173,Huntsville,,49,,,,,,old,0,0.3148148148148148
null,,confidence_buffer,1062274,confidence_buffer,,null,,,,,,,,
null,,thebreak,1062776,break,,null,,,,,,,,
1151,,realistic_rating,1063928,Fairhaven,,53,Fairhaven,Fictional,5,,,,,
null,,confidence_buffer,1064030,confidence_buffer,,null,,,,,,,,
1241.6000000238419,,pt2_unique_rating,1065273,Fairhaven,,51,,,3,,,,,
null,,confidence_buffer,1065375,confidence_buffer,,null,,,,,,,,
1030.3999999761581,,pt2_memorable_rating,1066406,Fairhaven,,52,,,4,,,,,
null,,confidence_buffer,1066509,confidence_buffer,,null,,,,,,,,
1652.1000000238419,,recognition_phase,1068162,Fairhaven,,50,,,,,,old,1,0.32727272727272727
null,,confidence_buffer,1068265,confidence_buffer,,null,,,,,,,,
null,,thebreak,1068768,break,,null,,,,,,,,
1545.8000000715256,,realistic_rating,1070315,Cedarwyn,,53,Cedarwyn,Fictional,5,,,,,
null,,confidence_buffer,1070417,confidence_buffer,,null,,,,,,,,
1356.2999999523163,,pt2_unique_rating,1071774,Cedarwyn,,51,,,3,,,,,
null,,confidence_buffer,1071877,confidence_buffer,,null,,,,,,,,
1049.8999999761581,,pt2_memorable_rating,1072928,Cedarwyn,,50,,,2,,,,,
null,,confidence_buffer,1073030,confidence_buffer,,null,,,,,,,,
1607.6000000238419,,recognition_phase,1074639,Cedarwyn,,52,,,,,,new,1,0.3392857142857143
null,,confidence_buffer,1074741,confidence_buffer,,null,,,,,,,,
null,,thebreak,1075243,break,,null,,,,,,,,
962.9000000953674,,realistic_rating,1076207,Millstone,,53,Millstone,Fictional,5,,,,,
null,,confidence_buffer,1076311,confidence_buffer,,null,,,,,,,,
1595.8000000715256,,pt2_unique_rating,1077909,Millstone,,51,,,3,,,,,
null,,confidence_buffer,1078012,confidence_buffer,,null,,,,,,,,
839.7000000476837,,pt2_memorable_rating,1078853,Millstone,,52,,,4,,,,,
null,,confidence_buffer,1078954,confidence_buffer,,null,,,,,,,,
1618.7999999523163,,recognition_phase,1080575,Millstone,,50,,,,,,old,1,0.3508771929824561
null,,confidence_buffer,1080677,confidence_buffer,,null,,,,,,,,
null,,thebreak,1081178,break,,null,,,,,,,,
944.8000000715256,,realistic_rating,1082125,Folly Beach,,53,Folly Beach,US,5,,,,,
null,,confidence_buffer,1082226,confidence_buffer,,null,,,,,,,,
970.1999999284744,,pt2_unique_rating,1083197,Folly Beach,,52,,,4,,,,,
null,,confidence_buffer,1083299,confidence_buffer,,null,,,,,,,,
900.7999999523163,,pt2_memorable_rating,1084201,Folly Beach,,51,,,3,,,,,
null,,confidence_buffer,1084302,confidence_buffer,,null,,,,,,,,
2014.1999999284744,,recognition_phase,1086318,Folly Beach,,52,,,,,,new,1,0.3620689655172414
null,,confidence_buffer,1086421,confidence_buffer,,null,,,,,,,,
null,,thebreak,1086923,break,,null,,,,,,,,
1038.6000000238419,,realistic_rating,1087964,Bowling Green,,53,Bowling Green,US,5,,,,,
null,,confidence_buffer,1088066,confidence_buffer,,null,,,,,,,,
964.9000000953674,,pt2_unique_rating,1089032,Bowling Green,,52,,,4,,,,,
null,,confidence_buffer,1089133,confidence_buffer,,null,,,,,,,,
855.8999999761581,,pt2_memorable_rating,1089990,Bowling Green,,51,,,3,,,,,
null,,confidence_buffer,1090094,confidence_buffer,,null,,,,,,,,
1767.3000000715256,,recognition_phase,1091862,Bowling Green,,52,,,,,,new,0,0.3559322033898305
null,,confidence_buffer,1091964,confidence_buffer,,null,,,,,,,,
null,,thebreak,1092466,break,,null,,,,,,,,
1216,,realistic_rating,1093683,Northbridge,,53,Northbridge,Fictional,5,,,,,
null,,confidence_buffer,1093785,confidence_buffer,,null,,,,,,,,
1219.7000000476837,,pt2_unique_rating,1095006,Northbridge,,51,,,3,,,,,
null,,confidence_buffer,1095108,confidence_buffer,,null,,,,,,,,
1146.1000000238419,,pt2_memorable_rating,1096255,Northbridge,,52,,,4,,,,,
null,,confidence_buffer,1096358,confidence_buffer,,null,,,,,,,,
2906.2999999523163,,recognition_phase,1099265,Northbridge,,52,,,,,,new,1,0.36666666666666664
null,,confidence_buffer,1099368,confidence_buffer,,null,,,,,,,,
null,,thebreak,1099870,break,,null,,,,,,,,
