rt,responses,trial_type,time_elapsed,stimulus,button_pressed,key_press,name_trial,city_type,rating,probe,probe_accuracy,response,correct,accuracy,problems,smooth,distraction,strategies,familiar,memorable,unique,realistic,similar,comments
42357.299999999814,{worker_id:67db19aac7b0e2ad74adedd1},id_enter,42360,,,,,,,,,,,,,,,,,,,,,
25170.099999999627,,fullscreen,67535,fullscreen,0,,,,,,,,,,,,,,,,,,,
10039.200000000186,,intro_0,77578,instruct,,32,,,,,,,,,,,,,,,,,,
11992,,intro_1,89576,instruct,,32,,,,,,,,,,,,,,,,,,
14318,,intro_2,103897,instruct,,32,,,,,,,,,,,,,,,,,,
null,,instruct_dir_4,105400,instruct,,null,,,,,,,,,,,,,,,,,,
null,,thebreak,105903,break,,null,,,,,,,,,,,,,,,,,,
11365.700000000186,,familiar_rating,117273,Fictional_Cities_List/img_natural_06.png,,50,Fictional_Cities_List/img_natural_06.png,NAT,2,,,,,,,,,,,,,,,
null,,confidence_buffer,117377,confidence_buffer,,null,,,,,,,,,,,,,,,,,,
5715.0999999996275,,unique_rating,123097,Fictional_Cities_List/img_natural_06.png,,51,,,3,,,,,,,,,,,,,,,
null,,confidence_buffer,123200,confidence_buffer,,null,,,,,,,,,,,,,,,,,,
6029.200000000186,,memorable_rating,129233,Fictional_Cities_List/img_natural_06.png,,52,,,4,,,,,,,,,,,,,,,
null,,confidence_buffer,129337,confidence_buffer,,null,,,,,,,,,,,,,,,,,,
5932.700000000186,,probe_rating,135273,probe_rating,,53,,,,5,1,,,,,,,,,,,,,
null,,confidence_buffer,135376,confidence_buffer,,null,,,,,,,,,,,,,,,,,,
null,,thebreak,135880,break,,null,,,,,,,,,,,,,,,,,,
5373.600000000559,,familiar_rating,141256,Fictional_Cities_List/img_natural_07.png,,51,Fictional_Cities_List/img_natural_07.png,NAT,3,,,,,,,,,,,,,,,
null,,confidence_buffer,141361,confidence_buffer,,null,,,,,,,,,,,,,,,,,,
5012.399999999441,,probe_rating,146376,probe_rating,,50,,,,2,1,,,,,,,,,,,,,
null,,confidence_buffer,146480,confidence_buffer,,null,,,,,,,,,,,,,,,,,,
4476.800000000745,,unique_rating,150960,Fictional_Cities_List/img_natural_07.png,,52,,,4,,,,,,,,,,,,,,,
null,,confidence_buffer,151064,confidence_buffer,,null,,,,,,,,,,,,,,,,,,
3061.2999999998137,,memorable_rating,154128,Fictional_Cities_List/img_natural_07.png,,53,,,5,,,,,,,,,,,,,,,
null,,confidence_buffer,154232,confidence_buffer,,null,,,,,,,,,,,,,,,,,,
null,,thebreak,154741,break,,null,,,,,,,,,,,,,,,,,,
5736.200000000186,,familiar_rating,160480,Fictional_Cities_List/img_natural_09.png,,52,Fictional_Cities_List/img_natural_09.png,NAT,4,,,,,,,,,,,,,,,
null,,confidence_buffer,160584,confidence_buffer,,null,,,,,,,,,,,,,,,,,,
6013.5,,unique_rating,166600,Fictional_Cities_List/img_natural_09.png,,51,,,3,,,,,,,,,,,,,,,
null,,confidence_buffer,166704,confidence_buffer,,null,,,,,,,,,,,,,,,,,,
3693.2999999998137,,memorable_rating,170400,Fictional_Cities_List/img_natural_09.png,,52,,,4,,,,,,,,,,,,,,,
null,,confidence_buffer,170504,confidence_buffer,,null,,,,,,,,,,,,,,,,,,
2469.2000000001863,,probe_rating,172976,probe_rating,,52,,,,4,1,,,,,,,,,,,,,
null,,confidence_buffer,173080,confidence_buffer,,null,,,,,,,,,,,,,,,,,,
null,,thebreak,173582,break,,null,,,,,,,,,,,,,,,,,,
3488.0999999996275,,familiar_rating,177073,Fictional_Cities_List/img_manmade_01.png,,50,Fictional_Cities_List/img_manmade_01.png,MM,2,,,,,,,,,,,,,,,
null,,confidence_buffer,177177,confidence_buffer,,null,,,,,,,,,,,,,,,,,,
3283.100000000559,,unique_rating,180464,Fictional_Cities_List/img_manmade_01.png,,52,,,4,,,,,,,,,,,,,,,
null,,confidence_buffer,180568,confidence_buffer,,null,,,,,,,,,,,,,,,,,,
2253.100000000559,,memorable_rating,182824,Fictional_Cities_List/img_manmade_01.png,,51,,,3,,,,,,,,,,,,,,,
null,,confidence_buffer,182934,confidence_buffer,,null,,,,,,,,,,,,,,,,,,
null,,thebreak,183436,break,,null,,,,,,,,,,,,,,,,,,
4633.800000000745,,familiar_rating,188073,US_Cities_List/nat_sitka.png,,51,US_Cities_List/nat_sitka.png,NAT,3,,,,,,,,,,,,,,,
null,,confidence_buffer,188181,confidence_buffer,,null,,,,,,,,,,,,,,,,,,
2983.7000000001863,,unique_rating,191168,US_Cities_List/nat_sitka.png,,52,,,4,,,,,,,,,,,,,,,
null,,confidence_buffer,191271,confidence_buffer,,null,,,,,,,,,,,,,,,,,,
3038.7999999998137,,memorable_rating,194313,US_Cities_List/nat_sitka.png,,51,,,3,,,,,,,,,,,,,,,
null,,confidence_buffer,194416,confidence_buffer,,null,,,,,,,,,,,,,,,,,,
null,,thebreak,194919,break,,null,,,,,,,,,,,,,,,,,,
4670.700000000186,,familiar_rating,199592,US_Cities_List/mm_hilo.png,,52,US_Cities_List/mm_hilo.png,MM,4,,,,,,,,,,,,,,,
null,,confidence_buffer,199696,confidence_buffer,,null,,,,,,,,,,,,,,,,,,
4942.100000000559,,unique_rating,204640,US_Cities_List/mm_hilo.png,,53,,,5,,,,,,,,,,,,,,,
null,,confidence_buffer,204744,confidence_buffer,,null,,,,,,,,,,,,,,,,,,
3892.899999999441,,memorable_rating,208640,US_Cities_List/mm_hilo.png,,52,,,4,,,,,,,,,,,,,,,
null,,confidence_buffer,208743,confidence_buffer,,null,,,,,,,,,,,,,,,,,,
2094.4000000003725,,probe_rating,210840,probe_rating,,50,,,,2,1,,,,,,,,,,,,,
null,,confidence_buffer,210944,confidence_buffer,,null,,,,,,,,,,,,,,,,,,
null,,thebreak,211456,break,,null,,,,,,,,,,,,,,,,,,
2733,,familiar_rating,214192,US_Cities_List/nat_carmel.png,,51,US_Cities_List/nat_carmel.png,NAT,3,,,,,,,,,,,,,,,
null,,confidence_buffer,214295,confidence_buffer,,null,,,,,,,,,,,,,,,,,,
2398.100000000559,,unique_rating,216696,US_Cities_List/nat_carmel.png,,52,,,4,,,,,,,,,,,,,,,
null,,confidence_buffer,216800,confidence_buffer,,null,,,,,,,,,,,,,,,,,,
2900.899999999441,,memorable_rating,219704,US_Cities_List/nat_carmel.png,,52,,,4,,,,,,,,,,,,,,,
null,,confidence_buffer,219807,confidence_buffer,,null,,,,,,,,,,,,,,,,,,
null,,thebreak,220310,break,,null,,,,,,,,,,,,,,,,,,
1959.699999999255,,familiar_rating,222272,US_Cities_List/nat_boulder.png,,51,US_Cities_List/nat_boulder.png,NAT,3,,,,,,,,,,,,,,,
null,,confidence_buffer,222376,confidence_buffer,,null,,,,,,,,,,,,,,,,,,
3285.2999999998137,,unique_rating,225664,US_Cities_List/nat_boulder.png,,52,,,4,,,,,,,,,,,,,,,
null,,confidence_buffer,225769,confidence_buffer,,null,,,,,,,,,,,,,,,,,,
1532.0999999996275,,memorable_rating,227304,US_Cities_List/nat_boulder.png,,51,,,3,,,,,,,,,,,,,,,
null,,confidence_buffer,227407,confidence_buffer,,null,,,,,,,,,,,,,,,,,,
1549.9000000003725,,probe_rating,228960,probe_rating,,50,,,,2,1,,,,,,,,,,,,,
null,,confidence_buffer,229063,confidence_buffer,,null,,,,,,,,,,,,,,,,,,
null,,thebreak,229565,break,,null,,,,,,,,,,,,,,,,,,
4048.600000000559,,familiar_rating,233617,Fictional_Cities_List/img_manmade_05.png,,53,Fictional_Cities_List/img_manmade_05.png,MM,5,,,,,,,,,,,,,,,
null,,confidence_buffer,233720,confidence_buffer,,null,,,,,,,,,,,,,,,,,,
2061,,unique_rating,235784,Fictional_Cities_List/img_manmade_05.png,,51,,,3,,,,,,,,,,,,,,,
null,,confidence_buffer,235888,confidence_buffer,,null,,,,,,,,,,,,,,,,,,
1805.2000000001863,,memorable_rating,237696,Fictional_Cities_List/img_manmade_05.png,,50,,,2,,,,,,,,,,,,,,,
null,,confidence_buffer,237799,confidence_buffer,,null,,,,,,,,,,,,,,,,,,
null,,thebreak,238302,break,,null,,,,,,,,,,,,,,,,,,
2414,,familiar_rating,240720,US_Cities_List/nat_peoria.png,,53,US_Cities_List/nat_peoria.png,NAT,5,,,,,,,,,,,,,,,
null,,confidence_buffer,240824,confidence_buffer,,null,,,,,,,,,,,,,,,,,,
1556.5,,unique_rating,242384,US_Cities_List/nat_peoria.png,,52,,,4,,,,,,,,,,,,,,,
null,,confidence_buffer,242488,confidence_buffer,,null,,,,,,,,,,,,,,,,,,
2333.7000000001863,,memorable_rating,244824,US_Cities_List/nat_peoria.png,,51,,,3,,,,,,,,,,,,,,,
null,,confidence_buffer,244928,confidence_buffer,,null,,,,,,,,,,,,,,,,,,
null,,thebreak,245431,break,,null,,,,,,,,,,,,,,,,,,
2287,,familiar_rating,247720,US_Cities_List/nat_westpalmbeach.png,,53,US_Cities_List/nat_westpalmbeach.png,NAT,5,,,,,,,,,,,,,,,
null,,confidence_buffer,247824,confidence_buffer,,null,,,,,,,,,,,,,,,,,,
1989.5,,unique_rating,249816,US_Cities_List/nat_westpalmbeach.png,,51,,,3,,,,,,,,,,,,,,,
null,,confidence_buffer,249920,confidence_buffer,,null,,,,,,,,,,,,,,,,,,
1716.9000000003725,,memorable_rating,251641,US_Cities_List/nat_westpalmbeach.png,,52,,,4,,,,,,,,,,,,,,,
null,,confidence_buffer,251745,confidence_buffer,,null,,,,,,,,,,,,,,,,,,
null,,thebreak,252247,break,,null,,,,,,,,,,,,,,,,,,
1957.9000000003725,,familiar_rating,254209,US_Cities_List/mm_sitka.png,,51,US_Cities_List/mm_sitka.png,MM,3,,,,,,,,,,,,,,,
null,,confidence_buffer,254312,confidence_buffer,,null,,,,,,,,,,,,,,,,,,
1805.9000000003725,,unique_rating,256121,US_Cities_List/mm_sitka.png,,53,,,5,,,,,,,,,,,,,,,
null,,confidence_buffer,256227,confidence_buffer,,null,,,,,,,,,,,,,,,,,,
2209.7000000001863,,memorable_rating,258440,US_Cities_List/mm_sitka.png,,52,,,4,,,,,,,,,,,,,,,
null,,confidence_buffer,258543,confidence_buffer,,null,,,,,,,,,,,,,,,,,,
null,,thebreak,259046,break,,null,,,,,,,,,,,,,,,,,,
1343.2000000001863,,familiar_rating,260392,US_Cities_List/mm_cornwall.png,,51,US_Cities_List/mm_cornwall.png,MM,3,,,,,,,,,,,,,,,
null,,confidence_buffer,260496,confidence_buffer,,null,,,,,,,,,,,,,,,,,,
2642.9000000003725,,probe_rating,263141,probe_rating,,53,,,,5,1,,,,,,,,,,,,,
null,,confidence_buffer,263243,confidence_buffer,,null,,,,,,,,,,,,,,,,,,
1674.8999999994412,,unique_rating,264920,US_Cities_List/mm_cornwall.png,,52,,,4,,,,,,,,,,,,,,,
null,,confidence_buffer,265023,confidence_buffer,,null,,,,,,,,,,,,,,,,,,
1934.1000000005588,,memorable_rating,266960,US_Cities_List/mm_cornwall.png,,51,,,3,,,,,,,,,,,,,,,
null,,confidence_buffer,267063,confidence_buffer,,null,,,,,,,,,,,,,,,,,,
null,,thebreak,267565,break,,null,,,,,,,,,,,,,,,,,,
1573.9000000003725,,familiar_rating,269142,Fictional_Cities_List/img_manmade_10.png,,53,Fictional_Cities_List/img_manmade_10.png,MM,5,,,,,,,,,,,,,,,
null,,confidence_buffer,269243,confidence_buffer,,null,,,,,,,,,,,,,,,,,,
2114.4000000003725,,unique_rating,271360,Fictional_Cities_List/img_manmade_10.png,,51,,,3,,,,,,,,,,,,,,,
null,,confidence_buffer,271464,confidence_buffer,,null,,,,,,,,,,,,,,,,,,
1949.5,,memorable_rating,273416,Fictional_Cities_List/img_manmade_10.png,,52,,,4,,,,,,,,,,,,,,,
null,,confidence_buffer,273519,confidence_buffer,,null,,,,,,,,,,,,,,,,,,
null,,thebreak,274022,break,,null,,,,,,,,,,,,,,,,,,
2166.7999999998137,,familiar_rating,276192,Fictional_Cities_List/img_manmade_03.png,,51,Fictional_Cities_List/img_manmade_03.png,MM,3,,,,,,,,,,,,,,,
null,,confidence_buffer,276303,confidence_buffer,,null,,,,,,,,,,,,,,,,,,
2574.2000000001863,,unique_rating,278880,Fictional_Cities_List/img_manmade_03.png,,52,,,4,,,,,,,,,,,,,,,
null,,confidence_buffer,278984,confidence_buffer,,null,,,,,,,,,,,,,,,,,,
1125.3999999994412,,memorable_rating,280112,Fictional_Cities_List/img_manmade_03.png,,51,,,3,,,,,,,,,,,,,,,
null,,confidence_buffer,280215,confidence_buffer,,null,,,,,,,,,,,,,,,,,,
null,,thebreak,280717,break,,null,,,,,,,,,,,,,,,,,,
3127.7999999998137,,familiar_rating,283848,Fictional_Cities_List/img_natural_08.png,,51,Fictional_Cities_List/img_natural_08.png,NAT,3,,,,,,,,,,,,,,,
null,,confidence_buffer,283952,confidence_buffer,,null,,,,,,,,,,,,,,,,,,
893.6000000005588,,unique_rating,284848,Fictional_Cities_List/img_natural_08.png,,52,,,4,,,,,,,,,,,,,,,
null,,confidence_buffer,284951,confidence_buffer,,null,,,,,,,,,,,,,,,,,,
1598.2999999998137,,memorable_rating,286552,Fictional_Cities_List/img_natural_08.png,,53,,,5,,,,,,,,,,,,,,,
null,,confidence_buffer,286655,confidence_buffer,,null,,,,,,,,,,,,,,,,,,
null,,thebreak,287158,break,,null,,,,,,,,,,,,,,,,,,
863.2000000001863,,familiar_rating,288024,US_Cities_List/nat_abilene.png,,52,US_Cities_List/nat_abilene.png,NAT,4,,,,,,,,,,,,,,,
null,,confidence_buffer,288128,confidence_buffer,,null,,,,,,,,,,,,,,,,,,
965.7999999998137,,unique_rating,289096,US_Cities_List/nat_abilene.png,,51,,,3,,,,,,,,,,,,,,,
null,,confidence_buffer,289201,confidence_buffer,,null,,,,,,,,,,,,,,,,,,
1036,,memorable_rating,290240,US_Cities_List/nat_abilene.png,,52,,,4,,,,,,,,,,,,,,,
null,,confidence_buffer,290344,confidence_buffer,,null,,,,,,,,,,,,,,,,,,
null,,thebreak,290846,break,,null,,,,,,,,,,,,,,,,,,
1623.300000000745,,familiar_rating,292472,Fictional_Cities_List/img_manmade_04.png,,50,Fictional_Cities_List/img_manmade_04.png,MM,2,,,,,,,,,,,,,,,
null,,confidence_buffer,292575,confidence_buffer,,null,,,,,,,,,,,,,,,,,,
885.8999999994412,,unique_rating,293464,Fictional_Cities_List/img_manmade_04.png,,51,,,3,,,,,,,,,,,,,,,
null,,confidence_buffer,293567,confidence_buffer,,null,,,,,,,,,,,,,,,,,,
654.2000000001863,,memorable_rating,294224,Fictional_Cities_List/img_manmade_04.png,,52,,,4,,,,,,,,,,,,,,,
null,,confidence_buffer,294327,confidence_buffer,,null,,,,,,,,,,,,,,,,,,
null,,thebreak,294830,break,,null,,,,,,,,,,,,,,,,,,
1510.9000000003725,,familiar_rating,296344,Fictional_Cities_List/img_natural_11.png,,51,Fictional_Cities_List/img_natural_11.png,NAT,3,,,,,,,,,,,,,,,
null,,confidence_buffer,296449,confidence_buffer,,null,,,,,,,,,,,,,,,,,,
828.5999999996275,,unique_rating,297280,Fictional_Cities_List/img_natural_11.png,,52,,,4,,,,,,,,,,,,,,,
null,,confidence_buffer,297384,confidence_buffer,,null,,,,,,,,,,,,,,,,,,
1102.4000000003725,,memorable_rating,298489,Fictional_Cities_List/img_natural_11.png,,50,,,2,,,,,,,,,,,,,,,
null,,confidence_buffer,298592,confidence_buffer,,null,,,,,,,,,,,,,,,,,,
null,,thebreak,299093,break,,null,,,,,,,,,,,,,,,,,,
2207.9000000003725,,familiar_rating,301304,US_Cities_List/mm_delawarecity.png,,53,US_Cities_List/mm_delawarecity.png,MM,5,,,,,,,,,,,,,,,
null,,confidence_buffer,301407,confidence_buffer,,null,,,,,,,,,,,,,,,,,,
597,,unique_rating,302008,US_Cities_List/mm_delawarecity.png,,52,,,4,,,,,,,,,,,,,,,
null,,confidence_buffer,302112,confidence_buffer,,null,,,,,,,,,,,,,,,,,,
797.3000000007451,,memorable_rating,302912,US_Cities_List/mm_delawarecity.png,,51,,,3,,,,,,,,,,,,,,,
null,,confidence_buffer,303015,confidence_buffer,,null,,,,,,,,,,,,,,,,,,
null,,thebreak,303517,break,,null,,,,,,,,,,,,,,,,,,
1023,,familiar_rating,304544,US_Cities_List/mm_okoboji.png,,52,US_Cities_List/mm_okoboji.png,MM,4,,,,,,,,,,,,,,,
null,,confidence_buffer,304647,confidence_buffer,,null,,,,,,,,,,,,,,,,,,
958.2000000001863,,unique_rating,305608,US_Cities_List/mm_okoboji.png,,51,,,3,,,,,,,,,,,,,,,
null,,confidence_buffer,305712,confidence_buffer,,null,,,,,,,,,,,,,,,,,,
773,,memorable_rating,306488,US_Cities_List/mm_okoboji.png,,52,,,4,,,,,,,,,,,,,,,
null,,confidence_buffer,306591,confidence_buffer,,null,,,,,,,,,,,,,,,,,,
null,,thebreak,307094,break,,null,,,,,,,,,,,,,,,,,,
4264,,familiar_rating,311361,US_Cities_List/mm_coeurdalene.png,,52,US_Cities_List/mm_coeurdalene.png,MM,4,,,,,,,,,,,,,,,
null,,confidence_buffer,311464,confidence_buffer,,null,,,,,,,,,,,,,,,,,,
820.6000000005588,,unique_rating,312288,US_Cities_List/mm_coeurdalene.png,,53,,,5,,,,,,,,,,,,,,,
null,,confidence_buffer,312391,confidence_buffer,,null,,,,,,,,,,,,,,,,,,
821.8999999994412,,memorable_rating,313216,US_Cities_List/mm_coeurdalene.png,,51,,,3,,,,,,,,,,,,,,,
null,,confidence_buffer,313319,confidence_buffer,,null,,,,,,,,,,,,,,,,,,
null,,thebreak,313821,break,,null,,,,,,,,,,,,,,,,,,
848.0999999996275,,familiar_rating,314672,Fictional_Cities_List/img_natural_12.png,,52,Fictional_Cities_List/img_natural_12.png,NAT,4,,,,,,,,,,,,,,,
null,,confidence_buffer,314776,confidence_buffer,,null,,,,,,,,,,,,,,,,,,
949.5,,unique_rating,315728,Fictional_Cities_List/img_natural_12.png,,51,,,3,,,,,,,,,,,,,,,
null,,confidence_buffer,315832,confidence_buffer,,null,,,,,,,,,,,,,,,,,,
812.5999999996275,,memorable_rating,316648,Fictional_Cities_List/img_natural_12.png,,50,,,2,,,,,,,,,,,,,,,
null,,confidence_buffer,316751,confidence_buffer,,null,,,,,,,,,,,,,,,,,,
null,,thebreak,317253,break,,null,,,,,,,,,,,,,,,,,,
1568,,familiar_rating,318824,Fictional_Cities_List/img_manmade_15.png,,51,Fictional_Cities_List/img_manmade_15.png,MM,3,,,,,,,,,,,,,,,
null,,confidence_buffer,318928,confidence_buffer,,null,,,,,,,,,,,,,,,,,,
1373.1000000005588,,unique_rating,320304,Fictional_Cities_List/img_manmade_15.png,,53,,,5,,,,,,,,,,,,,,,
null,,confidence_buffer,320408,confidence_buffer,,null,,,,,,,,,,,,,,,,,,
525.7000000001863,,memorable_rating,320936,Fictional_Cities_List/img_manmade_15.png,,52,,,4,,,,,,,,,,,,,,,
null,,confidence_buffer,321040,confidence_buffer,,null,,,,,,,,,,,,,,,,,,
null,,thebreak,321543,break,,null,,,,,,,,,,,,,,,,,,
1878.6000000005588,,familiar_rating,323424,US_Cities_List/mm_westpalmbeach.png,,50,US_Cities_List/mm_westpalmbeach.png,MM,2,,,,,,,,,,,,,,,
null,,confidence_buffer,323527,confidence_buffer,,null,,,,,,,,,,,,,,,,,,
4045.800000000745,,probe_rating,327576,probe_rating,,52,,,,4,1,,,,,,,,,,,,,
null,,confidence_buffer,327680,confidence_buffer,,null,,,,,,,,,,,,,,,,,,
1588.9000000003725,,unique_rating,329272,US_Cities_List/mm_westpalmbeach.png,,53,,,5,,,,,,,,,,,,,,,
null,,confidence_buffer,329376,confidence_buffer,,null,,,,,,,,,,,,,,,,,,
1477.5,,memorable_rating,330856,US_Cities_List/mm_westpalmbeach.png,,51,,,3,,,,,,,,,,,,,,,
null,,confidence_buffer,330960,confidence_buffer,,null,,,,,,,,,,,,,,,,,,
null,,thebreak,331462,break,,null,,,,,,,,,,,,,,,,,,
1647.3999999994412,,familiar_rating,333112,Fictional_Cities_List/img_manmade_09.png,,53,Fictional_Cities_List/img_manmade_09.png,MM,5,,,,,,,,,,,,,,,
null,,confidence_buffer,333216,confidence_buffer,,null,,,,,,,,,,,,,,,,,,
814.4000000003725,,unique_rating,334032,Fictional_Cities_List/img_manmade_09.png,,52,,,4,,,,,,,,,,,,,,,
null,,confidence_buffer,334135,confidence_buffer,,null,,,,,,,,,,,,,,,,,,
925.6000000005588,,memorable_rating,335064,Fictional_Cities_List/img_manmade_09.png,,50,,,2,,,,,,,,,,,,,,,
null,,confidence_buffer,335168,confidence_buffer,,null,,,,,,,,,,,,,,,,,,
null,,thebreak,335670,break,,null,,,,,,,,,,,,,,,,,,
1151,,familiar_rating,336824,US_Cities_List/nat_healdsburg.png,,51,US_Cities_List/nat_healdsburg.png,NAT,3,,,,,,,,,,,,,,,
null,,confidence_buffer,336927,confidence_buffer,,null,,,,,,,,,,,,,,,,,,
774.2000000001863,,unique_rating,337704,US_Cities_List/nat_healdsburg.png,,50,,,2,,,,,,,,,,,,,,,
null,,confidence_buffer,337810,confidence_buffer,,null,,,,,,,,,,,,,,,,,,
1099.2999999998137,,memorable_rating,338912,US_Cities_List/nat_healdsburg.png,,51,,,3,,,,,,,,,,,,,,,
null,,confidence_buffer,339025,confidence_buffer,,null,,,,,,,,,,,,,,,,,,
null,,thebreak,339527,break,,null,,,,,,,,,,,,,,,,,,
1358.2000000001863,,familiar_rating,340888,Fictional_Cities_List/img_natural_13.png,,52,Fictional_Cities_List/img_natural_13.png,NAT,4,,,,,,,,,,,,,,,
null,,confidence_buffer,340992,confidence_buffer,,null,,,,,,,,,,,,,,,,,,
981,,unique_rating,341976,Fictional_Cities_List/img_natural_13.png,,51,,,3,,,,,,,,,,,,,,,
null,,confidence_buffer,342079,confidence_buffer,,null,,,,,,,,,,,,,,,,,,
773.7999999998137,,memorable_rating,342856,Fictional_Cities_List/img_natural_13.png,,50,,,2,,,,,,,,,,,,,,,
null,,confidence_buffer,342960,confidence_buffer,,null,,,,,,,,,,,,,,,,,,
null,,thebreak,343463,break,,null,,,,,,,,,,,,,,,,,,
1142.2999999998137,,familiar_rating,344608,US_Cities_List/mm_abilene.png,,51,US_Cities_List/mm_abilene.png,MM,3,,,,,,,,,,,,,,,
null,,confidence_buffer,344712,confidence_buffer,,null,,,,,,,,,,,,,,,,,,
893.5,,unique_rating,345608,US_Cities_List/mm_abilene.png,,50,,,2,,,,,,,,,,,,,,,
null,,confidence_buffer,345712,confidence_buffer,,null,,,,,,,,,,,,,,,,,,
1610.7000000001863,,memorable_rating,347325,US_Cities_List/mm_abilene.png,,50,,,2,,,,,,,,,,,,,,,
null,,confidence_buffer,347428,confidence_buffer,,null,,,,,,,,,,,,,,,,,,
null,,thebreak,347930,break,,null,,,,,,,,,,,,,,,,,,
1153.7000000001863,,familiar_rating,349085,Fictional_Cities_List/img_natural_02.png,,51,Fictional_Cities_List/img_natural_02.png,NAT,3,,,,,,,,,,,,,,,
null,,confidence_buffer,349187,confidence_buffer,,null,,,,,,,,,,,,,,,,,,
2122.5,,unique_rating,351312,Fictional_Cities_List/img_natural_02.png,,53,,,5,,,,,,,,,,,,,,,
null,,confidence_buffer,351415,confidence_buffer,,null,,,,,,,,,,,,,,,,,,
485.59999999962747,,memorable_rating,351904,Fictional_Cities_List/img_natural_02.png,,52,,,4,,,,,,,,,,,,,,,
null,,confidence_buffer,352007,confidence_buffer,,null,,,,,,,,,,,,,,,,,,
null,,thebreak,352510,break,,null,,,,,,,,,,,,,,,,,,
8136.299999999814,,intro_0,360648,instruct,,32,,,,,,,,,,,,,,,,,,
16917.799999999814,,intro_1,377568,instruct,,32,,,,,,,,,,,,,,,,,,
13550.599999999627,,intro_2,391121,instruct,,32,,,,,,,,,,,,,,,,,,
null,,instruct_dir_4,392624,instruct,,null,,,,,,,,,,,,,,,,,,
6525.5,,realistic_rating,399152,US_Cities_List/nat_delawarecity.png,,52,US_Cities_List/nat_delawarecity.png,NAT,4,,,,,,,,,,,,,,,
null,,confidence_buffer,399256,confidence_buffer,,null,,,,,,,,,,,,,,,,,,
1732.5999999996275,,pt2_unique_rating,400992,US_Cities_List/nat_delawarecity.png,,51,,,3,,,,,,,,,,,,,,,
null,,confidence_buffer,401095,confidence_buffer,,null,,,,,,,,,,,,,,,,,,
1342.0999999996275,,pt2_memorable_rating,402440,US_Cities_List/nat_delawarecity.png,,51,,,3,,,,,,,,,,,,,,,
null,,confidence_buffer,402544,confidence_buffer,,null,,,,,,,,,,,,,,,,,,
5467.299999999814,,recognition_phase,408014,US_Cities_List/nat_delawarecity.png,,51,,,,,,new,1,1,,,,,,,,,,
null,,confidence_buffer,408117,confidence_buffer,,null,,,,,,,,,,,,,,,,,,
null,,thebreak,408620,break,,null,,,,,,,,,,,,,,,,,,
7977.700000000186,,realistic_rating,416601,US_Cities_List/mm_sitka.png,,52,US_Cities_List/mm_sitka.png,MM,4,,,,,,,,,,,,,,,
null,,confidence_buffer,416705,confidence_buffer,,null,,,,,,,,,,,,,,,,,,
780,,pt2_unique_rating,417489,US_Cities_List/mm_sitka.png,,51,,,3,,,,,,,,,,,,,,,
null,,confidence_buffer,417592,confidence_buffer,,null,,,,,,,,,,,,,,,,,,
564.3999999994412,,pt2_memorable_rating,418160,US_Cities_List/mm_sitka.png,,53,,,5,,,,,,,,,,,,,,,
null,,confidence_buffer,418264,confidence_buffer,,null,,,,,,,,,,,,,,,,,,
7676.700000000186,,recognition_phase,425944,US_Cities_List/mm_sitka.png,,52,,,,,,new,0,0.5,,,,,,,,,,
null,,confidence_buffer,426048,confidence_buffer,,null,,,,,,,,,,,,,,,,,,
null,,thebreak,426550,break,,null,,,,,,,,,,,,,,,,,,
2079.5,,realistic_rating,428632,Fictional_Cities_List/img_natural_09.png,,52,Fictional_Cities_List/img_natural_09.png,NAT,4,,,,,,,,,,,,,,,
null,,confidence_buffer,428735,confidence_buffer,,null,,,,,,,,,,,,,,,,,,
613.8999999994412,,pt2_unique_rating,429352,Fictional_Cities_List/img_natural_09.png,,51,,,3,,,,,,,,,,,,,,,
null,,confidence_buffer,429455,confidence_buffer,,null,,,,,,,,,,,,,,,,,,
405.59999999962747,,pt2_memorable_rating,429864,Fictional_Cities_List/img_natural_09.png,,50,,,2,,,,,,,,,,,,,,,
null,,confidence_buffer,429967,confidence_buffer,,null,,,,,,,,,,,,,,,,,,
4342.200000000186,,recognition_phase,434312,Fictional_Cities_List/img_natural_09.png,,49,,,,,,old,1,0.6666666666666666,,,,,,,,,,
null,,confidence_buffer,434416,confidence_buffer,,null,,,,,,,,,,,,,,,,,,
null,,thebreak,434918,break,,null,,,,,,,,,,,,,,,,,,
3119,,realistic_rating,438040,Fictional_Cities_List/img_natural_03.png,,53,Fictional_Cities_List/img_natural_03.png,NAT,5,,,,,,,,,,,,,,,
null,,confidence_buffer,438144,confidence_buffer,,null,,,,,,,,,,,,,,,,,,
734,,pt2_unique_rating,438880,Fictional_Cities_List/img_natural_03.png,,52,,,4,,,,,,,,,,,,,,,
null,,confidence_buffer,438984,confidence_buffer,,null,,,,,,,,,,,,,,,,,,
653.5,,probe_rating,439640,probe_rating,,51,,,,3,0,,,,,,,,,,,,,
null,,confidence_buffer,439744,confidence_buffer,,null,,,,,,,,,,,,,,,,,,
7389,,pt2_memorable_rating,447136,Fictional_Cities_List/img_natural_03.png,,53,,,5,,,,,,,,,,,,,,,
null,,confidence_buffer,447240,confidence_buffer,,null,,,,,,,,,,,,,,,,,,
2676.699999999255,,recognition_phase,449920,Fictional_Cities_List/img_natural_03.png,,50,,,,,,old,0,0.5,,,,,,,,,,
null,,confidence_buffer,450024,confidence_buffer,,null,,,,,,,,,,,,,,,,,,
null,,thebreak,450526,break,,null,,,,,,,,,,,,,,,,,,
3759,,realistic_rating,454288,US_Cities_List/mm_carmel.png,,52,US_Cities_List/mm_carmel.png,MM,4,,,,,,,,,,,,,,,
null,,confidence_buffer,454392,confidence_buffer,,null,,,,,,,,,,,,,,,,,,
932.8000000007451,,pt2_unique_rating,455328,US_Cities_List/mm_carmel.png,,51,,,3,,,,,,,,,,,,,,,
null,,confidence_buffer,455431,confidence_buffer,,null,,,,,,,,,,,,,,,,,,
718.2000000001863,,pt2_memorable_rating,456152,US_Cities_List/mm_carmel.png,,50,,,2,,,,,,,,,,,,,,,
null,,confidence_buffer,456255,confidence_buffer,,null,,,,,,,,,,,,,,,,,,
3581.7000000001863,,recognition_phase,459840,US_Cities_List/mm_carmel.png,,51,,,,,,new,1,0.6,,,,,,,,,,
null,,confidence_buffer,459944,confidence_buffer,,null,,,,,,,,,,,,,,,,,,
null,,thebreak,460446,break,,null,,,,,,,,,,,,,,,,,,
4631.200000000186,,realistic_rating,465081,Fictional_Cities_List/img_manmade_03.png,,52,Fictional_Cities_List/img_manmade_03.png,MM,4,,,,,,,,,,,,,,,
null,,confidence_buffer,465184,confidence_buffer,,null,,,,,,,,,,,,,,,,,,
597.0999999996275,,pt2_unique_rating,465784,Fictional_Cities_List/img_manmade_03.png,,51,,,3,,,,,,,,,,,,,,,
null,,confidence_buffer,465887,confidence_buffer,,null,,,,,,,,,,,,,,,,,,
2045.5999999996275,,pt2_memorable_rating,467936,Fictional_Cities_List/img_manmade_03.png,,50,,,2,,,,,,,,,,,,,,,
null,,confidence_buffer,468039,confidence_buffer,,null,,,,,,,,,,,,,,,,,,
4277.299999999814,,probe_rating,472320,probe_rating,,50,,,,2,1,,,,,,,,,,,,,
null,,confidence_buffer,472424,confidence_buffer,,null,,,,,,,,,,,,,,,,,,
3395.0999999996275,,recognition_phase,475821,Fictional_Cities_List/img_manmade_03.png,,49,,,,,,old,1,0.6666666666666666,,,,,,,,,,
null,,confidence_buffer,475924,confidence_buffer,,null,,,,,,,,,,,,,,,,,,
null,,thebreak,476426,break,,null,,,,,,,,,,,,,,,,,,
2644.600000000559,,realistic_rating,479073,US_Cities_List/mm_athens.png,,52,US_Cities_List/mm_athens.png,MM,4,,,,,,,,,,,,,,,
null,,confidence_buffer,479176,confidence_buffer,,null,,,,,,,,,,,,,,,,,,
644.6000000005588,,pt2_unique_rating,479824,US_Cities_List/mm_athens.png,,51,,,3,,,,,,,,,,,,,,,
null,,confidence_buffer,479927,confidence_buffer,,null,,,,,,,,,,,,,,,,,,
582.0999999996275,,pt2_memorable_rating,480512,US_Cities_List/mm_athens.png,,50,,,2,,,,,,,,,,,,,,,
null,,confidence_buffer,480616,confidence_buffer,,null,,,,,,,,,,,,,,,,,,
3797.399999999441,,recognition_phase,484416,US_Cities_List/mm_athens.png,,51,,,,,,new,1,0.7142857142857143,,,,,,,,,,
null,,confidence_buffer,484519,confidence_buffer,,null,,,,,,,,,,,,,,,,,,
null,,thebreak,485035,break,,null,,,,,,,,,,,,,,,,,,
2627.199999999255,,realistic_rating,487664,US_Cities_List/nat_carmel.png,,53,US_Cities_List/nat_carmel.png,NAT,5,,,,,,,,,,,,,,,
null,,confidence_buffer,487767,confidence_buffer,,null,,,,,,,,,,,,,,,,,,
429.5,,pt2_unique_rating,488200,US_Cities_List/nat_carmel.png,,52,,,4,,,,,,,,,,,,,,,
null,,confidence_buffer,488303,confidence_buffer,,null,,,,,,,,,,,,,,,,,,
629.5,,pt2_memorable_rating,488936,US_Cities_List/nat_carmel.png,,51,,,3,,,,,,,,,,,,,,,
null,,confidence_buffer,489039,confidence_buffer,,null,,,,,,,,,,,,,,,,,,
2974,,recognition_phase,492016,US_Cities_List/nat_carmel.png,,49,,,,,,old,1,0.75,,,,,,,,,,
null,,confidence_buffer,492120,confidence_buffer,,null,,,,,,,,,,,,,,,,,,
null,,thebreak,492622,break,,null,,,,,,,,,,,,,,,,,,
2951.0999999996275,,realistic_rating,495576,US_Cities_List/nat_abilene.png,,53,US_Cities_List/nat_abilene.png,NAT,5,,,,,,,,,,,,,,,
null,,confidence_buffer,495681,confidence_buffer,,null,,,,,,,,,,,,,,,,,,
787.5,,pt2_unique_rating,496472,US_Cities_List/nat_abilene.png,,52,,,4,,,,,,,,,,,,,,,
null,,confidence_buffer,496576,confidence_buffer,,null,,,,,,,,,,,,,,,,,,
2989.2999999998137,,probe_rating,499569,probe_rating,,51,,,,3,1,,,,,,,,,,,,,
null,,confidence_buffer,499672,confidence_buffer,,null,,,,,,,,,,,,,,,,,,
2837.0999999996275,,pt2_memorable_rating,502512,US_Cities_List/nat_abilene.png,,52,,,4,,,,,,,,,,,,,,,
null,,confidence_buffer,502616,confidence_buffer,,null,,,,,,,,,,,,,,,,,,
4669.100000000559,,recognition_phase,507288,US_Cities_List/nat_abilene.png,,50,,,,,,old,1,0.7777777777777778,,,,,,,,,,
null,,confidence_buffer,507391,confidence_buffer,,null,,,,,,,,,,,,,,,,,,
null,,thebreak,507894,break,,null,,,,,,,,,,,,,,,,,,
2415.5,,realistic_rating,510313,US_Cities_List/nat_hilo.png,,52,US_Cities_List/nat_hilo.png,NAT,4,,,,,,,,,,,,,,,
null,,confidence_buffer,510416,confidence_buffer,,null,,,,,,,,,,,,,,,,,,
980.7999999998137,,pt2_unique_rating,511400,US_Cities_List/nat_hilo.png,,51,,,3,,,,,,,,,,,,,,,
null,,confidence_buffer,511503,confidence_buffer,,null,,,,,,,,,,,,,,,,,,
701.5,,pt2_memorable_rating,512208,US_Cities_List/nat_hilo.png,,52,,,4,,,,,,,,,,,,,,,
null,,confidence_buffer,512311,confidence_buffer,,null,,,,,,,,,,,,,,,,,,
2598.4000000003725,,recognition_phase,514912,US_Cities_List/nat_hilo.png,,51,,,,,,new,1,0.8,,,,,,,,,,
null,,confidence_buffer,515017,confidence_buffer,,null,,,,,,,,,,,,,,,,,,
null,,thebreak,515520,break,,null,,,,,,,,,,,,,,,,,,
2140.7000000001863,,realistic_rating,517664,Fictional_Cities_List/img_manmade_01.png,,53,Fictional_Cities_List/img_manmade_01.png,MM,5,,,,,,,,,,,,,,,
null,,confidence_buffer,517767,confidence_buffer,,null,,,,,,,,,,,,,,,,,,
430.70000000018626,,pt2_unique_rating,518201,Fictional_Cities_List/img_manmade_01.png,,52,,,4,,,,,,,,,,,,,,,
null,,confidence_buffer,518304,confidence_buffer,,null,,,,,,,,,,,,,,,,,,
916.8000000007451,,pt2_memorable_rating,519224,Fictional_Cities_List/img_manmade_01.png,,50,,,2,,,,,,,,,,,,,,,
null,,confidence_buffer,519327,confidence_buffer,,null,,,,,,,,,,,,,,,,,,
2118.2000000001863,,recognition_phase,521448,Fictional_Cities_List/img_manmade_01.png,,49,,,,,,old,1,0.8181818181818182,,,,,,,,,,
null,,confidence_buffer,521551,confidence_buffer,,null,,,,,,,,,,,,,,,,,,
null,,thebreak,522053,break,,null,,,,,,,,,,,,,,,,,,
3951.7999999998137,,realistic_rating,526008,US_Cities_List/mm_okoboji.png,,52,US_Cities_List/mm_okoboji.png,MM,4,,,,,,,,,,,,,,,
null,,confidence_buffer,526112,confidence_buffer,,null,,,,,,,,,,,,,,,,,,
557,,pt2_unique_rating,526672,US_Cities_List/mm_okoboji.png,,51,,,3,,,,,,,,,,,,,,,
null,,confidence_buffer,526775,confidence_buffer,,null,,,,,,,,,,,,,,,,,,
822.2999999998137,,pt2_memorable_rating,527600,US_Cities_List/mm_okoboji.png,,52,,,4,,,,,,,,,,,,,,,
null,,confidence_buffer,527704,confidence_buffer,,null,,,,,,,,,,,,,,,,,,
556.8999999994412,,recognition_phase,528264,US_Cities_List/mm_okoboji.png,,51,,,,,,new,0,0.75,,,,,,,,,,
null,,confidence_buffer,528367,confidence_buffer,,null,,,,,,,,,,,,,,,,,,
null,,thebreak,528870,break,,null,,,,,,,,,,,,,,,,,,
5367.4000000003725,,realistic_rating,534241,Fictional_Cities_List/img_natural_08.png,,53,Fictional_Cities_List/img_natural_08.png,NAT,5,,,,,,,,,,,,,,,
null,,confidence_buffer,534344,confidence_buffer,,null,,,,,,,,,,,,,,,,,,
1068.5999999996275,,pt2_unique_rating,535416,Fictional_Cities_List/img_natural_08.png,,52,,,4,,,,,,,,,,,,,,,
null,,confidence_buffer,535519,confidence_buffer,,null,,,,,,,,,,,,,,,,,,
2166.100000000559,,pt2_memorable_rating,537688,Fictional_Cities_List/img_natural_08.png,,50,,,2,,,,,,,,,,,,,,,
null,,confidence_buffer,537791,confidence_buffer,,null,,,,,,,,,,,,,,,,,,
1605.7000000001863,,recognition_phase,539400,Fictional_Cities_List/img_natural_08.png,,51,,,,,,new,0,0.6923076923076923,,,,,,,,,,
null,,confidence_buffer,539504,confidence_buffer,,null,,,,,,,,,,,,,,,,,,
null,,thebreak,540005,break,,null,,,,,,,,,,,,,,,,,,
2911.600000000559,,realistic_rating,542920,Fictional_Cities_List/img_natural_13.png,,51,Fictional_Cities_List/img_natural_13.png,NAT,3,,,,,,,,,,,,,,,
null,,confidence_buffer,543025,confidence_buffer,,null,,,,,,,,,,,,,,,,,,
828.2000000001863,,pt2_unique_rating,543856,Fictional_Cities_List/img_natural_13.png,,52,,,4,,,,,,,,,,,,,,,
null,,confidence_buffer,543960,confidence_buffer,,null,,,,,,,,,,,,,,,,,,
853.4000000003725,,pt2_memorable_rating,544817,Fictional_Cities_List/img_natural_13.png,,50,,,2,,,,,,,,,,,,,,,
null,,confidence_buffer,544920,confidence_buffer,,null,,,,,,,,,,,,,,,,,,
3469.2000000001863,,recognition_phase,548392,Fictional_Cities_List/img_natural_13.png,,52,,,,,,new,0,0.6428571428571429,,,,,,,,,,
null,,confidence_buffer,548495,confidence_buffer,,null,,,,,,,,,,,,,,,,,,
null,,thebreak,548997,break,,null,,,,,,,,,,,,,,,,,,
2255.7000000001863,,realistic_rating,551256,Fictional_Cities_List/img_manmade_12.png,,50,Fictional_Cities_List/img_manmade_12.png,MM,2,,,,,,,,,,,,,,,
null,,confidence_buffer,551367,confidence_buffer,,null,,,,,,,,,,,,,,,,,,
1182.4000000003725,,pt2_unique_rating,552552,Fictional_Cities_List/img_manmade_12.png,,52,,,4,,,,,,,,,,,,,,,
null,,confidence_buffer,552655,confidence_buffer,,null,,,,,,,,,,,,,,,,,,
1109.9000000003725,,pt2_memorable_rating,553768,Fictional_Cities_List/img_manmade_12.png,,50,,,2,,,,,,,,,,,,,,,
null,,confidence_buffer,553871,confidence_buffer,,null,,,,,,,,,,,,,,,,,,
3037.7000000001863,,recognition_phase,556912,Fictional_Cities_List/img_manmade_12.png,,52,,,,,,new,1,0.6666666666666666,,,,,,,,,,
null,,confidence_buffer,557015,confidence_buffer,,null,,,,,,,,,,,,,,,,,,
null,,thebreak,557519,break,,null,,,,,,,,,,,,,,,,,,
2229.7000000001863,,realistic_rating,559752,Fictional_Cities_List/img_manmade_06.png,,50,Fictional_Cities_List/img_manmade_06.png,MM,2,,,,,,,,,,,,,,,
null,,confidence_buffer,559855,confidence_buffer,,null,,,,,,,,,,,,,,,,,,
1142.1000000005588,,pt2_unique_rating,561000,Fictional_Cities_List/img_manmade_06.png,,52,,,4,,,,,,,,,,,,,,,
null,,confidence_buffer,561104,confidence_buffer,,null,,,,,,,,,,,,,,,,,,
620.2999999998137,,probe_rating,561728,probe_rating,,51,,,,3,0,,,,,,,,,,,,,
null,,confidence_buffer,561832,confidence_buffer,,null,,,,,,,,,,,,,,,,,,
5661.5,,pt2_memorable_rating,567497,Fictional_Cities_List/img_manmade_06.png,,50,,,2,,,,,,,,,,,,,,,
null,,confidence_buffer,567601,confidence_buffer,,null,,,,,,,,,,,,,,,,,,
3203.5,,recognition_phase,570808,Fictional_Cities_List/img_manmade_06.png,,51,,,,,,new,1,0.6875,,,,,,,,,,
null,,confidence_buffer,570911,confidence_buffer,,null,,,,,,,,,,,,,,,,,,
null,,thebreak,571413,break,,null,,,,,,,,,,,,,,,,,,
4327.5,,realistic_rating,575744,Fictional_Cities_List/img_manmade_15.png,,51,Fictional_Cities_List/img_manmade_15.png,MM,3,,,,,,,,,,,,,,,
null,,confidence_buffer,575847,confidence_buffer,,null,,,,,,,,,,,,,,,,,,
2206,,pt2_unique_rating,578056,Fictional_Cities_List/img_manmade_15.png,,52,,,4,,,,,,,,,,,,,,,
null,,confidence_buffer,578169,confidence_buffer,,null,,,,,,,,,,,,,,,,,,
2723.699999999255,,pt2_memorable_rating,580896,Fictional_Cities_List/img_manmade_15.png,,51,,,3,,,,,,,,,,,,,,,
null,,confidence_buffer,580999,confidence_buffer,,null,,,,,,,,,,,,,,,,,,
1910.7000000001863,,probe_rating,582912,probe_rating,,49,,,,1,1,,,,,,,,,,,,,
null,,confidence_buffer,583016,confidence_buffer,,null,,,,,,,,,,,,,,,,,,
4717.799999999814,,recognition_phase,587736,Fictional_Cities_List/img_manmade_15.png,,51,,,,,,new,0,0.6470588235294118,,,,,,,,,,
null,,confidence_buffer,587841,confidence_buffer,,null,,,,,,,,,,,,,,,,,,
null,,thebreak,588343,break,,null,,,,,,,,,,,,,,,,,,
4141,,realistic_rating,592488,Fictional_Cities_List/img_manmade_09.png,,52,Fictional_Cities_List/img_manmade_09.png,MM,4,,,,,,,,,,,,,,,
null,,confidence_buffer,592592,confidence_buffer,,null,,,,,,,,,,,,,,,,,,
1269.2999999998137,,pt2_unique_rating,593864,Fictional_Cities_List/img_manmade_09.png,,51,,,3,,,,,,,,,,,,,,,
null,,confidence_buffer,593967,confidence_buffer,,null,,,,,,,,,,,,,,,,,,
1790.4000000003725,,pt2_memorable_rating,595760,Fictional_Cities_List/img_manmade_09.png,,50,,,2,,,,,,,,,,,,,,,
null,,confidence_buffer,595864,confidence_buffer,,null,,,,,,,,,,,,,,,,,,
2164.600000000559,,recognition_phase,598032,Fictional_Cities_List/img_manmade_09.png,,51,,,,,,new,0,0.6111111111111112,,,,,,,,,,
null,,confidence_buffer,598135,confidence_buffer,,null,,,,,,,,,,,,,,,,,,
null,,thebreak,598637,break,,null,,,,,,,,,,,,,,,,,,
3103.7999999998137,,realistic_rating,601744,US_Cities_List/mm_hilo.png,,52,US_Cities_List/mm_hilo.png,MM,4,,,,,,,,,,,,,,,
null,,confidence_buffer,601847,confidence_buffer,,null,,,,,,,,,,,,,,,,,,
950.2000000001863,,pt2_unique_rating,602800,US_Cities_List/mm_hilo.png,,51,,,3,,,,,,,,,,,,,,,
null,,confidence_buffer,602904,confidence_buffer,,null,,,,,,,,,,,,,,,,,,
1100.199999999255,,pt2_memorable_rating,604008,US_Cities_List/mm_hilo.png,,50,,,2,,,,,,,,,,,,,,,
null,,confidence_buffer,604111,confidence_buffer,,null,,,,,,,,,,,,,,,,,,
1901.8999999994412,,recognition_phase,606016,US_Cities_List/mm_hilo.png,,49,,,,,,old,1,0.631578947368421,,,,,,,,,,
null,,confidence_buffer,606120,confidence_buffer,,null,,,,,,,,,,,,,,,,,,
null,,thebreak,606621,break,,null,,,,,,,,,,,,,,,,,,
2831.2999999998137,,realistic_rating,609456,Fictional_Cities_List/img_natural_14.png,,50,Fictional_Cities_List/img_natural_14.png,NAT,2,,,,,,,,,,,,,,,
null,,confidence_buffer,609559,confidence_buffer,,null,,,,,,,,,,,,,,,,,,
1766.2000000001863,,pt2_unique_rating,611328,Fictional_Cities_List/img_natural_14.png,,51,,,3,,,,,,,,,,,,,,,
null,,confidence_buffer,611431,confidence_buffer,,null,,,,,,,,,,,,,,,,,,
1981.8999999994412,,probe_rating,613416,probe_rating,,53,,,,5,1,,,,,,,,,,,,,
null,,confidence_buffer,613520,confidence_buffer,,null,,,,,,,,,,,,,,,,,,
2661.7000000001863,,pt2_memorable_rating,616184,Fictional_Cities_List/img_natural_14.png,,52,,,4,,,,,,,,,,,,,,,
null,,confidence_buffer,616287,confidence_buffer,,null,,,,,,,,,,,,,,,,,,
3101.2999999998137,,recognition_phase,619391,Fictional_Cities_List/img_natural_14.png,,52,,,,,,new,1,0.65,,,,,,,,,,
null,,confidence_buffer,619494,confidence_buffer,,null,,,,,,,,,,,,,,,,,,
null,,thebreak,619996,break,,null,,,,,,,,,,,,,,,,,,
4434.4000000003725,,realistic_rating,624433,Fictional_Cities_List/img_manmade_11.png,,50,Fictional_Cities_List/img_manmade_11.png,MM,2,,,,,,,,,,,,,,,
null,,confidence_buffer,624536,confidence_buffer,,null,,,,,,,,,,,,,,,,,,
941.5999999996275,,pt2_unique_rating,625480,Fictional_Cities_List/img_manmade_11.png,,51,,,3,,,,,,,,,,,,,,,
null,,confidence_buffer,625583,confidence_buffer,,null,,,,,,,,,,,,,,,,,,
1781.4000000003725,,pt2_memorable_rating,627368,Fictional_Cities_List/img_manmade_11.png,,52,,,4,,,,,,,,,,,,,,,
null,,confidence_buffer,627471,confidence_buffer,,null,,,,,,,,,,,,,,,,,,
2470.2000000001863,,recognition_phase,629944,Fictional_Cities_List/img_manmade_11.png,,51,,,,,,new,1,0.6666666666666666,,,,,,,,,,
null,,confidence_buffer,630048,confidence_buffer,,null,,,,,,,,,,,,,,,,,,
null,,thebreak,630551,break,,null,,,,,,,,,,,,,,,,,,
2462.2999999998137,,realistic_rating,633016,Fictional_Cities_List/img_natural_11.png,,52,Fictional_Cities_List/img_natural_11.png,NAT,4,,,,,,,,,,,,,,,
null,,confidence_buffer,633120,confidence_buffer,,null,,,,,,,,,,,,,,,,,,
1260.5,,pt2_unique_rating,634384,Fictional_Cities_List/img_natural_11.png,,51,,,3,,,,,,,,,,,,,,,
null,,confidence_buffer,634487,confidence_buffer,,null,,,,,,,,,,,,,,,,,,
1037.7999999998137,,pt2_memorable_rating,635528,Fictional_Cities_List/img_natural_11.png,,50,,,2,,,,,,,,,,,,,,,
null,,confidence_buffer,635632,confidence_buffer,,null,,,,,,,,,,,,,,,,,,
3148.7000000001863,,recognition_phase,638784,Fictional_Cities_List/img_natural_11.png,,52,,,,,,new,0,0.6363636363636364,,,,,,,,,,
null,,confidence_buffer,638887,confidence_buffer,,null,,,,,,,,,,,,,,,,,,
null,,thebreak,639391,break,,null,,,,,,,,,,,,,,,,,,
1462.2999999998137,,realistic_rating,640856,US_Cities_List/nat_peoria.png,,51,US_Cities_List/nat_peoria.png,NAT,3,,,,,,,,,,,,,,,
null,,confidence_buffer,640960,confidence_buffer,,null,,,,,,,,,,,,,,,,,,
797.2000000001863,,pt2_unique_rating,641760,US_Cities_List/nat_peoria.png,,50,,,2,,,,,,,,,,,,,,,
null,,confidence_buffer,641863,confidence_buffer,,null,,,,,,,,,,,,,,,,,,
749.7000000001863,,pt2_memorable_rating,642616,US_Cities_List/nat_peoria.png,,51,,,3,,,,,,,,,,,,,,,
null,,confidence_buffer,642719,confidence_buffer,,null,,,,,,,,,,,,,,,,,,
4293.100000000559,,recognition_phase,647017,US_Cities_List/nat_peoria.png,,51,,,,,,new,0,0.6086956521739131,,,,,,,,,,
null,,confidence_buffer,647121,confidence_buffer,,null,,,,,,,,,,,,,,,,,,
null,,thebreak,647624,break,,null,,,,,,,,,,,,,,,,,,
3356.7999999998137,,realistic_rating,650984,Fictional_Cities_List/img_manmade_05.png,,51,Fictional_Cities_List/img_manmade_05.png,MM,3,,,,,,,,,,,,,,,
null,,confidence_buffer,651088,confidence_buffer,,null,,,,,,,,,,,,,,,,,,
524.9000000003725,,pt2_unique_rating,651616,Fictional_Cities_List/img_manmade_05.png,,52,,,4,,,,,,,,,,,,,,,
null,,confidence_buffer,651719,confidence_buffer,,null,,,,,,,,,,,,,,,,,,
1438.2000000001863,,pt2_memorable_rating,653160,Fictional_Cities_List/img_manmade_05.png,,50,,,2,,,,,,,,,,,,,,,
null,,confidence_buffer,653263,confidence_buffer,,null,,,,,,,,,,,,,,,,,,
1877.8999999994412,,recognition_phase,655145,Fictional_Cities_List/img_manmade_05.png,,49,,,,,,old,1,0.625,,,,,,,,,,
null,,confidence_buffer,655250,confidence_buffer,,null,,,,,,,,,,,,,,,,,,
null,,thebreak,655752,break,,null,,,,,,,,,,,,,,,,,,
1685.0999999996275,,realistic_rating,657440,US_Cities_List/mm_cornwall.png,,52,US_Cities_List/mm_cornwall.png,MM,4,,,,,,,,,,,,,,,
null,,confidence_buffer,657545,confidence_buffer,,null,,,,,,,,,,,,,,,,,,
699.7000000001863,,pt2_unique_rating,658248,US_Cities_List/mm_cornwall.png,,51,,,3,,,,,,,,,,,,,,,
null,,confidence_buffer,658351,confidence_buffer,,null,,,,,,,,,,,,,,,,,,
2419.7000000001863,,probe_rating,660773,probe_rating,,51,,,,3,1,,,,,,,,,,,,,
null,,confidence_buffer,660875,confidence_buffer,,null,,,,,,,,,,,,,,,,,,
1738.7000000001863,,pt2_memorable_rating,662616,US_Cities_List/mm_cornwall.png,,50,,,2,,,,,,,,,,,,,,,
null,,confidence_buffer,662719,confidence_buffer,,null,,,,,,,,,,,,,,,,,,
3229.699999999255,,recognition_phase,665952,US_Cities_List/mm_cornwall.png,,51,,,,,,new,0,0.6,,,,,,,,,,
null,,confidence_buffer,666055,confidence_buffer,,null,,,,,,,,,,,,,,,,,,
null,,thebreak,666563,break,,null,,,,,,,,,,,,,,,,,,
1570.2999999998137,,realistic_rating,668136,US_Cities_List/mm_hotsprings.png,,52,US_Cities_List/mm_hotsprings.png,MM,4,,,,,,,,,,,,,,,
null,,confidence_buffer,668240,confidence_buffer,,null,,,,,,,,,,,,,,,,,,
557.0999999996275,,pt2_unique_rating,668800,US_Cities_List/mm_hotsprings.png,,51,,,3,,,,,,,,,,,,,,,
null,,confidence_buffer,668904,confidence_buffer,,null,,,,,,,,,,,,,,,,,,
685.2999999998137,,pt2_memorable_rating,669592,US_Cities_List/mm_hotsprings.png,,50,,,2,,,,,,,,,,,,,,,
null,,confidence_buffer,669696,confidence_buffer,,null,,,,,,,,,,,,,,,,,,
5372.5999999996275,,recognition_phase,675072,US_Cities_List/mm_hotsprings.png,,51,,,,,,new,1,0.6153846153846154,,,,,,,,,,
null,,confidence_buffer,675175,confidence_buffer,,null,,,,,,,,,,,,,,,,,,
null,,thebreak,675677,break,,null,,,,,,,,,,,,,,,,,,
1607.2999999998137,,realistic_rating,677288,Fictional_Cities_List/img_manmade_04.png,,50,Fictional_Cities_List/img_manmade_04.png,MM,2,,,,,,,,,,,,,,,
null,,confidence_buffer,677391,confidence_buffer,,null,,,,,,,,,,,,,,,,,,
1629.699999999255,,pt2_unique_rating,679024,Fictional_Cities_List/img_manmade_04.png,,52,,,4,,,,,,,,,,,,,,,
null,,confidence_buffer,679127,confidence_buffer,,null,,,,,,,,,,,,,,,,,,
1173.5999999996275,,pt2_memorable_rating,680304,Fictional_Cities_List/img_manmade_04.png,,51,,,3,,,,,,,,,,,,,,,
null,,confidence_buffer,680408,confidence_buffer,,null,,,,,,,,,,,,,,,,,,
3412.9000000003725,,recognition_phase,683824,Fictional_Cities_List/img_manmade_04.png,,52,,,,,,new,0,0.5925925925925926,,,,,,,,,,
null,,confidence_buffer,683927,confidence_buffer,,null,,,,,,,,,,,,,,,,,,
null,,thebreak,684431,break,,null,,,,,,,,,,,,,,,,,,
1718,,realistic_rating,686152,Fictional_Cities_List/img_manmade_14.png,,51,Fictional_Cities_List/img_manmade_14.png,MM,3,,,,,,,,,,,,,,,
null,,confidence_buffer,686255,confidence_buffer,,null,,,,,,,,,,,,,,,,,,
1077.7999999998137,,pt2_unique_rating,687336,Fictional_Cities_List/img_manmade_14.png,,50,,,2,,,,,,,,,,,,,,,
null,,confidence_buffer,687439,confidence_buffer,,null,,,,,,,,,,,,,,,,,,
933.9000000003725,,pt2_memorable_rating,688376,Fictional_Cities_List/img_manmade_14.png,,51,,,3,,,,,,,,,,,,,,,
null,,confidence_buffer,688479,confidence_buffer,,null,,,,,,,,,,,,,,,,,,
3213.300000000745,,recognition_phase,691696,Fictional_Cities_List/img_manmade_14.png,,51,,,,,,new,1,0.6071428571428571,,,,,,,,,,
null,,confidence_buffer,691800,confidence_buffer,,null,,,,,,,,,,,,,,,,,,
null,,thebreak,692302,break,,null,,,,,,,,,,,,,,,,,,
2446.2000000001863,,realistic_rating,694752,Fictional_Cities_List/img_natural_06.png,,50,Fictional_Cities_List/img_natural_06.png,NAT,2,,,,,,,,,,,,,,,
null,,confidence_buffer,694855,confidence_buffer,,null,,,,,,,,,,,,,,,,,,
517.7000000001863,,pt2_unique_rating,695376,Fictional_Cities_List/img_natural_06.png,,51,,,3,,,,,,,,,,,,,,,
null,,confidence_buffer,695480,confidence_buffer,,null,,,,,,,,,,,,,,,,,,
741.2999999998137,,pt2_memorable_rating,696224,Fictional_Cities_List/img_natural_06.png,,52,,,4,,,,,,,,,,,,,,,
null,,confidence_buffer,696328,confidence_buffer,,null,,,,,,,,,,,,,,,,,,
1860.8999999994412,,recognition_phase,698192,Fictional_Cities_List/img_natural_06.png,,49,,,,,,old,1,0.6206896551724138,,,,,,,,,,
null,,confidence_buffer,698296,confidence_buffer,,null,,,,,,,,,,,,,,,,,,
null,,thebreak,698799,break,,null,,,,,,,,,,,,,,,,,,
1894.0999999996275,,realistic_rating,700696,US_Cities_List/nat_westpalmbeach.png,,52,US_Cities_List/nat_westpalmbeach.png,NAT,4,,,,,,,,,,,,,,,
null,,confidence_buffer,700800,confidence_buffer,,null,,,,,,,,,,,,,,,,,,
461.20000000018626,,pt2_unique_rating,701264,US_Cities_List/nat_westpalmbeach.png,,51,,,3,,,,,,,,,,,,,,,
null,,confidence_buffer,701366,confidence_buffer,,null,,,,,,,,,,,,,,,,,,
1102.800000000745,,pt2_memorable_rating,702472,US_Cities_List/nat_westpalmbeach.png,,50,,,2,,,,,,,,,,,,,,,
null,,confidence_buffer,702575,confidence_buffer,,null,,,,,,,,,,,,,,,,,,
2149.5,,recognition_phase,704728,US_Cities_List/nat_westpalmbeach.png,,52,,,,,,new,0,0.6,,,,,,,,,,
null,,confidence_buffer,704831,confidence_buffer,,null,,,,,,,,,,,,,,,,,,
null,,thebreak,705334,break,,null,,,,,,,,,,,,,,,,,,
975,,realistic_rating,706312,US_Cities_List/nat_cornwall.png,,51,US_Cities_List/nat_cornwall.png,NAT,3,,,,,,,,,,,,,,,
null,,confidence_buffer,706416,confidence_buffer,,null,,,,,,,,,,,,,,,,,,
645.0999999996275,,pt2_unique_rating,707064,US_Cities_List/nat_cornwall.png,,50,,,2,,,,,,,,,,,,,,,
null,,confidence_buffer,707167,confidence_buffer,,null,,,,,,,,,,,,,,,,,,
997.9000000003725,,pt2_memorable_rating,708168,US_Cities_List/nat_cornwall.png,,52,,,4,,,,,,,,,,,,,,,
null,,confidence_buffer,708272,confidence_buffer,,null,,,,,,,,,,,,,,,,,,
604.5,,recognition_phase,708880,US_Cities_List/nat_cornwall.png,,51,,,,,,new,1,0.6129032258064516,,,,,,,,,,
null,,confidence_buffer,708983,confidence_buffer,,null,,,,,,,,,,,,,,,,,,
null,,thebreak,709486,break,,null,,,,,,,,,,,,,,,,,,
1980.7999999998137,,realistic_rating,711470,Fictional_Cities_List/img_natural_01.png,,52,Fictional_Cities_List/img_natural_01.png,NAT,4,,,,,,,,,,,,,,,
null,,confidence_buffer,711572,confidence_buffer,,null,,,,,,,,,,,,,,,,,,
905.5,,pt2_unique_rating,712480,Fictional_Cities_List/img_natural_01.png,,51,,,3,,,,,,,,,,,,,,,
null,,confidence_buffer,712583,confidence_buffer,,null,,,,,,,,,,,,,,,,,,
813.3999999994412,,pt2_memorable_rating,713400,Fictional_Cities_List/img_natural_01.png,,50,,,2,,,,,,,,,,,,,,,
null,,confidence_buffer,713504,confidence_buffer,,null,,,,,,,,,,,,,,,,,,
1595.6000000005588,,recognition_phase,715102,Fictional_Cities_List/img_natural_01.png,,50,,,,,,old,0,0.59375,,,,,,,,,,
null,,confidence_buffer,715205,confidence_buffer,,null,,,,,,,,,,,,,,,,,,
null,,thebreak,715706,break,,null,,,,,,,,,,,,,,,,,,
1274.9000000003725,,realistic_rating,716984,US_Cities_List/mm_boulder.png,,51,US_Cities_List/mm_boulder.png,MM,3,,,,,,,,,,,,,,,
null,,confidence_buffer,717088,confidence_buffer,,null,,,,,,,,,,,,,,,,,,
1284.6000000005588,,pt2_unique_rating,718376,US_Cities_List/mm_boulder.png,,52,,,4,,,,,,,,,,,,,,,
null,,confidence_buffer,718479,confidence_buffer,,null,,,,,,,,,,,,,,,,,,
566.2999999998137,,pt2_memorable_rating,719048,US_Cities_List/mm_boulder.png,,51,,,3,,,,,,,,,,,,,,,
null,,confidence_buffer,719151,confidence_buffer,,null,,,,,,,,,,,,,,,,,,
2421.199999999255,,recognition_phase,721576,US_Cities_List/mm_boulder.png,,51,,,,,,new,1,0.6060606060606061,,,,,,,,,,
null,,confidence_buffer,721680,confidence_buffer,,null,,,,,,,,,,,,,,,,,,
null,,thebreak,722182,break,,null,,,,,,,,,,,,,,,,,,
1831.0999999996275,,realistic_rating,724016,US_Cities_List/nat_okoboji.png,,51,US_Cities_List/nat_okoboji.png,NAT,3,,,,,,,,,,,,,,,
null,,confidence_buffer,724120,confidence_buffer,,null,,,,,,,,,,,,,,,,,,
596.2000000001863,,pt2_unique_rating,724720,US_Cities_List/nat_okoboji.png,,50,,,2,,,,,,,,,,,,,,,
null,,confidence_buffer,724824,confidence_buffer,,null,,,,,,,,,,,,,,,,,,
756.9000000003725,,pt2_memorable_rating,725583,US_Cities_List/nat_okoboji.png,,51,,,3,,,,,,,,,,,,,,,
null,,confidence_buffer,725687,confidence_buffer,,null,,,,,,,,,,,,,,,,,,
2838.2999999998137,,recognition_phase,728528,US_Cities_List/nat_okoboji.png,,51,,,,,,new,1,0.6176470588235294,,,,,,,,,,
null,,confidence_buffer,728632,confidence_buffer,,null,,,,,,,,,,,,,,,,,,
null,,thebreak,729135,break,,null,,,,,,,,,,,,,,,,,,
1366.0999999996275,,realistic_rating,730504,Fictional_Cities_List/img_manmade_10.png,,52,Fictional_Cities_List/img_manmade_10.png,MM,4,,,,,,,,,,,,,,,
null,,confidence_buffer,730607,confidence_buffer,,null,,,,,,,,,,,,,,,,,,
756.5,,pt2_unique_rating,731368,Fictional_Cities_List/img_manmade_10.png,,51,,,3,,,,,,,,,,,,,,,
null,,confidence_buffer,731472,confidence_buffer,,null,,,,,,,,,,,,,,,,,,
580.6999999992549,,pt2_memorable_rating,732056,Fictional_Cities_List/img_manmade_10.png,,50,,,2,,,,,,,,,,,,,,,
null,,confidence_buffer,732159,confidence_buffer,,null,,,,,,,,,,,,,,,,,,
2005.9000000003725,,recognition_phase,734168,Fictional_Cities_List/img_manmade_10.png,,51,,,,,,new,0,0.6,,,,,,,,,,
null,,confidence_buffer,734271,confidence_buffer,,null,,,,,,,,,,,,,,,,,,
null,,thebreak,734773,break,,null,,,,,,,,,,,,,,,,,,
1423.9000000003725,,realistic_rating,736200,US_Cities_List/nat_bisbee.png,,52,US_Cities_List/nat_bisbee.png,NAT,4,,,,,,,,,,,,,,,
null,,confidence_buffer,736303,confidence_buffer,,null,,,,,,,,,,,,,,,,,,
525.3000000007451,,pt2_unique_rating,736832,US_Cities_List/nat_bisbee.png,,51,,,3,,,,,,,,,,,,,,,
null,,confidence_buffer,736935,confidence_buffer,,null,,,,,,,,,,,,,,,,,,
597.7000000001863,,pt2_memorable_rating,737536,US_Cities_List/nat_bisbee.png,,50,,,2,,,,,,,,,,,,,,,
null,,confidence_buffer,737639,confidence_buffer,,null,,,,,,,,,,,,,,,,,,
2077.7999999998137,,recognition_phase,739720,US_Cities_List/nat_bisbee.png,,52,,,,,,new,1,0.6111111111111112,,,,,,,,,,
null,,confidence_buffer,739823,confidence_buffer,,null,,,,,,,,,,,,,,,,,,
null,,thebreak,740326,break,,null,,,,,,,,,,,,,,,,,,
1055.0999999996275,,realistic_rating,741384,Fictional_Cities_List/img_natural_10.png,,51,Fictional_Cities_List/img_natural_10.png,NAT,3,,,,,,,,,,,,,,,
null,,confidence_buffer,741488,confidence_buffer,,null,,,,,,,,,,,,,,,,,,
493.09999999962747,,pt2_unique_rating,741984,Fictional_Cities_List/img_natural_10.png,,50,,,2,,,,,,,,,,,,,,,
null,,confidence_buffer,742089,confidence_buffer,,null,,,,,,,,,,,,,,,,,,
1796.5999999996275,,pt2_memorable_rating,743888,Fictional_Cities_List/img_natural_10.png,,52,,,4,,,,,,,,,,,,,,,
null,,confidence_buffer,743991,confidence_buffer,,null,,,,,,,,,,,,,,,,,,
2077,,recognition_phase,746072,Fictional_Cities_List/img_natural_10.png,,51,,,,,,new,1,0.6216216216216216,,,,,,,,,,
null,,confidence_buffer,746175,confidence_buffer,,null,,,,,,,,,,,,,,,,,,
null,,thebreak,746677,break,,null,,,,,,,,,,,,,,,,,,
2366.7999999998137,,realistic_rating,749048,Fictional_Cities_List/img_natural_04.png,,50,Fictional_Cities_List/img_natural_04.png,NAT,2,,,,,,,,,,,,,,,
null,,confidence_buffer,749151,confidence_buffer,,null,,,,,,,,,,,,,,,,,,
471.20000000018626,,pt2_unique_rating,749624,Fictional_Cities_List/img_natural_04.png,,51,,,3,,,,,,,,,,,,,,,
null,,confidence_buffer,749727,confidence_buffer,,null,,,,,,,,,,,,,,,,,,
1797.4000000003725,,probe_rating,751528,probe_rating,,50,,,,2,1,,,,,,,,,,,,,
null,,confidence_buffer,751631,confidence_buffer,,null,,,,,,,,,,,,,,,,,,
3269.4000000003725,,pt2_memorable_rating,754904,Fictional_Cities_List/img_natural_04.png,,52,,,4,,,,,,,,,,,,,,,
null,,confidence_buffer,755007,confidence_buffer,,null,,,,,,,,,,,,,,,,,,
1933.6000000005588,,recognition_phase,756944,Fictional_Cities_List/img_natural_04.png,,52,,,,,,new,1,0.631578947368421,,,,,,,,,,
null,,confidence_buffer,757047,confidence_buffer,,null,,,,,,,,,,,,,,,,,,
null,,thebreak,757551,break,,null,,,,,,,,,,,,,,,,,,
1838,,realistic_rating,759392,US_Cities_List/mm_coeurdalene.png,,52,US_Cities_List/mm_coeurdalene.png,MM,4,,,,,,,,,,,,,,,
null,,confidence_buffer,759495,confidence_buffer,,null,,,,,,,,,,,,,,,,,,
469.09999999962747,,pt2_unique_rating,759968,US_Cities_List/mm_coeurdalene.png,,51,,,3,,,,,,,,,,,,,,,
null,,confidence_buffer,760071,confidence_buffer,,null,,,,,,,,,,,,,,,,,,
661.3000000007451,,pt2_memorable_rating,760736,US_Cities_List/mm_coeurdalene.png,,50,,,2,,,,,,,,,,,,,,,
null,,confidence_buffer,760840,confidence_buffer,,null,,,,,,,,,,,,,,,,,,
1621.0999999996275,,recognition_phase,762464,US_Cities_List/mm_coeurdalene.png,,50,,,,,,old,1,0.6410256410256411,,,,,,,,,,
null,,confidence_buffer,762568,confidence_buffer,,null,,,,,,,,,,,,,,,,,,
null,,thebreak,763070,break,,null,,,,,,,,,,,,,,,,,,
1430.4000000003725,,realistic_rating,764504,Fictional_Cities_List/img_natural_05.png,,52,Fictional_Cities_List/img_natural_05.png,NAT,4,,,,,,,,,,,,,,,
null,,confidence_buffer,764607,confidence_buffer,,null,,,,,,,,,,,,,,,,,,
541.3999999994412,,pt2_unique_rating,765152,Fictional_Cities_List/img_natural_05.png,,51,,,3,,,,,,,,,,,,,,,
null,,confidence_buffer,765256,confidence_buffer,,null,,,,,,,,,,,,,,,,,,
2540.9000000003725,,probe_rating,767800,probe_rating,,51,,,,3,1,,,,,,,,,,,,,
null,,confidence_buffer,767904,confidence_buffer,,null,,,,,,,,,,,,,,,,,,
1308.5999999996275,,pt2_memorable_rating,769216,Fictional_Cities_List/img_natural_05.png,,50,,,2,,,,,,,,,,,,,,,
null,,confidence_buffer,769321,confidence_buffer,,null,,,,,,,,,,,,,,,,,,
2212.2999999998137,,recognition_phase,771536,Fictional_Cities_List/img_natural_05.png,,51,,,,,,new,1,0.65,,,,,,,,,,
null,,confidence_buffer,771641,confidence_buffer,,null,,,,,,,,,,,,,,,,,,
null,,thebreak,772143,break,,null,,,,,,,,,,,,,,,,,,
1365.2000000001863,,realistic_rating,773512,Fictional_Cities_List/img_manmade_07.png,,52,Fictional_Cities_List/img_manmade_07.png,MM,4,,,,,,,,,,,,,,,
null,,confidence_buffer,773615,confidence_buffer,,null,,,,,,,,,,,,,,,,,,
621.3000000007451,,pt2_unique_rating,774240,Fictional_Cities_List/img_manmade_07.png,,51,,,3,,,,,,,,,,,,,,,
null,,confidence_buffer,774343,confidence_buffer,,null,,,,,,,,,,,,,,,,,,
613.8999999994412,,pt2_memorable_rating,774960,Fictional_Cities_List/img_manmade_07.png,,50,,,2,,,,,,,,,,,,,,,
null,,confidence_buffer,775063,confidence_buffer,,null,,,,,,,,,,,,,,,,,,
4727,,recognition_phase,779793,Fictional_Cities_List/img_manmade_07.png,,51,,,,,,new,1,0.6585365853658537,,,,,,,,,,
null,,confidence_buffer,779896,confidence_buffer,,null,,,,,,,,,,,,,,,,,,
null,,thebreak,780400,break,,null,,,,,,,,,,,,,,,,,,
2157.699999999255,,realistic_rating,782560,Fictional_Cities_List/img_natural_07.png,,50,Fictional_Cities_List/img_natural_07.png,NAT,2,,,,,,,,,,,,,,,
null,,confidence_buffer,782664,confidence_buffer,,null,,,,,,,,,,,,,,,,,,
372.20000000018626,,pt2_unique_rating,783040,Fictional_Cities_List/img_natural_07.png,,51,,,3,,,,,,,,,,,,,,,
null,,confidence_buffer,783143,confidence_buffer,,null,,,,,,,,,,,,,,,,,,
950.3000000007451,,pt2_memorable_rating,784096,Fictional_Cities_List/img_natural_07.png,,52,,,4,,,,,,,,,,,,,,,
null,,confidence_buffer,784200,confidence_buffer,,null,,,,,,,,,,,,,,,,,,
1748.5,,recognition_phase,785952,Fictional_Cities_List/img_natural_07.png,,49,,,,,,old,1,0.6666666666666666,,,,,,,,,,
null,,confidence_buffer,786059,confidence_buffer,,null,,,,,,,,,,,,,,,,,,
null,,thebreak,786561,break,,null,,,,,,,,,,,,,,,,,,
1563.800000000745,,realistic_rating,788128,Fictional_Cities_List/img_natural_15.png,,52,Fictional_Cities_List/img_natural_15.png,NAT,4,,,,,,,,,,,,,,,
null,,confidence_buffer,788231,confidence_buffer,,null,,,,,,,,,,,,,,,,,,
413.90000000037253,,pt2_unique_rating,788648,Fictional_Cities_List/img_natural_15.png,,51,,,3,,,,,,,,,,,,,,,
null,,confidence_buffer,788752,confidence_buffer,,null,,,,,,,,,,,,,,,,,,
636.2999999998137,,pt2_memorable_rating,789392,Fictional_Cities_List/img_natural_15.png,,50,,,2,,,,,,,,,,,,,,,
null,,confidence_buffer,789495,confidence_buffer,,null,,,,,,,,,,,,,,,,,,
1638.1000000005588,,recognition_phase,791137,Fictional_Cities_List/img_natural_15.png,,51,,,,,,new,1,0.6744186046511628,,,,,,,,,,
null,,confidence_buffer,791241,confidence_buffer,,null,,,,,,,,,,,,,,,,,,
null,,thebreak,791743,break,,null,,,,,,,,,,,,,,,,,,
1893.3999999994412,,realistic_rating,793640,US_Cities_List/nat_sitka.png,,49,US_Cities_List/nat_sitka.png,NAT,1,,,,,,,,,,,,,,,
null,,confidence_buffer,793743,confidence_buffer,,null,,,,,,,,,,,,,,,,,,
389.70000000018626,,probe_rating,794136,probe_rating,,50,,,,2,1,,,,,,,,,,,,,
null,,confidence_buffer,794239,confidence_buffer,,null,,,,,,,,,,,,,,,,,,
2461.399999999441,,pt2_unique_rating,796704,US_Cities_List/nat_sitka.png,,52,,,4,,,,,,,,,,,,,,,
null,,confidence_buffer,796806,confidence_buffer,,null,,,,,,,,,,,,,,,,,,
1774.7000000001863,,pt2_memorable_rating,798584,US_Cities_List/nat_sitka.png,,51,,,3,,,,,,,,,,,,,,,
null,,confidence_buffer,798688,confidence_buffer,,null,,,,,,,,,,,,,,,,,,
1660.2999999998137,,recognition_phase,800352,US_Cities_List/nat_sitka.png,,49,,,,,,old,1,0.6818181818181818,,,,,,,,,,
null,,confidence_buffer,800455,confidence_buffer,,null,,,,,,,,,,,,,,,,,,
null,,thebreak,800958,break,,null,,,,,,,,,,,,,,,,,,
1503,,realistic_rating,802464,US_Cities_List/nat_boulder.png,,52,US_Cities_List/nat_boulder.png,NAT,4,,,,,,,,,,,,,,,
null,,confidence_buffer,802567,confidence_buffer,,null,,,,,,,,,,,,,,,,,,
1613.2999999998137,,pt2_unique_rating,804183,US_Cities_List/nat_boulder.png,,51,,,3,,,,,,,,,,,,,,,
null,,confidence_buffer,804286,confidence_buffer,,null,,,,,,,,,,,,,,,,,,
1366.2999999998137,,pt2_memorable_rating,805656,US_Cities_List/nat_boulder.png,,50,,,2,,,,,,,,,,,,,,,
null,,confidence_buffer,805759,confidence_buffer,,null,,,,,,,,,,,,,,,,,,
2405.5999999996275,,recognition_phase,808168,US_Cities_List/nat_boulder.png,,52,,,,,,new,0,0.6666666666666666,,,,,,,,,,
null,,confidence_buffer,808271,confidence_buffer,,null,,,,,,,,,,,,,,,,,,
null,,thebreak,808773,break,,null,,,,,,,,,,,,,,,,,,
1006.5,,realistic_rating,809784,US_Cities_List/nat_coeurdalene.png,,52,US_Cities_List/nat_coeurdalene.png,NAT,4,,,,,,,,,,,,,,,
null,,confidence_buffer,809887,confidence_buffer,,null,,,,,,,,,,,,,,,,,,
509.6000000005588,,pt2_unique_rating,810400,US_Cities_List/nat_coeurdalene.png,,51,,,3,,,,,,,,,,,,,,,
null,,confidence_buffer,810503,confidence_buffer,,null,,,,,,,,,,,,,,,,,,
789.3000000007451,,pt2_memorable_rating,811296,US_Cities_List/nat_coeurdalene.png,,50,,,2,,,,,,,,,,,,,,,
null,,confidence_buffer,811399,confidence_buffer,,null,,,,,,,,,,,,,,,,,,
1678,,recognition_phase,813080,US_Cities_List/nat_coeurdalene.png,,51,,,,,,new,1,0.6739130434782609,,,,,,,,,,
null,,confidence_buffer,813183,confidence_buffer,,null,,,,,,,,,,,,,,,,,,
null,,thebreak,813686,break,,null,,,,,,,,,,,,,,,,,,
1502.7999999998137,,realistic_rating,815192,Fictional_Cities_List/img_manmade_08.png,,52,Fictional_Cities_List/img_manmade_08.png,MM,4,,,,,,,,,,,,,,,
null,,confidence_buffer,815296,confidence_buffer,,null,,,,,,,,,,,,,,,,,,
2661.5,,pt2_unique_rating,817960,Fictional_Cities_List/img_manmade_08.png,,53,,,5,,,,,,,,,,,,,,,
null,,confidence_buffer,818063,confidence_buffer,,null,,,,,,,,,,,,,,,,,,
677.6000000005588,,pt2_memorable_rating,818744,Fictional_Cities_List/img_manmade_08.png,,52,,,4,,,,,,,,,,,,,,,
null,,confidence_buffer,818847,confidence_buffer,,null,,,,,,,,,,,,,,,,,,
1965.6000000005588,,recognition_phase,820816,Fictional_Cities_List/img_manmade_08.png,,51,,,,,,new,1,0.6808510638297872,,,,,,,,,,
null,,confidence_buffer,820920,confidence_buffer,,null,,,,,,,,,,,,,,,,,,
null,,thebreak,821422,break,,null,,,,,,,,,,,,,,,,,,
2015.199999999255,,realistic_rating,823440,US_Cities_List/nat_athens.png,,49,US_Cities_List/nat_athens.png,NAT,1,,,,,,,,,,,,,,,
null,,confidence_buffer,823543,confidence_buffer,,null,,,,,,,,,,,,,,,,,,
773.2000000001863,,pt2_unique_rating,824320,US_Cities_List/nat_athens.png,,50,,,2,,,,,,,,,,,,,,,
null,,confidence_buffer,824424,confidence_buffer,,null,,,,,,,,,,,,,,,,,,
1109.1000000005588,,pt2_memorable_rating,825536,US_Cities_List/nat_athens.png,,51,,,3,,,,,,,,,,,,,,,
null,,confidence_buffer,825639,confidence_buffer,,null,,,,,,,,,,,,,,,,,,
3309.7999999998137,,recognition_phase,828952,US_Cities_List/nat_athens.png,,50,,,,,,old,0,0.6666666666666666,,,,,,,,,,
null,,confidence_buffer,829055,confidence_buffer,,null,,,,,,,,,,,,,,,,,,
null,,thebreak,829559,break,,null,,,,,,,,,,,,,,,,,,
1654.199999999255,,realistic_rating,831216,US_Cities_List/nat_hotsprings.png,,52,US_Cities_List/nat_hotsprings.png,NAT,4,,,,,,,,,,,,,,,
null,,confidence_buffer,831320,confidence_buffer,,null,,,,,,,,,,,,,,,,,,
452,,pt2_unique_rating,831776,US_Cities_List/nat_hotsprings.png,,51,,,3,,,,,,,,,,,,,,,
null,,confidence_buffer,831879,confidence_buffer,,null,,,,,,,,,,,,,,,,,,
669.9000000003725,,pt2_memorable_rating,832552,US_Cities_List/nat_hotsprings.png,,50,,,2,,,,,,,,,,,,,,,
null,,confidence_buffer,832655,confidence_buffer,,null,,,,,,,,,,,,,,,,,,
20.899999999441206,,recognition_phase,832679,US_Cities_List/nat_hotsprings.png,,50,,,,,,old,0,0.6530612244897959,,,,,,,,,,
null,,confidence_buffer,832782,confidence_buffer,,null,,,,,,,,,,,,,,,,,,
null,,thebreak,833284,break,,null,,,,,,,,,,,,,,,,,,
2062.9000000003725,,realistic_rating,835349,US_Cities_List/nat_healdsburg.png,,52,US_Cities_List/nat_healdsburg.png,NAT,4,,,,,,,,,,,,,,,
null,,confidence_buffer,835452,confidence_buffer,,null,,,,,,,,,,,,,,,,,,
687.1000000005588,,pt2_unique_rating,836141,US_Cities_List/nat_healdsburg.png,,51,,,3,,,,,,,,,,,,,,,
null,,confidence_buffer,836244,confidence_buffer,,null,,,,,,,,,,,,,,,,,,
1015.8999999994412,,pt2_memorable_rating,837261,US_Cities_List/nat_healdsburg.png,,50,,,2,,,,,,,,,,,,,,,
null,,confidence_buffer,837363,confidence_buffer,,null,,,,,,,,,,,,,,,,,,
1530.2999999998137,,probe_rating,838896,probe_rating,,49,,,,1,1,,,,,,,,,,,,,
null,,confidence_buffer,839000,confidence_buffer,,null,,,,,,,,,,,,,,,,,,
2452.7000000001863,,recognition_phase,841456,US_Cities_List/nat_healdsburg.png,,51,,,,,,new,0,0.64,,,,,,,,,,
null,,confidence_buffer,841560,confidence_buffer,,null,,,,,,,,,,,,,,,,,,
null,,thebreak,842062,break,,null,,,,,,,,,,,,,,,,,,
1630.4000000003725,,realistic_rating,843696,Fictional_Cities_List/img_manmade_13.png,,52,Fictional_Cities_List/img_manmade_13.png,MM,4,,,,,,,,,,,,,,,
null,,confidence_buffer,843799,confidence_buffer,,null,,,,,,,,,,,,,,,,,,
333.20000000018626,,pt2_unique_rating,844136,Fictional_Cities_List/img_manmade_13.png,,51,,,3,,,,,,,,,,,,,,,
null,,confidence_buffer,844239,confidence_buffer,,null,,,,,,,,,,,,,,,,,,
493.29999999981374,,pt2_memorable_rating,844736,Fictional_Cities_List/img_manmade_13.png,,50,,,2,,,,,,,,,,,,,,,
null,,confidence_buffer,844839,confidence_buffer,,null,,,,,,,,,,,,,,,,,,
1555.4000000003725,,recognition_phase,846397,Fictional_Cities_List/img_manmade_13.png,,51,,,,,,new,1,0.6470588235294118,,,,,,,,,,
null,,confidence_buffer,846500,confidence_buffer,,null,,,,,,,,,,,,,,,,,,
null,,thebreak,847002,break,,null,,,,,,,,,,,,,,,,,,
1097.300000000745,,realistic_rating,848101,US_Cities_List/mm_delawarecity.png,,52,US_Cities_List/mm_delawarecity.png,MM,4,,,,,,,,,,,,,,,
null,,confidence_buffer,848203,confidence_buffer,,null,,,,,,,,,,,,,,,,,,
344.79999999981374,,pt2_unique_rating,848549,US_Cities_List/mm_delawarecity.png,,51,,,3,,,,,,,,,,,,,,,
null,,confidence_buffer,848652,confidence_buffer,,null,,,,,,,,,,,,,,,,,,
608.7000000001863,,pt2_memorable_rating,849264,US_Cities_List/mm_delawarecity.png,,50,,,2,,,,,,,,,,,,,,,
null,,confidence_buffer,849367,confidence_buffer,,null,,,,,,,,,,,,,,,,,,
1363.800000000745,,recognition_phase,850733,US_Cities_List/mm_delawarecity.png,,52,,,,,,new,0,0.6346153846153846,,,,,,,,,,
null,,confidence_buffer,850835,confidence_buffer,,null,,,,,,,,,,,,,,,,,,
null,,thebreak,851345,break,,null,,,,,,,,,,,,,,,,,,
1148.1000000005588,,realistic_rating,852496,Fictional_Cities_List/img_manmade_02.png,,51,Fictional_Cities_List/img_manmade_02.png,MM,3,,,,,,,,,,,,,,,
null,,confidence_buffer,852599,confidence_buffer,,null,,,,,,,,,,,,,,,,,,
413.70000000018626,,pt2_unique_rating,853016,Fictional_Cities_List/img_manmade_02.png,,50,,,2,,,,,,,,,,,,,,,
null,,confidence_buffer,853120,confidence_buffer,,null,,,,,,,,,,,,,,,,,,
765.1999999992549,,pt2_memorable_rating,853888,Fictional_Cities_List/img_manmade_02.png,,52,,,4,,,,,,,,,,,,,,,
null,,confidence_buffer,853992,confidence_buffer,,null,,,,,,,,,,,,,,,,,,
1898.9000000003725,,recognition_phase,855896,Fictional_Cities_List/img_manmade_02.png,,51,,,,,,new,1,0.6415094339622641,,,,,,,,,,
null,,confidence_buffer,855999,confidence_buffer,,null,,,,,,,,,,,,,,,,,,
null,,thebreak,856501,break,,null,,,,,,,,,,,,,,,,,,
1376.300000000745,,realistic_rating,857880,US_Cities_List/mm_bisbee.png,,52,US_Cities_List/mm_bisbee.png,MM,4,,,,,,,,,,,,,,,
null,,confidence_buffer,857985,confidence_buffer,,null,,,,,,,,,,,,,,,,,,
291.29999999981374,,pt2_unique_rating,858280,US_Cities_List/mm_bisbee.png,,51,,,3,,,,,,,,,,,,,,,
null,,confidence_buffer,858383,confidence_buffer,,null,,,,,,,,,,,,,,,,,,
813.4000000003725,,pt2_memorable_rating,859200,US_Cities_List/mm_bisbee.png,,50,,,2,,,,,,,,,,,,,,,
null,,confidence_buffer,859304,confidence_buffer,,null,,,,,,,,,,,,,,,,,,
6901.0999999996275,,recognition_phase,866209,US_Cities_List/mm_bisbee.png,,51,,,,,,new,1,0.6481481481481481,,,,,,,,,,
null,,confidence_buffer,866312,confidence_buffer,,null,,,,,,,,,,,,,,,,,,
null,,thebreak,866814,break,,null,,,,,,,,,,,,,,,,,,
1502.2999999998137,,realistic_rating,868320,US_Cities_List/mm_abilene.png,,51,US_Cities_List/mm_abilene.png,MM,3,,,,,,,,,,,,,,,
null,,confidence_buffer,868423,confidence_buffer,,null,,,,,,,,,,,,,,,,,,
981.3000000007451,,pt2_unique_rating,869408,US_Cities_List/mm_abilene.png,,50,,,2,,,,,,,,,,,,,,,
null,,confidence_buffer,869511,confidence_buffer,,null,,,,,,,,,,,,,,,,,,
925.5999999996275,,pt2_memorable_rating,870440,US_Cities_List/mm_abilene.png,,51,,,3,,,,,,,,,,,,,,,
null,,confidence_buffer,870543,confidence_buffer,,null,,,,,,,,,,,,,,,,,,
1750.0999999996275,,recognition_phase,872297,US_Cities_List/mm_abilene.png,,52,,,,,,new,0,0.6363636363636364,,,,,,,,,,
null,,confidence_buffer,872401,confidence_buffer,,null,,,,,,,,,,,,,,,,,,
null,,thebreak,872903,break,,null,,,,,,,,,,,,,,,,,,
2413.7999999998137,,realistic_rating,875320,Fictional_Cities_List/img_natural_02.png,,52,Fictional_Cities_List/img_natural_02.png,NAT,4,,,,,,,,,,,,,,,
null,,confidence_buffer,875423,confidence_buffer,,null,,,,,,,,,,,,,,,,,,
501.40000000037253,,pt2_unique_rating,875928,Fictional_Cities_List/img_natural_02.png,,51,,,3,,,,,,,,,,,,,,,
null,,confidence_buffer,876031,confidence_buffer,,null,,,,,,,,,,,,,,,,,,
925.8000000007451,,pt2_memorable_rating,876960,Fictional_Cities_List/img_natural_02.png,,50,,,2,,,,,,,,,,,,,,,
null,,confidence_buffer,877063,confidence_buffer,,null,,,,,,,,,,,,,,,,,,
1901.5,,recognition_phase,878968,Fictional_Cities_List/img_natural_02.png,,49,,,,,,old,1,0.6428571428571429,,,,,,,,,,
null,,confidence_buffer,879072,confidence_buffer,,null,,,,,,,,,,,,,,,,,,
null,,thebreak,879574,break,,null,,,,,,,,,,,,,,,,,,
2150.4000000003725,,realistic_rating,881728,US_Cities_List/mm_peoria.png,,53,US_Cities_List/mm_peoria.png,MM,5,,,,,,,,,,,,,,,
null,,confidence_buffer,881830,confidence_buffer,,null,,,,,,,,,,,,,,,,,,
415,,pt2_unique_rating,882248,US_Cities_List/mm_peoria.png,,52,,,4,,,,,,,,,,,,,,,
null,,confidence_buffer,882352,confidence_buffer,,null,,,,,,,,,,,,,,,,,,
460.40000000037253,,pt2_memorable_rating,882816,US_Cities_List/mm_peoria.png,,51,,,3,,,,,,,,,,,,,,,
null,,confidence_buffer,882919,confidence_buffer,,null,,,,,,,,,,,,,,,,,,
1789.7999999998137,,probe_rating,884712,probe_rating,,53,,,,5,1,,,,,,,,,,,,,
null,,confidence_buffer,884816,confidence_buffer,,null,,,,,,,,,,,,,,,,,,
1364.5,,recognition_phase,886184,US_Cities_List/mm_peoria.png,,50,,,,,,old,0,0.631578947368421,,,,,,,,,,
null,,confidence_buffer,886288,confidence_buffer,,null,,,,,,,,,,,,,,,,,,
null,,thebreak,886791,break,,null,,,,,,,,,,,,,,,,,,
1422,,realistic_rating,888216,US_Cities_List/mm_healdsburg.png,,53,US_Cities_List/mm_healdsburg.png,MM,5,,,,,,,,,,,,,,,
null,,confidence_buffer,888319,confidence_buffer,,null,,,,,,,,,,,,,,,,,,
957.2999999998137,,pt2_unique_rating,889280,US_Cities_List/mm_healdsburg.png,,52,,,4,,,,,,,,,,,,,,,
null,,confidence_buffer,889384,confidence_buffer,,null,,,,,,,,,,,,,,,,,,
453.20000000018626,,pt2_memorable_rating,889840,US_Cities_List/mm_healdsburg.png,,51,,,3,,,,,,,,,,,,,,,
null,,confidence_buffer,889943,confidence_buffer,,null,,,,,,,,,,,,,,,,,,
1837.3999999994412,,recognition_phase,891784,US_Cities_List/mm_healdsburg.png,,51,,,,,,new,1,0.6379310344827587,,,,,,,,,,
null,,confidence_buffer,891887,confidence_buffer,,null,,,,,,,,,,,,,,,,,,
null,,thebreak,892390,break,,null,,,,,,,,,,,,,,,,,,
1766.8999999994412,,realistic_rating,894160,Fictional_Cities_List/img_natural_12.png,,52,Fictional_Cities_List/img_natural_12.png,NAT,4,,,,,,,,,,,,,,,
null,,confidence_buffer,894263,confidence_buffer,,null,,,,,,,,,,,,,,,,,,
764.1000000005588,,pt2_unique_rating,895030,Fictional_Cities_List/img_natural_12.png,,51,,,3,,,,,,,,,,,,,,,
null,,confidence_buffer,895133,confidence_buffer,,null,,,,,,,,,,,,,,,,,,
1456.7999999998137,,pt2_memorable_rating,896592,Fictional_Cities_List/img_natural_12.png,,50,,,2,,,,,,,,,,,,,,,
null,,confidence_buffer,896695,confidence_buffer,,null,,,,,,,,,,,,,,,,,,
2341.5999999996275,,recognition_phase,899040,Fictional_Cities_List/img_natural_12.png,,51,,,,,,new,0,0.6271186440677966,,,,,,,,,,
null,,confidence_buffer,899143,confidence_buffer,,null,,,,,,,,,,,,,,,,,,
null,,thebreak,899645,break,,null,,,,,,,,,,,,,,,,,,
1959.7000000001863,,realistic_rating,901608,US_Cities_List/mm_westpalmbeach.png,,52,US_Cities_List/mm_westpalmbeach.png,MM,4,,,,,,,,,,,,,,,
null,,confidence_buffer,901712,confidence_buffer,,null,,,,,,,,,,,,,,,,,,
436.20000000018626,,pt2_unique_rating,902152,US_Cities_List/mm_westpalmbeach.png,,51,,,3,,,,,,,,,,,,,,,
null,,confidence_buffer,902255,confidence_buffer,,null,,,,,,,,,,,,,,,,,,
2909.5999999996275,,pt2_memorable_rating,905168,US_Cities_List/mm_westpalmbeach.png,,50,,,2,,,,,,,,,,,,,,,
null,,confidence_buffer,905271,confidence_buffer,,null,,,,,,,,,,,,,,,,,,
1661.7999999998137,,probe_rating,906936,probe_rating,,53,,,,5,1,,,,,,,,,,,,,
null,,confidence_buffer,907039,confidence_buffer,,null,,,,,,,,,,,,,,,,,,
1725.7999999998137,,recognition_phase,908768,US_Cities_List/mm_westpalmbeach.png,,51,,,,,,new,0,0.6166666666666667,,,,,,,,,,
null,,confidence_buffer,908871,confidence_buffer,,null,,,,,,,,,,,,,,,,,,
null,,thebreak,909374,break,,null,,,,,,,,,,,,,,,,,,
,,survey,1061795,survey-questions,,,,,,,,,,,none,high,No,Looking for unique characteristics,Ever seen somewhere,Easy to recall ,Distinguished from the rest,Look like a photo of something or a place,No,No
