rt,responses,trial_type,time_elapsed,stimulus,button_pressed,key_press,name_trial,city_type,rating,probe,probe_accuracy,response,correct,accuracy,problems,smooth,distraction,strategies,familiar,memorable,unique,realistic,similar,comments
28208.100000023842,{worker_id:67e40818e4a6389771297ab6},id_enter,28217,,,,,,,,,,,,,,,,,,,,,
15021.399999976158,,fullscreen,43249,fullscreen,0,,,,,,,,,,,,,,,,,,,
6780,,intro_0,50033,instruct,,32,,,,,,,,,,,,,,,,,,
6195.700000047684,,intro_1,56231,instruct,,32,,,,,,,,,,,,,,,,,,
8855.5,,intro_2,65088,instruct,,32,,,,,,,,,,,,,,,,,,
null,,instruct_dir_4,66594,instruct,,null,,,,,,,,,,,,,,,,,,
null,,thebreak,67111,break,,null,,,,,,,,,,,,,,,,,,
7751.300000071526,,familiar_rating,74864,US_Cities_List/mm_cornwall.png,,50,US_Cities_List/mm_cornwall.png,MM,2,,,,,,,,,,,,,,,
null,,confidence_buffer,74970,confidence_buffer,,null,,,,,,,,,,,,,,,,,,
8592.100000023842,,unique_rating,83564,US_Cities_List/mm_cornwall.png,,52,,,4,,,,,,,,,,,,,,,
null,,confidence_buffer,83667,confidence_buffer,,null,,,,,,,,,,,,,,,,,,
9218.399999976158,,memorable_rating,92887,US_Cities_List/mm_cornwall.png,,51,,,3,,,,,,,,,,,,,,,
null,,confidence_buffer,92991,confidence_buffer,,null,,,,,,,,,,,,,,,,,,
null,,thebreak,93495,break,,null,,,,,,,,,,,,,,,,,,
9005,,familiar_rating,102502,US_Cities_List/mm_sitka.png,,49,US_Cities_List/mm_sitka.png,MM,1,,,,,,,,,,,,,,,
null,,confidence_buffer,102605,confidence_buffer,,null,,,,,,,,,,,,,,,,,,
4646,,unique_rating,107253,US_Cities_List/mm_sitka.png,,50,,,2,,,,,,,,,,,,,,,
null,,confidence_buffer,107358,confidence_buffer,,null,,,,,,,,,,,,,,,,,,
6087.300000071526,,memorable_rating,113447,US_Cities_List/mm_sitka.png,,51,,,3,,,,,,,,,,,,,,,
null,,confidence_buffer,113554,confidence_buffer,,null,,,,,,,,,,,,,,,,,,
null,,thebreak,114062,break,,null,,,,,,,,,,,,,,,,,,
26934.299999952316,,familiar_rating,140997,Fictional_Cities_List/img_manmade_05.png,,49,Fictional_Cities_List/img_manmade_05.png,MM,1,,,,,,,,,,,,,,,
null,,confidence_buffer,141110,confidence_buffer,,null,,,,,,,,,,,,,,,,,,
3711.7000000476837,,unique_rating,144824,Fictional_Cities_List/img_manmade_05.png,,50,,,2,,,,,,,,,,,,,,,
null,,confidence_buffer,144936,confidence_buffer,,null,,,,,,,,,,,,,,,,,,
3236.399999976158,,memorable_rating,148175,Fictional_Cities_List/img_manmade_05.png,,50,,,2,,,,,,,,,,,,,,,
null,,confidence_buffer,148282,confidence_buffer,,null,,,,,,,,,,,,,,,,,,
null,,thebreak,148793,break,,null,,,,,,,,,,,,,,,,,,
5473,,familiar_rating,154267,US_Cities_List/mm_boulder.png,,51,US_Cities_List/mm_boulder.png,MM,3,,,,,,,,,,,,,,,
null,,confidence_buffer,154384,confidence_buffer,,null,,,,,,,,,,,,,,,,,,
12086.299999952316,,unique_rating,166472,US_Cities_List/mm_boulder.png,,53,,,5,,,,,,,,,,,,,,,
null,,confidence_buffer,166582,confidence_buffer,,null,,,,,,,,,,,,,,,,,,
6986.5,,memorable_rating,173570,US_Cities_List/mm_boulder.png,,53,,,5,,,,,,,,,,,,,,,
null,,confidence_buffer,173678,confidence_buffer,,null,,,,,,,,,,,,,,,,,,
6718.600000023842,,probe_rating,180398,probe_rating,,49,,,,1,1,,,,,,,,,,,,,
null,,confidence_buffer,180507,confidence_buffer,,null,,,,,,,,,,,,,,,,,,
null,,thebreak,181019,break,,null,,,,,,,,,,,,,,,,,,
6713,,familiar_rating,187734,Fictional_Cities_List/img_natural_15.png,,49,Fictional_Cities_List/img_natural_15.png,NAT,1,,,,,,,,,,,,,,,
null,,confidence_buffer,187840,confidence_buffer,,null,,,,,,,,,,,,,,,,,,
6108.200000047684,,unique_rating,193950,Fictional_Cities_List/img_natural_15.png,,51,,,3,,,,,,,,,,,,,,,
null,,confidence_buffer,194056,confidence_buffer,,null,,,,,,,,,,,,,,,,,,
5665.600000023842,,memorable_rating,199724,Fictional_Cities_List/img_natural_15.png,,50,,,2,,,,,,,,,,,,,,,
null,,confidence_buffer,199833,confidence_buffer,,null,,,,,,,,,,,,,,,,,,
2833.7999999523163,,probe_rating,202669,probe_rating,,51,,,,3,1,,,,,,,,,,,,,
null,,confidence_buffer,202773,confidence_buffer,,null,,,,,,,,,,,,,,,,,,
null,,thebreak,203283,break,,null,,,,,,,,,,,,,,,,,,
5059,,familiar_rating,208344,US_Cities_List/nat_healdsburg.png,,53,US_Cities_List/nat_healdsburg.png,NAT,5,,,,,,,,,,,,,,,
null,,confidence_buffer,208455,confidence_buffer,,null,,,,,,,,,,,,,,,,,,
3474.899999976158,,probe_rating,211932,probe_rating,,52,,,,4,1,,,,,,,,,,,,,
null,,confidence_buffer,212042,confidence_buffer,,null,,,,,,,,,,,,,,,,,,
8698.699999928474,,unique_rating,220743,US_Cities_List/nat_healdsburg.png,,51,,,3,,,,,,,,,,,,,,,
null,,confidence_buffer,220856,confidence_buffer,,null,,,,,,,,,,,,,,,,,,
5922.900000095367,,memorable_rating,226781,US_Cities_List/nat_healdsburg.png,,52,,,4,,,,,,,,,,,,,,,
null,,confidence_buffer,226885,confidence_buffer,,null,,,,,,,,,,,,,,,,,,
null,,thebreak,227388,break,,null,,,,,,,,,,,,,,,,,,
10484.100000023842,,familiar_rating,237873,Fictional_Cities_List/img_natural_02.png,,50,Fictional_Cities_List/img_natural_02.png,NAT,2,,,,,,,,,,,,,,,
null,,confidence_buffer,237979,confidence_buffer,,null,,,,,,,,,,,,,,,,,,
5212.799999952316,,unique_rating,243194,Fictional_Cities_List/img_natural_02.png,,51,,,3,,,,,,,,,,,,,,,
null,,confidence_buffer,243299,confidence_buffer,,null,,,,,,,,,,,,,,,,,,
3494.5999999046326,,memorable_rating,246795,Fictional_Cities_List/img_natural_02.png,,51,,,3,,,,,,,,,,,,,,,
null,,confidence_buffer,246906,confidence_buffer,,null,,,,,,,,,,,,,,,,,,
null,,thebreak,247416,break,,null,,,,,,,,,,,,,,,,,,
8319.600000023842,,familiar_rating,255738,Fictional_Cities_List/img_manmade_08.png,,50,Fictional_Cities_List/img_manmade_08.png,MM,2,,,,,,,,,,,,,,,
null,,confidence_buffer,255845,confidence_buffer,,null,,,,,,,,,,,,,,,,,,
4503.700000047684,,unique_rating,260350,Fictional_Cities_List/img_manmade_08.png,,51,,,3,,,,,,,,,,,,,,,
null,,confidence_buffer,260454,confidence_buffer,,null,,,,,,,,,,,,,,,,,,
2623.5,,memorable_rating,263079,Fictional_Cities_List/img_manmade_08.png,,51,,,3,,,,,,,,,,,,,,,
null,,confidence_buffer,263189,confidence_buffer,,null,,,,,,,,,,,,,,,,,,
4835.600000023842,,probe_rating,268026,probe_rating,,50,,,,2,1,,,,,,,,,,,,,
null,,confidence_buffer,268131,confidence_buffer,,null,,,,,,,,,,,,,,,,,,
null,,thebreak,268641,break,,null,,,,,,,,,,,,,,,,,,
7939.399999976158,,familiar_rating,276582,US_Cities_List/nat_westpalmbeach.png,,50,US_Cities_List/nat_westpalmbeach.png,NAT,2,,,,,,,,,,,,,,,
null,,confidence_buffer,276684,confidence_buffer,,null,,,,,,,,,,,,,,,,,,
5714.100000023842,,unique_rating,282400,US_Cities_List/nat_westpalmbeach.png,,50,,,2,,,,,,,,,,,,,,,
null,,confidence_buffer,282514,confidence_buffer,,null,,,,,,,,,,,,,,,,,,
1686.4000000953674,,memorable_rating,284202,US_Cities_List/nat_westpalmbeach.png,,50,,,2,,,,,,,,,,,,,,,
null,,confidence_buffer,284311,confidence_buffer,,null,,,,,,,,,,,,,,,,,,
null,,thebreak,284821,break,,null,,,,,,,,,,,,,,,,,,
5611.200000047684,,familiar_rating,290434,US_Cities_List/mm_peoria.png,,50,US_Cities_List/mm_peoria.png,MM,2,,,,,,,,,,,,,,,
null,,confidence_buffer,290545,confidence_buffer,,null,,,,,,,,,,,,,,,,,,
3998.399999976158,,unique_rating,294546,US_Cities_List/mm_peoria.png,,51,,,3,,,,,,,,,,,,,,,
null,,confidence_buffer,294654,confidence_buffer,,null,,,,,,,,,,,,,,,,,,
2581.8000000715256,,memorable_rating,297238,US_Cities_List/mm_peoria.png,,51,,,3,,,,,,,,,,,,,,,
null,,confidence_buffer,297348,confidence_buffer,,null,,,,,,,,,,,,,,,,,,
null,,thebreak,297855,break,,null,,,,,,,,,,,,,,,,,,
4116.699999928474,,familiar_rating,301973,Fictional_Cities_List/img_manmade_13.png,,50,Fictional_Cities_List/img_manmade_13.png,MM,2,,,,,,,,,,,,,,,
null,,confidence_buffer,302078,confidence_buffer,,null,,,,,,,,,,,,,,,,,,
3313.399999976158,,unique_rating,305394,Fictional_Cities_List/img_manmade_13.png,,52,,,4,,,,,,,,,,,,,,,
null,,confidence_buffer,305499,confidence_buffer,,null,,,,,,,,,,,,,,,,,,
5050.400000095367,,memorable_rating,310551,Fictional_Cities_List/img_manmade_13.png,,51,,,3,,,,,,,,,,,,,,,
null,,confidence_buffer,310661,confidence_buffer,,null,,,,,,,,,,,,,,,,,,
null,,thebreak,311164,break,,null,,,,,,,,,,,,,,,,,,
3435.399999976158,,familiar_rating,314601,US_Cities_List/nat_hotsprings.png,,52,US_Cities_List/nat_hotsprings.png,NAT,4,,,,,,,,,,,,,,,
null,,confidence_buffer,314712,confidence_buffer,,null,,,,,,,,,,,,,,,,,,
3107.6999999284744,,unique_rating,317822,US_Cities_List/nat_hotsprings.png,,51,,,3,,,,,,,,,,,,,,,
null,,confidence_buffer,317942,confidence_buffer,,null,,,,,,,,,,,,,,,,,,
2908,,memorable_rating,320852,US_Cities_List/nat_hotsprings.png,,53,,,5,,,,,,,,,,,,,,,
null,,confidence_buffer,320962,confidence_buffer,,null,,,,,,,,,,,,,,,,,,
null,,thebreak,321469,break,,null,,,,,,,,,,,,,,,,,,
22956.300000071526,,familiar_rating,344428,Fictional_Cities_List/img_manmade_11.png,,51,Fictional_Cities_List/img_manmade_11.png,MM,3,,,,,,,,,,,,,,,
null,,confidence_buffer,344535,confidence_buffer,,null,,,,,,,,,,,,,,,,,,
3609.2999999523163,,unique_rating,348146,Fictional_Cities_List/img_manmade_11.png,,52,,,4,,,,,,,,,,,,,,,
null,,confidence_buffer,348257,confidence_buffer,,null,,,,,,,,,,,,,,,,,,
3265.600000023842,,memorable_rating,351524,Fictional_Cities_List/img_manmade_11.png,,51,,,3,,,,,,,,,,,,,,,
null,,confidence_buffer,351629,confidence_buffer,,null,,,,,,,,,,,,,,,,,,
null,,thebreak,352140,break,,null,,,,,,,,,,,,,,,,,,
4608.100000023842,,familiar_rating,356749,Fictional_Cities_List/img_natural_12.png,,49,Fictional_Cities_List/img_natural_12.png,NAT,1,,,,,,,,,,,,,,,
null,,confidence_buffer,356855,confidence_buffer,,null,,,,,,,,,,,,,,,,,,
7461.700000047684,,unique_rating,364319,Fictional_Cities_List/img_natural_12.png,,50,,,2,,,,,,,,,,,,,,,
null,,confidence_buffer,364424,confidence_buffer,,null,,,,,,,,,,,,,,,,,,
1530.7000000476837,,memorable_rating,365956,Fictional_Cities_List/img_natural_12.png,,50,,,2,,,,,,,,,,,,,,,
null,,confidence_buffer,366063,confidence_buffer,,null,,,,,,,,,,,,,,,,,,
null,,thebreak,366571,break,,null,,,,,,,,,,,,,,,,,,
7799,,familiar_rating,374372,US_Cities_List/mm_abilene.png,,50,US_Cities_List/mm_abilene.png,MM,2,,,,,,,,,,,,,,,
null,,confidence_buffer,374475,confidence_buffer,,null,,,,,,,,,,,,,,,,,,
3292.7999999523163,,unique_rating,377770,US_Cities_List/mm_abilene.png,,51,,,3,,,,,,,,,,,,,,,
null,,confidence_buffer,377872,confidence_buffer,,null,,,,,,,,,,,,,,,,,,
7744.700000047684,,memorable_rating,385619,US_Cities_List/mm_abilene.png,,51,,,3,,,,,,,,,,,,,,,
null,,confidence_buffer,385724,confidence_buffer,,null,,,,,,,,,,,,,,,,,,
null,,thebreak,386231,break,,null,,,,,,,,,,,,,,,,,,
5728.600000023842,,familiar_rating,391961,US_Cities_List/mm_okoboji.png,,50,US_Cities_List/mm_okoboji.png,MM,2,,,,,,,,,,,,,,,
null,,confidence_buffer,392071,confidence_buffer,,null,,,,,,,,,,,,,,,,,,
132.10000002384186,,unique_rating,392204,US_Cities_List/mm_okoboji.png,,50,,,2,,,,,,,,,,,,,,,
null,,confidence_buffer,392310,confidence_buffer,,null,,,,,,,,,,,,,,,,,,
5362.399999976158,,memorable_rating,397674,US_Cities_List/mm_okoboji.png,,50,,,2,,,,,,,,,,,,,,,
null,,confidence_buffer,397780,confidence_buffer,,null,,,,,,,,,,,,,,,,,,
null,,thebreak,398286,break,,null,,,,,,,,,,,,,,,,,,
6660.5,,familiar_rating,404949,US_Cities_List/nat_peoria.png,,51,US_Cities_List/nat_peoria.png,NAT,3,,,,,,,,,,,,,,,
null,,confidence_buffer,405059,confidence_buffer,,null,,,,,,,,,,,,,,,,,,
5472.400000095367,,unique_rating,410533,US_Cities_List/nat_peoria.png,,51,,,3,,,,,,,,,,,,,,,
null,,confidence_buffer,410635,confidence_buffer,,null,,,,,,,,,,,,,,,,,,
3554,,memorable_rating,414191,US_Cities_List/nat_peoria.png,,52,,,4,,,,,,,,,,,,,,,
null,,confidence_buffer,414300,confidence_buffer,,null,,,,,,,,,,,,,,,,,,
null,,thebreak,414810,break,,null,,,,,,,,,,,,,,,,,,
6474.5,,familiar_rating,421286,Fictional_Cities_List/img_manmade_03.png,,50,Fictional_Cities_List/img_manmade_03.png,MM,2,,,,,,,,,,,,,,,
null,,confidence_buffer,421400,confidence_buffer,,null,,,,,,,,,,,,,,,,,,
4557.599999904633,,unique_rating,425959,Fictional_Cities_List/img_manmade_03.png,,51,,,3,,,,,,,,,,,,,,,
null,,confidence_buffer,426070,confidence_buffer,,null,,,,,,,,,,,,,,,,,,
2749.6999999284744,,memorable_rating,428822,Fictional_Cities_List/img_manmade_03.png,,51,,,3,,,,,,,,,,,,,,,
null,,confidence_buffer,428927,confidence_buffer,,null,,,,,,,,,,,,,,,,,,
null,,thebreak,429432,break,,null,,,,,,,,,,,,,,,,,,
4941.700000047684,,familiar_rating,434375,Fictional_Cities_List/img_natural_09.png,,50,Fictional_Cities_List/img_natural_09.png,NAT,2,,,,,,,,,,,,,,,
null,,confidence_buffer,434493,confidence_buffer,,null,,,,,,,,,,,,,,,,,,
6018.099999904633,,unique_rating,440513,Fictional_Cities_List/img_natural_09.png,,51,,,3,,,,,,,,,,,,,,,
null,,confidence_buffer,440616,confidence_buffer,,null,,,,,,,,,,,,,,,,,,
3065.7000000476837,,memorable_rating,443683,Fictional_Cities_List/img_natural_09.png,,52,,,4,,,,,,,,,,,,,,,
null,,confidence_buffer,443788,confidence_buffer,,null,,,,,,,,,,,,,,,,,,
3703,,probe_rating,447492,probe_rating,,53,,,,5,1,,,,,,,,,,,,,
null,,confidence_buffer,447603,confidence_buffer,,null,,,,,,,,,,,,,,,,,,
null,,thebreak,448115,break,,null,,,,,,,,,,,,,,,,,,
4373.399999976158,,familiar_rating,452492,Fictional_Cities_List/img_natural_07.png,,51,Fictional_Cities_List/img_natural_07.png,NAT,3,,,,,,,,,,,,,,,
null,,confidence_buffer,452596,confidence_buffer,,null,,,,,,,,,,,,,,,,,,
3966.7999999523163,,unique_rating,456565,Fictional_Cities_List/img_natural_07.png,,52,,,4,,,,,,,,,,,,,,,
null,,confidence_buffer,456682,confidence_buffer,,null,,,,,,,,,,,,,,,,,,
3506.399999976158,,memorable_rating,460190,Fictional_Cities_List/img_natural_07.png,,52,,,4,,,,,,,,,,,,,,,
null,,confidence_buffer,460298,confidence_buffer,,null,,,,,,,,,,,,,,,,,,
null,,thebreak,460815,break,,null,,,,,,,,,,,,,,,,,,
5876.5,,familiar_rating,466693,Fictional_Cities_List/img_natural_10.png,,49,Fictional_Cities_List/img_natural_10.png,NAT,1,,,,,,,,,,,,,,,
null,,confidence_buffer,466797,confidence_buffer,,null,,,,,,,,,,,,,,,,,,
2217.399999976158,,unique_rating,469017,Fictional_Cities_List/img_natural_10.png,,50,,,2,,,,,,,,,,,,,,,
null,,confidence_buffer,469127,confidence_buffer,,null,,,,,,,,,,,,,,,,,,
1690.3000000715256,,memorable_rating,470819,Fictional_Cities_List/img_natural_10.png,,51,,,3,,,,,,,,,,,,,,,
null,,confidence_buffer,470922,confidence_buffer,,null,,,,,,,,,,,,,,,,,,
null,,thebreak,471425,break,,null,,,,,,,,,,,,,,,,,,
13181.5,,familiar_rating,484609,Fictional_Cities_List/img_manmade_15.png,,50,Fictional_Cities_List/img_manmade_15.png,MM,2,,,,,,,,,,,,,,,
null,,confidence_buffer,484715,confidence_buffer,,null,,,,,,,,,,,,,,,,,,
3362,,unique_rating,488079,Fictional_Cities_List/img_manmade_15.png,,51,,,3,,,,,,,,,,,,,,,
null,,confidence_buffer,488185,confidence_buffer,,null,,,,,,,,,,,,,,,,,,
8065.5,,memorable_rating,496253,Fictional_Cities_List/img_manmade_15.png,,51,,,3,,,,,,,,,,,,,,,
null,,confidence_buffer,496361,confidence_buffer,,null,,,,,,,,,,,,,,,,,,
null,,thebreak,496864,break,,null,,,,,,,,,,,,,,,,,,
12567.299999952316,,familiar_rating,509434,US_Cities_List/mm_carmel.png,,51,US_Cities_List/mm_carmel.png,MM,3,,,,,,,,,,,,,,,
null,,confidence_buffer,509537,confidence_buffer,,null,,,,,,,,,,,,,,,,,,
3984.5,,unique_rating,513523,US_Cities_List/mm_carmel.png,,51,,,3,,,,,,,,,,,,,,,
null,,confidence_buffer,513631,confidence_buffer,,null,,,,,,,,,,,,,,,,,,
3251.100000023842,,memorable_rating,516884,US_Cities_List/mm_carmel.png,,51,,,3,,,,,,,,,,,,,,,
null,,confidence_buffer,516989,confidence_buffer,,null,,,,,,,,,,,,,,,,,,
null,,thebreak,517491,break,,null,,,,,,,,,,,,,,,,,,
10446.299999952316,,familiar_rating,527938,Fictional_Cities_List/img_natural_05.png,,51,Fictional_Cities_List/img_natural_05.png,NAT,3,,,,,,,,,,,,,,,
null,,confidence_buffer,528051,confidence_buffer,,null,,,,,,,,,,,,,,,,,,
3830.399999976158,,unique_rating,531883,Fictional_Cities_List/img_natural_05.png,,50,,,2,,,,,,,,,,,,,,,
null,,confidence_buffer,531993,confidence_buffer,,null,,,,,,,,,,,,,,,,,,
3329,,memorable_rating,535324,Fictional_Cities_List/img_natural_05.png,,51,,,3,,,,,,,,,,,,,,,
null,,confidence_buffer,535436,confidence_buffer,,null,,,,,,,,,,,,,,,,,,
null,,thebreak,535953,break,,null,,,,,,,,,,,,,,,,,,
8267.299999952316,,familiar_rating,544222,Fictional_Cities_List/img_manmade_12.png,,51,Fictional_Cities_List/img_manmade_12.png,MM,3,,,,,,,,,,,,,,,
null,,confidence_buffer,544328,confidence_buffer,,null,,,,,,,,,,,,,,,,,,
7305.299999952316,,unique_rating,551635,Fictional_Cities_List/img_manmade_12.png,,51,,,3,,,,,,,,,,,,,,,
null,,confidence_buffer,551750,confidence_buffer,,null,,,,,,,,,,,,,,,,,,
3594.899999976158,,probe_rating,555347,probe_rating,,49,,,,1,1,,,,,,,,,,,,,
null,,confidence_buffer,555459,confidence_buffer,,null,,,,,,,,,,,,,,,,,,
4442.399999976158,,memorable_rating,559904,Fictional_Cities_List/img_manmade_12.png,,52,,,4,,,,,,,,,,,,,,,
null,,confidence_buffer,560009,confidence_buffer,,null,,,,,,,,,,,,,,,,,,
null,,thebreak,560519,break,,null,,,,,,,,,,,,,,,,,,
6742.100000023842,,familiar_rating,567263,US_Cities_List/nat_abilene.png,,50,US_Cities_List/nat_abilene.png,NAT,2,,,,,,,,,,,,,,,
null,,confidence_buffer,567373,confidence_buffer,,null,,,,,,,,,,,,,,,,,,
3976.5,,unique_rating,571351,US_Cities_List/nat_abilene.png,,51,,,3,,,,,,,,,,,,,,,
null,,confidence_buffer,571456,confidence_buffer,,null,,,,,,,,,,,,,,,,,,
1954.5,,memorable_rating,573412,US_Cities_List/nat_abilene.png,,51,,,3,,,,,,,,,,,,,,,
null,,confidence_buffer,573520,confidence_buffer,,null,,,,,,,,,,,,,,,,,,
null,,thebreak,574030,break,,null,,,,,,,,,,,,,,,,,,
6806.5,,familiar_rating,580839,US_Cities_List/nat_cornwall.png,,51,US_Cities_List/nat_cornwall.png,NAT,3,,,,,,,,,,,,,,,
null,,confidence_buffer,580947,confidence_buffer,,null,,,,,,,,,,,,,,,,,,
3977.2999999523163,,unique_rating,584926,US_Cities_List/nat_cornwall.png,,51,,,3,,,,,,,,,,,,,,,
null,,confidence_buffer,585035,confidence_buffer,,null,,,,,,,,,,,,,,,,,,
1872.2999999523163,,memorable_rating,586909,US_Cities_List/nat_cornwall.png,,52,,,4,,,,,,,,,,,,,,,
null,,confidence_buffer,587026,confidence_buffer,,null,,,,,,,,,,,,,,,,,,
null,,thebreak,587540,break,,null,,,,,,,,,,,,,,,,,,
4802.800000071526,,familiar_rating,592345,US_Cities_List/mm_hotsprings.png,,52,US_Cities_List/mm_hotsprings.png,MM,4,,,,,,,,,,,,,,,
null,,confidence_buffer,592452,confidence_buffer,,null,,,,,,,,,,,,,,,,,,
4783.5,,unique_rating,597238,US_Cities_List/mm_hotsprings.png,,51,,,3,,,,,,,,,,,,,,,
null,,confidence_buffer,597349,confidence_buffer,,null,,,,,,,,,,,,,,,,,,
2099.9000000953674,,memorable_rating,599451,US_Cities_List/mm_hotsprings.png,,51,,,3,,,,,,,,,,,,,,,
null,,confidence_buffer,599571,confidence_buffer,,null,,,,,,,,,,,,,,,,,,
null,,thebreak,600075,break,,null,,,,,,,,,,,,,,,,,,
4132.100000023842,,familiar_rating,604209,Fictional_Cities_List/img_natural_11.png,,51,Fictional_Cities_List/img_natural_11.png,NAT,3,,,,,,,,,,,,,,,
null,,confidence_buffer,604321,confidence_buffer,,null,,,,,,,,,,,,,,,,,,
3151.7000000476837,,unique_rating,607474,Fictional_Cities_List/img_natural_11.png,,52,,,4,,,,,,,,,,,,,,,
null,,confidence_buffer,607580,confidence_buffer,,null,,,,,,,,,,,,,,,,,,
2819.5999999046326,,memorable_rating,610401,Fictional_Cities_List/img_natural_11.png,,53,,,5,,,,,,,,,,,,,,,
null,,confidence_buffer,610514,confidence_buffer,,null,,,,,,,,,,,,,,,,,,
null,,thebreak,611020,break,,null,,,,,,,,,,,,,,,,,,
11229.5,,familiar_rating,622252,US_Cities_List/nat_hilo.png,,51,US_Cities_List/nat_hilo.png,NAT,3,,,,,,,,,,,,,,,
null,,confidence_buffer,622364,confidence_buffer,,null,,,,,,,,,,,,,,,,,,
2508.399999976158,,unique_rating,624875,US_Cities_List/nat_hilo.png,,53,,,5,,,,,,,,,,,,,,,
null,,confidence_buffer,624980,confidence_buffer,,null,,,,,,,,,,,,,,,,,,
1982.9000000953674,,memorable_rating,626965,US_Cities_List/nat_hilo.png,,53,,,5,,,,,,,,,,,,,,,
null,,confidence_buffer,627076,confidence_buffer,,null,,,,,,,,,,,,,,,,,,
null,,thebreak,627580,break,,null,,,,,,,,,,,,,,,,,,
6978.699999928474,,intro_0,634560,instruct,,32,,,,,,,,,,,,,,,,,,
8064.700000047684,,intro_1,642626,instruct,,32,,,,,,,,,,,,,,,,,,
14918,,intro_2,657546,instruct,,32,,,,,,,,,,,,,,,,,,
null,,instruct_dir_4,659060,instruct,,null,,,,,,,,,,,,,,,,,,
6063.300000071526,,realistic_rating,665126,US_Cities_List/nat_coeurdalene.png,,50,US_Cities_List/nat_coeurdalene.png,NAT,2,,,,,,,,,,,,,,,
null,,confidence_buffer,665241,confidence_buffer,,null,,,,,,,,,,,,,,,,,,
3267.5999999046326,,pt2_unique_rating,668510,US_Cities_List/nat_coeurdalene.png,,50,,,2,,,,,,,,,,,,,,,
null,,confidence_buffer,668625,confidence_buffer,,null,,,,,,,,,,,,,,,,,,
2943.399999976158,,pt2_memorable_rating,671570,US_Cities_List/nat_coeurdalene.png,,51,,,3,,,,,,,,,,,,,,,
null,,confidence_buffer,671680,confidence_buffer,,null,,,,,,,,,,,,,,,,,,
5495.399999976158,,recognition_phase,677178,US_Cities_List/nat_coeurdalene.png,,52,,,,,,new,1,1,,,,,,,,,,
null,,confidence_buffer,677280,confidence_buffer,,null,,,,,,,,,,,,,,,,,,
null,,thebreak,677790,break,,null,,,,,,,,,,,,,,,,,,
5940.899999976158,,realistic_rating,683733,Fictional_Cities_List/img_manmade_08.png,,50,Fictional_Cities_List/img_manmade_08.png,MM,2,,,,,,,,,,,,,,,
null,,confidence_buffer,683846,confidence_buffer,,null,,,,,,,,,,,,,,,,,,
2399.600000023842,,pt2_unique_rating,686248,Fictional_Cities_List/img_manmade_08.png,,51,,,3,,,,,,,,,,,,,,,
null,,confidence_buffer,686362,confidence_buffer,,null,,,,,,,,,,,,,,,,,,
1963.1000000238419,,pt2_memorable_rating,688326,Fictional_Cities_List/img_manmade_08.png,,51,,,3,,,,,,,,,,,,,,,
null,,confidence_buffer,688431,confidence_buffer,,null,,,,,,,,,,,,,,,,,,
2573.6999999284744,,recognition_phase,691006,Fictional_Cities_List/img_manmade_08.png,,49,,,,,,old,1,1,,,,,,,,,,
null,,confidence_buffer,691111,confidence_buffer,,null,,,,,,,,,,,,,,,,,,
null,,thebreak,691620,break,,null,,,,,,,,,,,,,,,,,,
3881.600000023842,,realistic_rating,695503,Fictional_Cities_List/img_natural_02.png,,51,Fictional_Cities_List/img_natural_02.png,NAT,3,,,,,,,,,,,,,,,
null,,confidence_buffer,695614,confidence_buffer,,null,,,,,,,,,,,,,,,,,,
1685.3000000715256,,pt2_unique_rating,697301,Fictional_Cities_List/img_natural_02.png,,51,,,3,,,,,,,,,,,,,,,
null,,confidence_buffer,697410,confidence_buffer,,null,,,,,,,,,,,,,,,,,,
2430.7999999523163,,pt2_memorable_rating,699842,Fictional_Cities_List/img_natural_02.png,,51,,,3,,,,,,,,,,,,,,,
null,,confidence_buffer,699945,confidence_buffer,,null,,,,,,,,,,,,,,,,,,
1827.5,,recognition_phase,701774,Fictional_Cities_List/img_natural_02.png,,49,,,,,,old,1,1,,,,,,,,,,
null,,confidence_buffer,701883,confidence_buffer,,null,,,,,,,,,,,,,,,,,,
null,,thebreak,702400,break,,null,,,,,,,,,,,,,,,,,,
2598.600000023842,,realistic_rating,705001,US_Cities_List/mm_boulder.png,,52,US_Cities_List/mm_boulder.png,MM,4,,,,,,,,,,,,,,,
null,,confidence_buffer,705103,confidence_buffer,,null,,,,,,,,,,,,,,,,,,
1851.1000000238419,,pt2_unique_rating,706956,US_Cities_List/mm_boulder.png,,52,,,4,,,,,,,,,,,,,,,
null,,confidence_buffer,707060,confidence_buffer,,null,,,,,,,,,,,,,,,,,,
3562.100000023842,,probe_rating,710624,probe_rating,,51,,,,3,1,,,,,,,,,,,,,
null,,confidence_buffer,710735,confidence_buffer,,null,,,,,,,,,,,,,,,,,,
4713.5,,pt2_memorable_rating,715451,US_Cities_List/mm_boulder.png,,52,,,4,,,,,,,,,,,,,,,
null,,confidence_buffer,715561,confidence_buffer,,null,,,,,,,,,,,,,,,,,,
2786.2000000476837,,recognition_phase,718349,US_Cities_List/mm_boulder.png,,49,,,,,,old,1,1,,,,,,,,,,
null,,confidence_buffer,718461,confidence_buffer,,null,,,,,,,,,,,,,,,,,,
null,,thebreak,718971,break,,null,,,,,,,,,,,,,,,,,,
4071.600000023842,,realistic_rating,723044,US_Cities_List/nat_boulder.png,,53,US_Cities_List/nat_boulder.png,NAT,5,,,,,,,,,,,,,,,
null,,confidence_buffer,723155,confidence_buffer,,null,,,,,,,,,,,,,,,,,,
3569.6999999284744,,pt2_unique_rating,726727,US_Cities_List/nat_boulder.png,,53,,,5,,,,,,,,,,,,,,,
null,,confidence_buffer,726830,confidence_buffer,,null,,,,,,,,,,,,,,,,,,
1510.6000000238419,,pt2_memorable_rating,728342,US_Cities_List/nat_boulder.png,,53,,,5,,,,,,,,,,,,,,,
null,,confidence_buffer,728460,confidence_buffer,,null,,,,,,,,,,,,,,,,,,
2831.7000000476837,,probe_rating,731294,probe_rating,,49,,,,1,1,,,,,,,,,,,,,
null,,confidence_buffer,731402,confidence_buffer,,null,,,,,,,,,,,,,,,,,,
6776,,recognition_phase,738181,US_Cities_List/nat_boulder.png,,52,,,,,,new,1,1,,,,,,,,,,
null,,confidence_buffer,738290,confidence_buffer,,null,,,,,,,,,,,,,,,,,,
null,,thebreak,738797,break,,null,,,,,,,,,,,,,,,,,,
4176.099999904633,,realistic_rating,742975,Fictional_Cities_List/img_manmade_09.png,,50,Fictional_Cities_List/img_manmade_09.png,MM,2,,,,,,,,,,,,,,,
null,,confidence_buffer,743081,confidence_buffer,,null,,,,,,,,,,,,,,,,,,
11101.300000071526,,pt2_unique_rating,754183,Fictional_Cities_List/img_manmade_09.png,,51,,,3,,,,,,,,,,,,,,,
null,,confidence_buffer,754292,confidence_buffer,,null,,,,,,,,,,,,,,,,,,
3650.6999999284744,,pt2_memorable_rating,757944,Fictional_Cities_List/img_manmade_09.png,,50,,,2,,,,,,,,,,,,,,,
null,,confidence_buffer,758064,confidence_buffer,,null,,,,,,,,,,,,,,,,,,
3813.899999976158,,recognition_phase,761880,Fictional_Cities_List/img_manmade_09.png,,52,,,,,,new,1,1,,,,,,,,,,
null,,confidence_buffer,761986,confidence_buffer,,null,,,,,,,,,,,,,,,,,,
null,,thebreak,762499,break,,null,,,,,,,,,,,,,,,,,,
4272,,realistic_rating,766772,Fictional_Cities_List/img_manmade_01.png,,51,Fictional_Cities_List/img_manmade_01.png,MM,3,,,,,,,,,,,,,,,
null,,confidence_buffer,766880,confidence_buffer,,null,,,,,,,,,,,,,,,,,,
4814.599999904633,,pt2_unique_rating,771696,Fictional_Cities_List/img_manmade_01.png,,50,,,2,,,,,,,,,,,,,,,
null,,confidence_buffer,771808,confidence_buffer,,null,,,,,,,,,,,,,,,,,,
3917.5,,pt2_memorable_rating,775727,Fictional_Cities_List/img_manmade_01.png,,50,,,2,,,,,,,,,,,,,,,
null,,confidence_buffer,775831,confidence_buffer,,null,,,,,,,,,,,,,,,,,,
3512.7000000476837,,recognition_phase,779349,Fictional_Cities_List/img_manmade_01.png,,52,,,,,,new,1,1,,,,,,,,,,
null,,confidence_buffer,779459,confidence_buffer,,null,,,,,,,,,,,,,,,,,,
null,,thebreak,779965,break,,null,,,,,,,,,,,,,,,,,,
6317.799999952316,,realistic_rating,786285,Fictional_Cities_List/img_natural_07.png,,51,Fictional_Cities_List/img_natural_07.png,NAT,3,,,,,,,,,,,,,,,
null,,confidence_buffer,786391,confidence_buffer,,null,,,,,,,,,,,,,,,,,,
5469.300000071526,,pt2_unique_rating,791862,Fictional_Cities_List/img_natural_07.png,,51,,,3,,,,,,,,,,,,,,,
null,,confidence_buffer,791971,confidence_buffer,,null,,,,,,,,,,,,,,,,,,
5220.800000071526,,pt2_memorable_rating,797194,Fictional_Cities_List/img_natural_07.png,,52,,,4,,,,,,,,,,,,,,,
null,,confidence_buffer,797303,confidence_buffer,,null,,,,,,,,,,,,,,,,,,
6399.299999952316,,recognition_phase,803704,Fictional_Cities_List/img_natural_07.png,,49,,,,,,old,1,1,,,,,,,,,,
null,,confidence_buffer,803811,confidence_buffer,,null,,,,,,,,,,,,,,,,,,
null,,thebreak,804321,break,,null,,,,,,,,,,,,,,,,,,
3475.399999976158,,realistic_rating,807799,US_Cities_List/nat_bisbee.png,,51,US_Cities_List/nat_bisbee.png,NAT,3,,,,,,,,,,,,,,,
null,,confidence_buffer,807902,confidence_buffer,,null,,,,,,,,,,,,,,,,,,
2760,,pt2_unique_rating,810663,US_Cities_List/nat_bisbee.png,,51,,,3,,,,,,,,,,,,,,,
null,,confidence_buffer,810771,confidence_buffer,,null,,,,,,,,,,,,,,,,,,
3397.2999999523163,,pt2_memorable_rating,814170,US_Cities_List/nat_bisbee.png,,51,,,3,,,,,,,,,,,,,,,
null,,confidence_buffer,814279,confidence_buffer,,null,,,,,,,,,,,,,,,,,,
3331.100000023842,,recognition_phase,817611,US_Cities_List/nat_bisbee.png,,52,,,,,,new,1,1,,,,,,,,,,
null,,confidence_buffer,817715,confidence_buffer,,null,,,,,,,,,,,,,,,,,,
null,,thebreak,818226,break,,null,,,,,,,,,,,,,,,,,,
5006.700000047684,,realistic_rating,823235,Fictional_Cities_List/img_natural_14.png,,50,Fictional_Cities_List/img_natural_14.png,NAT,2,,,,,,,,,,,,,,,
null,,confidence_buffer,823353,confidence_buffer,,null,,,,,,,,,,,,,,,,,,
3183.2000000476837,,pt2_unique_rating,826538,Fictional_Cities_List/img_natural_14.png,,51,,,3,,,,,,,,,,,,,,,
null,,confidence_buffer,826650,confidence_buffer,,null,,,,,,,,,,,,,,,,,,
2635.600000023842,,pt2_memorable_rating,829288,Fictional_Cities_List/img_natural_14.png,,51,,,3,,,,,,,,,,,,,,,
null,,confidence_buffer,829398,confidence_buffer,,null,,,,,,,,,,,,,,,,,,
2826.6999999284744,,recognition_phase,832227,Fictional_Cities_List/img_natural_14.png,,52,,,,,,new,1,1,,,,,,,,,,
null,,confidence_buffer,832338,confidence_buffer,,null,,,,,,,,,,,,,,,,,,
null,,thebreak,832852,break,,null,,,,,,,,,,,,,,,,,,
3795.899999976158,,realistic_rating,836649,Fictional_Cities_List/img_natural_15.png,,51,Fictional_Cities_List/img_natural_15.png,NAT,3,,,,,,,,,,,,,,,
null,,confidence_buffer,836761,confidence_buffer,,null,,,,,,,,,,,,,,,,,,
2561.7999999523163,,pt2_unique_rating,839325,Fictional_Cities_List/img_natural_15.png,,51,,,3,,,,,,,,,,,,,,,
null,,confidence_buffer,839429,confidence_buffer,,null,,,,,,,,,,,,,,,,,,
2990.8000000715256,,pt2_memorable_rating,842421,Fictional_Cities_List/img_natural_15.png,,51,,,3,,,,,,,,,,,,,,,
null,,confidence_buffer,842529,confidence_buffer,,null,,,,,,,,,,,,,,,,,,
3086.5,,recognition_phase,845618,Fictional_Cities_List/img_natural_15.png,,49,,,,,,old,1,1,,,,,,,,,,
null,,confidence_buffer,845729,confidence_buffer,,null,,,,,,,,,,,,,,,,,,
null,,thebreak,846234,break,,null,,,,,,,,,,,,,,,,,,
4194.699999928474,,realistic_rating,850430,Fictional_Cities_List/img_natural_12.png,,51,Fictional_Cities_List/img_natural_12.png,NAT,3,,,,,,,,,,,,,,,
null,,confidence_buffer,850537,confidence_buffer,,null,,,,,,,,,,,,,,,,,,
7088.699999928474,,pt2_unique_rating,857627,Fictional_Cities_List/img_natural_12.png,,51,,,3,,,,,,,,,,,,,,,
null,,confidence_buffer,857735,confidence_buffer,,null,,,,,,,,,,,,,,,,,,
2668,,pt2_memorable_rating,860405,Fictional_Cities_List/img_natural_12.png,,51,,,3,,,,,,,,,,,,,,,
null,,confidence_buffer,860510,confidence_buffer,,null,,,,,,,,,,,,,,,,,,
3170.399999976158,,probe_rating,863683,probe_rating,,53,,,,5,1,,,,,,,,,,,,,
null,,confidence_buffer,863794,confidence_buffer,,null,,,,,,,,,,,,,,,,,,
3126.3000000715256,,recognition_phase,866922,Fictional_Cities_List/img_natural_12.png,,49,,,,,,old,1,1,,,,,,,,,,
null,,confidence_buffer,867028,confidence_buffer,,null,,,,,,,,,,,,,,,,,,
null,,thebreak,867540,break,,null,,,,,,,,,,,,,,,,,,
4012.7000000476837,,realistic_rating,871555,Fictional_Cities_List/img_manmade_06.png,,51,Fictional_Cities_List/img_manmade_06.png,MM,3,,,,,,,,,,,,,,,
null,,confidence_buffer,871666,confidence_buffer,,null,,,,,,,,,,,,,,,,,,
2258.2000000476837,,pt2_unique_rating,873927,Fictional_Cities_List/img_manmade_06.png,,51,,,3,,,,,,,,,,,,,,,
null,,confidence_buffer,874037,confidence_buffer,,null,,,,,,,,,,,,,,,,,,
3162.5,,probe_rating,877202,probe_rating,,50,,,,2,1,,,,,,,,,,,,,
null,,confidence_buffer,877314,confidence_buffer,,null,,,,,,,,,,,,,,,,,,
5345.099999904633,,pt2_memorable_rating,882661,Fictional_Cities_List/img_manmade_06.png,,51,,,3,,,,,,,,,,,,,,,
null,,confidence_buffer,882767,confidence_buffer,,null,,,,,,,,,,,,,,,,,,
2821.899999976158,,recognition_phase,885591,Fictional_Cities_List/img_manmade_06.png,,52,,,,,,new,1,1,,,,,,,,,,
null,,confidence_buffer,885701,confidence_buffer,,null,,,,,,,,,,,,,,,,,,
null,,thebreak,886212,break,,null,,,,,,,,,,,,,,,,,,
3820.899999976158,,realistic_rating,890035,US_Cities_List/mm_coeurdalene.png,,50,US_Cities_List/mm_coeurdalene.png,MM,2,,,,,,,,,,,,,,,
null,,confidence_buffer,890146,confidence_buffer,,null,,,,,,,,,,,,,,,,,,
2306.399999976158,,pt2_unique_rating,892454,US_Cities_List/mm_coeurdalene.png,,51,,,3,,,,,,,,,,,,,,,
null,,confidence_buffer,892563,confidence_buffer,,null,,,,,,,,,,,,,,,,,,
2540.600000023842,,pt2_memorable_rating,895106,US_Cities_List/mm_coeurdalene.png,,51,,,3,,,,,,,,,,,,,,,
null,,confidence_buffer,895215,confidence_buffer,,null,,,,,,,,,,,,,,,,,,
3079.9000000953674,,recognition_phase,898297,US_Cities_List/mm_coeurdalene.png,,52,,,,,,new,1,1,,,,,,,,,,
null,,confidence_buffer,898411,confidence_buffer,,null,,,,,,,,,,,,,,,,,,
null,,thebreak,898928,break,,null,,,,,,,,,,,,,,,,,,
4307.700000047684,,realistic_rating,903237,US_Cities_List/mm_hilo.png,,51,US_Cities_List/mm_hilo.png,MM,3,,,,,,,,,,,,,,,
null,,confidence_buffer,903342,confidence_buffer,,null,,,,,,,,,,,,,,,,,,
4625.700000047684,,pt2_unique_rating,907969,US_Cities_List/mm_hilo.png,,51,,,3,,,,,,,,,,,,,,,
null,,confidence_buffer,908076,confidence_buffer,,null,,,,,,,,,,,,,,,,,,
4016.5,,pt2_memorable_rating,912094,US_Cities_List/mm_hilo.png,,51,,,3,,,,,,,,,,,,,,,
null,,confidence_buffer,912209,confidence_buffer,,null,,,,,,,,,,,,,,,,,,
3339.9000000953674,,recognition_phase,915550,US_Cities_List/mm_hilo.png,,52,,,,,,new,1,1,,,,,,,,,,
null,,confidence_buffer,915661,confidence_buffer,,null,,,,,,,,,,,,,,,,,,
null,,thebreak,916173,break,,null,,,,,,,,,,,,,,,,,,
3229.2000000476837,,realistic_rating,919404,US_Cities_List/nat_carmel.png,,52,US_Cities_List/nat_carmel.png,NAT,4,,,,,,,,,,,,,,,
null,,confidence_buffer,919525,confidence_buffer,,null,,,,,,,,,,,,,,,,,,
5097.199999928474,,pt2_unique_rating,924623,US_Cities_List/nat_carmel.png,,52,,,4,,,,,,,,,,,,,,,
null,,confidence_buffer,924731,confidence_buffer,,null,,,,,,,,,,,,,,,,,,
2309.4000000953674,,pt2_memorable_rating,927042,US_Cities_List/nat_carmel.png,,53,,,5,,,,,,,,,,,,,,,
null,,confidence_buffer,927145,confidence_buffer,,null,,,,,,,,,,,,,,,,,,
4048.2999999523163,,recognition_phase,931195,US_Cities_List/nat_carmel.png,,52,,,,,,new,1,1,,,,,,,,,,
null,,confidence_buffer,931311,confidence_buffer,,null,,,,,,,,,,,,,,,,,,
null,,thebreak,931819,break,,null,,,,,,,,,,,,,,,,,,
11773.399999976158,,realistic_rating,943594,Fictional_Cities_List/img_natural_04.png,,50,Fictional_Cities_List/img_natural_04.png,NAT,2,,,,,,,,,,,,,,,
null,,confidence_buffer,943699,confidence_buffer,,null,,,,,,,,,,,,,,,,,,
2923.7999999523163,,pt2_unique_rating,946624,Fictional_Cities_List/img_natural_04.png,,51,,,3,,,,,,,,,,,,,,,
null,,confidence_buffer,946728,confidence_buffer,,null,,,,,,,,,,,,,,,,,,
5394.799999952316,,pt2_memorable_rating,952124,Fictional_Cities_List/img_natural_04.png,,51,,,3,,,,,,,,,,,,,,,
null,,confidence_buffer,952230,confidence_buffer,,null,,,,,,,,,,,,,,,,,,
5744.5,,recognition_phase,957976,Fictional_Cities_List/img_natural_04.png,,51,,,,,,new,1,1,,,,,,,,,,
null,,confidence_buffer,958083,confidence_buffer,,null,,,,,,,,,,,,,,,,,,
null,,thebreak,958587,break,,null,,,,,,,,,,,,,,,,,,
5908.700000047684,,realistic_rating,964497,Fictional_Cities_List/img_manmade_05.png,,51,Fictional_Cities_List/img_manmade_05.png,MM,3,,,,,,,,,,,,,,,
null,,confidence_buffer,964614,confidence_buffer,,null,,,,,,,,,,,,,,,,,,
3092.899999976158,,pt2_unique_rating,967709,Fictional_Cities_List/img_manmade_05.png,,50,,,2,,,,,,,,,,,,,,,
null,,confidence_buffer,967827,confidence_buffer,,null,,,,,,,,,,,,,,,,,,
3474.600000023842,,probe_rating,971304,probe_rating,,49,,,,1,1,,,,,,,,,,,,,
null,,confidence_buffer,971409,confidence_buffer,,null,,,,,,,,,,,,,,,,,,
15157.100000023842,,pt2_memorable_rating,986568,Fictional_Cities_List/img_manmade_05.png,,51,,,3,,,,,,,,,,,,,,,
null,,confidence_buffer,986676,confidence_buffer,,null,,,,,,,,,,,,,,,,,,
3347.1999999284744,,recognition_phase,990025,Fictional_Cities_List/img_manmade_05.png,,49,,,,,,old,1,1,,,,,,,,,,
null,,confidence_buffer,990129,confidence_buffer,,null,,,,,,,,,,,,,,,,,,
null,,thebreak,990641,break,,null,,,,,,,,,,,,,,,,,,
9858.5,,realistic_rating,1000501,US_Cities_List/nat_okoboji.png,,51,US_Cities_List/nat_okoboji.png,NAT,3,,,,,,,,,,,,,,,
null,,confidence_buffer,1000612,confidence_buffer,,null,,,,,,,,,,,,,,,,,,
7986.899999976158,,pt2_unique_rating,1008602,US_Cities_List/nat_okoboji.png,,51,,,3,,,,,,,,,,,,,,,
null,,confidence_buffer,1008715,confidence_buffer,,null,,,,,,,,,,,,,,,,,,
8949.799999952316,,pt2_memorable_rating,1017667,US_Cities_List/nat_okoboji.png,,51,,,3,,,,,,,,,,,,,,,
null,,confidence_buffer,1017770,confidence_buffer,,null,,,,,,,,,,,,,,,,,,
2457.7999999523163,,recognition_phase,1020231,US_Cities_List/nat_okoboji.png,,52,,,,,,new,1,1,,,,,,,,,,
null,,confidence_buffer,1020343,confidence_buffer,,null,,,,,,,,,,,,,,,,,,
null,,thebreak,1020858,break,,null,,,,,,,,,,,,,,,,,,
5192.700000047684,,realistic_rating,1026053,US_Cities_List/mm_delawarecity.png,,52,US_Cities_List/mm_delawarecity.png,MM,4,,,,,,,,,,,,,,,
null,,confidence_buffer,1026160,confidence_buffer,,null,,,,,,,,,,,,,,,,,,
5445.799999952316,,pt2_unique_rating,1031607,US_Cities_List/mm_delawarecity.png,,51,,,3,,,,,,,,,,,,,,,
null,,confidence_buffer,1031721,confidence_buffer,,null,,,,,,,,,,,,,,,,,,
3238.5,,pt2_memorable_rating,1034961,US_Cities_List/mm_delawarecity.png,,51,,,3,,,,,,,,,,,,,,,
null,,confidence_buffer,1035066,confidence_buffer,,null,,,,,,,,,,,,,,,,,,
5835.200000047684,,recognition_phase,1040903,US_Cities_List/mm_delawarecity.png,,51,,,,,,new,1,1,,,,,,,,,,
null,,confidence_buffer,1041014,confidence_buffer,,null,,,,,,,,,,,,,,,,,,
null,,thebreak,1041521,break,,null,,,,,,,,,,,,,,,,,,
5247.899999976158,,realistic_rating,1046770,US_Cities_List/mm_bisbee.png,,51,US_Cities_List/mm_bisbee.png,MM,3,,,,,,,,,,,,,,,
null,,confidence_buffer,1046875,confidence_buffer,,null,,,,,,,,,,,,,,,,,,
7305.200000047684,,pt2_unique_rating,1054183,US_Cities_List/mm_bisbee.png,,50,,,2,,,,,,,,,,,,,,,
null,,confidence_buffer,1054286,confidence_buffer,,null,,,,,,,,,,,,,,,,,,
9482.5,,pt2_memorable_rating,1063770,US_Cities_List/mm_bisbee.png,,50,,,2,,,,,,,,,,,,,,,
null,,confidence_buffer,1063877,confidence_buffer,,null,,,,,,,,,,,,,,,,,,
3104.2999999523163,,recognition_phase,1066983,US_Cities_List/mm_bisbee.png,,52,,,,,,new,1,1,,,,,,,,,,
null,,confidence_buffer,1067092,confidence_buffer,,null,,,,,,,,,,,,,,,,,,
null,,thebreak,1067604,break,,null,,,,,,,,,,,,,,,,,,
4397.5,,realistic_rating,1072003,US_Cities_List/mm_healdsburg.png,,50,US_Cities_List/mm_healdsburg.png,MM,2,,,,,,,,,,,,,,,
null,,confidence_buffer,1072112,confidence_buffer,,null,,,,,,,,,,,,,,,,,,
11204.199999928474,,pt2_unique_rating,1083318,US_Cities_List/mm_healdsburg.png,,51,,,3,,,,,,,,,,,,,,,
null,,confidence_buffer,1083425,confidence_buffer,,null,,,,,,,,,,,,,,,,,,
9214.599999904633,,pt2_memorable_rating,1092641,US_Cities_List/mm_healdsburg.png,,51,,,3,,,,,,,,,,,,,,,
null,,confidence_buffer,1092755,confidence_buffer,,null,,,,,,,,,,,,,,,,,,
7138.899999976158,,recognition_phase,1099895,US_Cities_List/mm_healdsburg.png,,52,,,,,,new,1,1,,,,,,,,,,
null,,confidence_buffer,1100002,confidence_buffer,,null,,,,,,,,,,,,,,,,,,
null,,thebreak,1100504,break,,null,,,,,,,,,,,,,,,,,,
6174.5,,realistic_rating,1106680,Fictional_Cities_List/img_manmade_11.png,,51,Fictional_Cities_List/img_manmade_11.png,MM,3,,,,,,,,,,,,,,,
null,,confidence_buffer,1106790,confidence_buffer,,null,,,,,,,,,,,,,,,,,,
3043.399999976158,,pt2_unique_rating,1109835,Fictional_Cities_List/img_manmade_11.png,,52,,,4,,,,,,,,,,,,,,,
null,,confidence_buffer,1109948,confidence_buffer,,null,,,,,,,,,,,,,,,,,,
3014.2000000476837,,pt2_memorable_rating,1112964,Fictional_Cities_List/img_manmade_11.png,,52,,,4,,,,,,,,,,,,,,,
null,,confidence_buffer,1113068,confidence_buffer,,null,,,,,,,,,,,,,,,,,,
9441.199999928474,,recognition_phase,1122511,Fictional_Cities_List/img_manmade_11.png,,51,,,,,,new,0,0.9565217391304348,,,,,,,,,,
null,,confidence_buffer,1122624,confidence_buffer,,null,,,,,,,,,,,,,,,,,,
null,,thebreak,1123127,break,,null,,,,,,,,,,,,,,,,,,
5257.400000095367,,realistic_rating,1128386,Fictional_Cities_List/img_natural_13.png,,52,Fictional_Cities_List/img_natural_13.png,NAT,4,,,,,,,,,,,,,,,
null,,confidence_buffer,1128499,confidence_buffer,,null,,,,,,,,,,,,,,,,,,
1866.8999999761581,,pt2_unique_rating,1130368,Fictional_Cities_List/img_natural_13.png,,51,,,3,,,,,,,,,,,,,,,
null,,confidence_buffer,1130478,confidence_buffer,,null,,,,,,,,,,,,,,,,,,
1591.3000000715256,,pt2_memorable_rating,1132071,Fictional_Cities_List/img_natural_13.png,,51,,,3,,,,,,,,,,,,,,,
null,,confidence_buffer,1132190,confidence_buffer,,null,,,,,,,,,,,,,,,,,,
3458.2999999523163,,recognition_phase,1135650,Fictional_Cities_List/img_natural_13.png,,51,,,,,,new,1,0.9583333333333334,,,,,,,,,,
null,,confidence_buffer,1135757,confidence_buffer,,null,,,,,,,,,,,,,,,,,,
null,,thebreak,1136266,break,,null,,,,,,,,,,,,,,,,,,
6787.899999976158,,realistic_rating,1143055,Fictional_Cities_List/img_natural_11.png,,51,Fictional_Cities_List/img_natural_11.png,NAT,3,,,,,,,,,,,,,,,
null,,confidence_buffer,1143166,confidence_buffer,,null,,,,,,,,,,,,,,,,,,
8013.399999976158,,pt2_unique_rating,1151182,Fictional_Cities_List/img_natural_11.png,,50,,,2,,,,,,,,,,,,,,,
null,,confidence_buffer,1151292,confidence_buffer,,null,,,,,,,,,,,,,,,,,,
3076.399999976158,,pt2_memorable_rating,1154370,Fictional_Cities_List/img_natural_11.png,,51,,,3,,,,,,,,,,,,,,,
null,,confidence_buffer,1154475,confidence_buffer,,null,,,,,,,,,,,,,,,,,,
3813.4000000953674,,recognition_phase,1158291,Fictional_Cities_List/img_natural_11.png,,51,,,,,,new,0,0.92,,,,,,,,,,
null,,confidence_buffer,1158399,confidence_buffer,,null,,,,,,,,,,,,,,,,,,
null,,thebreak,1158903,break,,null,,,,,,,,,,,,,,,,,,
4484.099999904633,,realistic_rating,1163389,US_Cities_List/nat_hotsprings.png,,50,US_Cities_List/nat_hotsprings.png,NAT,2,,,,,,,,,,,,,,,
null,,confidence_buffer,1163494,confidence_buffer,,null,,,,,,,,,,,,,,,,,,
2290.6999999284744,,pt2_unique_rating,1165787,US_Cities_List/nat_hotsprings.png,,51,,,3,,,,,,,,,,,,,,,
null,,confidence_buffer,1165900,confidence_buffer,,null,,,,,,,,,,,,,,,,,,
2431.5,,pt2_memorable_rating,1168333,US_Cities_List/nat_hotsprings.png,,51,,,3,,,,,,,,,,,,,,,
null,,confidence_buffer,1168444,confidence_buffer,,null,,,,,,,,,,,,,,,,,,
15384.699999928474,,recognition_phase,1183831,US_Cities_List/nat_hotsprings.png,,51,,,,,,new,0,0.8846153846153846,,,,,,,,,,
null,,confidence_buffer,1183940,confidence_buffer,,null,,,,,,,,,,,,,,,,,,
null,,thebreak,1184446,break,,null,,,,,,,,,,,,,,,,,,
4928.400000095367,,realistic_rating,1189377,Fictional_Cities_List/img_natural_06.png,,50,Fictional_Cities_List/img_natural_06.png,NAT,2,,,,,,,,,,,,,,,
null,,confidence_buffer,1189481,confidence_buffer,,null,,,,,,,,,,,,,,,,,,
2679.7999999523163,,pt2_unique_rating,1192162,Fictional_Cities_List/img_natural_06.png,,51,,,3,,,,,,,,,,,,,,,
null,,confidence_buffer,1192273,confidence_buffer,,null,,,,,,,,,,,,,,,,,,
4600.399999976158,,pt2_memorable_rating,1196875,Fictional_Cities_List/img_natural_06.png,,51,,,3,,,,,,,,,,,,,,,
null,,confidence_buffer,1196991,confidence_buffer,,null,,,,,,,,,,,,,,,,,,
5594.299999952316,,recognition_phase,1202588,Fictional_Cities_List/img_natural_06.png,,50,,,,,,old,0,0.8518518518518519,,,,,,,,,,
null,,confidence_buffer,1202695,confidence_buffer,,null,,,,,,,,,,,,,,,,,,
null,,thebreak,1203210,break,,null,,,,,,,,,,,,,,,,,,
7500.600000023842,,realistic_rating,1210712,Fictional_Cities_List/img_natural_03.png,,49,Fictional_Cities_List/img_natural_03.png,NAT,1,,,,,,,,,,,,,,,
null,,confidence_buffer,1210819,confidence_buffer,,null,,,,,,,,,,,,,,,,,,
2322.1999999284744,,pt2_unique_rating,1213143,Fictional_Cities_List/img_natural_03.png,,50,,,2,,,,,,,,,,,,,,,
null,,confidence_buffer,1213259,confidence_buffer,,null,,,,,,,,,,,,,,,,,,
2133.5999999046326,,pt2_memorable_rating,1215395,Fictional_Cities_List/img_natural_03.png,,51,,,3,,,,,,,,,,,,,,,
null,,confidence_buffer,1215501,confidence_buffer,,null,,,,,,,,,,,,,,,,,,
4208.100000023842,,recognition_phase,1219711,Fictional_Cities_List/img_natural_03.png,,52,,,,,,new,1,0.8571428571428571,,,,,,,,,,
null,,confidence_buffer,1219828,confidence_buffer,,null,,,,,,,,,,,,,,,,,,
null,,thebreak,1220332,break,,null,,,,,,,,,,,,,,,,,,
4777.700000047684,,realistic_rating,1225111,US_Cities_List/mm_hotsprings.png,,51,US_Cities_List/mm_hotsprings.png,MM,3,,,,,,,,,,,,,,,
null,,confidence_buffer,1225220,confidence_buffer,,null,,,,,,,,,,,,,,,,,,
2324.1999999284744,,pt2_unique_rating,1227546,US_Cities_List/mm_hotsprings.png,,51,,,3,,,,,,,,,,,,,,,
null,,confidence_buffer,1227656,confidence_buffer,,null,,,,,,,,,,,,,,,,,,
2475.5,,pt2_memorable_rating,1230133,US_Cities_List/mm_hotsprings.png,,52,,,4,,,,,,,,,,,,,,,
null,,confidence_buffer,1230253,confidence_buffer,,null,,,,,,,,,,,,,,,,,,
2885.2999999523163,,recognition_phase,1233140,US_Cities_List/mm_hotsprings.png,,49,,,,,,old,1,0.8620689655172413,,,,,,,,,,
null,,confidence_buffer,1233243,confidence_buffer,,null,,,,,,,,,,,,,,,,,,
null,,thebreak,1233752,break,,null,,,,,,,,,,,,,,,,,,
4555.299999952316,,realistic_rating,1238310,Fictional_Cities_List/img_natural_08.png,,51,Fictional_Cities_List/img_natural_08.png,NAT,3,,,,,,,,,,,,,,,
null,,confidence_buffer,1238415,confidence_buffer,,null,,,,,,,,,,,,,,,,,,
1960,,pt2_unique_rating,1240377,Fictional_Cities_List/img_natural_08.png,,51,,,3,,,,,,,,,,,,,,,
null,,confidence_buffer,1240481,confidence_buffer,,null,,,,,,,,,,,,,,,,,,
2627.6999999284744,,pt2_memorable_rating,1243110,Fictional_Cities_List/img_natural_08.png,,51,,,3,,,,,,,,,,,,,,,
null,,confidence_buffer,1243218,confidence_buffer,,null,,,,,,,,,,,,,,,,,,
3779.899999976158,,recognition_phase,1247000,Fictional_Cities_List/img_natural_08.png,,52,,,,,,new,1,0.8666666666666667,,,,,,,,,,
null,,confidence_buffer,1247104,confidence_buffer,,null,,,,,,,,,,,,,,,,,,
null,,thebreak,1247615,break,,null,,,,,,,,,,,,,,,,,,
5700.199999928474,,realistic_rating,1253317,US_Cities_List/nat_delawarecity.png,,50,US_Cities_List/nat_delawarecity.png,NAT,2,,,,,,,,,,,,,,,
null,,confidence_buffer,1253421,confidence_buffer,,null,,,,,,,,,,,,,,,,,,
2879.399999976158,,pt2_unique_rating,1256302,US_Cities_List/nat_delawarecity.png,,51,,,3,,,,,,,,,,,,,,,
null,,confidence_buffer,1256411,confidence_buffer,,null,,,,,,,,,,,,,,,,,,
2418.399999976158,,pt2_memorable_rating,1258832,US_Cities_List/nat_delawarecity.png,,51,,,3,,,,,,,,,,,,,,,
null,,confidence_buffer,1258942,confidence_buffer,,null,,,,,,,,,,,,,,,,,,
4103.799999952316,,recognition_phase,1263047,US_Cities_List/nat_delawarecity.png,,52,,,,,,new,1,0.8709677419354839,,,,,,,,,,
null,,confidence_buffer,1263155,confidence_buffer,,null,,,,,,,,,,,,,,,,,,
null,,thebreak,1263661,break,,null,,,,,,,,,,,,,,,,,,
3887.5999999046326,,realistic_rating,1267551,Fictional_Cities_List/img_natural_05.png,,49,Fictional_Cities_List/img_natural_05.png,NAT,1,,,,,,,,,,,,,,,
null,,confidence_buffer,1267656,confidence_buffer,,null,,,,,,,,,,,,,,,,,,
2492.1999999284744,,pt2_unique_rating,1270150,Fictional_Cities_List/img_natural_05.png,,51,,,3,,,,,,,,,,,,,,,
null,,confidence_buffer,1270263,confidence_buffer,,null,,,,,,,,,,,,,,,,,,
3248.5,,pt2_memorable_rating,1273514,Fictional_Cities_List/img_natural_05.png,,53,,,5,,,,,,,,,,,,,,,
null,,confidence_buffer,1273622,confidence_buffer,,null,,,,,,,,,,,,,,,,,,
3687.0999999046326,,recognition_phase,1277311,Fictional_Cities_List/img_natural_05.png,,49,,,,,,old,1,0.875,,,,,,,,,,
null,,confidence_buffer,1277427,confidence_buffer,,null,,,,,,,,,,,,,,,,,,
null,,thebreak,1277929,break,,null,,,,,,,,,,,,,,,,,,
6238.300000071526,,realistic_rating,1284169,US_Cities_List/mm_carmel.png,,51,US_Cities_List/mm_carmel.png,MM,3,,,,,,,,,,,,,,,
null,,confidence_buffer,1284277,confidence_buffer,,null,,,,,,,,,,,,,,,,,,
2382.600000023842,,pt2_unique_rating,1286662,US_Cities_List/mm_carmel.png,,52,,,4,,,,,,,,,,,,,,,
null,,confidence_buffer,1286777,confidence_buffer,,null,,,,,,,,,,,,,,,,,,
2393.4000000953674,,pt2_memorable_rating,1289173,US_Cities_List/mm_carmel.png,,52,,,4,,,,,,,,,,,,,,,
null,,confidence_buffer,1289291,confidence_buffer,,null,,,,,,,,,,,,,,,,,,
3274.5,,recognition_phase,1292568,US_Cities_List/mm_carmel.png,,50,,,,,,old,1,0.8787878787878788,,,,,,,,,,
null,,confidence_buffer,1292674,confidence_buffer,,null,,,,,,,,,,,,,,,,,,
null,,thebreak,1293183,break,,null,,,,,,,,,,,,,,,,,,
4273.399999976158,,realistic_rating,1297458,US_Cities_List/nat_peoria.png,,52,US_Cities_List/nat_peoria.png,NAT,4,,,,,,,,,,,,,,,
null,,confidence_buffer,1297561,confidence_buffer,,null,,,,,,,,,,,,,,,,,,
2792.7999999523163,,pt2_unique_rating,1300356,US_Cities_List/nat_peoria.png,,53,,,5,,,,,,,,,,,,,,,
null,,confidence_buffer,1300461,confidence_buffer,,null,,,,,,,,,,,,,,,,,,
2784.7999999523163,,pt2_memorable_rating,1303247,US_Cities_List/nat_peoria.png,,52,,,4,,,,,,,,,,,,,,,
null,,confidence_buffer,1303363,confidence_buffer,,null,,,,,,,,,,,,,,,,,,
3893.1999999284744,,recognition_phase,1307258,US_Cities_List/nat_peoria.png,,49,,,,,,old,1,0.8823529411764706,,,,,,,,,,
null,,confidence_buffer,1307363,confidence_buffer,,null,,,,,,,,,,,,,,,,,,
null,,thebreak,1307871,break,,null,,,,,,,,,,,,,,,,,,
4344.800000071526,,realistic_rating,1312218,Fictional_Cities_List/img_manmade_07.png,,51,Fictional_Cities_List/img_manmade_07.png,MM,3,,,,,,,,,,,,,,,
null,,confidence_buffer,1312326,confidence_buffer,,null,,,,,,,,,,,,,,,,,,
2739.3000000715256,,pt2_unique_rating,1315067,Fictional_Cities_List/img_manmade_07.png,,51,,,3,,,,,,,,,,,,,,,
null,,confidence_buffer,1315173,confidence_buffer,,null,,,,,,,,,,,,,,,,,,
2989.3000000715256,,pt2_memorable_rating,1318164,Fictional_Cities_List/img_manmade_07.png,,52,,,4,,,,,,,,,,,,,,,
null,,confidence_buffer,1318268,confidence_buffer,,null,,,,,,,,,,,,,,,,,,
4157.600000023842,,recognition_phase,1322427,Fictional_Cities_List/img_manmade_07.png,,52,,,,,,new,1,0.8857142857142857,,,,,,,,,,
null,,confidence_buffer,1322534,confidence_buffer,,null,,,,,,,,,,,,,,,,,,
null,,thebreak,1323039,break,,null,,,,,,,,,,,,,,,,,,
3256.100000023842,,realistic_rating,1326297,US_Cities_List/mm_okoboji.png,,51,US_Cities_List/mm_okoboji.png,MM,3,,,,,,,,,,,,,,,
null,,confidence_buffer,1326408,confidence_buffer,,null,,,,,,,,,,,,,,,,,,
2342,,pt2_unique_rating,1328752,US_Cities_List/mm_okoboji.png,,52,,,4,,,,,,,,,,,,,,,
null,,confidence_buffer,1328861,confidence_buffer,,null,,,,,,,,,,,,,,,,,,
2908.7999999523163,,pt2_memorable_rating,1331771,US_Cities_List/mm_okoboji.png,,52,,,4,,,,,,,,,,,,,,,
null,,confidence_buffer,1331877,confidence_buffer,,null,,,,,,,,,,,,,,,,,,
2737.1999999284744,,recognition_phase,1334617,US_Cities_List/mm_okoboji.png,,49,,,,,,old,1,0.8888888888888888,,,,,,,,,,
null,,confidence_buffer,1334736,confidence_buffer,,null,,,,,,,,,,,,,,,,,,
null,,thebreak,1335238,break,,null,,,,,,,,,,,,,,,,,,
3714.399999976158,,realistic_rating,1338955,US_Cities_List/mm_westpalmbeach.png,,52,US_Cities_List/mm_westpalmbeach.png,MM,4,,,,,,,,,,,,,,,
null,,confidence_buffer,1339070,confidence_buffer,,null,,,,,,,,,,,,,,,,,,
3017.100000023842,,pt2_unique_rating,1342089,US_Cities_List/mm_westpalmbeach.png,,51,,,3,,,,,,,,,,,,,,,
null,,confidence_buffer,1342201,confidence_buffer,,null,,,,,,,,,,,,,,,,,,
2015,,pt2_memorable_rating,1344218,US_Cities_List/mm_westpalmbeach.png,,51,,,3,,,,,,,,,,,,,,,
null,,confidence_buffer,1344322,confidence_buffer,,null,,,,,,,,,,,,,,,,,,
2865.100000023842,,recognition_phase,1347189,US_Cities_List/mm_westpalmbeach.png,,52,,,,,,new,1,0.8918918918918919,,,,,,,,,,
null,,confidence_buffer,1347303,confidence_buffer,,null,,,,,,,,,,,,,,,,,,
null,,thebreak,1347805,break,,null,,,,,,,,,,,,,,,,,,
5725,,realistic_rating,1353532,US_Cities_List/mm_peoria.png,,49,US_Cities_List/mm_peoria.png,MM,1,,,,,,,,,,,,,,,
null,,confidence_buffer,1353650,confidence_buffer,,null,,,,,,,,,,,,,,,,,,
3359.600000023842,,pt2_unique_rating,1357011,US_Cities_List/mm_peoria.png,,50,,,2,,,,,,,,,,,,,,,
null,,confidence_buffer,1357118,confidence_buffer,,null,,,,,,,,,,,,,,,,,,
1833.5,,pt2_memorable_rating,1358954,US_Cities_List/mm_peoria.png,,51,,,3,,,,,,,,,,,,,,,
null,,confidence_buffer,1359060,confidence_buffer,,null,,,,,,,,,,,,,,,,,,
2149.7999999523163,,recognition_phase,1361212,US_Cities_List/mm_peoria.png,,49,,,,,,old,1,0.8947368421052632,,,,,,,,,,
null,,confidence_buffer,1361322,confidence_buffer,,null,,,,,,,,,,,,,,,,,,
null,,thebreak,1361826,break,,null,,,,,,,,,,,,,,,,,,
2683.399999976158,,realistic_rating,1364511,US_Cities_List/nat_hilo.png,,51,US_Cities_List/nat_hilo.png,NAT,3,,,,,,,,,,,,,,,
null,,confidence_buffer,1364615,confidence_buffer,,null,,,,,,,,,,,,,,,,,,
1847.1000000238419,,pt2_unique_rating,1366464,US_Cities_List/nat_hilo.png,,51,,,3,,,,,,,,,,,,,,,
null,,confidence_buffer,1366575,confidence_buffer,,null,,,,,,,,,,,,,,,,,,
3364.5,,pt2_memorable_rating,1369942,US_Cities_List/nat_hilo.png,,52,,,4,,,,,,,,,,,,,,,
null,,confidence_buffer,1370055,confidence_buffer,,null,,,,,,,,,,,,,,,,,,
3403.7000000476837,,recognition_phase,1373460,US_Cities_List/nat_hilo.png,,49,,,,,,old,1,0.8974358974358975,,,,,,,,,,
null,,confidence_buffer,1373564,confidence_buffer,,null,,,,,,,,,,,,,,,,,,
null,,thebreak,1374069,break,,null,,,,,,,,,,,,,,,,,,
2677.2999999523163,,realistic_rating,1376749,US_Cities_List/nat_athens.png,,51,US_Cities_List/nat_athens.png,NAT,3,,,,,,,,,,,,,,,
null,,confidence_buffer,1376860,confidence_buffer,,null,,,,,,,,,,,,,,,,,,
4119,,pt2_unique_rating,1380980,US_Cities_List/nat_athens.png,,52,,,4,,,,,,,,,,,,,,,
null,,confidence_buffer,1381098,confidence_buffer,,null,,,,,,,,,,,,,,,,,,
5077.899999976158,,pt2_memorable_rating,1386177,US_Cities_List/nat_athens.png,,51,,,3,,,,,,,,,,,,,,,
null,,confidence_buffer,1386290,confidence_buffer,,null,,,,,,,,,,,,,,,,,,
2176.100000023842,,probe_rating,1388469,probe_rating,,50,,,,2,1,,,,,,,,,,,,,
null,,confidence_buffer,1388579,confidence_buffer,,null,,,,,,,,,,,,,,,,,,
4571.899999976158,,recognition_phase,1393153,US_Cities_List/nat_athens.png,,52,,,,,,new,1,0.9,,,,,,,,,,
null,,confidence_buffer,1393262,confidence_buffer,,null,,,,,,,,,,,,,,,,,,
null,,thebreak,1393772,break,,null,,,,,,,,,,,,,,,,,,
9726.600000023842,,realistic_rating,1403500,US_Cities_List/mm_abilene.png,,50,US_Cities_List/mm_abilene.png,MM,2,,,,,,,,,,,,,,,
null,,confidence_buffer,1403615,confidence_buffer,,null,,,,,,,,,,,,,,,,,,
5690.600000023842,,pt2_unique_rating,1409307,US_Cities_List/mm_abilene.png,,52,,,4,,,,,,,,,,,,,,,
null,,confidence_buffer,1409417,confidence_buffer,,null,,,,,,,,,,,,,,,,,,
2424.4000000953674,,pt2_memorable_rating,1411844,US_Cities_List/mm_abilene.png,,51,,,3,,,,,,,,,,,,,,,
null,,confidence_buffer,1411952,confidence_buffer,,null,,,,,,,,,,,,,,,,,,
2116.0999999046326,,recognition_phase,1414070,US_Cities_List/mm_abilene.png,,49,,,,,,old,1,0.9024390243902439,,,,,,,,,,
null,,confidence_buffer,1414182,confidence_buffer,,null,,,,,,,,,,,,,,,,,,
null,,thebreak,1414687,break,,null,,,,,,,,,,,,,,,,,,
2971.399999976158,,realistic_rating,1417660,US_Cities_List/nat_westpalmbeach.png,,50,US_Cities_List/nat_westpalmbeach.png,NAT,2,,,,,,,,,,,,,,,
null,,confidence_buffer,1417779,confidence_buffer,,null,,,,,,,,,,,,,,,,,,
2450.100000023842,,pt2_unique_rating,1420231,US_Cities_List/nat_westpalmbeach.png,,51,,,3,,,,,,,,,,,,,,,
null,,confidence_buffer,1420340,confidence_buffer,,null,,,,,,,,,,,,,,,,,,
2767.1999999284744,,pt2_memorable_rating,1423109,US_Cities_List/nat_westpalmbeach.png,,51,,,3,,,,,,,,,,,,,,,
null,,confidence_buffer,1423219,confidence_buffer,,null,,,,,,,,,,,,,,,,,,
2022,,recognition_phase,1425242,US_Cities_List/nat_westpalmbeach.png,,49,,,,,,old,1,0.9047619047619048,,,,,,,,,,
null,,confidence_buffer,1425346,confidence_buffer,,null,,,,,,,,,,,,,,,,,,
null,,thebreak,1425848,break,,null,,,,,,,,,,,,,,,,,,
2943.600000023842,,realistic_rating,1428793,Fictional_Cities_List/img_manmade_04.png,,51,Fictional_Cities_List/img_manmade_04.png,MM,3,,,,,,,,,,,,,,,
null,,confidence_buffer,1428910,confidence_buffer,,null,,,,,,,,,,,,,,,,,,
4529.800000071526,,pt2_unique_rating,1433442,Fictional_Cities_List/img_manmade_04.png,,51,,,3,,,,,,,,,,,,,,,
null,,confidence_buffer,1433551,confidence_buffer,,null,,,,,,,,,,,,,,,,,,
4483.600000023842,,pt2_memorable_rating,1438036,Fictional_Cities_List/img_manmade_04.png,,51,,,3,,,,,,,,,,,,,,,
null,,confidence_buffer,1438146,confidence_buffer,,null,,,,,,,,,,,,,,,,,,
10830.699999928474,,recognition_phase,1448978,Fictional_Cities_List/img_manmade_04.png,,51,,,,,,new,1,0.9069767441860465,,,,,,,,,,
null,,confidence_buffer,1449090,confidence_buffer,,null,,,,,,,,,,,,,,,,,,
null,,thebreak,1449593,break,,null,,,,,,,,,,,,,,,,,,
2843.2000000476837,,realistic_rating,1452438,US_Cities_List/nat_healdsburg.png,,51,US_Cities_List/nat_healdsburg.png,NAT,3,,,,,,,,,,,,,,,
null,,confidence_buffer,1452541,confidence_buffer,,null,,,,,,,,,,,,,,,,,,
5977.899999976158,,pt2_unique_rating,1458521,US_Cities_List/nat_healdsburg.png,,51,,,3,,,,,,,,,,,,,,,
null,,confidence_buffer,1458632,confidence_buffer,,null,,,,,,,,,,,,,,,,,,
2395.600000023842,,probe_rating,1461029,probe_rating,,49,,,,1,1,,,,,,,,,,,,,
null,,confidence_buffer,1461147,confidence_buffer,,null,,,,,,,,,,,,,,,,,,
2714.600000023842,,pt2_memorable_rating,1463863,US_Cities_List/nat_healdsburg.png,,51,,,3,,,,,,,,,,,,,,,
null,,confidence_buffer,1463978,confidence_buffer,,null,,,,,,,,,,,,,,,,,,
4975.5,,recognition_phase,1468955,US_Cities_List/nat_healdsburg.png,,52,,,,,,new,0,0.8863636363636364,,,,,,,,,,
null,,confidence_buffer,1469066,confidence_buffer,,null,,,,,,,,,,,,,,,,,,
null,,thebreak,1469573,break,,null,,,,,,,,,,,,,,,,,,
5991.399999976158,,realistic_rating,1475566,US_Cities_List/nat_abilene.png,,51,US_Cities_List/nat_abilene.png,NAT,3,,,,,,,,,,,,,,,
null,,confidence_buffer,1475674,confidence_buffer,,null,,,,,,,,,,,,,,,,,,
3385.3000000715256,,pt2_unique_rating,1479061,US_Cities_List/nat_abilene.png,,51,,,3,,,,,,,,,,,,,,,
null,,confidence_buffer,1479172,confidence_buffer,,null,,,,,,,,,,,,,,,,,,
2026.7000000476837,,pt2_memorable_rating,1481201,US_Cities_List/nat_abilene.png,,52,,,4,,,,,,,,,,,,,,,
null,,confidence_buffer,1481312,confidence_buffer,,null,,,,,,,,,,,,,,,,,,
2180.7000000476837,,recognition_phase,1483495,US_Cities_List/nat_abilene.png,,49,,,,,,old,1,0.8888888888888888,,,,,,,,,,
null,,confidence_buffer,1483601,confidence_buffer,,null,,,,,,,,,,,,,,,,,,
null,,thebreak,1484111,break,,null,,,,,,,,,,,,,,,,,,
6184,,realistic_rating,1490297,US_Cities_List/mm_sitka.png,,52,US_Cities_List/mm_sitka.png,MM,4,,,,,,,,,,,,,,,
null,,confidence_buffer,1490417,confidence_buffer,,null,,,,,,,,,,,,,,,,,,
2190.3000000715256,,pt2_unique_rating,1492609,US_Cities_List/mm_sitka.png,,52,,,4,,,,,,,,,,,,,,,
null,,confidence_buffer,1492722,confidence_buffer,,null,,,,,,,,,,,,,,,,,,
18397.299999952316,,pt2_memorable_rating,1511121,US_Cities_List/mm_sitka.png,,51,,,3,,,,,,,,,,,,,,,
null,,confidence_buffer,1511232,confidence_buffer,,null,,,,,,,,,,,,,,,,,,
2644.600000023842,,probe_rating,1513879,probe_rating,,49,,,,1,1,,,,,,,,,,,,,
null,,confidence_buffer,1513984,confidence_buffer,,null,,,,,,,,,,,,,,,,,,
2520,,recognition_phase,1516506,US_Cities_List/mm_sitka.png,,49,,,,,,old,1,0.8913043478260869,,,,,,,,,,
null,,confidence_buffer,1516622,confidence_buffer,,null,,,,,,,,,,,,,,,,,,
null,,thebreak,1517141,break,,null,,,,,,,,,,,,,,,,,,
5748.199999928474,,realistic_rating,1522891,US_Cities_List/mm_athens.png,,51,US_Cities_List/mm_athens.png,MM,3,,,,,,,,,,,,,,,
null,,confidence_buffer,1522994,confidence_buffer,,null,,,,,,,,,,,,,,,,,,
3322.7000000476837,,pt2_unique_rating,1526319,US_Cities_List/mm_athens.png,,52,,,4,,,,,,,,,,,,,,,
null,,confidence_buffer,1526424,confidence_buffer,,null,,,,,,,,,,,,,,,,,,
3179.399999976158,,pt2_memorable_rating,1529605,US_Cities_List/mm_athens.png,,52,,,4,,,,,,,,,,,,,,,
null,,confidence_buffer,1529720,confidence_buffer,,null,,,,,,,,,,,,,,,,,,
3023.2000000476837,,recognition_phase,1532745,US_Cities_List/mm_athens.png,,52,,,,,,new,1,0.8936170212765957,,,,,,,,,,
null,,confidence_buffer,1532854,confidence_buffer,,null,,,,,,,,,,,,,,,,,,
null,,thebreak,1533356,break,,null,,,,,,,,,,,,,,,,,,
3512.100000023842,,realistic_rating,1536870,US_Cities_List/nat_cornwall.png,,51,US_Cities_List/nat_cornwall.png,NAT,3,,,,,,,,,,,,,,,
null,,confidence_buffer,1536976,confidence_buffer,,null,,,,,,,,,,,,,,,,,,
2296.1999999284744,,probe_rating,1539273,probe_rating,,49,,,,1,1,,,,,,,,,,,,,
null,,confidence_buffer,1539378,confidence_buffer,,null,,,,,,,,,,,,,,,,,,
2840.7999999523163,,pt2_unique_rating,1542220,US_Cities_List/nat_cornwall.png,,52,,,4,,,,,,,,,,,,,,,
null,,confidence_buffer,1542334,confidence_buffer,,null,,,,,,,,,,,,,,,,,,
3244.2999999523163,,pt2_memorable_rating,1545580,US_Cities_List/nat_cornwall.png,,53,,,5,,,,,,,,,,,,,,,
null,,confidence_buffer,1545692,confidence_buffer,,null,,,,,,,,,,,,,,,,,,
3732,,recognition_phase,1549428,US_Cities_List/nat_cornwall.png,,49,,,,,,old,1,0.8958333333333334,,,,,,,,,,
null,,confidence_buffer,1549531,confidence_buffer,,null,,,,,,,,,,,,,,,,,,
null,,thebreak,1550032,break,,null,,,,,,,,,,,,,,,,,,
2967.899999976158,,realistic_rating,1553002,US_Cities_List/mm_cornwall.png,,50,US_Cities_List/mm_cornwall.png,MM,2,,,,,,,,,,,,,,,
null,,confidence_buffer,1553113,confidence_buffer,,null,,,,,,,,,,,,,,,,,,
4923.200000047684,,pt2_unique_rating,1558038,US_Cities_List/mm_cornwall.png,,51,,,3,,,,,,,,,,,,,,,
null,,confidence_buffer,1558152,confidence_buffer,,null,,,,,,,,,,,,,,,,,,
7059.899999976158,,pt2_memorable_rating,1565214,US_Cities_List/mm_cornwall.png,,51,,,3,,,,,,,,,,,,,,,
null,,confidence_buffer,1565322,confidence_buffer,,null,,,,,,,,,,,,,,,,,,
5092.5,,recognition_phase,1570416,US_Cities_List/mm_cornwall.png,,49,,,,,,old,1,0.8979591836734694,,,,,,,,,,
null,,confidence_buffer,1570520,confidence_buffer,,null,,,,,,,,,,,,,,,,,,
null,,thebreak,1571036,break,,null,,,,,,,,,,,,,,,,,,
4613.600000023842,,realistic_rating,1575651,Fictional_Cities_List/img_natural_01.png,,51,Fictional_Cities_List/img_natural_01.png,NAT,3,,,,,,,,,,,,,,,
null,,confidence_buffer,1575765,confidence_buffer,,null,,,,,,,,,,,,,,,,,,
1983.2999999523163,,pt2_unique_rating,1577750,Fictional_Cities_List/img_natural_01.png,,51,,,3,,,,,,,,,,,,,,,
null,,confidence_buffer,1577864,confidence_buffer,,null,,,,,,,,,,,,,,,,,,
1638.6000000238419,,pt2_memorable_rating,1579504,Fictional_Cities_List/img_natural_01.png,,52,,,4,,,,,,,,,,,,,,,
null,,confidence_buffer,1579614,confidence_buffer,,null,,,,,,,,,,,,,,,,,,
2971.600000023842,,recognition_phase,1582587,Fictional_Cities_List/img_natural_01.png,,50,,,,,,old,0,0.88,,,,,,,,,,
null,,confidence_buffer,1582699,confidence_buffer,,null,,,,,,,,,,,,,,,,,,
null,,thebreak,1583209,break,,null,,,,,,,,,,,,,,,,,,
5969.799999952316,,realistic_rating,1589181,Fictional_Cities_List/img_manmade_14.png,,51,Fictional_Cities_List/img_manmade_14.png,MM,3,,,,,,,,,,,,,,,
null,,confidence_buffer,1589302,confidence_buffer,,null,,,,,,,,,,,,,,,,,,
4859.300000071526,,pt2_unique_rating,1594163,Fictional_Cities_List/img_manmade_14.png,,51,,,3,,,,,,,,,,,,,,,
null,,confidence_buffer,1594272,confidence_buffer,,null,,,,,,,,,,,,,,,,,,
2862.0999999046326,,probe_rating,1597136,probe_rating,,53,,,,5,1,,,,,,,,,,,,,
null,,confidence_buffer,1597248,confidence_buffer,,null,,,,,,,,,,,,,,,,,,
3041.100000023842,,pt2_memorable_rating,1600291,Fictional_Cities_List/img_manmade_14.png,,51,,,3,,,,,,,,,,,,,,,
null,,confidence_buffer,1600403,confidence_buffer,,null,,,,,,,,,,,,,,,,,,
4229.799999952316,,recognition_phase,1604635,Fictional_Cities_List/img_manmade_14.png,,51,,,,,,new,1,0.8823529411764706,,,,,,,,,,
null,,confidence_buffer,1604745,confidence_buffer,,null,,,,,,,,,,,,,,,,,,
null,,thebreak,1605251,break,,null,,,,,,,,,,,,,,,,,,
4644.300000071526,,realistic_rating,1609897,US_Cities_List/nat_sitka.png,,51,US_Cities_List/nat_sitka.png,NAT,3,,,,,,,,,,,,,,,
null,,confidence_buffer,1610001,confidence_buffer,,null,,,,,,,,,,,,,,,,,,
2201.0999999046326,,probe_rating,1612204,probe_rating,,49,,,,1,1,,,,,,,,,,,,,
null,,confidence_buffer,1612316,confidence_buffer,,null,,,,,,,,,,,,,,,,,,
1733,,pt2_unique_rating,1614051,US_Cities_List/nat_sitka.png,,51,,,3,,,,,,,,,,,,,,,
null,,confidence_buffer,1614159,confidence_buffer,,null,,,,,,,,,,,,,,,,,,
9117.600000023842,,pt2_memorable_rating,1623279,US_Cities_List/nat_sitka.png,,51,,,3,,,,,,,,,,,,,,,
null,,confidence_buffer,1623389,confidence_buffer,,null,,,,,,,,,,,,,,,,,,
7266.300000071526,,recognition_phase,1630659,US_Cities_List/nat_sitka.png,,51,,,,,,new,1,0.8846153846153846,,,,,,,,,,
null,,confidence_buffer,1630765,confidence_buffer,,null,,,,,,,,,,,,,,,,,,
null,,thebreak,1631282,break,,null,,,,,,,,,,,,,,,,,,
8716.400000095367,,realistic_rating,1640001,Fictional_Cities_List/img_manmade_12.png,,50,Fictional_Cities_List/img_manmade_12.png,MM,2,,,,,,,,,,,,,,,
null,,confidence_buffer,1640105,confidence_buffer,,null,,,,,,,,,,,,,,,,,,
2803.7000000476837,,pt2_unique_rating,1642910,Fictional_Cities_List/img_manmade_12.png,,51,,,3,,,,,,,,,,,,,,,
null,,confidence_buffer,1643014,confidence_buffer,,null,,,,,,,,,,,,,,,,,,
6894,,pt2_memorable_rating,1649909,Fictional_Cities_List/img_manmade_12.png,,51,,,3,,,,,,,,,,,,,,,
null,,confidence_buffer,1650023,confidence_buffer,,null,,,,,,,,,,,,,,,,,,
8197.300000071526,,recognition_phase,1658222,Fictional_Cities_List/img_manmade_12.png,,49,,,,,,old,1,0.8867924528301887,,,,,,,,,,
null,,confidence_buffer,1658333,confidence_buffer,,null,,,,,,,,,,,,,,,,,,
null,,thebreak,1658836,break,,null,,,,,,,,,,,,,,,,,,
4039.399999976158,,realistic_rating,1662878,Fictional_Cities_List/img_manmade_10.png,,51,Fictional_Cities_List/img_manmade_10.png,MM,3,,,,,,,,,,,,,,,
null,,confidence_buffer,1662985,confidence_buffer,,null,,,,,,,,,,,,,,,,,,
4432.100000023842,,pt2_unique_rating,1667419,Fictional_Cities_List/img_manmade_10.png,,51,,,3,,,,,,,,,,,,,,,
null,,confidence_buffer,1667529,confidence_buffer,,null,,,,,,,,,,,,,,,,,,
2709.6999999284744,,pt2_memorable_rating,1670240,Fictional_Cities_List/img_manmade_10.png,,51,,,3,,,,,,,,,,,,,,,
null,,confidence_buffer,1670352,confidence_buffer,,null,,,,,,,,,,,,,,,,,,
3119.0999999046326,,recognition_phase,1673473,Fictional_Cities_List/img_manmade_10.png,,52,,,,,,new,1,0.8888888888888888,,,,,,,,,,
null,,confidence_buffer,1673583,confidence_buffer,,null,,,,,,,,,,,,,,,,,,
null,,thebreak,1674090,break,,null,,,,,,,,,,,,,,,,,,
3179.100000023842,,realistic_rating,1677271,Fictional_Cities_List/img_natural_09.png,,51,Fictional_Cities_List/img_natural_09.png,NAT,3,,,,,,,,,,,,,,,
null,,confidence_buffer,1677381,confidence_buffer,,null,,,,,,,,,,,,,,,,,,
1369.6999999284744,,pt2_unique_rating,1678753,Fictional_Cities_List/img_natural_09.png,,52,,,4,,,,,,,,,,,,,,,
null,,confidence_buffer,1678861,confidence_buffer,,null,,,,,,,,,,,,,,,,,,
2148.1999999284744,,pt2_memorable_rating,1681011,Fictional_Cities_List/img_natural_09.png,,52,,,4,,,,,,,,,,,,,,,
null,,confidence_buffer,1681125,confidence_buffer,,null,,,,,,,,,,,,,,,,,,
3044.1999999284744,,recognition_phase,1684171,Fictional_Cities_List/img_natural_09.png,,49,,,,,,old,1,0.8909090909090909,,,,,,,,,,
null,,confidence_buffer,1684279,confidence_buffer,,null,,,,,,,,,,,,,,,,,,
null,,thebreak,1684781,break,,null,,,,,,,,,,,,,,,,,,
6412.5,,realistic_rating,1691195,Fictional_Cities_List/img_manmade_15.png,,50,Fictional_Cities_List/img_manmade_15.png,MM,2,,,,,,,,,,,,,,,
null,,confidence_buffer,1691303,confidence_buffer,,null,,,,,,,,,,,,,,,,,,
1740.2000000476837,,pt2_unique_rating,1693045,Fictional_Cities_List/img_manmade_15.png,,50,,,2,,,,,,,,,,,,,,,
null,,confidence_buffer,1693151,confidence_buffer,,null,,,,,,,,,,,,,,,,,,
1232.2000000476837,,pt2_memorable_rating,1694385,Fictional_Cities_List/img_manmade_15.png,,50,,,2,,,,,,,,,,,,,,,
null,,confidence_buffer,1694490,confidence_buffer,,null,,,,,,,,,,,,,,,,,,
2278.9000000953674,,probe_rating,1696771,probe_rating,,51,,,,3,1,,,,,,,,,,,,,
null,,confidence_buffer,1696882,confidence_buffer,,null,,,,,,,,,,,,,,,,,,
3428.600000023842,,recognition_phase,1700312,Fictional_Cities_List/img_manmade_15.png,,49,,,,,,old,1,0.8928571428571429,,,,,,,,,,
null,,confidence_buffer,1700427,confidence_buffer,,null,,,,,,,,,,,,,,,,,,
null,,thebreak,1700935,break,,null,,,,,,,,,,,,,,,,,,
3990.100000023842,,realistic_rating,1704928,Fictional_Cities_List/img_manmade_03.png,,50,Fictional_Cities_List/img_manmade_03.png,MM,2,,,,,,,,,,,,,,,
null,,confidence_buffer,1705034,confidence_buffer,,null,,,,,,,,,,,,,,,,,,
2031.3999999761581,,pt2_unique_rating,1707067,Fictional_Cities_List/img_manmade_03.png,,51,,,3,,,,,,,,,,,,,,,
null,,confidence_buffer,1707172,confidence_buffer,,null,,,,,,,,,,,,,,,,,,
1446.2000000476837,,pt2_memorable_rating,1708620,Fictional_Cities_List/img_manmade_03.png,,51,,,3,,,,,,,,,,,,,,,
null,,confidence_buffer,1708731,confidence_buffer,,null,,,,,,,,,,,,,,,,,,
3199.399999976158,,recognition_phase,1711933,Fictional_Cities_List/img_manmade_03.png,,51,,,,,,new,0,0.8771929824561403,,,,,,,,,,
null,,confidence_buffer,1712044,confidence_buffer,,null,,,,,,,,,,,,,,,,,,
null,,thebreak,1712548,break,,null,,,,,,,,,,,,,,,,,,
2521.399999976158,,realistic_rating,1715072,Fictional_Cities_List/img_manmade_02.png,,50,Fictional_Cities_List/img_manmade_02.png,MM,2,,,,,,,,,,,,,,,
null,,confidence_buffer,1715180,confidence_buffer,,null,,,,,,,,,,,,,,,,,,
5368.699999928474,,probe_rating,1720550,probe_rating,,53,,,,5,1,,,,,,,,,,,,,
null,,confidence_buffer,1720660,confidence_buffer,,null,,,,,,,,,,,,,,,,,,
4154.300000071526,,pt2_unique_rating,1724816,Fictional_Cities_List/img_manmade_02.png,,50,,,2,,,,,,,,,,,,,,,
null,,confidence_buffer,1724921,confidence_buffer,,null,,,,,,,,,,,,,,,,,,
1782.2999999523163,,pt2_memorable_rating,1726706,Fictional_Cities_List/img_manmade_02.png,,51,,,3,,,,,,,,,,,,,,,
null,,confidence_buffer,1726821,confidence_buffer,,null,,,,,,,,,,,,,,,,,,
1665.3000000715256,,recognition_phase,1728489,Fictional_Cities_List/img_manmade_02.png,,51,,,,,,new,1,0.8793103448275862,,,,,,,,,,
null,,confidence_buffer,1728602,confidence_buffer,,null,,,,,,,,,,,,,,,,,,
null,,thebreak,1729109,break,,null,,,,,,,,,,,,,,,,,,
7280.400000095367,,realistic_rating,1736391,Fictional_Cities_List/img_natural_10.png,,51,Fictional_Cities_List/img_natural_10.png,NAT,3,,,,,,,,,,,,,,,
null,,confidence_buffer,1736500,confidence_buffer,,null,,,,,,,,,,,,,,,,,,
8887.600000023842,,pt2_unique_rating,1745390,Fictional_Cities_List/img_natural_10.png,,50,,,2,,,,,,,,,,,,,,,
null,,confidence_buffer,1745493,confidence_buffer,,null,,,,,,,,,,,,,,,,,,
3278.9000000953674,,pt2_memorable_rating,1748774,Fictional_Cities_List/img_natural_10.png,,51,,,3,,,,,,,,,,,,,,,
null,,confidence_buffer,1748878,confidence_buffer,,null,,,,,,,,,,,,,,,,,,
2811.6999999284744,,recognition_phase,1751692,Fictional_Cities_List/img_natural_10.png,,49,,,,,,old,1,0.8813559322033898,,,,,,,,,,
null,,confidence_buffer,1751802,confidence_buffer,,null,,,,,,,,,,,,,,,,,,
null,,thebreak,1752311,break,,null,,,,,,,,,,,,,,,,,,
3576.0999999046326,,realistic_rating,1755889,Fictional_Cities_List/img_manmade_13.png,,51,Fictional_Cities_List/img_manmade_13.png,MM,3,,,,,,,,,,,,,,,
null,,confidence_buffer,1755994,confidence_buffer,,null,,,,,,,,,,,,,,,,,,
2018.8000000715256,,pt2_unique_rating,1758014,Fictional_Cities_List/img_manmade_13.png,,51,,,3,,,,,,,,,,,,,,,
null,,confidence_buffer,1758132,confidence_buffer,,null,,,,,,,,,,,,,,,,,,
1222.3999999761581,,pt2_memorable_rating,1759356,Fictional_Cities_List/img_manmade_13.png,,51,,,3,,,,,,,,,,,,,,,
null,,confidence_buffer,1759463,confidence_buffer,,null,,,,,,,,,,,,,,,,,,
4269.299999952316,,recognition_phase,1763734,Fictional_Cities_List/img_manmade_13.png,,50,,,,,,old,1,0.8833333333333333,,,,,,,,,,
null,,confidence_buffer,1763837,confidence_buffer,,null,,,,,,,,,,,,,,,,,,
null,,thebreak,1764347,break,,null,,,,,,,,,,,,,,,,,,
,,survey,2279911,survey-questions,,,,,,,,,,,none,high,No I wasn't doing anything else.,I tries memorize the picture before I picture,If the picture is really, before I chose how familiar am with you,If the picture can stick to the brain and explained better,The unique of the picture, color, background picture clarity.,How real the picture, are real, do they even exit.,No,N/A
