rt,responses,trial_type,time_elapsed,stimulus,button_pressed,key_press,name_trial,city_type,rating,probe,probe_accuracy,response,correct,accuracy,problems,smooth,distraction,strategies,familiar,memorable,unique,realistic,similar,comments
5487.29999999702,{worker_id:56ce6383465e58000d84710d},id_enter,5490,,,,,,,,,,,,,,,,,,,,,
12476.60000000894,,fullscreen,17976,fullscreen,0,,,,,,,,,,,,,,,,,,,
5052.5,,intro_0,23030,instruct,,32,,,,,,,,,,,,,,,,,,
12103.09999999404,,intro_1,35133,instruct,,32,,,,,,,,,,,,,,,,,,
5526.899999991059,,intro_2,40661,instruct,,32,,,,,,,,,,,,,,,,,,
null,,instruct_dir_4,42163,instruct,,null,,,,,,,,,,,,,,,,,,
null,,thebreak,42664,break,,null,,,,,,,,,,,,,,,,,,
4572.20000000298,,familiar_rating,47238,Fictional_Cities_List/img_natural_07.png,,50,Fictional_Cities_List/img_natural_07.png,NAT,2,,,,,,,,,,,,,,,
null,,confidence_buffer,47341,confidence_buffer,,null,,,,,,,,,,,,,,,,,,
2679.3999999910593,,unique_rating,50022,Fictional_Cities_List/img_natural_07.png,,51,,,3,,,,,,,,,,,,,,,
null,,confidence_buffer,50124,confidence_buffer,,null,,,,,,,,,,,,,,,,,,
2905.6000000089407,,memorable_rating,53030,Fictional_Cities_List/img_natural_07.png,,51,,,3,,,,,,,,,,,,,,,
null,,confidence_buffer,53133,confidence_buffer,,null,,,,,,,,,,,,,,,,,,
null,,thebreak,53634,break,,null,,,,,,,,,,,,,,,,,,
2074.5999999940395,,familiar_rating,55710,US_Cities_List/nat_hotsprings.png,,49,US_Cities_List/nat_hotsprings.png,NAT,1,,,,,,,,,,,,,,,
null,,confidence_buffer,55811,confidence_buffer,,null,,,,,,,,,,,,,,,,,,
4009.7999999970198,,unique_rating,59822,US_Cities_List/nat_hotsprings.png,,51,,,3,,,,,,,,,,,,,,,
null,,confidence_buffer,59924,confidence_buffer,,null,,,,,,,,,,,,,,,,,,
3241.0999999940395,,memorable_rating,63166,US_Cities_List/nat_hotsprings.png,,51,,,3,,,,,,,,,,,,,,,
null,,confidence_buffer,63268,confidence_buffer,,null,,,,,,,,,,,,,,,,,,
null,,thebreak,63769,break,,null,,,,,,,,,,,,,,,,,,
2132.2999999970198,,familiar_rating,65902,Fictional_Cities_List/img_manmade_08.png,,49,Fictional_Cities_List/img_manmade_08.png,MM,1,,,,,,,,,,,,,,,
null,,confidence_buffer,66004,confidence_buffer,,null,,,,,,,,,,,,,,,,,,
2112.5999999940395,,unique_rating,68118,Fictional_Cities_List/img_manmade_08.png,,52,,,4,,,,,,,,,,,,,,,
null,,confidence_buffer,68220,confidence_buffer,,null,,,,,,,,,,,,,,,,,,
3193.5,,memorable_rating,71414,Fictional_Cities_List/img_manmade_08.png,,51,,,3,,,,,,,,,,,,,,,
null,,confidence_buffer,71516,confidence_buffer,,null,,,,,,,,,,,,,,,,,,
null,,thebreak,72018,break,,null,,,,,,,,,,,,,,,,,,
2314.5999999940395,,familiar_rating,74334,US_Cities_List/nat_athens.png,,50,US_Cities_List/nat_athens.png,NAT,2,,,,,,,,,,,,,,,
null,,confidence_buffer,74436,confidence_buffer,,null,,,,,,,,,,,,,,,,,,
1889.1000000089407,,unique_rating,76326,US_Cities_List/nat_athens.png,,49,,,1,,,,,,,,,,,,,,,
null,,confidence_buffer,76427,confidence_buffer,,null,,,,,,,,,,,,,,,,,,
2353.4000000059605,,memorable_rating,78782,US_Cities_List/nat_athens.png,,50,,,2,,,,,,,,,,,,,,,
null,,confidence_buffer,78884,confidence_buffer,,null,,,,,,,,,,,,,,,,,,
null,,thebreak,79386,break,,null,,,,,,,,,,,,,,,,,,
2803,,familiar_rating,82190,Fictional_Cities_List/img_manmade_06.png,,51,Fictional_Cities_List/img_manmade_06.png,MM,3,,,,,,,,,,,,,,,
null,,confidence_buffer,82292,confidence_buffer,,null,,,,,,,,,,,,,,,,,,
2240.7999999970198,,unique_rating,84534,Fictional_Cities_List/img_manmade_06.png,,49,,,1,,,,,,,,,,,,,,,
null,,confidence_buffer,84635,confidence_buffer,,null,,,,,,,,,,,,,,,,,,
2425.2000000029802,,memorable_rating,87061,Fictional_Cities_List/img_manmade_06.png,,50,,,2,,,,,,,,,,,,,,,
null,,confidence_buffer,87164,confidence_buffer,,null,,,,,,,,,,,,,,,,,,
null,,thebreak,87665,break,,null,,,,,,,,,,,,,,,,,,
4068.2000000029802,,familiar_rating,91734,US_Cities_List/mm_okoboji.png,,50,US_Cities_List/mm_okoboji.png,MM,2,,,,,,,,,,,,,,,
null,,confidence_buffer,91835,confidence_buffer,,null,,,,,,,,,,,,,,,,,,
3711.6000000089407,,unique_rating,95548,US_Cities_List/mm_okoboji.png,,51,,,3,,,,,,,,,,,,,,,
null,,confidence_buffer,95649,confidence_buffer,,null,,,,,,,,,,,,,,,,,,
1867.7000000029802,,memorable_rating,97517,US_Cities_List/mm_okoboji.png,,51,,,3,,,,,,,,,,,,,,,
null,,confidence_buffer,97620,confidence_buffer,,null,,,,,,,,,,,,,,,,,,
2320.5,,probe_rating,99941,probe_rating,,50,,,,2,1,,,,,,,,,,,,,
null,,confidence_buffer,100044,confidence_buffer,,null,,,,,,,,,,,,,,,,,,
null,,thebreak,100546,break,,null,,,,,,,,,,,,,,,,,,
4105.5,,familiar_rating,104652,US_Cities_List/nat_sitka.png,,51,US_Cities_List/nat_sitka.png,NAT,3,,,,,,,,,,,,,,,
null,,confidence_buffer,104754,confidence_buffer,,null,,,,,,,,,,,,,,,,,,
2339.1000000089407,,probe_rating,107094,probe_rating,,49,,,,1,1,,,,,,,,,,,,,
null,,confidence_buffer,107195,confidence_buffer,,null,,,,,,,,,,,,,,,,,,
2689.5,,unique_rating,109885,US_Cities_List/nat_sitka.png,,50,,,2,,,,,,,,,,,,,,,
null,,confidence_buffer,109987,confidence_buffer,,null,,,,,,,,,,,,,,,,,,
1897.0999999940395,,memorable_rating,111885,US_Cities_List/nat_sitka.png,,50,,,2,,,,,,,,,,,,,,,
null,,confidence_buffer,111986,confidence_buffer,,null,,,,,,,,,,,,,,,,,,
null,,thebreak,112488,break,,null,,,,,,,,,,,,,,,,,,
3723.5,,familiar_rating,116212,US_Cities_List/mm_healdsburg.png,,50,US_Cities_List/mm_healdsburg.png,MM,2,,,,,,,,,,,,,,,
null,,confidence_buffer,116315,confidence_buffer,,null,,,,,,,,,,,,,,,,,,
3993.9000000059605,,unique_rating,120309,US_Cities_List/mm_healdsburg.png,,52,,,4,,,,,,,,,,,,,,,
null,,confidence_buffer,120411,confidence_buffer,,null,,,,,,,,,,,,,,,,,,
2600.5999999940395,,memorable_rating,123013,US_Cities_List/mm_healdsburg.png,,51,,,3,,,,,,,,,,,,,,,
null,,confidence_buffer,123115,confidence_buffer,,null,,,,,,,,,,,,,,,,,,
null,,thebreak,123617,break,,null,,,,,,,,,,,,,,,,,,
3187.2999999970198,,familiar_rating,126805,US_Cities_List/nat_abilene.png,,49,US_Cities_List/nat_abilene.png,NAT,1,,,,,,,,,,,,,,,
null,,confidence_buffer,126907,confidence_buffer,,null,,,,,,,,,,,,,,,,,,
1921.9000000059605,,unique_rating,128829,US_Cities_List/nat_abilene.png,,49,,,1,,,,,,,,,,,,,,,
null,,confidence_buffer,128931,confidence_buffer,,null,,,,,,,,,,,,,,,,,,
2759.4000000059605,,memorable_rating,131692,US_Cities_List/nat_abilene.png,,50,,,2,,,,,,,,,,,,,,,
null,,confidence_buffer,131793,confidence_buffer,,null,,,,,,,,,,,,,,,,,,
null,,thebreak,132295,break,,null,,,,,,,,,,,,,,,,,,
6868.5,,familiar_rating,139164,US_Cities_List/mm_athens.png,,50,US_Cities_List/mm_athens.png,MM,2,,,,,,,,,,,,,,,
null,,confidence_buffer,139266,confidence_buffer,,null,,,,,,,,,,,,,,,,,,
3865.7000000029802,,unique_rating,143132,US_Cities_List/mm_athens.png,,50,,,2,,,,,,,,,,,,,,,
null,,confidence_buffer,143235,confidence_buffer,,null,,,,,,,,,,,,,,,,,,
1905.9000000059605,,probe_rating,145141,probe_rating,,50,,,,2,1,,,,,,,,,,,,,
null,,confidence_buffer,145244,confidence_buffer,,null,,,,,,,,,,,,,,,,,,
2504.2000000029802,,memorable_rating,147749,US_Cities_List/mm_athens.png,,51,,,3,,,,,,,,,,,,,,,
null,,confidence_buffer,147851,confidence_buffer,,null,,,,,,,,,,,,,,,,,,
null,,thebreak,148354,break,,null,,,,,,,,,,,,,,,,,,
9386.29999999702,,familiar_rating,157741,Fictional_Cities_List/img_natural_05.png,,49,Fictional_Cities_List/img_natural_05.png,NAT,1,,,,,,,,,,,,,,,
null,,confidence_buffer,157843,confidence_buffer,,null,,,,,,,,,,,,,,,,,,
1759.7999999970198,,unique_rating,159604,Fictional_Cities_List/img_natural_05.png,,51,,,3,,,,,,,,,,,,,,,
null,,confidence_buffer,159706,confidence_buffer,,null,,,,,,,,,,,,,,,,,,
3673.2000000029802,,memorable_rating,163380,Fictional_Cities_List/img_natural_05.png,,51,,,3,,,,,,,,,,,,,,,
null,,confidence_buffer,163482,confidence_buffer,,null,,,,,,,,,,,,,,,,,,
null,,thebreak,163983,break,,null,,,,,,,,,,,,,,,,,,
3100.0999999940395,,familiar_rating,167085,Fictional_Cities_List/img_natural_08.png,,50,Fictional_Cities_List/img_natural_08.png,NAT,2,,,,,,,,,,,,,,,
null,,confidence_buffer,167187,confidence_buffer,,null,,,,,,,,,,,,,,,,,,
3017,,unique_rating,170205,Fictional_Cities_List/img_natural_08.png,,50,,,2,,,,,,,,,,,,,,,
null,,confidence_buffer,170307,confidence_buffer,,null,,,,,,,,,,,,,,,,,,
2664,,memorable_rating,172972,Fictional_Cities_List/img_natural_08.png,,52,,,4,,,,,,,,,,,,,,,
null,,confidence_buffer,173074,confidence_buffer,,null,,,,,,,,,,,,,,,,,,
null,,thebreak,173576,break,,null,,,,,,,,,,,,,,,,,,
3243.5999999940395,,familiar_rating,176820,Fictional_Cities_List/img_natural_11.png,,49,Fictional_Cities_List/img_natural_11.png,NAT,1,,,,,,,,,,,,,,,
null,,confidence_buffer,176922,confidence_buffer,,null,,,,,,,,,,,,,,,,,,
3842.4000000059605,,unique_rating,180765,Fictional_Cities_List/img_natural_11.png,,50,,,2,,,,,,,,,,,,,,,
null,,confidence_buffer,180867,confidence_buffer,,null,,,,,,,,,,,,,,,,,,
3936.7999999970198,,memorable_rating,184804,Fictional_Cities_List/img_natural_11.png,,50,,,2,,,,,,,,,,,,,,,
null,,confidence_buffer,184906,confidence_buffer,,null,,,,,,,,,,,,,,,,,,
null,,thebreak,185409,break,,null,,,,,,,,,,,,,,,,,,
3618.8999999910593,,familiar_rating,189028,US_Cities_List/mm_cornwall.png,,49,US_Cities_List/mm_cornwall.png,MM,1,,,,,,,,,,,,,,,
null,,confidence_buffer,189130,confidence_buffer,,null,,,,,,,,,,,,,,,,,,
2577.7000000029802,,unique_rating,191709,US_Cities_List/mm_cornwall.png,,51,,,3,,,,,,,,,,,,,,,
null,,confidence_buffer,191810,confidence_buffer,,null,,,,,,,,,,,,,,,,,,
3146.7999999970198,,memorable_rating,194958,US_Cities_List/mm_cornwall.png,,51,,,3,,,,,,,,,,,,,,,
null,,confidence_buffer,195059,confidence_buffer,,null,,,,,,,,,,,,,,,,,,
null,,thebreak,195560,break,,null,,,,,,,,,,,,,,,,,,
10412.29999999702,,familiar_rating,205973,US_Cities_List/mm_delawarecity.png,,50,US_Cities_List/mm_delawarecity.png,MM,2,,,,,,,,,,,,,,,
null,,confidence_buffer,206074,confidence_buffer,,null,,,,,,,,,,,,,,,,,,
2089,,unique_rating,208164,US_Cities_List/mm_delawarecity.png,,50,,,2,,,,,,,,,,,,,,,
null,,confidence_buffer,208265,confidence_buffer,,null,,,,,,,,,,,,,,,,,,
2866.0999999940395,,memorable_rating,211132,US_Cities_List/mm_delawarecity.png,,51,,,3,,,,,,,,,,,,,,,
null,,confidence_buffer,211233,confidence_buffer,,null,,,,,,,,,,,,,,,,,,
null,,thebreak,211734,break,,null,,,,,,,,,,,,,,,,,,
9077.5,,familiar_rating,220812,Fictional_Cities_List/img_manmade_12.png,,49,Fictional_Cities_List/img_manmade_12.png,MM,1,,,,,,,,,,,,,,,
null,,confidence_buffer,220914,confidence_buffer,,null,,,,,,,,,,,,,,,,,,
2248.6000000089407,,unique_rating,223164,Fictional_Cities_List/img_manmade_12.png,,50,,,2,,,,,,,,,,,,,,,
null,,confidence_buffer,223267,confidence_buffer,,null,,,,,,,,,,,,,,,,,,
2576,,memorable_rating,225844,Fictional_Cities_List/img_manmade_12.png,,49,,,1,,,,,,,,,,,,,,,
null,,confidence_buffer,225946,confidence_buffer,,null,,,,,,,,,,,,,,,,,,
null,,thebreak,226447,break,,null,,,,,,,,,,,,,,,,,,
2924,,familiar_rating,229372,US_Cities_List/nat_cornwall.png,,50,US_Cities_List/nat_cornwall.png,NAT,2,,,,,,,,,,,,,,,
null,,confidence_buffer,229474,confidence_buffer,,null,,,,,,,,,,,,,,,,,,
2849.5,,unique_rating,232246,US_Cities_List/nat_cornwall.png,,49,,,1,,,,,,,,,,,,,,,
null,,confidence_buffer,232348,confidence_buffer,,null,,,,,,,,,,,,,,,,,,
1680.0999999940395,,memorable_rating,234029,US_Cities_List/nat_cornwall.png,,49,,,1,,,,,,,,,,,,,,,
null,,confidence_buffer,234131,confidence_buffer,,null,,,,,,,,,,,,,,,,,,
null,,thebreak,234634,break,,null,,,,,,,,,,,,,,,,,,
3210.7999999970198,,familiar_rating,237845,US_Cities_List/nat_hilo.png,,49,US_Cities_List/nat_hilo.png,NAT,1,,,,,,,,,,,,,,,
null,,confidence_buffer,237948,confidence_buffer,,null,,,,,,,,,,,,,,,,,,
3736.2999999970198,,unique_rating,241685,US_Cities_List/nat_hilo.png,,51,,,3,,,,,,,,,,,,,,,
null,,confidence_buffer,241787,confidence_buffer,,null,,,,,,,,,,,,,,,,,,
2721.0999999940395,,memorable_rating,244509,US_Cities_List/nat_hilo.png,,50,,,2,,,,,,,,,,,,,,,
null,,confidence_buffer,244611,confidence_buffer,,null,,,,,,,,,,,,,,,,,,
null,,thebreak,245113,break,,null,,,,,,,,,,,,,,,,,,
5027.4000000059605,,familiar_rating,250141,Fictional_Cities_List/img_natural_14.png,,50,Fictional_Cities_List/img_natural_14.png,NAT,2,,,,,,,,,,,,,,,
null,,confidence_buffer,250243,confidence_buffer,,null,,,,,,,,,,,,,,,,,,
3929.2999999970198,,unique_rating,254173,Fictional_Cities_List/img_natural_14.png,,51,,,3,,,,,,,,,,,,,,,
null,,confidence_buffer,254275,confidence_buffer,,null,,,,,,,,,,,,,,,,,,
2752.699999988079,,memorable_rating,257029,Fictional_Cities_List/img_natural_14.png,,51,,,3,,,,,,,,,,,,,,,
null,,confidence_buffer,257130,confidence_buffer,,null,,,,,,,,,,,,,,,,,,
null,,thebreak,257632,break,,null,,,,,,,,,,,,,,,,,,
4908.29999999702,,familiar_rating,262541,Fictional_Cities_List/img_manmade_01.png,,49,Fictional_Cities_List/img_manmade_01.png,MM,1,,,,,,,,,,,,,,,
null,,confidence_buffer,262642,confidence_buffer,,null,,,,,,,,,,,,,,,,,,
3465.9000000059605,,unique_rating,266109,Fictional_Cities_List/img_manmade_01.png,,52,,,4,,,,,,,,,,,,,,,
null,,confidence_buffer,266210,confidence_buffer,,null,,,,,,,,,,,,,,,,,,
2170.2000000029802,,memorable_rating,268381,Fictional_Cities_List/img_manmade_01.png,,52,,,4,,,,,,,,,,,,,,,
null,,confidence_buffer,268482,confidence_buffer,,null,,,,,,,,,,,,,,,,,,
null,,thebreak,268984,break,,null,,,,,,,,,,,,,,,,,,
3331.9000000059605,,familiar_rating,272316,Fictional_Cities_List/img_natural_10.png,,51,Fictional_Cities_List/img_natural_10.png,NAT,3,,,,,,,,,,,,,,,
null,,confidence_buffer,272419,confidence_buffer,,null,,,,,,,,,,,,,,,,,,
5056.5,,unique_rating,277476,Fictional_Cities_List/img_natural_10.png,,52,,,4,,,,,,,,,,,,,,,
null,,confidence_buffer,277577,confidence_buffer,,null,,,,,,,,,,,,,,,,,,
1882.5,,probe_rating,279461,probe_rating,,52,,,,4,1,,,,,,,,,,,,,
null,,confidence_buffer,279563,confidence_buffer,,null,,,,,,,,,,,,,,,,,,
4136.29999999702,,memorable_rating,283700,Fictional_Cities_List/img_natural_10.png,,53,,,5,,,,,,,,,,,,,,,
null,,confidence_buffer,283801,confidence_buffer,,null,,,,,,,,,,,,,,,,,,
null,,thebreak,284304,break,,null,,,,,,,,,,,,,,,,,,
5860.20000000298,,familiar_rating,290164,Fictional_Cities_List/img_natural_02.png,,49,Fictional_Cities_List/img_natural_02.png,NAT,1,,,,,,,,,,,,,,,
null,,confidence_buffer,290266,confidence_buffer,,null,,,,,,,,,,,,,,,,,,
3488.2000000029802,,unique_rating,293755,Fictional_Cities_List/img_natural_02.png,,50,,,2,,,,,,,,,,,,,,,
null,,confidence_buffer,293857,confidence_buffer,,null,,,,,,,,,,,,,,,,,,
3282,,memorable_rating,297140,Fictional_Cities_List/img_natural_02.png,,50,,,2,,,,,,,,,,,,,,,
null,,confidence_buffer,297243,confidence_buffer,,null,,,,,,,,,,,,,,,,,,
null,,thebreak,297744,break,,null,,,,,,,,,,,,,,,,,,
6226.0999999940395,,familiar_rating,303971,US_Cities_List/mm_hilo.png,,49,US_Cities_List/mm_hilo.png,MM,1,,,,,,,,,,,,,,,
null,,confidence_buffer,304072,confidence_buffer,,null,,,,,,,,,,,,,,,,,,
4265.29999999702,,unique_rating,308338,US_Cities_List/mm_hilo.png,,51,,,3,,,,,,,,,,,,,,,
null,,confidence_buffer,308441,confidence_buffer,,null,,,,,,,,,,,,,,,,,,
3233.8999999910593,,memorable_rating,311676,US_Cities_List/mm_hilo.png,,52,,,4,,,,,,,,,,,,,,,
null,,confidence_buffer,311778,confidence_buffer,,null,,,,,,,,,,,,,,,,,,
null,,thebreak,312279,break,,null,,,,,,,,,,,,,,,,,,
3483.4000000059605,,familiar_rating,315764,US_Cities_List/mm_hotsprings.png,,50,US_Cities_List/mm_hotsprings.png,MM,2,,,,,,,,,,,,,,,
null,,confidence_buffer,315866,confidence_buffer,,null,,,,,,,,,,,,,,,,,,
2800.5,,unique_rating,318667,US_Cities_List/mm_hotsprings.png,,50,,,2,,,,,,,,,,,,,,,
null,,confidence_buffer,318769,confidence_buffer,,null,,,,,,,,,,,,,,,,,,
2945.7000000029802,,memorable_rating,321715,US_Cities_List/mm_hotsprings.png,,51,,,3,,,,,,,,,,,,,,,
null,,confidence_buffer,321817,confidence_buffer,,null,,,,,,,,,,,,,,,,,,
null,,thebreak,322319,break,,null,,,,,,,,,,,,,,,,,,
2307.5,,familiar_rating,324627,Fictional_Cities_List/img_manmade_02.png,,50,Fictional_Cities_List/img_manmade_02.png,MM,2,,,,,,,,,,,,,,,
null,,confidence_buffer,324729,confidence_buffer,,null,,,,,,,,,,,,,,,,,,
1810.6000000089407,,probe_rating,326540,probe_rating,,52,,,,4,1,,,,,,,,,,,,,
null,,confidence_buffer,326642,confidence_buffer,,null,,,,,,,,,,,,,,,,,,
5256.5,,unique_rating,331899,Fictional_Cities_List/img_manmade_02.png,,50,,,2,,,,,,,,,,,,,,,
null,,confidence_buffer,332001,confidence_buffer,,null,,,,,,,,,,,,,,,,,,
2040.7999999970198,,memorable_rating,334043,Fictional_Cities_List/img_manmade_02.png,,52,,,4,,,,,,,,,,,,,,,
null,,confidence_buffer,334145,confidence_buffer,,null,,,,,,,,,,,,,,,,,,
null,,thebreak,334647,break,,null,,,,,,,,,,,,,,,,,,
7051.600000008941,,familiar_rating,341699,Fictional_Cities_List/img_natural_06.png,,49,Fictional_Cities_List/img_natural_06.png,NAT,1,,,,,,,,,,,,,,,
null,,confidence_buffer,341802,confidence_buffer,,null,,,,,,,,,,,,,,,,,,
2775.5,,unique_rating,344578,Fictional_Cities_List/img_natural_06.png,,52,,,4,,,,,,,,,,,,,,,
null,,confidence_buffer,344681,confidence_buffer,,null,,,,,,,,,,,,,,,,,,
2265.2000000029802,,memorable_rating,346947,Fictional_Cities_List/img_natural_06.png,,52,,,4,,,,,,,,,,,,,,,
null,,confidence_buffer,347048,confidence_buffer,,null,,,,,,,,,,,,,,,,,,
null,,thebreak,347550,break,,null,,,,,,,,,,,,,,,,,,
3787.2999999970198,,familiar_rating,351338,US_Cities_List/mm_sitka.png,,49,US_Cities_List/mm_sitka.png,MM,1,,,,,,,,,,,,,,,
null,,confidence_buffer,351440,confidence_buffer,,null,,,,,,,,,,,,,,,,,,
2450.2000000029802,,unique_rating,353891,US_Cities_List/mm_sitka.png,,50,,,2,,,,,,,,,,,,,,,
null,,confidence_buffer,353992,confidence_buffer,,null,,,,,,,,,,,,,,,,,,
3113.699999988079,,memorable_rating,357106,US_Cities_List/mm_sitka.png,,51,,,3,,,,,,,,,,,,,,,
null,,confidence_buffer,357209,confidence_buffer,,null,,,,,,,,,,,,,,,,,,
null,,thebreak,357710,break,,null,,,,,,,,,,,,,,,,,,
4051.2000000029802,,familiar_rating,361762,US_Cities_List/nat_bisbee.png,,50,US_Cities_List/nat_bisbee.png,NAT,2,,,,,,,,,,,,,,,
null,,confidence_buffer,361863,confidence_buffer,,null,,,,,,,,,,,,,,,,,,
2490.1000000089407,,unique_rating,364354,US_Cities_List/nat_bisbee.png,,50,,,2,,,,,,,,,,,,,,,
null,,confidence_buffer,364457,confidence_buffer,,null,,,,,,,,,,,,,,,,,,
3536.300000011921,,memorable_rating,367994,US_Cities_List/nat_bisbee.png,,49,,,1,,,,,,,,,,,,,,,
null,,confidence_buffer,368096,confidence_buffer,,null,,,,,,,,,,,,,,,,,,
null,,thebreak,368597,break,,null,,,,,,,,,,,,,,,,,,
6589,,familiar_rating,375186,Fictional_Cities_List/img_manmade_14.png,,49,Fictional_Cities_List/img_manmade_14.png,MM,1,,,,,,,,,,,,,,,
null,,confidence_buffer,375288,confidence_buffer,,null,,,,,,,,,,,,,,,,,,
3616.800000011921,,unique_rating,378906,Fictional_Cities_List/img_manmade_14.png,,51,,,3,,,,,,,,,,,,,,,
null,,confidence_buffer,379008,confidence_buffer,,null,,,,,,,,,,,,,,,,,,
1681.4000000059605,,probe_rating,380690,probe_rating,,50,,,,2,1,,,,,,,,,,,,,
null,,confidence_buffer,380792,confidence_buffer,,null,,,,,,,,,,,,,,,,,,
2761,,memorable_rating,383553,Fictional_Cities_List/img_manmade_14.png,,51,,,3,,,,,,,,,,,,,,,
null,,confidence_buffer,383656,confidence_buffer,,null,,,,,,,,,,,,,,,,,,
null,,thebreak,384158,break,,null,,,,,,,,,,,,,,,,,,
7106.9000000059605,,familiar_rating,391265,Fictional_Cities_List/img_manmade_10.png,,49,Fictional_Cities_List/img_manmade_10.png,MM,1,,,,,,,,,,,,,,,
null,,confidence_buffer,391367,confidence_buffer,,null,,,,,,,,,,,,,,,,,,
3586.2000000029802,,unique_rating,394954,Fictional_Cities_List/img_manmade_10.png,,52,,,4,,,,,,,,,,,,,,,
null,,confidence_buffer,395056,confidence_buffer,,null,,,,,,,,,,,,,,,,,,
1704.1000000089407,,memorable_rating,396761,Fictional_Cities_List/img_manmade_10.png,,52,,,4,,,,,,,,,,,,,,,
null,,confidence_buffer,396863,confidence_buffer,,null,,,,,,,,,,,,,,,,,,
null,,thebreak,397365,break,,null,,,,,,,,,,,,,,,,,,
4219.699999988079,,intro_0,401585,instruct,,32,,,,,,,,,,,,,,,,,,
7175.5,,intro_1,408761,instruct,,32,,,,,,,,,,,,,,,,,,
12742.70000000298,,intro_2,421504,instruct,,32,,,,,,,,,,,,,,,,,,
null,,instruct_dir_4,423005,instruct,,null,,,,,,,,,,,,,,,,,,
4106.5,,realistic_rating,427113,US_Cities_List/nat_athens.png,,52,US_Cities_List/nat_athens.png,NAT,4,,,,,,,,,,,,,,,
null,,confidence_buffer,427215,confidence_buffer,,null,,,,,,,,,,,,,,,,,,
4216.70000000298,,pt2_unique_rating,431433,US_Cities_List/nat_athens.png,,50,,,2,,,,,,,,,,,,,,,
null,,confidence_buffer,431534,confidence_buffer,,null,,,,,,,,,,,,,,,,,,
2993.7000000029802,,pt2_memorable_rating,434528,US_Cities_List/nat_athens.png,,50,,,2,,,,,,,,,,,,,,,
null,,confidence_buffer,434635,confidence_buffer,,null,,,,,,,,,,,,,,,,,,
1892.6000000089407,,recognition_phase,436529,US_Cities_List/nat_athens.png,,50,,,,,,old,1,1,,,,,,,,,,
null,,confidence_buffer,436631,confidence_buffer,,null,,,,,,,,,,,,,,,,,,
null,,thebreak,437133,break,,null,,,,,,,,,,,,,,,,,,
5513.20000000298,,realistic_rating,442647,Fictional_Cities_List/img_manmade_15.png,,50,Fictional_Cities_List/img_manmade_15.png,MM,2,,,,,,,,,,,,,,,
null,,confidence_buffer,442750,confidence_buffer,,null,,,,,,,,,,,,,,,,,,
2921.9000000059605,,pt2_unique_rating,445672,Fictional_Cities_List/img_manmade_15.png,,51,,,3,,,,,,,,,,,,,,,
null,,confidence_buffer,445775,confidence_buffer,,null,,,,,,,,,,,,,,,,,,
2640.4000000059605,,pt2_memorable_rating,448416,Fictional_Cities_List/img_manmade_15.png,,51,,,3,,,,,,,,,,,,,,,
null,,confidence_buffer,448518,confidence_buffer,,null,,,,,,,,,,,,,,,,,,
1969.5,,recognition_phase,450489,Fictional_Cities_List/img_manmade_15.png,,52,,,,,,new,1,1,,,,,,,,,,
null,,confidence_buffer,450590,confidence_buffer,,null,,,,,,,,,,,,,,,,,,
null,,thebreak,451091,break,,null,,,,,,,,,,,,,,,,,,
4899.79999999702,,realistic_rating,455992,US_Cities_List/mm_athens.png,,52,US_Cities_List/mm_athens.png,MM,4,,,,,,,,,,,,,,,
null,,confidence_buffer,456094,confidence_buffer,,null,,,,,,,,,,,,,,,,,,
4129.29999999702,,pt2_unique_rating,460224,US_Cities_List/mm_athens.png,,50,,,2,,,,,,,,,,,,,,,
null,,confidence_buffer,460326,confidence_buffer,,null,,,,,,,,,,,,,,,,,,
2376.5,,pt2_memorable_rating,462703,US_Cities_List/mm_athens.png,,50,,,2,,,,,,,,,,,,,,,
null,,confidence_buffer,462806,confidence_buffer,,null,,,,,,,,,,,,,,,,,,
2777.4000000059605,,probe_rating,465584,probe_rating,,51,,,,3,1,,,,,,,,,,,,,
null,,confidence_buffer,465686,confidence_buffer,,null,,,,,,,,,,,,,,,,,,
3297.5999999940395,,recognition_phase,468984,US_Cities_List/mm_athens.png,,51,,,,,,new,0,0.6666666666666666,,,,,,,,,,
null,,confidence_buffer,469086,confidence_buffer,,null,,,,,,,,,,,,,,,,,,
null,,thebreak,469588,break,,null,,,,,,,,,,,,,,,,,,
2850.2999999970198,,realistic_rating,472440,Fictional_Cities_List/img_natural_05.png,,49,Fictional_Cities_List/img_natural_05.png,NAT,1,,,,,,,,,,,,,,,
null,,confidence_buffer,472542,confidence_buffer,,null,,,,,,,,,,,,,,,,,,
2888.9000000059605,,pt2_unique_rating,475432,Fictional_Cities_List/img_natural_05.png,,52,,,4,,,,,,,,,,,,,,,
null,,confidence_buffer,475533,confidence_buffer,,null,,,,,,,,,,,,,,,,,,
4312.4000000059605,,pt2_memorable_rating,479846,Fictional_Cities_List/img_natural_05.png,,50,,,2,,,,,,,,,,,,,,,
null,,confidence_buffer,479949,confidence_buffer,,null,,,,,,,,,,,,,,,,,,
1937.2999999970198,,recognition_phase,481887,Fictional_Cities_List/img_natural_05.png,,51,,,,,,new,0,0.5,,,,,,,,,,
null,,confidence_buffer,481989,confidence_buffer,,null,,,,,,,,,,,,,,,,,,
null,,thebreak,482491,break,,null,,,,,,,,,,,,,,,,,,
4587.5,,realistic_rating,487080,Fictional_Cities_List/img_manmade_07.png,,52,Fictional_Cities_List/img_manmade_07.png,MM,4,,,,,,,,,,,,,,,
null,,confidence_buffer,487183,confidence_buffer,,null,,,,,,,,,,,,,,,,,,
4295.70000000298,,pt2_unique_rating,491479,Fictional_Cities_List/img_manmade_07.png,,50,,,2,,,,,,,,,,,,,,,
null,,confidence_buffer,491581,confidence_buffer,,null,,,,,,,,,,,,,,,,,,
1753,,probe_rating,493335,probe_rating,,53,,,,5,1,,,,,,,,,,,,,
null,,confidence_buffer,493437,confidence_buffer,,null,,,,,,,,,,,,,,,,,,
4321.20000000298,,pt2_memorable_rating,497759,Fictional_Cities_List/img_manmade_07.png,,51,,,3,,,,,,,,,,,,,,,
null,,confidence_buffer,497862,confidence_buffer,,null,,,,,,,,,,,,,,,,,,
3072.5999999940395,,recognition_phase,500935,Fictional_Cities_List/img_manmade_07.png,,52,,,,,,new,1,0.6,,,,,,,,,,
null,,confidence_buffer,501037,confidence_buffer,,null,,,,,,,,,,,,,,,,,,
null,,thebreak,501540,break,,null,,,,,,,,,,,,,,,,,,
4169.5999999940395,,realistic_rating,505710,US_Cities_List/mm_peoria.png,,50,US_Cities_List/mm_peoria.png,MM,2,,,,,,,,,,,,,,,
null,,confidence_buffer,505811,confidence_buffer,,null,,,,,,,,,,,,,,,,,,
2122,,pt2_unique_rating,507934,US_Cities_List/mm_peoria.png,,51,,,3,,,,,,,,,,,,,,,
null,,confidence_buffer,508037,confidence_buffer,,null,,,,,,,,,,,,,,,,,,
2896.5,,pt2_memorable_rating,510935,US_Cities_List/mm_peoria.png,,52,,,4,,,,,,,,,,,,,,,
null,,confidence_buffer,511037,confidence_buffer,,null,,,,,,,,,,,,,,,,,,
2736.699999988079,,recognition_phase,513774,US_Cities_List/mm_peoria.png,,52,,,,,,new,1,0.6666666666666666,,,,,,,,,,
null,,confidence_buffer,513877,confidence_buffer,,null,,,,,,,,,,,,,,,,,,
null,,thebreak,514379,break,,null,,,,,,,,,,,,,,,,,,
4675.29999999702,,realistic_rating,519055,Fictional_Cities_List/img_natural_07.png,,51,Fictional_Cities_List/img_natural_07.png,NAT,3,,,,,,,,,,,,,,,
null,,confidence_buffer,519157,confidence_buffer,,null,,,,,,,,,,,,,,,,,,
3568.5,,pt2_unique_rating,522726,Fictional_Cities_List/img_natural_07.png,,50,,,2,,,,,,,,,,,,,,,
null,,confidence_buffer,522828,confidence_buffer,,null,,,,,,,,,,,,,,,,,,
1985.5,,pt2_memorable_rating,524814,Fictional_Cities_List/img_natural_07.png,,50,,,2,,,,,,,,,,,,,,,
null,,confidence_buffer,524916,confidence_buffer,,null,,,,,,,,,,,,,,,,,,
2641.5,,recognition_phase,527558,Fictional_Cities_List/img_natural_07.png,,51,,,,,,new,0,0.5714285714285714,,,,,,,,,,
null,,confidence_buffer,527661,confidence_buffer,,null,,,,,,,,,,,,,,,,,,
null,,thebreak,528163,break,,null,,,,,,,,,,,,,,,,,,
4130,,realistic_rating,532294,Fictional_Cities_List/img_manmade_12.png,,50,Fictional_Cities_List/img_manmade_12.png,MM,2,,,,,,,,,,,,,,,
null,,confidence_buffer,532397,confidence_buffer,,null,,,,,,,,,,,,,,,,,,
3727.7000000029802,,pt2_unique_rating,536126,Fictional_Cities_List/img_manmade_12.png,,49,,,1,,,,,,,,,,,,,,,
null,,confidence_buffer,536227,confidence_buffer,,null,,,,,,,,,,,,,,,,,,
1698.5,,pt2_memorable_rating,537926,Fictional_Cities_List/img_manmade_12.png,,50,,,2,,,,,,,,,,,,,,,
null,,confidence_buffer,538029,confidence_buffer,,null,,,,,,,,,,,,,,,,,,
2384.0999999940395,,recognition_phase,540414,Fictional_Cities_List/img_manmade_12.png,,51,,,,,,new,0,0.5,,,,,,,,,,
null,,confidence_buffer,540516,confidence_buffer,,null,,,,,,,,,,,,,,,,,,
null,,thebreak,541017,break,,null,,,,,,,,,,,,,,,,,,
4275.5999999940395,,realistic_rating,545294,Fictional_Cities_List/img_natural_11.png,,51,Fictional_Cities_List/img_natural_11.png,NAT,3,,,,,,,,,,,,,,,
null,,confidence_buffer,545396,confidence_buffer,,null,,,,,,,,,,,,,,,,,,
1416.9000000059605,,probe_rating,546814,probe_rating,,50,,,,2,1,,,,,,,,,,,,,
null,,confidence_buffer,546916,confidence_buffer,,null,,,,,,,,,,,,,,,,,,
3008.3999999910593,,pt2_unique_rating,549925,Fictional_Cities_List/img_natural_11.png,,50,,,2,,,,,,,,,,,,,,,
null,,confidence_buffer,550027,confidence_buffer,,null,,,,,,,,,,,,,,,,,,
2825.5999999940395,,pt2_memorable_rating,552853,Fictional_Cities_List/img_natural_11.png,,50,,,2,,,,,,,,,,,,,,,
null,,confidence_buffer,552956,confidence_buffer,,null,,,,,,,,,,,,,,,,,,
2273.2000000029802,,recognition_phase,555230,Fictional_Cities_List/img_natural_11.png,,50,,,,,,old,1,0.5555555555555556,,,,,,,,,,
null,,confidence_buffer,555332,confidence_buffer,,null,,,,,,,,,,,,,,,,,,
null,,thebreak,555833,break,,null,,,,,,,,,,,,,,,,,,
4564.70000000298,,realistic_rating,560398,US_Cities_List/mm_westpalmbeach.png,,51,US_Cities_List/mm_westpalmbeach.png,MM,3,,,,,,,,,,,,,,,
null,,confidence_buffer,560500,confidence_buffer,,null,,,,,,,,,,,,,,,,,,
2456.0999999940395,,pt2_unique_rating,562957,US_Cities_List/mm_westpalmbeach.png,,52,,,4,,,,,,,,,,,,,,,
null,,confidence_buffer,563059,confidence_buffer,,null,,,,,,,,,,,,,,,,,,
3393.4000000059605,,pt2_memorable_rating,566453,US_Cities_List/mm_westpalmbeach.png,,51,,,3,,,,,,,,,,,,,,,
null,,confidence_buffer,566556,confidence_buffer,,null,,,,,,,,,,,,,,,,,,
2880.2999999970198,,probe_rating,569437,probe_rating,,51,,,,3,1,,,,,,,,,,,,,
null,,confidence_buffer,569539,confidence_buffer,,null,,,,,,,,,,,,,,,,,,
3009.2999999970198,,recognition_phase,572549,US_Cities_List/mm_westpalmbeach.png,,52,,,,,,new,1,0.6,,,,,,,,,,
null,,confidence_buffer,572650,confidence_buffer,,null,,,,,,,,,,,,,,,,,,
null,,thebreak,573151,break,,null,,,,,,,,,,,,,,,,,,
3445.2999999970198,,realistic_rating,576597,US_Cities_List/nat_peoria.png,,52,US_Cities_List/nat_peoria.png,NAT,4,,,,,,,,,,,,,,,
null,,confidence_buffer,576699,confidence_buffer,,null,,,,,,,,,,,,,,,,,,
3080.699999988079,,pt2_unique_rating,579781,US_Cities_List/nat_peoria.png,,49,,,1,,,,,,,,,,,,,,,
null,,confidence_buffer,579883,confidence_buffer,,null,,,,,,,,,,,,,,,,,,
2641.5999999940395,,pt2_memorable_rating,582525,US_Cities_List/nat_peoria.png,,50,,,2,,,,,,,,,,,,,,,
null,,confidence_buffer,582627,confidence_buffer,,null,,,,,,,,,,,,,,,,,,
2239.9000000059605,,recognition_phase,584867,US_Cities_List/nat_peoria.png,,51,,,,,,new,1,0.6363636363636364,,,,,,,,,,
null,,confidence_buffer,584969,confidence_buffer,,null,,,,,,,,,,,,,,,,,,
null,,thebreak,585471,break,,null,,,,,,,,,,,,,,,,,,
6036.79999999702,,realistic_rating,591509,Fictional_Cities_List/img_manmade_08.png,,49,Fictional_Cities_List/img_manmade_08.png,MM,1,,,,,,,,,,,,,,,
null,,confidence_buffer,591610,confidence_buffer,,null,,,,,,,,,,,,,,,,,,
2505.300000011921,,pt2_unique_rating,594116,Fictional_Cities_List/img_manmade_08.png,,51,,,3,,,,,,,,,,,,,,,
null,,confidence_buffer,594219,confidence_buffer,,null,,,,,,,,,,,,,,,,,,
2713.0999999940395,,pt2_memorable_rating,596933,Fictional_Cities_List/img_manmade_08.png,,51,,,3,,,,,,,,,,,,,,,
null,,confidence_buffer,597036,confidence_buffer,,null,,,,,,,,,,,,,,,,,,
3552.3999999910593,,recognition_phase,600589,Fictional_Cities_List/img_manmade_08.png,,51,,,,,,new,0,0.5833333333333334,,,,,,,,,,
null,,confidence_buffer,600692,confidence_buffer,,null,,,,,,,,,,,,,,,,,,
null,,thebreak,601194,break,,null,,,,,,,,,,,,,,,,,,
3335.5999999940395,,realistic_rating,604531,US_Cities_List/nat_hotsprings.png,,50,US_Cities_List/nat_hotsprings.png,NAT,2,,,,,,,,,,,,,,,
null,,confidence_buffer,604633,confidence_buffer,,null,,,,,,,,,,,,,,,,,,
2698.5,,pt2_unique_rating,607332,US_Cities_List/nat_hotsprings.png,,49,,,1,,,,,,,,,,,,,,,
null,,confidence_buffer,607434,confidence_buffer,,null,,,,,,,,,,,,,,,,,,
2481.2999999970198,,pt2_memorable_rating,609916,US_Cities_List/nat_hotsprings.png,,49,,,1,,,,,,,,,,,,,,,
null,,confidence_buffer,610017,confidence_buffer,,null,,,,,,,,,,,,,,,,,,
2186,,recognition_phase,612204,US_Cities_List/nat_hotsprings.png,,51,,,,,,new,0,0.5384615384615384,,,,,,,,,,
null,,confidence_buffer,612305,confidence_buffer,,null,,,,,,,,,,,,,,,,,,
null,,thebreak,612807,break,,null,,,,,,,,,,,,,,,,,,
3772.2000000029802,,realistic_rating,616580,Fictional_Cities_List/img_manmade_01.png,,51,Fictional_Cities_List/img_manmade_01.png,MM,3,,,,,,,,,,,,,,,
null,,confidence_buffer,616682,confidence_buffer,,null,,,,,,,,,,,,,,,,,,
3154.7000000029802,,pt2_unique_rating,619837,Fictional_Cities_List/img_manmade_01.png,,51,,,3,,,,,,,,,,,,,,,
null,,confidence_buffer,619939,confidence_buffer,,null,,,,,,,,,,,,,,,,,,
2399.2999999970198,,pt2_memorable_rating,622340,Fictional_Cities_List/img_manmade_01.png,,51,,,3,,,,,,,,,,,,,,,
null,,confidence_buffer,622441,confidence_buffer,,null,,,,,,,,,,,,,,,,,,
2714.7000000029802,,recognition_phase,625156,Fictional_Cities_List/img_manmade_01.png,,49,,,,,,old,1,0.5714285714285714,,,,,,,,,,
null,,confidence_buffer,625257,confidence_buffer,,null,,,,,,,,,,,,,,,,,,
null,,thebreak,625759,break,,null,,,,,,,,,,,,,,,,,,
3531.1000000089407,,realistic_rating,629291,Fictional_Cities_List/img_natural_14.png,,50,Fictional_Cities_List/img_natural_14.png,NAT,2,,,,,,,,,,,,,,,
null,,confidence_buffer,629394,confidence_buffer,,null,,,,,,,,,,,,,,,,,,
5161.5999999940395,,pt2_unique_rating,634556,Fictional_Cities_List/img_natural_14.png,,51,,,3,,,,,,,,,,,,,,,
null,,confidence_buffer,634658,confidence_buffer,,null,,,,,,,,,,,,,,,,,,
2112.7000000029802,,probe_rating,636772,probe_rating,,51,,,,3,1,,,,,,,,,,,,,
null,,confidence_buffer,636873,confidence_buffer,,null,,,,,,,,,,,,,,,,,,
2137.300000011921,,pt2_memorable_rating,639011,Fictional_Cities_List/img_natural_14.png,,50,,,2,,,,,,,,,,,,,,,
null,,confidence_buffer,639113,confidence_buffer,,null,,,,,,,,,,,,,,,,,,
3153.7000000029802,,recognition_phase,642268,Fictional_Cities_List/img_natural_14.png,,49,,,,,,old,1,0.6,,,,,,,,,,
null,,confidence_buffer,642369,confidence_buffer,,null,,,,,,,,,,,,,,,,,,
null,,thebreak,642869,break,,null,,,,,,,,,,,,,,,,,,
4972.29999999702,,realistic_rating,647843,Fictional_Cities_List/img_natural_01.png,,51,Fictional_Cities_List/img_natural_01.png,NAT,3,,,,,,,,,,,,,,,
null,,confidence_buffer,647945,confidence_buffer,,null,,,,,,,,,,,,,,,,,,
3209.5,,pt2_unique_rating,651155,Fictional_Cities_List/img_natural_01.png,,50,,,2,,,,,,,,,,,,,,,
null,,confidence_buffer,651257,confidence_buffer,,null,,,,,,,,,,,,,,,,,,
3057.199999988079,,pt2_memorable_rating,654315,Fictional_Cities_List/img_natural_01.png,,51,,,3,,,,,,,,,,,,,,,
null,,confidence_buffer,654417,confidence_buffer,,null,,,,,,,,,,,,,,,,,,
2392.7999999970198,,recognition_phase,656811,Fictional_Cities_List/img_natural_01.png,,52,,,,,,new,1,0.625,,,,,,,,,,
null,,confidence_buffer,656914,confidence_buffer,,null,,,,,,,,,,,,,,,,,,
null,,thebreak,657415,break,,null,,,,,,,,,,,,,,,,,,
5522.29999999702,,realistic_rating,662938,US_Cities_List/nat_sitka.png,,53,US_Cities_List/nat_sitka.png,NAT,5,,,,,,,,,,,,,,,
null,,confidence_buffer,663041,confidence_buffer,,null,,,,,,,,,,,,,,,,,,
2504.9000000059605,,pt2_unique_rating,665547,US_Cities_List/nat_sitka.png,,50,,,2,,,,,,,,,,,,,,,
null,,confidence_buffer,665648,confidence_buffer,,null,,,,,,,,,,,,,,,,,,
2609.9000000059605,,pt2_memorable_rating,668259,US_Cities_List/nat_sitka.png,,50,,,2,,,,,,,,,,,,,,,
null,,confidence_buffer,668360,confidence_buffer,,null,,,,,,,,,,,,,,,,,,
2250,,recognition_phase,670611,US_Cities_List/nat_sitka.png,,51,,,,,,new,0,0.5882352941176471,,,,,,,,,,
null,,confidence_buffer,670713,confidence_buffer,,null,,,,,,,,,,,,,,,,,,
null,,thebreak,671214,break,,null,,,,,,,,,,,,,,,,,,
4108,,realistic_rating,675323,Fictional_Cities_List/img_natural_10.png,,53,Fictional_Cities_List/img_natural_10.png,NAT,5,,,,,,,,,,,,,,,
null,,confidence_buffer,675425,confidence_buffer,,null,,,,,,,,,,,,,,,,,,
2545,,probe_rating,677971,probe_rating,,53,,,,5,1,,,,,,,,,,,,,
null,,confidence_buffer,678074,confidence_buffer,,null,,,,,,,,,,,,,,,,,,
2463.8999999910593,,pt2_unique_rating,680538,Fictional_Cities_List/img_natural_10.png,,51,,,3,,,,,,,,,,,,,,,
null,,confidence_buffer,680640,confidence_buffer,,null,,,,,,,,,,,,,,,,,,
2408.7000000029802,,pt2_memorable_rating,683050,Fictional_Cities_List/img_natural_10.png,,52,,,4,,,,,,,,,,,,,,,
null,,confidence_buffer,683151,confidence_buffer,,null,,,,,,,,,,,,,,,,,,
1593.4000000059605,,recognition_phase,684746,Fictional_Cities_List/img_natural_10.png,,49,,,,,,old,1,0.6111111111111112,,,,,,,,,,
null,,confidence_buffer,684848,confidence_buffer,,null,,,,,,,,,,,,,,,,,,
null,,thebreak,685349,break,,null,,,,,,,,,,,,,,,,,,
4404,,realistic_rating,689754,US_Cities_List/mm_boulder.png,,51,US_Cities_List/mm_boulder.png,MM,3,,,,,,,,,,,,,,,
null,,confidence_buffer,689856,confidence_buffer,,null,,,,,,,,,,,,,,,,,,
2945.300000011921,,pt2_unique_rating,692802,US_Cities_List/mm_boulder.png,,51,,,3,,,,,,,,,,,,,,,
null,,confidence_buffer,692909,confidence_buffer,,null,,,,,,,,,,,,,,,,,,
2499.5999999940395,,pt2_memorable_rating,695410,US_Cities_List/mm_boulder.png,,51,,,3,,,,,,,,,,,,,,,
null,,confidence_buffer,695511,confidence_buffer,,null,,,,,,,,,,,,,,,,,,
2425.7000000029802,,recognition_phase,697938,US_Cities_List/mm_boulder.png,,52,,,,,,new,1,0.631578947368421,,,,,,,,,,
null,,confidence_buffer,698039,confidence_buffer,,null,,,,,,,,,,,,,,,,,,
null,,thebreak,698540,break,,null,,,,,,,,,,,,,,,,,,
2645.2999999970198,,realistic_rating,701186,US_Cities_List/nat_hilo.png,,50,US_Cities_List/nat_hilo.png,NAT,2,,,,,,,,,,,,,,,
null,,confidence_buffer,701288,confidence_buffer,,null,,,,,,,,,,,,,,,,,,
2929.300000011921,,pt2_unique_rating,704218,US_Cities_List/nat_hilo.png,,50,,,2,,,,,,,,,,,,,,,
null,,confidence_buffer,704321,confidence_buffer,,null,,,,,,,,,,,,,,,,,,
3448,,pt2_memorable_rating,707770,US_Cities_List/nat_hilo.png,,50,,,2,,,,,,,,,,,,,,,
null,,confidence_buffer,707872,confidence_buffer,,null,,,,,,,,,,,,,,,,,,
3313.2999999970198,,recognition_phase,711186,US_Cities_List/nat_hilo.png,,51,,,,,,new,0,0.6,,,,,,,,,,
null,,confidence_buffer,711288,confidence_buffer,,null,,,,,,,,,,,,,,,,,,
null,,thebreak,711790,break,,null,,,,,,,,,,,,,,,,,,
3467.2000000029802,,realistic_rating,715258,Fictional_Cities_List/img_natural_02.png,,50,Fictional_Cities_List/img_natural_02.png,NAT,2,,,,,,,,,,,,,,,
null,,confidence_buffer,715359,confidence_buffer,,null,,,,,,,,,,,,,,,,,,
1705,,probe_rating,717065,probe_rating,,49,,,,1,1,,,,,,,,,,,,,
null,,confidence_buffer,717168,confidence_buffer,,null,,,,,,,,,,,,,,,,,,
2488.800000011921,,pt2_unique_rating,719657,Fictional_Cities_List/img_natural_02.png,,50,,,2,,,,,,,,,,,,,,,
null,,confidence_buffer,719759,confidence_buffer,,null,,,,,,,,,,,,,,,,,,
2697.1000000089407,,pt2_memorable_rating,722458,Fictional_Cities_List/img_natural_02.png,,50,,,2,,,,,,,,,,,,,,,
null,,confidence_buffer,722560,confidence_buffer,,null,,,,,,,,,,,,,,,,,,
2432.5,,recognition_phase,724993,Fictional_Cities_List/img_natural_02.png,,51,,,,,,new,0,0.5714285714285714,,,,,,,,,,
null,,confidence_buffer,725095,confidence_buffer,,null,,,,,,,,,,,,,,,,,,
null,,thebreak,725597,break,,null,,,,,,,,,,,,,,,,,,
4523.300000011921,,realistic_rating,730121,Fictional_Cities_List/img_natural_09.png,,53,Fictional_Cities_List/img_natural_09.png,NAT,5,,,,,,,,,,,,,,,
null,,confidence_buffer,730223,confidence_buffer,,null,,,,,,,,,,,,,,,,,,
1841.5999999940395,,pt2_unique_rating,732065,Fictional_Cities_List/img_natural_09.png,,51,,,3,,,,,,,,,,,,,,,
null,,confidence_buffer,732168,confidence_buffer,,null,,,,,,,,,,,,,,,,,,
3455.6000000089407,,pt2_memorable_rating,735625,Fictional_Cities_List/img_natural_09.png,,51,,,3,,,,,,,,,,,,,,,
null,,confidence_buffer,735726,confidence_buffer,,null,,,,,,,,,,,,,,,,,,
2217.5,,recognition_phase,737944,Fictional_Cities_List/img_natural_09.png,,52,,,,,,new,1,0.5909090909090909,,,,,,,,,,
null,,confidence_buffer,738046,confidence_buffer,,null,,,,,,,,,,,,,,,,,,
null,,thebreak,738549,break,,null,,,,,,,,,,,,,,,,,,
3211.6000000089407,,realistic_rating,741761,Fictional_Cities_List/img_manmade_11.png,,49,Fictional_Cities_List/img_manmade_11.png,MM,1,,,,,,,,,,,,,,,
null,,confidence_buffer,741863,confidence_buffer,,null,,,,,,,,,,,,,,,,,,
3793.2999999970198,,pt2_unique_rating,745657,Fictional_Cities_List/img_manmade_11.png,,51,,,3,,,,,,,,,,,,,,,
null,,confidence_buffer,745759,confidence_buffer,,null,,,,,,,,,,,,,,,,,,
2209.300000011921,,pt2_memorable_rating,747969,Fictional_Cities_List/img_manmade_11.png,,51,,,3,,,,,,,,,,,,,,,
null,,confidence_buffer,748072,confidence_buffer,,null,,,,,,,,,,,,,,,,,,
3312.5,,recognition_phase,751385,Fictional_Cities_List/img_manmade_11.png,,52,,,,,,new,1,0.6086956521739131,,,,,,,,,,
null,,confidence_buffer,751487,confidence_buffer,,null,,,,,,,,,,,,,,,,,,
null,,thebreak,751988,break,,null,,,,,,,,,,,,,,,,,,
3387.5,,realistic_rating,755377,Fictional_Cities_List/img_manmade_04.png,,49,Fictional_Cities_List/img_manmade_04.png,MM,1,,,,,,,,,,,,,,,
null,,confidence_buffer,755478,confidence_buffer,,null,,,,,,,,,,,,,,,,,,
2025.0999999940395,,probe_rating,757504,probe_rating,,52,,,,4,1,,,,,,,,,,,,,
null,,confidence_buffer,757606,confidence_buffer,,null,,,,,,,,,,,,,,,,,,
2890.5999999940395,,pt2_unique_rating,760497,Fictional_Cities_List/img_manmade_04.png,,50,,,2,,,,,,,,,,,,,,,
null,,confidence_buffer,760598,confidence_buffer,,null,,,,,,,,,,,,,,,,,,
2056.7999999970198,,pt2_memorable_rating,762656,Fictional_Cities_List/img_manmade_04.png,,51,,,3,,,,,,,,,,,,,,,
null,,confidence_buffer,762758,confidence_buffer,,null,,,,,,,,,,,,,,,,,,
2321.5,,recognition_phase,765080,Fictional_Cities_List/img_manmade_04.png,,52,,,,,,new,1,0.625,,,,,,,,,,
null,,confidence_buffer,765183,confidence_buffer,,null,,,,,,,,,,,,,,,,,,
null,,thebreak,765684,break,,null,,,,,,,,,,,,,,,,,,
4627.5,,realistic_rating,770313,Fictional_Cities_List/img_manmade_05.png,,50,Fictional_Cities_List/img_manmade_05.png,MM,2,,,,,,,,,,,,,,,
null,,confidence_buffer,770415,confidence_buffer,,null,,,,,,,,,,,,,,,,,,
1625,,pt2_unique_rating,772040,Fictional_Cities_List/img_manmade_05.png,,51,,,3,,,,,,,,,,,,,,,
null,,confidence_buffer,772142,confidence_buffer,,null,,,,,,,,,,,,,,,,,,
2056.9000000059605,,pt2_memorable_rating,774200,Fictional_Cities_List/img_manmade_05.png,,51,,,3,,,,,,,,,,,,,,,
null,,confidence_buffer,774302,confidence_buffer,,null,,,,,,,,,,,,,,,,,,
1873.2999999970198,,recognition_phase,776176,Fictional_Cities_List/img_manmade_05.png,,52,,,,,,new,1,0.64,,,,,,,,,,
null,,confidence_buffer,776277,confidence_buffer,,null,,,,,,,,,,,,,,,,,,
null,,thebreak,776780,break,,null,,,,,,,,,,,,,,,,,,
5501.0999999940395,,realistic_rating,782281,US_Cities_List/mm_sitka.png,,51,US_Cities_List/mm_sitka.png,MM,3,,,,,,,,,,,,,,,
null,,confidence_buffer,782384,confidence_buffer,,null,,,,,,,,,,,,,,,,,,
2167.2999999970198,,pt2_unique_rating,784552,US_Cities_List/mm_sitka.png,,50,,,2,,,,,,,,,,,,,,,
null,,confidence_buffer,784653,confidence_buffer,,null,,,,,,,,,,,,,,,,,,
1649.0999999940395,,pt2_memorable_rating,786303,US_Cities_List/mm_sitka.png,,51,,,3,,,,,,,,,,,,,,,
null,,confidence_buffer,786405,confidence_buffer,,null,,,,,,,,,,,,,,,,,,
1553.0999999940395,,recognition_phase,787960,US_Cities_List/mm_sitka.png,,49,,,,,,old,1,0.6538461538461539,,,,,,,,,,
null,,confidence_buffer,788061,confidence_buffer,,null,,,,,,,,,,,,,,,,,,
null,,thebreak,788563,break,,null,,,,,,,,,,,,,,,,,,
3563.5999999940395,,realistic_rating,792127,US_Cities_List/mm_hotsprings.png,,51,US_Cities_List/mm_hotsprings.png,MM,3,,,,,,,,,,,,,,,
null,,confidence_buffer,792230,confidence_buffer,,null,,,,,,,,,,,,,,,,,,
1616.7000000029802,,pt2_unique_rating,793848,US_Cities_List/mm_hotsprings.png,,50,,,2,,,,,,,,,,,,,,,
null,,confidence_buffer,793950,confidence_buffer,,null,,,,,,,,,,,,,,,,,,
1408.5999999940395,,pt2_memorable_rating,795360,US_Cities_List/mm_hotsprings.png,,51,,,3,,,,,,,,,,,,,,,
null,,confidence_buffer,795462,confidence_buffer,,null,,,,,,,,,,,,,,,,,,
2808.5999999940395,,recognition_phase,798271,US_Cities_List/mm_hotsprings.png,,49,,,,,,old,1,0.6666666666666666,,,,,,,,,,
null,,confidence_buffer,798374,confidence_buffer,,null,,,,,,,,,,,,,,,,,,
null,,thebreak,798876,break,,null,,,,,,,,,,,,,,,,,,
5018.5,,realistic_rating,803895,Fictional_Cities_List/img_natural_12.png,,50,Fictional_Cities_List/img_natural_12.png,NAT,2,,,,,,,,,,,,,,,
null,,confidence_buffer,803998,confidence_buffer,,null,,,,,,,,,,,,,,,,,,
2897.2999999970198,,pt2_unique_rating,806896,Fictional_Cities_List/img_natural_12.png,,50,,,2,,,,,,,,,,,,,,,
null,,confidence_buffer,806997,confidence_buffer,,null,,,,,,,,,,,,,,,,,,
3385.7999999970198,,pt2_memorable_rating,810384,Fictional_Cities_List/img_natural_12.png,,51,,,3,,,,,,,,,,,,,,,
null,,confidence_buffer,810485,confidence_buffer,,null,,,,,,,,,,,,,,,,,,
2072.800000011921,,recognition_phase,812559,Fictional_Cities_List/img_natural_12.png,,52,,,,,,new,1,0.6785714285714286,,,,,,,,,,
null,,confidence_buffer,812661,confidence_buffer,,null,,,,,,,,,,,,,,,,,,
null,,thebreak,813163,break,,null,,,,,,,,,,,,,,,,,,
4267.20000000298,,realistic_rating,817431,Fictional_Cities_List/img_manmade_10.png,,50,Fictional_Cities_List/img_manmade_10.png,MM,2,,,,,,,,,,,,,,,
null,,confidence_buffer,817533,confidence_buffer,,null,,,,,,,,,,,,,,,,,,
2120.2999999970198,,pt2_unique_rating,819655,Fictional_Cities_List/img_manmade_10.png,,52,,,4,,,,,,,,,,,,,,,
null,,confidence_buffer,819758,confidence_buffer,,null,,,,,,,,,,,,,,,,,,
3008.5,,pt2_memorable_rating,822767,Fictional_Cities_List/img_manmade_10.png,,53,,,5,,,,,,,,,,,,,,,
null,,confidence_buffer,822869,confidence_buffer,,null,,,,,,,,,,,,,,,,,,
1417.0999999940395,,recognition_phase,824287,Fictional_Cities_List/img_manmade_10.png,,49,,,,,,old,1,0.6896551724137931,,,,,,,,,,
null,,confidence_buffer,824390,confidence_buffer,,null,,,,,,,,,,,,,,,,,,
null,,thebreak,824891,break,,null,,,,,,,,,,,,,,,,,,
4705.600000008941,,realistic_rating,829597,Fictional_Cities_List/img_manmade_14.png,,51,Fictional_Cities_List/img_manmade_14.png,MM,3,,,,,,,,,,,,,,,
null,,confidence_buffer,829700,confidence_buffer,,null,,,,,,,,,,,,,,,,,,
3081.9000000059605,,pt2_unique_rating,832783,Fictional_Cities_List/img_manmade_14.png,,51,,,3,,,,,,,,,,,,,,,
null,,confidence_buffer,832885,confidence_buffer,,null,,,,,,,,,,,,,,,,,,
1593.300000011921,,probe_rating,834479,probe_rating,,51,,,,3,1,,,,,,,,,,,,,
null,,confidence_buffer,834581,confidence_buffer,,null,,,,,,,,,,,,,,,,,,
1848.7000000029802,,pt2_memorable_rating,836430,Fictional_Cities_List/img_manmade_14.png,,52,,,4,,,,,,,,,,,,,,,
null,,confidence_buffer,836531,confidence_buffer,,null,,,,,,,,,,,,,,,,,,
1250,,recognition_phase,837782,Fictional_Cities_List/img_manmade_14.png,,49,,,,,,old,1,0.7,,,,,,,,,,
null,,confidence_buffer,837885,confidence_buffer,,null,,,,,,,,,,,,,,,,,,
null,,thebreak,838386,break,,null,,,,,,,,,,,,,,,,,,
4067.2000000029802,,realistic_rating,842455,US_Cities_List/nat_boulder.png,,51,US_Cities_List/nat_boulder.png,NAT,3,,,,,,,,,,,,,,,
null,,confidence_buffer,842556,confidence_buffer,,null,,,,,,,,,,,,,,,,,,
2464.7999999970198,,pt2_unique_rating,845022,US_Cities_List/nat_boulder.png,,50,,,2,,,,,,,,,,,,,,,
null,,confidence_buffer,845124,confidence_buffer,,null,,,,,,,,,,,,,,,,,,
1786,,pt2_memorable_rating,846910,US_Cities_List/nat_boulder.png,,51,,,3,,,,,,,,,,,,,,,
null,,confidence_buffer,847012,confidence_buffer,,null,,,,,,,,,,,,,,,,,,
1560.0999999940395,,recognition_phase,848573,US_Cities_List/nat_boulder.png,,52,,,,,,new,1,0.7096774193548387,,,,,,,,,,
null,,confidence_buffer,848676,confidence_buffer,,null,,,,,,,,,,,,,,,,,,
null,,thebreak,849177,break,,null,,,,,,,,,,,,,,,,,,
3299.2999999970198,,realistic_rating,852477,US_Cities_List/mm_carmel.png,,51,US_Cities_List/mm_carmel.png,MM,3,,,,,,,,,,,,,,,
null,,confidence_buffer,852578,confidence_buffer,,null,,,,,,,,,,,,,,,,,,
2739.4000000059605,,pt2_unique_rating,855318,US_Cities_List/mm_carmel.png,,51,,,3,,,,,,,,,,,,,,,
null,,confidence_buffer,855420,confidence_buffer,,null,,,,,,,,,,,,,,,,,,
1952.800000011921,,pt2_memorable_rating,857373,US_Cities_List/mm_carmel.png,,51,,,3,,,,,,,,,,,,,,,
null,,confidence_buffer,857476,confidence_buffer,,null,,,,,,,,,,,,,,,,,,
1672.1000000089407,,recognition_phase,859149,US_Cities_List/mm_carmel.png,,52,,,,,,new,1,0.71875,,,,,,,,,,
null,,confidence_buffer,859252,confidence_buffer,,null,,,,,,,,,,,,,,,,,,
null,,thebreak,859754,break,,null,,,,,,,,,,,,,,,,,,
3883.5,,realistic_rating,863638,Fictional_Cities_List/img_natural_03.png,,49,Fictional_Cities_List/img_natural_03.png,NAT,1,,,,,,,,,,,,,,,
null,,confidence_buffer,863740,confidence_buffer,,null,,,,,,,,,,,,,,,,,,
1840.800000011921,,probe_rating,865582,probe_rating,,51,,,,3,1,,,,,,,,,,,,,
null,,confidence_buffer,865684,confidence_buffer,,null,,,,,,,,,,,,,,,,,,
2137.2000000029802,,pt2_unique_rating,867822,Fictional_Cities_List/img_natural_03.png,,52,,,4,,,,,,,,,,,,,,,
null,,confidence_buffer,867924,confidence_buffer,,null,,,,,,,,,,,,,,,,,,
2575.2000000029802,,pt2_memorable_rating,870500,Fictional_Cities_List/img_natural_03.png,,52,,,4,,,,,,,,,,,,,,,
null,,confidence_buffer,870603,confidence_buffer,,null,,,,,,,,,,,,,,,,,,
2105.7000000029802,,recognition_phase,872709,Fictional_Cities_List/img_natural_03.png,,52,,,,,,new,1,0.7272727272727273,,,,,,,,,,
null,,confidence_buffer,872812,confidence_buffer,,null,,,,,,,,,,,,,,,,,,
null,,thebreak,873314,break,,null,,,,,,,,,,,,,,,,,,
3218.7999999970198,,realistic_rating,876534,US_Cities_List/nat_coeurdalene.png,,51,US_Cities_List/nat_coeurdalene.png,NAT,3,,,,,,,,,,,,,,,
null,,confidence_buffer,876636,confidence_buffer,,null,,,,,,,,,,,,,,,,,,
2305.0999999940395,,pt2_unique_rating,878942,US_Cities_List/nat_coeurdalene.png,,50,,,2,,,,,,,,,,,,,,,
null,,confidence_buffer,879043,confidence_buffer,,null,,,,,,,,,,,,,,,,,,
1898.2000000029802,,pt2_memorable_rating,880943,US_Cities_List/nat_coeurdalene.png,,51,,,3,,,,,,,,,,,,,,,
null,,confidence_buffer,881044,confidence_buffer,,null,,,,,,,,,,,,,,,,,,
1648.699999988079,,probe_rating,882693,probe_rating,,50,,,,2,1,,,,,,,,,,,,,
null,,confidence_buffer,882796,confidence_buffer,,null,,,,,,,,,,,,,,,,,,
2440.2000000029802,,recognition_phase,885237,US_Cities_List/nat_coeurdalene.png,,52,,,,,,new,1,0.7352941176470589,,,,,,,,,,
null,,confidence_buffer,885340,confidence_buffer,,null,,,,,,,,,,,,,,,,,,
null,,thebreak,885841,break,,null,,,,,,,,,,,,,,,,,,
6891.0999999940395,,realistic_rating,892733,Fictional_Cities_List/img_manmade_09.png,,52,Fictional_Cities_List/img_manmade_09.png,MM,4,,,,,,,,,,,,,,,
null,,confidence_buffer,892835,confidence_buffer,,null,,,,,,,,,,,,,,,,,,
1729.3999999910593,,pt2_unique_rating,894565,Fictional_Cities_List/img_manmade_09.png,,50,,,2,,,,,,,,,,,,,,,
null,,confidence_buffer,894668,confidence_buffer,,null,,,,,,,,,,,,,,,,,,
3568.3999999910593,,pt2_memorable_rating,898237,Fictional_Cities_List/img_manmade_09.png,,51,,,3,,,,,,,,,,,,,,,
null,,confidence_buffer,898339,confidence_buffer,,null,,,,,,,,,,,,,,,,,,
2616,,recognition_phase,900956,Fictional_Cities_List/img_manmade_09.png,,50,,,,,,old,0,0.7142857142857143,,,,,,,,,,
null,,confidence_buffer,901058,confidence_buffer,,null,,,,,,,,,,,,,,,,,,
null,,thebreak,901559,break,,null,,,,,,,,,,,,,,,,,,
4029,,realistic_rating,905589,US_Cities_List/mm_delawarecity.png,,51,US_Cities_List/mm_delawarecity.png,MM,3,,,,,,,,,,,,,,,
null,,confidence_buffer,905692,confidence_buffer,,null,,,,,,,,,,,,,,,,,,
3343.8999999910593,,pt2_unique_rating,909037,US_Cities_List/mm_delawarecity.png,,51,,,3,,,,,,,,,,,,,,,
null,,confidence_buffer,909138,confidence_buffer,,null,,,,,,,,,,,,,,,,,,
3281.8999999910593,,pt2_memorable_rating,912421,US_Cities_List/mm_delawarecity.png,,50,,,2,,,,,,,,,,,,,,,
null,,confidence_buffer,912523,confidence_buffer,,null,,,,,,,,,,,,,,,,,,
1939,,recognition_phase,914463,US_Cities_List/mm_delawarecity.png,,50,,,,,,old,1,0.7222222222222222,,,,,,,,,,
null,,confidence_buffer,914565,confidence_buffer,,null,,,,,,,,,,,,,,,,,,
null,,thebreak,915065,break,,null,,,,,,,,,,,,,,,,,,
5595,,realistic_rating,920661,US_Cities_List/nat_healdsburg.png,,51,US_Cities_List/nat_healdsburg.png,NAT,3,,,,,,,,,,,,,,,
null,,confidence_buffer,920762,confidence_buffer,,null,,,,,,,,,,,,,,,,,,
6769,,pt2_unique_rating,927532,US_Cities_List/nat_healdsburg.png,,51,,,3,,,,,,,,,,,,,,,
null,,confidence_buffer,927634,confidence_buffer,,null,,,,,,,,,,,,,,,,,,
1913.0999999940395,,pt2_memorable_rating,929548,US_Cities_List/nat_healdsburg.png,,50,,,2,,,,,,,,,,,,,,,
null,,confidence_buffer,929650,confidence_buffer,,null,,,,,,,,,,,,,,,,,,
2528.8999999910593,,recognition_phase,932180,US_Cities_List/nat_healdsburg.png,,51,,,,,,new,1,0.7297297297297297,,,,,,,,,,
null,,confidence_buffer,932283,confidence_buffer,,null,,,,,,,,,,,,,,,,,,
null,,thebreak,932784,break,,null,,,,,,,,,,,,,,,,,,
3938.4000000059605,,realistic_rating,936723,Fictional_Cities_List/img_manmade_13.png,,51,Fictional_Cities_List/img_manmade_13.png,MM,3,,,,,,,,,,,,,,,
null,,confidence_buffer,936825,confidence_buffer,,null,,,,,,,,,,,,,,,,,,
2890.2000000029802,,pt2_unique_rating,939716,Fictional_Cities_List/img_manmade_13.png,,50,,,2,,,,,,,,,,,,,,,
null,,confidence_buffer,939818,confidence_buffer,,null,,,,,,,,,,,,,,,,,,
2752.5,,pt2_memorable_rating,942572,Fictional_Cities_List/img_manmade_13.png,,51,,,3,,,,,,,,,,,,,,,
null,,confidence_buffer,942673,confidence_buffer,,null,,,,,,,,,,,,,,,,,,
2097.9000000059605,,recognition_phase,944772,Fictional_Cities_List/img_manmade_13.png,,52,,,,,,new,1,0.7368421052631579,,,,,,,,,,
null,,confidence_buffer,944873,confidence_buffer,,null,,,,,,,,,,,,,,,,,,
null,,thebreak,945375,break,,null,,,,,,,,,,,,,,,,,,
5148.29999999702,,realistic_rating,950524,Fictional_Cities_List/img_manmade_03.png,,50,Fictional_Cities_List/img_manmade_03.png,MM,2,,,,,,,,,,,,,,,
null,,confidence_buffer,950627,confidence_buffer,,null,,,,,,,,,,,,,,,,,,
2056,,pt2_unique_rating,952684,Fictional_Cities_List/img_manmade_03.png,,52,,,4,,,,,,,,,,,,,,,
null,,confidence_buffer,952786,confidence_buffer,,null,,,,,,,,,,,,,,,,,,
1992.5,,pt2_memorable_rating,954780,Fictional_Cities_List/img_manmade_03.png,,51,,,3,,,,,,,,,,,,,,,
null,,confidence_buffer,954882,confidence_buffer,,null,,,,,,,,,,,,,,,,,,
1521.2000000029802,,recognition_phase,956404,Fictional_Cities_List/img_manmade_03.png,,52,,,,,,new,1,0.7435897435897436,,,,,,,,,,
null,,confidence_buffer,956506,confidence_buffer,,null,,,,,,,,,,,,,,,,,,
null,,thebreak,957008,break,,null,,,,,,,,,,,,,,,,,,
5099.5,,realistic_rating,962108,US_Cities_List/nat_carmel.png,,49,US_Cities_List/nat_carmel.png,NAT,1,,,,,,,,,,,,,,,
null,,confidence_buffer,962211,confidence_buffer,,null,,,,,,,,,,,,,,,,,,
2718.5999999940395,,pt2_unique_rating,964931,US_Cities_List/nat_carmel.png,,51,,,3,,,,,,,,,,,,,,,
null,,confidence_buffer,965032,confidence_buffer,,null,,,,,,,,,,,,,,,,,,
3281.9000000059605,,pt2_memorable_rating,968315,US_Cities_List/nat_carmel.png,,50,,,2,,,,,,,,,,,,,,,
null,,confidence_buffer,968417,confidence_buffer,,null,,,,,,,,,,,,,,,,,,
2825.1000000089407,,recognition_phase,971243,US_Cities_List/nat_carmel.png,,52,,,,,,new,1,0.75,,,,,,,,,,
null,,confidence_buffer,971346,confidence_buffer,,null,,,,,,,,,,,,,,,,,,
null,,thebreak,971847,break,,null,,,,,,,,,,,,,,,,,,
5715.29999999702,,realistic_rating,977563,US_Cities_List/mm_cornwall.png,,51,US_Cities_List/mm_cornwall.png,MM,3,,,,,,,,,,,,,,,
null,,confidence_buffer,977665,confidence_buffer,,null,,,,,,,,,,,,,,,,,,
2192.3999999910593,,pt2_unique_rating,979859,US_Cities_List/mm_cornwall.png,,50,,,2,,,,,,,,,,,,,,,
null,,confidence_buffer,979961,confidence_buffer,,null,,,,,,,,,,,,,,,,,,
1840.7999999970198,,pt2_memorable_rating,981803,US_Cities_List/mm_cornwall.png,,51,,,3,,,,,,,,,,,,,,,
null,,confidence_buffer,981905,confidence_buffer,,null,,,,,,,,,,,,,,,,,,
2185,,recognition_phase,984091,US_Cities_List/mm_cornwall.png,,51,,,,,,new,0,0.7317073170731707,,,,,,,,,,
null,,confidence_buffer,984193,confidence_buffer,,null,,,,,,,,,,,,,,,,,,
null,,thebreak,984696,break,,null,,,,,,,,,,,,,,,,,,
6378,,realistic_rating,991075,Fictional_Cities_List/img_natural_15.png,,49,Fictional_Cities_List/img_natural_15.png,NAT,1,,,,,,,,,,,,,,,
null,,confidence_buffer,991177,confidence_buffer,,null,,,,,,,,,,,,,,,,,,
4369.4000000059605,,pt2_unique_rating,995547,Fictional_Cities_List/img_natural_15.png,,52,,,4,,,,,,,,,,,,,,,
null,,confidence_buffer,995649,confidence_buffer,,null,,,,,,,,,,,,,,,,,,
2025.2000000029802,,pt2_memorable_rating,997674,Fictional_Cities_List/img_natural_15.png,,51,,,3,,,,,,,,,,,,,,,
null,,confidence_buffer,997776,confidence_buffer,,null,,,,,,,,,,,,,,,,,,
2889.2999999970198,,recognition_phase,1000667,Fictional_Cities_List/img_natural_15.png,,52,,,,,,new,1,0.7380952380952381,,,,,,,,,,
null,,confidence_buffer,1000769,confidence_buffer,,null,,,,,,,,,,,,,,,,,,
null,,thebreak,1001270,break,,null,,,,,,,,,,,,,,,,,,
5563.9000000059605,,realistic_rating,1006835,US_Cities_List/mm_coeurdalene.png,,51,US_Cities_List/mm_coeurdalene.png,MM,3,,,,,,,,,,,,,,,
null,,confidence_buffer,1006937,confidence_buffer,,null,,,,,,,,,,,,,,,,,,
1440.7999999970198,,pt2_unique_rating,1008378,US_Cities_List/mm_coeurdalene.png,,50,,,2,,,,,,,,,,,,,,,
null,,confidence_buffer,1008480,confidence_buffer,,null,,,,,,,,,,,,,,,,,,
1641,,pt2_memorable_rating,1010122,US_Cities_List/mm_coeurdalene.png,,50,,,2,,,,,,,,,,,,,,,
null,,confidence_buffer,1010224,confidence_buffer,,null,,,,,,,,,,,,,,,,,,
2513.5999999940395,,probe_rating,1012738,probe_rating,,53,,,,5,1,,,,,,,,,,,,,
null,,confidence_buffer,1012841,confidence_buffer,,null,,,,,,,,,,,,,,,,,,
2384.4000000059605,,recognition_phase,1015226,US_Cities_List/mm_coeurdalene.png,,52,,,,,,new,1,0.7441860465116279,,,,,,,,,,
null,,confidence_buffer,1015327,confidence_buffer,,null,,,,,,,,,,,,,,,,,,
null,,thebreak,1015829,break,,null,,,,,,,,,,,,,,,,,,
3252.2999999970198,,realistic_rating,1019082,Fictional_Cities_List/img_natural_13.png,,49,Fictional_Cities_List/img_natural_13.png,NAT,1,,,,,,,,,,,,,,,
null,,confidence_buffer,1019184,confidence_buffer,,null,,,,,,,,,,,,,,,,,,
2361.2000000029802,,pt2_unique_rating,1021546,Fictional_Cities_List/img_natural_13.png,,52,,,4,,,,,,,,,,,,,,,
null,,confidence_buffer,1021647,confidence_buffer,,null,,,,,,,,,,,,,,,,,,
3938.199999988079,,pt2_memorable_rating,1025586,Fictional_Cities_List/img_natural_13.png,,51,,,3,,,,,,,,,,,,,,,
null,,confidence_buffer,1025689,confidence_buffer,,null,,,,,,,,,,,,,,,,,,
1911.5,,recognition_phase,1027602,Fictional_Cities_List/img_natural_13.png,,52,,,,,,new,1,0.75,,,,,,,,,,
null,,confidence_buffer,1027704,confidence_buffer,,null,,,,,,,,,,,,,,,,,,
null,,thebreak,1028206,break,,null,,,,,,,,,,,,,,,,,,
3938.9000000059605,,realistic_rating,1032146,US_Cities_List/mm_bisbee.png,,50,US_Cities_List/mm_bisbee.png,MM,2,,,,,,,,,,,,,,,
null,,confidence_buffer,1032248,confidence_buffer,,null,,,,,,,,,,,,,,,,,,
1920.7999999970198,,pt2_unique_rating,1034170,US_Cities_List/mm_bisbee.png,,50,,,2,,,,,,,,,,,,,,,
null,,confidence_buffer,1034272,confidence_buffer,,null,,,,,,,,,,,,,,,,,,
3417.2000000029802,,pt2_memorable_rating,1037690,US_Cities_List/mm_bisbee.png,,51,,,3,,,,,,,,,,,,,,,
null,,confidence_buffer,1037791,confidence_buffer,,null,,,,,,,,,,,,,,,,,,
1320.5,,recognition_phase,1039112,US_Cities_List/mm_bisbee.png,,52,,,,,,new,1,0.7555555555555555,,,,,,,,,,
null,,confidence_buffer,1039215,confidence_buffer,,null,,,,,,,,,,,,,,,,,,
null,,thebreak,1039716,break,,null,,,,,,,,,,,,,,,,,,
4573.0999999940395,,realistic_rating,1044290,US_Cities_List/mm_okoboji.png,,52,US_Cities_List/mm_okoboji.png,MM,4,,,,,,,,,,,,,,,
null,,confidence_buffer,1044391,confidence_buffer,,null,,,,,,,,,,,,,,,,,,
2929.5,,pt2_unique_rating,1047321,US_Cities_List/mm_okoboji.png,,51,,,3,,,,,,,,,,,,,,,
null,,confidence_buffer,1047423,confidence_buffer,,null,,,,,,,,,,,,,,,,,,
3314,,pt2_memorable_rating,1050738,US_Cities_List/mm_okoboji.png,,53,,,5,,,,,,,,,,,,,,,
null,,confidence_buffer,1050839,confidence_buffer,,null,,,,,,,,,,,,,,,,,,
1953.4000000059605,,recognition_phase,1052794,US_Cities_List/mm_okoboji.png,,49,,,,,,old,1,0.7608695652173914,,,,,,,,,,
null,,confidence_buffer,1052897,confidence_buffer,,null,,,,,,,,,,,,,,,,,,
null,,thebreak,1053398,break,,null,,,,,,,,,,,,,,,,,,
2914.2000000029802,,realistic_rating,1056313,US_Cities_List/nat_bisbee.png,,51,US_Cities_List/nat_bisbee.png,NAT,3,,,,,,,,,,,,,,,
null,,confidence_buffer,1056416,confidence_buffer,,null,,,,,,,,,,,,,,,,,,
3200.1000000089407,,pt2_unique_rating,1059617,US_Cities_List/nat_bisbee.png,,50,,,2,,,,,,,,,,,,,,,
null,,confidence_buffer,1059719,confidence_buffer,,null,,,,,,,,,,,,,,,,,,
2984.8999999910593,,pt2_memorable_rating,1062705,US_Cities_List/nat_bisbee.png,,50,,,2,,,,,,,,,,,,,,,
null,,confidence_buffer,1062807,confidence_buffer,,null,,,,,,,,,,,,,,,,,,
2113.2000000029802,,recognition_phase,1064921,US_Cities_List/nat_bisbee.png,,50,,,,,,old,1,0.7659574468085106,,,,,,,,,,
null,,confidence_buffer,1065023,confidence_buffer,,null,,,,,,,,,,,,,,,,,,
null,,thebreak,1065525,break,,null,,,,,,,,,,,,,,,,,,
2994,,realistic_rating,1068520,US_Cities_List/nat_cornwall.png,,50,US_Cities_List/nat_cornwall.png,NAT,2,,,,,,,,,,,,,,,
null,,confidence_buffer,1068622,confidence_buffer,,null,,,,,,,,,,,,,,,,,,
2802,,pt2_unique_rating,1071425,US_Cities_List/nat_cornwall.png,,50,,,2,,,,,,,,,,,,,,,
null,,confidence_buffer,1071527,confidence_buffer,,null,,,,,,,,,,,,,,,,,,
3360.800000011921,,pt2_memorable_rating,1074889,US_Cities_List/nat_cornwall.png,,50,,,2,,,,,,,,,,,,,,,
null,,confidence_buffer,1074990,confidence_buffer,,null,,,,,,,,,,,,,,,,,,
1448.7000000029802,,probe_rating,1076440,probe_rating,,49,,,,1,1,,,,,,,,,,,,,
null,,confidence_buffer,1076542,confidence_buffer,,null,,,,,,,,,,,,,,,,,,
2458,,recognition_phase,1079001,US_Cities_List/nat_cornwall.png,,52,,,,,,new,0,0.75,,,,,,,,,,
null,,confidence_buffer,1079103,confidence_buffer,,null,,,,,,,,,,,,,,,,,,
null,,thebreak,1079606,break,,null,,,,,,,,,,,,,,,,,,
3585.9000000059605,,realistic_rating,1083192,US_Cities_List/nat_abilene.png,,51,US_Cities_List/nat_abilene.png,NAT,3,,,,,,,,,,,,,,,
null,,confidence_buffer,1083295,confidence_buffer,,null,,,,,,,,,,,,,,,,,,
2008.3999999910593,,pt2_unique_rating,1085305,US_Cities_List/nat_abilene.png,,50,,,2,,,,,,,,,,,,,,,
null,,confidence_buffer,1085406,confidence_buffer,,null,,,,,,,,,,,,,,,,,,
2777.5999999940395,,pt2_memorable_rating,1088185,US_Cities_List/nat_abilene.png,,50,,,2,,,,,,,,,,,,,,,
null,,confidence_buffer,1088288,confidence_buffer,,null,,,,,,,,,,,,,,,,,,
2294.7000000029802,,recognition_phase,1090584,US_Cities_List/nat_abilene.png,,51,,,,,,new,0,0.7346938775510204,,,,,,,,,,
null,,confidence_buffer,1090686,confidence_buffer,,null,,,,,,,,,,,,,,,,,,
null,,thebreak,1091187,break,,null,,,,,,,,,,,,,,,,,,
4404.5999999940395,,realistic_rating,1095592,US_Cities_List/mm_hilo.png,,50,US_Cities_List/mm_hilo.png,MM,2,,,,,,,,,,,,,,,
null,,confidence_buffer,1095694,confidence_buffer,,null,,,,,,,,,,,,,,,,,,
1592.9000000059605,,pt2_unique_rating,1097288,US_Cities_List/mm_hilo.png,,51,,,3,,,,,,,,,,,,,,,
null,,confidence_buffer,1097390,confidence_buffer,,null,,,,,,,,,,,,,,,,,,
1625.2999999970198,,pt2_memorable_rating,1099016,US_Cities_List/mm_hilo.png,,51,,,3,,,,,,,,,,,,,,,
null,,confidence_buffer,1099119,confidence_buffer,,null,,,,,,,,,,,,,,,,,,
1201.2000000029802,,recognition_phase,1100321,US_Cities_List/mm_hilo.png,,52,,,,,,new,0,0.72,,,,,,,,,,
null,,confidence_buffer,1100423,confidence_buffer,,null,,,,,,,,,,,,,,,,,,
null,,thebreak,1100926,break,,null,,,,,,,,,,,,,,,,,,
5265.70000000298,,realistic_rating,1106192,US_Cities_List/nat_westpalmbeach.png,,50,US_Cities_List/nat_westpalmbeach.png,NAT,2,,,,,,,,,,,,,,,
null,,confidence_buffer,1106295,confidence_buffer,,null,,,,,,,,,,,,,,,,,,
8400.20000000298,,pt2_unique_rating,1114696,US_Cities_List/nat_westpalmbeach.png,,51,,,3,,,,,,,,,,,,,,,
null,,confidence_buffer,1114797,confidence_buffer,,null,,,,,,,,,,,,,,,,,,
1585.7999999970198,,pt2_memorable_rating,1116384,US_Cities_List/nat_westpalmbeach.png,,51,,,3,,,,,,,,,,,,,,,
null,,confidence_buffer,1116486,confidence_buffer,,null,,,,,,,,,,,,,,,,,,
2184.9000000059605,,probe_rating,1118672,probe_rating,,50,,,,2,1,,,,,,,,,,,,,
null,,confidence_buffer,1118775,confidence_buffer,,null,,,,,,,,,,,,,,,,,,
2383.7000000029802,,recognition_phase,1121159,US_Cities_List/nat_westpalmbeach.png,,52,,,,,,new,1,0.7254901960784313,,,,,,,,,,
null,,confidence_buffer,1121261,confidence_buffer,,null,,,,,,,,,,,,,,,,,,
null,,thebreak,1121762,break,,null,,,,,,,,,,,,,,,,,,
5293.29999999702,,realistic_rating,1127056,US_Cities_List/nat_okoboji.png,,51,US_Cities_List/nat_okoboji.png,NAT,3,,,,,,,,,,,,,,,
null,,confidence_buffer,1127157,confidence_buffer,,null,,,,,,,,,,,,,,,,,,
1297.8999999910593,,pt2_unique_rating,1128456,US_Cities_List/nat_okoboji.png,,50,,,2,,,,,,,,,,,,,,,
null,,confidence_buffer,1128558,confidence_buffer,,null,,,,,,,,,,,,,,,,,,
1609,,probe_rating,1130168,probe_rating,,51,,,,3,1,,,,,,,,,,,,,
null,,confidence_buffer,1130270,confidence_buffer,,null,,,,,,,,,,,,,,,,,,
4048.2000000029802,,pt2_memorable_rating,1134319,US_Cities_List/nat_okoboji.png,,52,,,4,,,,,,,,,,,,,,,
null,,confidence_buffer,1134422,confidence_buffer,,null,,,,,,,,,,,,,,,,,,
2888.699999988079,,recognition_phase,1137312,US_Cities_List/nat_okoboji.png,,52,,,,,,new,1,0.7307692307692307,,,,,,,,,,
null,,confidence_buffer,1137414,confidence_buffer,,null,,,,,,,,,,,,,,,,,,
null,,thebreak,1137916,break,,null,,,,,,,,,,,,,,,,,,
3986.699999988079,,realistic_rating,1142007,Fictional_Cities_List/img_natural_04.png,,49,Fictional_Cities_List/img_natural_04.png,NAT,1,,,,,,,,,,,,,,,
null,,confidence_buffer,1142110,confidence_buffer,,null,,,,,,,,,,,,,,,,,,
3511.7000000029802,,pt2_unique_rating,1145623,Fictional_Cities_List/img_natural_04.png,,51,,,3,,,,,,,,,,,,,,,
null,,confidence_buffer,1145725,confidence_buffer,,null,,,,,,,,,,,,,,,,,,
2033.300000011921,,pt2_memorable_rating,1147759,Fictional_Cities_List/img_natural_04.png,,51,,,3,,,,,,,,,,,,,,,
null,,confidence_buffer,1147862,confidence_buffer,,null,,,,,,,,,,,,,,,,,,
1983.699999988079,,recognition_phase,1149847,Fictional_Cities_List/img_natural_04.png,,52,,,,,,new,1,0.7358490566037735,,,,,,,,,,
null,,confidence_buffer,1149949,confidence_buffer,,null,,,,,,,,,,,,,,,,,,
null,,thebreak,1150450,break,,null,,,,,,,,,,,,,,,,,,
5746.79999999702,,realistic_rating,1156198,US_Cities_List/nat_delawarecity.png,,52,US_Cities_List/nat_delawarecity.png,NAT,4,,,,,,,,,,,,,,,
null,,confidence_buffer,1156300,confidence_buffer,,null,,,,,,,,,,,,,,,,,,
2098.2999999970198,,pt2_unique_rating,1158399,US_Cities_List/nat_delawarecity.png,,50,,,2,,,,,,,,,,,,,,,
null,,confidence_buffer,1158501,confidence_buffer,,null,,,,,,,,,,,,,,,,,,
2705.2999999970198,,pt2_memorable_rating,1161207,US_Cities_List/nat_delawarecity.png,,51,,,3,,,,,,,,,,,,,,,
null,,confidence_buffer,1161309,confidence_buffer,,null,,,,,,,,,,,,,,,,,,
3481.2000000029802,,recognition_phase,1164791,US_Cities_List/nat_delawarecity.png,,51,,,,,,new,1,0.7407407407407407,,,,,,,,,,
null,,confidence_buffer,1164892,confidence_buffer,,null,,,,,,,,,,,,,,,,,,
null,,thebreak,1165394,break,,null,,,,,,,,,,,,,,,,,,
10364.5,,realistic_rating,1175759,US_Cities_List/mm_healdsburg.png,,52,US_Cities_List/mm_healdsburg.png,MM,4,,,,,,,,,,,,,,,
null,,confidence_buffer,1175862,confidence_buffer,,null,,,,,,,,,,,,,,,,,,
2912.5,,pt2_unique_rating,1178775,US_Cities_List/mm_healdsburg.png,,51,,,3,,,,,,,,,,,,,,,
null,,confidence_buffer,1178878,confidence_buffer,,null,,,,,,,,,,,,,,,,,,
2408.0999999940395,,pt2_memorable_rating,1181287,US_Cities_List/mm_healdsburg.png,,51,,,3,,,,,,,,,,,,,,,
null,,confidence_buffer,1181389,confidence_buffer,,null,,,,,,,,,,,,,,,,,,
1193.2000000029802,,recognition_phase,1182583,US_Cities_List/mm_healdsburg.png,,50,,,,,,old,1,0.7454545454545455,,,,,,,,,,
null,,confidence_buffer,1182685,confidence_buffer,,null,,,,,,,,,,,,,,,,,,
null,,thebreak,1183187,break,,null,,,,,,,,,,,,,,,,,,
5875.4000000059605,,realistic_rating,1189063,Fictional_Cities_List/img_manmade_02.png,,51,Fictional_Cities_List/img_manmade_02.png,MM,3,,,,,,,,,,,,,,,
null,,confidence_buffer,1189165,confidence_buffer,,null,,,,,,,,,,,,,,,,,,
2033.5999999940395,,pt2_unique_rating,1191199,Fictional_Cities_List/img_manmade_02.png,,51,,,3,,,,,,,,,,,,,,,
null,,confidence_buffer,1191300,confidence_buffer,,null,,,,,,,,,,,,,,,,,,
2730.1000000089407,,pt2_memorable_rating,1194031,Fictional_Cities_List/img_manmade_02.png,,53,,,5,,,,,,,,,,,,,,,
null,,confidence_buffer,1194134,confidence_buffer,,null,,,,,,,,,,,,,,,,,,
2735.2000000029802,,recognition_phase,1196871,Fictional_Cities_List/img_manmade_02.png,,49,,,,,,old,1,0.75,,,,,,,,,,
null,,confidence_buffer,1196973,confidence_buffer,,null,,,,,,,,,,,,,,,,,,
null,,thebreak,1197474,break,,null,,,,,,,,,,,,,,,,,,
4484.70000000298,,realistic_rating,1201960,Fictional_Cities_List/img_natural_06.png,,52,Fictional_Cities_List/img_natural_06.png,NAT,4,,,,,,,,,,,,,,,
null,,confidence_buffer,1202061,confidence_buffer,,null,,,,,,,,,,,,,,,,,,
2481.2000000029802,,pt2_unique_rating,1204543,Fictional_Cities_List/img_natural_06.png,,51,,,3,,,,,,,,,,,,,,,
null,,confidence_buffer,1204645,confidence_buffer,,null,,,,,,,,,,,,,,,,,,
1321.9000000059605,,pt2_memorable_rating,1205968,Fictional_Cities_List/img_natural_06.png,,52,,,4,,,,,,,,,,,,,,,
null,,confidence_buffer,1206069,confidence_buffer,,null,,,,,,,,,,,,,,,,,,
1728.5999999940395,,recognition_phase,1207799,Fictional_Cities_List/img_natural_06.png,,49,,,,,,old,1,0.7543859649122807,,,,,,,,,,
null,,confidence_buffer,1207901,confidence_buffer,,null,,,,,,,,,,,,,,,,,,
null,,thebreak,1208402,break,,null,,,,,,,,,,,,,,,,,,
4292.79999999702,,realistic_rating,1212696,Fictional_Cities_List/img_manmade_06.png,,52,Fictional_Cities_List/img_manmade_06.png,MM,4,,,,,,,,,,,,,,,
null,,confidence_buffer,1212798,confidence_buffer,,null,,,,,,,,,,,,,,,,,,
3513.0999999940395,,pt2_unique_rating,1216312,Fictional_Cities_List/img_manmade_06.png,,50,,,2,,,,,,,,,,,,,,,
null,,confidence_buffer,1216414,confidence_buffer,,null,,,,,,,,,,,,,,,,,,
1977,,probe_rating,1218391,probe_rating,,50,,,,2,1,,,,,,,,,,,,,
null,,confidence_buffer,1218494,confidence_buffer,,null,,,,,,,,,,,,,,,,,,
3992.3999999910593,,pt2_memorable_rating,1222488,Fictional_Cities_List/img_manmade_06.png,,51,,,3,,,,,,,,,,,,,,,
null,,confidence_buffer,1222590,confidence_buffer,,null,,,,,,,,,,,,,,,,,,
1488.1000000089407,,recognition_phase,1224079,Fictional_Cities_List/img_manmade_06.png,,50,,,,,,old,1,0.7586206896551724,,,,,,,,,,
null,,confidence_buffer,1224182,confidence_buffer,,null,,,,,,,,,,,,,,,,,,
null,,thebreak,1224683,break,,null,,,,,,,,,,,,,,,,,,
6636.20000000298,,realistic_rating,1231320,US_Cities_List/mm_abilene.png,,52,US_Cities_List/mm_abilene.png,MM,4,,,,,,,,,,,,,,,
null,,confidence_buffer,1231422,confidence_buffer,,null,,,,,,,,,,,,,,,,,,
1583.5999999940395,,probe_rating,1233007,probe_rating,,51,,,,3,1,,,,,,,,,,,,,
null,,confidence_buffer,1233109,confidence_buffer,,null,,,,,,,,,,,,,,,,,,
2545.3999999910593,,pt2_unique_rating,1235656,US_Cities_List/mm_abilene.png,,52,,,4,,,,,,,,,,,,,,,
null,,confidence_buffer,1235758,confidence_buffer,,null,,,,,,,,,,,,,,,,,,
3872.2999999970198,,pt2_memorable_rating,1239631,US_Cities_List/mm_abilene.png,,51,,,3,,,,,,,,,,,,,,,
null,,confidence_buffer,1239733,confidence_buffer,,null,,,,,,,,,,,,,,,,,,
937.3000000119209,,recognition_phase,1240671,US_Cities_List/mm_abilene.png,,52,,,,,,new,1,0.7627118644067796,,,,,,,,,,
null,,confidence_buffer,1240774,confidence_buffer,,null,,,,,,,,,,,,,,,,,,
null,,thebreak,1241275,break,,null,,,,,,,,,,,,,,,,,,
3699.4000000059605,,realistic_rating,1244975,Fictional_Cities_List/img_natural_08.png,,49,Fictional_Cities_List/img_natural_08.png,NAT,1,,,,,,,,,,,,,,,
null,,confidence_buffer,1245077,confidence_buffer,,null,,,,,,,,,,,,,,,,,,
3057.7999999970198,,pt2_unique_rating,1248135,Fictional_Cities_List/img_natural_08.png,,51,,,3,,,,,,,,,,,,,,,
null,,confidence_buffer,1248237,confidence_buffer,,null,,,,,,,,,,,,,,,,,,
1385.5,,probe_rating,1249623,probe_rating,,51,,,,3,1,,,,,,,,,,,,,
null,,confidence_buffer,1249725,confidence_buffer,,null,,,,,,,,,,,,,,,,,,
1992.5999999940395,,pt2_memorable_rating,1251719,Fictional_Cities_List/img_natural_08.png,,51,,,3,,,,,,,,,,,,,,,
null,,confidence_buffer,1251821,confidence_buffer,,null,,,,,,,,,,,,,,,,,,
1073.300000011921,,recognition_phase,1252895,Fictional_Cities_List/img_natural_08.png,,50,,,,,,old,1,0.7666666666666667,,,,,,,,,,
null,,confidence_buffer,1252998,confidence_buffer,,null,,,,,,,,,,,,,,,,,,
null,,thebreak,1253500,break,,null,,,,,,,,,,,,,,,,,,
,,survey,1461011,survey-questions,,,,,,,,,,,none,high,No I wasn't doing anything else ,I tried to remember the photos based on their color scheme but it wasn't fool proof ,I thought about if I had seen places like the ones shown,If the buildings or landscapes had stayed in my mind from things I had seen in the past ,I thought about if I had seen something like the picture in my life before ,I thought about if the pictures looked like they could actually exist or if they seemed like something from fantasy ,No, I've never done a study like this before ,I enjoyed the task
