rt,responses,trial_type,time_elapsed,stimulus,button_pressed,key_press,name_trial,city_type,rating,probe,probe_accuracy,response,correct,accuracy,problems,smooth,distraction,strategies,familiar,memorable,unique,realistic,similar,comments
13275.60000000149,{worker_id:60bff9298f56d55c8ecd9adf},id_enter,13280,,,,,,,,,,,,,,,,,,,,,
21041.5,,fullscreen,34326,fullscreen,0,,,,,,,,,,,,,,,,,,,
4109.89999999851,,intro_0,38439,instruct,,32,,,,,,,,,,,,,,,,,,
16348.70000000298,,intro_1,54790,instruct,,32,,,,,,,,,,,,,,,,,,
3943.5999999940395,,intro_2,58736,instruct,,32,,,,,,,,,,,,,,,,,,
null,,instruct_dir_4,60239,instruct,,null,,,,,,,,,,,,,,,,,,
null,,thebreak,60742,break,,null,,,,,,,,,,,,,,,,,,
4503.20000000298,,familiar_rating,65249,Fictional_Cities_List/img_manmade_10.png,,49,Fictional_Cities_List/img_manmade_10.png,MM,1,,,,,,,,,,,,,,,
null,,confidence_buffer,65354,confidence_buffer,,null,,,,,,,,,,,,,,,,,,
6733.10000000149,,unique_rating,72091,Fictional_Cities_List/img_manmade_10.png,,51,,,3,,,,,,,,,,,,,,,
null,,confidence_buffer,72194,confidence_buffer,,null,,,,,,,,,,,,,,,,,,
3703.39999999851,,memorable_rating,75900,Fictional_Cities_List/img_manmade_10.png,,50,,,2,,,,,,,,,,,,,,,
null,,confidence_buffer,76004,confidence_buffer,,null,,,,,,,,,,,,,,,,,,
null,,thebreak,76507,break,,null,,,,,,,,,,,,,,,,,,
6113.39999999851,,familiar_rating,82624,Fictional_Cities_List/img_natural_06.png,,51,Fictional_Cities_List/img_natural_06.png,NAT,3,,,,,,,,,,,,,,,
null,,confidence_buffer,82729,confidence_buffer,,null,,,,,,,,,,,,,,,,,,
9275.30000000447,,unique_rating,92007,Fictional_Cities_List/img_natural_06.png,,53,,,5,,,,,,,,,,,,,,,
null,,confidence_buffer,92112,confidence_buffer,,null,,,,,,,,,,,,,,,,,,
1722,,memorable_rating,93837,Fictional_Cities_List/img_natural_06.png,,53,,,5,,,,,,,,,,,,,,,
null,,confidence_buffer,93939,confidence_buffer,,null,,,,,,,,,,,,,,,,,,
null,,thebreak,94440,break,,null,,,,,,,,,,,,,,,,,,
4669.30000000447,,familiar_rating,99112,US_Cities_List/nat_carmel.png,,49,US_Cities_List/nat_carmel.png,NAT,1,,,,,,,,,,,,,,,
null,,confidence_buffer,99215,confidence_buffer,,null,,,,,,,,,,,,,,,,,,
3961,,unique_rating,103179,US_Cities_List/nat_carmel.png,,51,,,3,,,,,,,,,,,,,,,
null,,confidence_buffer,103281,confidence_buffer,,null,,,,,,,,,,,,,,,,,,
2602.5,,memorable_rating,105886,US_Cities_List/nat_carmel.png,,51,,,3,,,,,,,,,,,,,,,
null,,confidence_buffer,105988,confidence_buffer,,null,,,,,,,,,,,,,,,,,,
null,,thebreak,106489,break,,null,,,,,,,,,,,,,,,,,,
3932.3000000044703,,familiar_rating,110424,Fictional_Cities_List/img_manmade_03.png,,50,Fictional_Cities_List/img_manmade_03.png,MM,2,,,,,,,,,,,,,,,
null,,confidence_buffer,110531,confidence_buffer,,null,,,,,,,,,,,,,,,,,,
4882,,unique_rating,115416,Fictional_Cities_List/img_manmade_03.png,,51,,,3,,,,,,,,,,,,,,,
null,,confidence_buffer,115518,confidence_buffer,,null,,,,,,,,,,,,,,,,,,
4006.0999999940395,,memorable_rating,119525,Fictional_Cities_List/img_manmade_03.png,,51,,,3,,,,,,,,,,,,,,,
null,,confidence_buffer,119627,confidence_buffer,,null,,,,,,,,,,,,,,,,,,
null,,thebreak,120128,break,,null,,,,,,,,,,,,,,,,,,
4126.39999999851,,familiar_rating,124257,US_Cities_List/mm_peoria.png,,49,US_Cities_List/mm_peoria.png,MM,1,,,,,,,,,,,,,,,
null,,confidence_buffer,124362,confidence_buffer,,null,,,,,,,,,,,,,,,,,,
4198.70000000298,,unique_rating,128564,US_Cities_List/mm_peoria.png,,49,,,1,,,,,,,,,,,,,,,
null,,confidence_buffer,128665,confidence_buffer,,null,,,,,,,,,,,,,,,,,,
1946,,memorable_rating,130613,US_Cities_List/mm_peoria.png,,49,,,1,,,,,,,,,,,,,,,
null,,confidence_buffer,130715,confidence_buffer,,null,,,,,,,,,,,,,,,,,,
null,,thebreak,131216,break,,null,,,,,,,,,,,,,,,,,,
4738,,familiar_rating,135956,Fictional_Cities_List/img_natural_11.png,,52,Fictional_Cities_List/img_natural_11.png,NAT,4,,,,,,,,,,,,,,,
null,,confidence_buffer,136058,confidence_buffer,,null,,,,,,,,,,,,,,,,,,
2592.60000000149,,unique_rating,138653,Fictional_Cities_List/img_natural_11.png,,51,,,3,,,,,,,,,,,,,,,
null,,confidence_buffer,138755,confidence_buffer,,null,,,,,,,,,,,,,,,,,,
1615.5999999940395,,memorable_rating,140373,Fictional_Cities_List/img_natural_11.png,,53,,,5,,,,,,,,,,,,,,,
null,,confidence_buffer,140477,confidence_buffer,,null,,,,,,,,,,,,,,,,,,
null,,thebreak,140979,break,,null,,,,,,,,,,,,,,,,,,
8692.10000000149,,familiar_rating,149674,Fictional_Cities_List/img_manmade_11.png,,50,Fictional_Cities_List/img_manmade_11.png,MM,2,,,,,,,,,,,,,,,
null,,confidence_buffer,149780,confidence_buffer,,null,,,,,,,,,,,,,,,,,,
8059.20000000298,,unique_rating,157842,Fictional_Cities_List/img_manmade_11.png,,50,,,2,,,,,,,,,,,,,,,
null,,confidence_buffer,157944,confidence_buffer,,null,,,,,,,,,,,,,,,,,,
3373.8000000044703,,memorable_rating,161320,Fictional_Cities_List/img_manmade_11.png,,51,,,3,,,,,,,,,,,,,,,
null,,confidence_buffer,161425,confidence_buffer,,null,,,,,,,,,,,,,,,,,,
null,,thebreak,161927,break,,null,,,,,,,,,,,,,,,,,,
3851.60000000149,,familiar_rating,165782,Fictional_Cities_List/img_natural_08.png,,51,Fictional_Cities_List/img_natural_08.png,NAT,3,,,,,,,,,,,,,,,
null,,confidence_buffer,165892,confidence_buffer,,null,,,,,,,,,,,,,,,,,,
2745.2999999970198,,unique_rating,168645,Fictional_Cities_List/img_natural_08.png,,52,,,4,,,,,,,,,,,,,,,
null,,confidence_buffer,168746,confidence_buffer,,null,,,,,,,,,,,,,,,,,,
2476.60000000149,,memorable_rating,171225,Fictional_Cities_List/img_natural_08.png,,52,,,4,,,,,,,,,,,,,,,
null,,confidence_buffer,171330,confidence_buffer,,null,,,,,,,,,,,,,,,,,,
null,,thebreak,171832,break,,null,,,,,,,,,,,,,,,,,,
4290.39999999851,,familiar_rating,176126,Fictional_Cities_List/img_natural_15.png,,49,Fictional_Cities_List/img_natural_15.png,NAT,1,,,,,,,,,,,,,,,
null,,confidence_buffer,176230,confidence_buffer,,null,,,,,,,,,,,,,,,,,,
1984.5,,unique_rating,178217,Fictional_Cities_List/img_natural_15.png,,53,,,5,,,,,,,,,,,,,,,
null,,confidence_buffer,178320,confidence_buffer,,null,,,,,,,,,,,,,,,,,,
598.8999999985099,,memorable_rating,178923,Fictional_Cities_List/img_natural_15.png,,53,,,5,,,,,,,,,,,,,,,
null,,confidence_buffer,179026,confidence_buffer,,null,,,,,,,,,,,,,,,,,,
null,,thebreak,179528,break,,null,,,,,,,,,,,,,,,,,,
6374.30000000447,,familiar_rating,185906,Fictional_Cities_List/img_manmade_02.png,,49,Fictional_Cities_List/img_manmade_02.png,MM,1,,,,,,,,,,,,,,,
null,,confidence_buffer,186009,confidence_buffer,,null,,,,,,,,,,,,,,,,,,
2306.7000000029802,,unique_rating,188318,Fictional_Cities_List/img_manmade_02.png,,50,,,2,,,,,,,,,,,,,,,
null,,confidence_buffer,188421,confidence_buffer,,null,,,,,,,,,,,,,,,,,,
2002.2999999970198,,memorable_rating,190426,Fictional_Cities_List/img_manmade_02.png,,51,,,3,,,,,,,,,,,,,,,
null,,confidence_buffer,190528,confidence_buffer,,null,,,,,,,,,,,,,,,,,,
null,,thebreak,191029,break,,null,,,,,,,,,,,,,,,,,,
4668.39999999851,,familiar_rating,195701,Fictional_Cities_List/img_natural_03.png,,49,Fictional_Cities_List/img_natural_03.png,NAT,1,,,,,,,,,,,,,,,
null,,confidence_buffer,195804,confidence_buffer,,null,,,,,,,,,,,,,,,,,,
2250.7999999970198,,probe_rating,198059,probe_rating,,49,,,,1,1,,,,,,,,,,,,,
null,,confidence_buffer,198163,confidence_buffer,,null,,,,,,,,,,,,,,,,,,
3008.7999999970198,,unique_rating,201176,Fictional_Cities_List/img_natural_03.png,,51,,,3,,,,,,,,,,,,,,,
null,,confidence_buffer,201281,confidence_buffer,,null,,,,,,,,,,,,,,,,,,
4350.4000000059605,,memorable_rating,205637,Fictional_Cities_List/img_natural_03.png,,53,,,5,,,,,,,,,,,,,,,
null,,confidence_buffer,205741,confidence_buffer,,null,,,,,,,,,,,,,,,,,,
null,,thebreak,206243,break,,null,,,,,,,,,,,,,,,,,,
3066.5,,familiar_rating,209312,Fictional_Cities_List/img_manmade_09.png,,49,Fictional_Cities_List/img_manmade_09.png,MM,1,,,,,,,,,,,,,,,
null,,confidence_buffer,209416,confidence_buffer,,null,,,,,,,,,,,,,,,,,,
8997.69999999553,,unique_rating,218417,Fictional_Cities_List/img_manmade_09.png,,49,,,1,,,,,,,,,,,,,,,
null,,confidence_buffer,218522,confidence_buffer,,null,,,,,,,,,,,,,,,,,,
2219.5,,probe_rating,220745,probe_rating,,53,,,,5,1,,,,,,,,,,,,,
null,,confidence_buffer,220851,confidence_buffer,,null,,,,,,,,,,,,,,,,,,
6723.20000000298,,memorable_rating,227577,Fictional_Cities_List/img_manmade_09.png,,49,,,1,,,,,,,,,,,,,,,
null,,confidence_buffer,227682,confidence_buffer,,null,,,,,,,,,,,,,,,,,,
null,,thebreak,228185,break,,null,,,,,,,,,,,,,,,,,,
19270.29999999702,,familiar_rating,247457,US_Cities_List/mm_carmel.png,,49,US_Cities_List/mm_carmel.png,MM,1,,,,,,,,,,,,,,,
null,,confidence_buffer,247560,confidence_buffer,,null,,,,,,,,,,,,,,,,,,
1754.7000000029802,,unique_rating,249317,US_Cities_List/mm_carmel.png,,49,,,1,,,,,,,,,,,,,,,
null,,confidence_buffer,249420,confidence_buffer,,null,,,,,,,,,,,,,,,,,,
1906.8999999985099,,memorable_rating,251329,US_Cities_List/mm_carmel.png,,49,,,1,,,,,,,,,,,,,,,
null,,confidence_buffer,251435,confidence_buffer,,null,,,,,,,,,,,,,,,,,,
null,,thebreak,251937,break,,null,,,,,,,,,,,,,,,,,,
16447.89999999851,,familiar_rating,268388,US_Cities_List/nat_sitka.png,,50,US_Cities_List/nat_sitka.png,NAT,2,,,,,,,,,,,,,,,
null,,confidence_buffer,268493,confidence_buffer,,null,,,,,,,,,,,,,,,,,,
2463.10000000149,,unique_rating,270959,US_Cities_List/nat_sitka.png,,51,,,3,,,,,,,,,,,,,,,
null,,confidence_buffer,271064,confidence_buffer,,null,,,,,,,,,,,,,,,,,,
1203.2000000029802,,probe_rating,272271,probe_rating,,49,,,,1,1,,,,,,,,,,,,,
null,,confidence_buffer,272375,confidence_buffer,,null,,,,,,,,,,,,,,,,,,
2083,,memorable_rating,274461,US_Cities_List/nat_sitka.png,,53,,,5,,,,,,,,,,,,,,,
null,,confidence_buffer,274565,confidence_buffer,,null,,,,,,,,,,,,,,,,,,
null,,thebreak,275067,break,,null,,,,,,,,,,,,,,,,,,
19389.29999999702,,familiar_rating,294459,US_Cities_List/mm_hilo.png,,51,US_Cities_List/mm_hilo.png,MM,3,,,,,,,,,,,,,,,
null,,confidence_buffer,294561,confidence_buffer,,null,,,,,,,,,,,,,,,,,,
4328.80000000447,,unique_rating,298892,US_Cities_List/mm_hilo.png,,52,,,4,,,,,,,,,,,,,,,
null,,confidence_buffer,298996,confidence_buffer,,null,,,,,,,,,,,,,,,,,,
12797.09999999404,,memorable_rating,311796,US_Cities_List/mm_hilo.png,,51,,,3,,,,,,,,,,,,,,,
null,,confidence_buffer,311901,confidence_buffer,,null,,,,,,,,,,,,,,,,,,
1509.1000000014901,,probe_rating,313413,probe_rating,,49,,,,1,1,,,,,,,,,,,,,
null,,confidence_buffer,313515,confidence_buffer,,null,,,,,,,,,,,,,,,,,,
null,,thebreak,314017,break,,null,,,,,,,,,,,,,,,,,,
11981.79999999702,,familiar_rating,326002,US_Cities_List/nat_healdsburg.png,,50,US_Cities_List/nat_healdsburg.png,NAT,2,,,,,,,,,,,,,,,
null,,confidence_buffer,326106,confidence_buffer,,null,,,,,,,,,,,,,,,,,,
2290.39999999851,,unique_rating,328400,US_Cities_List/nat_healdsburg.png,,49,,,1,,,,,,,,,,,,,,,
null,,confidence_buffer,328502,confidence_buffer,,null,,,,,,,,,,,,,,,,,,
566.3999999985099,,memorable_rating,329070,US_Cities_List/nat_healdsburg.png,,49,,,1,,,,,,,,,,,,,,,
null,,confidence_buffer,329172,confidence_buffer,,null,,,,,,,,,,,,,,,,,,
null,,thebreak,329673,break,,null,,,,,,,,,,,,,,,,,,
3390.39999999851,,familiar_rating,333065,Fictional_Cities_List/img_manmade_01.png,,49,Fictional_Cities_List/img_manmade_01.png,MM,1,,,,,,,,,,,,,,,
null,,confidence_buffer,333171,confidence_buffer,,null,,,,,,,,,,,,,,,,,,
15981,,unique_rating,349155,Fictional_Cities_List/img_manmade_01.png,,49,,,1,,,,,,,,,,,,,,,
null,,confidence_buffer,349258,confidence_buffer,,null,,,,,,,,,,,,,,,,,,
3555.2999999970198,,memorable_rating,352815,Fictional_Cities_List/img_manmade_01.png,,49,,,1,,,,,,,,,,,,,,,
null,,confidence_buffer,352917,confidence_buffer,,null,,,,,,,,,,,,,,,,,,
null,,thebreak,353419,break,,null,,,,,,,,,,,,,,,,,,
3132.10000000149,,familiar_rating,356553,US_Cities_List/mm_delawarecity.png,,49,US_Cities_List/mm_delawarecity.png,MM,1,,,,,,,,,,,,,,,
null,,confidence_buffer,356656,confidence_buffer,,null,,,,,,,,,,,,,,,,,,
8888.79999999702,,unique_rating,365548,US_Cities_List/mm_delawarecity.png,,49,,,1,,,,,,,,,,,,,,,
null,,confidence_buffer,365650,confidence_buffer,,null,,,,,,,,,,,,,,,,,,
2124.7999999970198,,memorable_rating,367777,US_Cities_List/mm_delawarecity.png,,49,,,1,,,,,,,,,,,,,,,
null,,confidence_buffer,367879,confidence_buffer,,null,,,,,,,,,,,,,,,,,,
null,,thebreak,368380,break,,null,,,,,,,,,,,,,,,,,,
6135.60000000149,,familiar_rating,374519,US_Cities_List/mm_cornwall.png,,49,US_Cities_List/mm_cornwall.png,MM,1,,,,,,,,,,,,,,,
null,,confidence_buffer,374624,confidence_buffer,,null,,,,,,,,,,,,,,,,,,
1963.2000000029802,,unique_rating,376590,US_Cities_List/mm_cornwall.png,,51,,,3,,,,,,,,,,,,,,,
null,,confidence_buffer,376694,confidence_buffer,,null,,,,,,,,,,,,,,,,,,
1129,,memorable_rating,377825,US_Cities_List/mm_cornwall.png,,51,,,3,,,,,,,,,,,,,,,
null,,confidence_buffer,377928,confidence_buffer,,null,,,,,,,,,,,,,,,,,,
null,,thebreak,378430,break,,null,,,,,,,,,,,,,,,,,,
10769.60000000149,,familiar_rating,389201,Fictional_Cities_List/img_natural_14.png,,51,Fictional_Cities_List/img_natural_14.png,NAT,3,,,,,,,,,,,,,,,
null,,confidence_buffer,389305,confidence_buffer,,null,,,,,,,,,,,,,,,,,,
1831.7999999970198,,unique_rating,391138,Fictional_Cities_List/img_natural_14.png,,51,,,3,,,,,,,,,,,,,,,
null,,confidence_buffer,391240,confidence_buffer,,null,,,,,,,,,,,,,,,,,,
1581.0999999940395,,memorable_rating,392824,Fictional_Cities_List/img_natural_14.png,,52,,,4,,,,,,,,,,,,,,,
null,,confidence_buffer,392927,confidence_buffer,,null,,,,,,,,,,,,,,,,,,
null,,thebreak,393430,break,,null,,,,,,,,,,,,,,,,,,
10341.70000000298,,familiar_rating,403775,Fictional_Cities_List/img_manmade_06.png,,49,Fictional_Cities_List/img_manmade_06.png,MM,1,,,,,,,,,,,,,,,
null,,confidence_buffer,403878,confidence_buffer,,null,,,,,,,,,,,,,,,,,,
2223,,unique_rating,406103,Fictional_Cities_List/img_manmade_06.png,,49,,,1,,,,,,,,,,,,,,,
null,,confidence_buffer,406205,confidence_buffer,,null,,,,,,,,,,,,,,,,,,
797.7999999970198,,memorable_rating,407004,Fictional_Cities_List/img_manmade_06.png,,49,,,1,,,,,,,,,,,,,,,
null,,confidence_buffer,407106,confidence_buffer,,null,,,,,,,,,,,,,,,,,,
null,,thebreak,407607,break,,null,,,,,,,,,,,,,,,,,,
7125.9000000059605,,familiar_rating,414735,US_Cities_List/nat_cornwall.png,,50,US_Cities_List/nat_cornwall.png,NAT,2,,,,,,,,,,,,,,,
null,,confidence_buffer,414840,confidence_buffer,,null,,,,,,,,,,,,,,,,,,
5369.70000000298,,unique_rating,420213,US_Cities_List/nat_cornwall.png,,50,,,2,,,,,,,,,,,,,,,
null,,confidence_buffer,420316,confidence_buffer,,null,,,,,,,,,,,,,,,,,,
1704.7999999970198,,probe_rating,422024,probe_rating,,51,,,,3,1,,,,,,,,,,,,,
null,,confidence_buffer,422129,confidence_buffer,,null,,,,,,,,,,,,,,,,,,
2415.3000000044703,,memorable_rating,424548,US_Cities_List/nat_cornwall.png,,51,,,3,,,,,,,,,,,,,,,
null,,confidence_buffer,424653,confidence_buffer,,null,,,,,,,,,,,,,,,,,,
null,,thebreak,425154,break,,null,,,,,,,,,,,,,,,,,,
3683,,familiar_rating,428840,US_Cities_List/mm_abilene.png,,52,US_Cities_List/mm_abilene.png,MM,4,,,,,,,,,,,,,,,
null,,confidence_buffer,428944,confidence_buffer,,null,,,,,,,,,,,,,,,,,,
2762.7000000029802,,unique_rating,431709,US_Cities_List/mm_abilene.png,,49,,,1,,,,,,,,,,,,,,,
null,,confidence_buffer,431838,confidence_buffer,,null,,,,,,,,,,,,,,,,,,
1978.8999999985099,,memorable_rating,433818,US_Cities_List/mm_abilene.png,,51,,,3,,,,,,,,,,,,,,,
null,,confidence_buffer,433921,confidence_buffer,,null,,,,,,,,,,,,,,,,,,
null,,thebreak,434424,break,,null,,,,,,,,,,,,,,,,,,
3678.6999999955297,,familiar_rating,438105,Fictional_Cities_List/img_natural_02.png,,49,Fictional_Cities_List/img_natural_02.png,NAT,1,,,,,,,,,,,,,,,
null,,confidence_buffer,438210,confidence_buffer,,null,,,,,,,,,,,,,,,,,,
1415.5999999940395,,probe_rating,439629,probe_rating,,52,,,,4,1,,,,,,,,,,,,,
null,,confidence_buffer,439733,confidence_buffer,,null,,,,,,,,,,,,,,,,,,
2209.89999999851,,unique_rating,441946,Fictional_Cities_List/img_natural_02.png,,53,,,5,,,,,,,,,,,,,,,
null,,confidence_buffer,442050,confidence_buffer,,null,,,,,,,,,,,,,,,,,,
891,,memorable_rating,442943,Fictional_Cities_List/img_natural_02.png,,53,,,5,,,,,,,,,,,,,,,
null,,confidence_buffer,443048,confidence_buffer,,null,,,,,,,,,,,,,,,,,,
null,,thebreak,443550,break,,null,,,,,,,,,,,,,,,,,,
2202.7999999970198,,familiar_rating,445755,US_Cities_List/mm_coeurdalene.png,,49,US_Cities_List/mm_coeurdalene.png,MM,1,,,,,,,,,,,,,,,
null,,confidence_buffer,445859,confidence_buffer,,null,,,,,,,,,,,,,,,,,,
900.6999999955297,,unique_rating,446763,US_Cities_List/mm_coeurdalene.png,,49,,,1,,,,,,,,,,,,,,,
null,,confidence_buffer,446865,confidence_buffer,,null,,,,,,,,,,,,,,,,,,
906,,memorable_rating,447773,US_Cities_List/mm_coeurdalene.png,,49,,,1,,,,,,,,,,,,,,,
null,,confidence_buffer,447876,confidence_buffer,,null,,,,,,,,,,,,,,,,,,
null,,thebreak,448378,break,,null,,,,,,,,,,,,,,,,,,
7108.10000000149,,familiar_rating,455488,US_Cities_List/nat_delawarecity.png,,49,US_Cities_List/nat_delawarecity.png,NAT,1,,,,,,,,,,,,,,,
null,,confidence_buffer,455592,confidence_buffer,,null,,,,,,,,,,,,,,,,,,
2124.8000000044703,,unique_rating,457720,US_Cities_List/nat_delawarecity.png,,51,,,3,,,,,,,,,,,,,,,
null,,confidence_buffer,457824,confidence_buffer,,null,,,,,,,,,,,,,,,,,,
598.3999999985099,,memorable_rating,458426,US_Cities_List/nat_delawarecity.png,,51,,,3,,,,,,,,,,,,,,,
null,,confidence_buffer,458530,confidence_buffer,,null,,,,,,,,,,,,,,,,,,
null,,thebreak,459032,break,,null,,,,,,,,,,,,,,,,,,
3454.7999999970198,,familiar_rating,462489,US_Cities_List/nat_abilene.png,,51,US_Cities_List/nat_abilene.png,NAT,3,,,,,,,,,,,,,,,
null,,confidence_buffer,462593,confidence_buffer,,null,,,,,,,,,,,,,,,,,,
2099.39999999851,,unique_rating,464696,US_Cities_List/nat_abilene.png,,50,,,2,,,,,,,,,,,,,,,
null,,confidence_buffer,464800,confidence_buffer,,null,,,,,,,,,,,,,,,,,,
1495.5,,memorable_rating,466300,US_Cities_List/nat_abilene.png,,51,,,3,,,,,,,,,,,,,,,
null,,confidence_buffer,466403,confidence_buffer,,null,,,,,,,,,,,,,,,,,,
null,,thebreak,466905,break,,null,,,,,,,,,,,,,,,,,,
4491.39999999851,,familiar_rating,471399,US_Cities_List/mm_bisbee.png,,50,US_Cities_List/mm_bisbee.png,MM,2,,,,,,,,,,,,,,,
null,,confidence_buffer,471501,confidence_buffer,,null,,,,,,,,,,,,,,,,,,
1161.8999999985099,,unique_rating,472665,US_Cities_List/mm_bisbee.png,,49,,,1,,,,,,,,,,,,,,,
null,,confidence_buffer,472768,confidence_buffer,,null,,,,,,,,,,,,,,,,,,
671.5,,memorable_rating,473442,US_Cities_List/mm_bisbee.png,,49,,,1,,,,,,,,,,,,,,,
null,,confidence_buffer,473546,confidence_buffer,,null,,,,,,,,,,,,,,,,,,
null,,thebreak,474049,break,,null,,,,,,,,,,,,,,,,,,
3976.2999999970198,,familiar_rating,478027,US_Cities_List/nat_peoria.png,,52,US_Cities_List/nat_peoria.png,NAT,4,,,,,,,,,,,,,,,
null,,confidence_buffer,478129,confidence_buffer,,null,,,,,,,,,,,,,,,,,,
2471.2999999970198,,unique_rating,480608,US_Cities_List/nat_peoria.png,,49,,,1,,,,,,,,,,,,,,,
null,,confidence_buffer,480714,confidence_buffer,,null,,,,,,,,,,,,,,,,,,
2125.10000000149,,memorable_rating,482842,US_Cities_List/nat_peoria.png,,51,,,3,,,,,,,,,,,,,,,
null,,confidence_buffer,482947,confidence_buffer,,null,,,,,,,,,,,,,,,,,,
null,,thebreak,483450,break,,null,,,,,,,,,,,,,,,,,,
3788,,familiar_rating,487240,Fictional_Cities_List/img_natural_04.png,,49,Fictional_Cities_List/img_natural_04.png,NAT,1,,,,,,,,,,,,,,,
null,,confidence_buffer,487343,confidence_buffer,,null,,,,,,,,,,,,,,,,,,
1327.7999999970198,,unique_rating,488673,Fictional_Cities_List/img_natural_04.png,,53,,,5,,,,,,,,,,,,,,,
null,,confidence_buffer,488775,confidence_buffer,,null,,,,,,,,,,,,,,,,,,
609.8999999985099,,memorable_rating,489387,Fictional_Cities_List/img_natural_04.png,,53,,,5,,,,,,,,,,,,,,,
null,,confidence_buffer,489489,confidence_buffer,,null,,,,,,,,,,,,,,,,,,
null,,thebreak,489990,break,,null,,,,,,,,,,,,,,,,,,
3915.2999999970198,,intro_0,493907,instruct,,32,,,,,,,,,,,,,,,,,,
4935.89999999851,,intro_1,498844,instruct,,32,,,,,,,,,,,,,,,,,,
8452.60000000149,,intro_2,507300,instruct,,32,,,,,,,,,,,,,,,,,,
null,,instruct_dir_4,508802,instruct,,null,,,,,,,,,,,,,,,,,,
4821.70000000298,,realistic_rating,513627,US_Cities_List/mm_carmel.png,,53,US_Cities_List/mm_carmel.png,MM,5,,,,,,,,,,,,,,,
null,,confidence_buffer,513731,confidence_buffer,,null,,,,,,,,,,,,,,,,,,
3010.1999999955297,,pt2_unique_rating,516743,US_Cities_List/mm_carmel.png,,49,,,1,,,,,,,,,,,,,,,
null,,confidence_buffer,516845,confidence_buffer,,null,,,,,,,,,,,,,,,,,,
2791,,pt2_memorable_rating,519638,US_Cities_List/mm_carmel.png,,49,,,1,,,,,,,,,,,,,,,
null,,confidence_buffer,519743,confidence_buffer,,null,,,,,,,,,,,,,,,,,,
3481,,recognition_phase,523229,US_Cities_List/mm_carmel.png,,49,,,,,,old,1,1,,,,,,,,,,
null,,confidence_buffer,523331,confidence_buffer,,null,,,,,,,,,,,,,,,,,,
null,,thebreak,523834,break,,null,,,,,,,,,,,,,,,,,,
2817,,realistic_rating,526654,Fictional_Cities_List/img_natural_11.png,,53,Fictional_Cities_List/img_natural_11.png,NAT,5,,,,,,,,,,,,,,,
null,,confidence_buffer,526758,confidence_buffer,,null,,,,,,,,,,,,,,,,,,
2615.6999999955297,,pt2_unique_rating,529376,Fictional_Cities_List/img_natural_11.png,,51,,,3,,,,,,,,,,,,,,,
null,,confidence_buffer,529479,confidence_buffer,,null,,,,,,,,,,,,,,,,,,
2679.2999999970198,,pt2_memorable_rating,532161,Fictional_Cities_List/img_natural_11.png,,52,,,4,,,,,,,,,,,,,,,
null,,confidence_buffer,532266,confidence_buffer,,null,,,,,,,,,,,,,,,,,,
2296.2000000029802,,recognition_phase,534566,Fictional_Cities_List/img_natural_11.png,,49,,,,,,old,1,1,,,,,,,,,,
null,,confidence_buffer,534671,confidence_buffer,,null,,,,,,,,,,,,,,,,,,
null,,thebreak,535173,break,,null,,,,,,,,,,,,,,,,,,
3791.7999999970198,,realistic_rating,538967,Fictional_Cities_List/img_manmade_15.png,,50,Fictional_Cities_List/img_manmade_15.png,MM,2,,,,,,,,,,,,,,,
null,,confidence_buffer,539072,confidence_buffer,,null,,,,,,,,,,,,,,,,,,
2654.3000000044703,,pt2_unique_rating,541728,Fictional_Cities_List/img_manmade_15.png,,50,,,2,,,,,,,,,,,,,,,
null,,confidence_buffer,541832,confidence_buffer,,null,,,,,,,,,,,,,,,,,,
1901.1999999955297,,pt2_memorable_rating,543736,Fictional_Cities_List/img_manmade_15.png,,51,,,3,,,,,,,,,,,,,,,
null,,confidence_buffer,543838,confidence_buffer,,null,,,,,,,,,,,,,,,,,,
3165.60000000149,,recognition_phase,547006,Fictional_Cities_List/img_manmade_15.png,,52,,,,,,new,1,1,,,,,,,,,,
null,,confidence_buffer,547110,confidence_buffer,,null,,,,,,,,,,,,,,,,,,
null,,thebreak,547612,break,,null,,,,,,,,,,,,,,,,,,
4665.5,,realistic_rating,552279,US_Cities_List/nat_abilene.png,,53,US_Cities_List/nat_abilene.png,NAT,5,,,,,,,,,,,,,,,
null,,confidence_buffer,552383,confidence_buffer,,null,,,,,,,,,,,,,,,,,,
5171,,pt2_unique_rating,557557,US_Cities_List/nat_abilene.png,,50,,,2,,,,,,,,,,,,,,,
null,,confidence_buffer,557663,confidence_buffer,,null,,,,,,,,,,,,,,,,,,
2808.5999999940395,,pt2_memorable_rating,560475,US_Cities_List/nat_abilene.png,,51,,,3,,,,,,,,,,,,,,,
null,,confidence_buffer,560577,confidence_buffer,,null,,,,,,,,,,,,,,,,,,
1135.7000000029802,,probe_rating,561715,probe_rating,,51,,,,3,1,,,,,,,,,,,,,
null,,confidence_buffer,561821,confidence_buffer,,null,,,,,,,,,,,,,,,,,,
2443.2999999970198,,recognition_phase,564267,US_Cities_List/nat_abilene.png,,49,,,,,,old,1,1,,,,,,,,,,
null,,confidence_buffer,564370,confidence_buffer,,null,,,,,,,,,,,,,,,,,,
null,,thebreak,564872,break,,null,,,,,,,,,,,,,,,,,,
2668.10000000149,,realistic_rating,567544,US_Cities_List/mm_bisbee.png,,53,US_Cities_List/mm_bisbee.png,MM,5,,,,,,,,,,,,,,,
null,,confidence_buffer,567648,confidence_buffer,,null,,,,,,,,,,,,,,,,,,
2151.10000000149,,pt2_unique_rating,569802,US_Cities_List/mm_bisbee.png,,49,,,1,,,,,,,,,,,,,,,
null,,confidence_buffer,569905,confidence_buffer,,null,,,,,,,,,,,,,,,,,,
2446,,pt2_memorable_rating,572354,US_Cities_List/mm_bisbee.png,,49,,,1,,,,,,,,,,,,,,,
null,,confidence_buffer,572459,confidence_buffer,,null,,,,,,,,,,,,,,,,,,
918,,probe_rating,573380,probe_rating,,49,,,,1,1,,,,,,,,,,,,,
null,,confidence_buffer,573486,confidence_buffer,,null,,,,,,,,,,,,,,,,,,
1948.7999999970198,,recognition_phase,575438,US_Cities_List/mm_bisbee.png,,49,,,,,,old,1,1,,,,,,,,,,
null,,confidence_buffer,575543,confidence_buffer,,null,,,,,,,,,,,,,,,,,,
null,,thebreak,576046,break,,null,,,,,,,,,,,,,,,,,,
2962.39999999851,,realistic_rating,579011,US_Cities_List/mm_healdsburg.png,,53,US_Cities_List/mm_healdsburg.png,MM,5,,,,,,,,,,,,,,,
null,,confidence_buffer,579114,confidence_buffer,,null,,,,,,,,,,,,,,,,,,
2153.8000000044703,,pt2_unique_rating,581281,US_Cities_List/mm_healdsburg.png,,49,,,1,,,,,,,,,,,,,,,
null,,confidence_buffer,581385,confidence_buffer,,null,,,,,,,,,,,,,,,,,,
1867.4000000059605,,pt2_memorable_rating,583254,US_Cities_List/mm_healdsburg.png,,49,,,1,,,,,,,,,,,,,,,
null,,confidence_buffer,583357,confidence_buffer,,null,,,,,,,,,,,,,,,,,,
2196.89999999851,,recognition_phase,585558,US_Cities_List/mm_healdsburg.png,,52,,,,,,new,1,1,,,,,,,,,,
null,,confidence_buffer,585662,confidence_buffer,,null,,,,,,,,,,,,,,,,,,
null,,thebreak,586164,break,,null,,,,,,,,,,,,,,,,,,
5299.79999999702,,realistic_rating,591467,Fictional_Cities_List/img_manmade_12.png,,50,Fictional_Cities_List/img_manmade_12.png,MM,2,,,,,,,,,,,,,,,
null,,confidence_buffer,591572,confidence_buffer,,null,,,,,,,,,,,,,,,,,,
2562,,pt2_unique_rating,594137,Fictional_Cities_List/img_manmade_12.png,,51,,,3,,,,,,,,,,,,,,,
null,,confidence_buffer,594240,confidence_buffer,,null,,,,,,,,,,,,,,,,,,
1371.3999999985099,,probe_rating,595615,probe_rating,,50,,,,2,1,,,,,,,,,,,,,
null,,confidence_buffer,595719,confidence_buffer,,null,,,,,,,,,,,,,,,,,,
2897.1999999955297,,pt2_memorable_rating,598620,Fictional_Cities_List/img_manmade_12.png,,51,,,3,,,,,,,,,,,,,,,
null,,confidence_buffer,598725,confidence_buffer,,null,,,,,,,,,,,,,,,,,,
2014.8999999985099,,recognition_phase,600743,Fictional_Cities_List/img_manmade_12.png,,52,,,,,,new,1,1,,,,,,,,,,
null,,confidence_buffer,600848,confidence_buffer,,null,,,,,,,,,,,,,,,,,,
null,,thebreak,601350,break,,null,,,,,,,,,,,,,,,,,,
2363.39999999851,,realistic_rating,603717,US_Cities_List/nat_cornwall.png,,53,US_Cities_List/nat_cornwall.png,NAT,5,,,,,,,,,,,,,,,
null,,confidence_buffer,603821,confidence_buffer,,null,,,,,,,,,,,,,,,,,,
2540.5999999940395,,pt2_unique_rating,606366,US_Cities_List/nat_cornwall.png,,49,,,1,,,,,,,,,,,,,,,
null,,confidence_buffer,606471,confidence_buffer,,null,,,,,,,,,,,,,,,,,,
2024.3999999985099,,pt2_memorable_rating,608499,US_Cities_List/nat_cornwall.png,,51,,,3,,,,,,,,,,,,,,,
null,,confidence_buffer,608604,confidence_buffer,,null,,,,,,,,,,,,,,,,,,
2045.3000000044703,,recognition_phase,610653,US_Cities_List/nat_cornwall.png,,49,,,,,,old,1,1,,,,,,,,,,
null,,confidence_buffer,610758,confidence_buffer,,null,,,,,,,,,,,,,,,,,,
null,,thebreak,611260,break,,null,,,,,,,,,,,,,,,,,,
3829,,realistic_rating,615091,US_Cities_List/nat_delawarecity.png,,53,US_Cities_List/nat_delawarecity.png,NAT,5,,,,,,,,,,,,,,,
null,,confidence_buffer,615194,confidence_buffer,,null,,,,,,,,,,,,,,,,,,
1934.7999999970198,,pt2_unique_rating,617132,US_Cities_List/nat_delawarecity.png,,49,,,1,,,,,,,,,,,,,,,
null,,confidence_buffer,617236,confidence_buffer,,null,,,,,,,,,,,,,,,,,,
8684.70000000298,,pt2_memorable_rating,625924,US_Cities_List/nat_delawarecity.png,,51,,,3,,,,,,,,,,,,,,,
null,,confidence_buffer,626028,confidence_buffer,,null,,,,,,,,,,,,,,,,,,
1611.1000000014901,,recognition_phase,627643,US_Cities_List/nat_delawarecity.png,,49,,,,,,old,1,1,,,,,,,,,,
null,,confidence_buffer,627749,confidence_buffer,,null,,,,,,,,,,,,,,,,,,
null,,thebreak,628251,break,,null,,,,,,,,,,,,,,,,,,
3238.60000000149,,realistic_rating,631493,Fictional_Cities_List/img_manmade_07.png,,53,Fictional_Cities_List/img_manmade_07.png,MM,5,,,,,,,,,,,,,,,
null,,confidence_buffer,631597,confidence_buffer,,null,,,,,,,,,,,,,,,,,,
2796.9000000059605,,pt2_unique_rating,634398,Fictional_Cities_List/img_manmade_07.png,,50,,,2,,,,,,,,,,,,,,,
null,,confidence_buffer,634503,confidence_buffer,,null,,,,,,,,,,,,,,,,,,
1830,,pt2_memorable_rating,636336,Fictional_Cities_List/img_manmade_07.png,,50,,,2,,,,,,,,,,,,,,,
null,,confidence_buffer,636441,confidence_buffer,,null,,,,,,,,,,,,,,,,,,
2092.6999999955297,,recognition_phase,638537,Fictional_Cities_List/img_manmade_07.png,,52,,,,,,new,1,1,,,,,,,,,,
null,,confidence_buffer,638641,confidence_buffer,,null,,,,,,,,,,,,,,,,,,
null,,thebreak,639144,break,,null,,,,,,,,,,,,,,,,,,
2303.10000000149,,realistic_rating,641450,US_Cities_List/nat_peoria.png,,53,US_Cities_List/nat_peoria.png,NAT,5,,,,,,,,,,,,,,,
null,,confidence_buffer,641554,confidence_buffer,,null,,,,,,,,,,,,,,,,,,
2044.5,,pt2_unique_rating,643602,US_Cities_List/nat_peoria.png,,51,,,3,,,,,,,,,,,,,,,
null,,confidence_buffer,643709,confidence_buffer,,null,,,,,,,,,,,,,,,,,,
1989,,pt2_memorable_rating,645701,US_Cities_List/nat_peoria.png,,51,,,3,,,,,,,,,,,,,,,
null,,confidence_buffer,645805,confidence_buffer,,null,,,,,,,,,,,,,,,,,,
1628.8999999985099,,recognition_phase,647437,US_Cities_List/nat_peoria.png,,49,,,,,,old,1,1,,,,,,,,,,
null,,confidence_buffer,647542,confidence_buffer,,null,,,,,,,,,,,,,,,,,,
null,,thebreak,648044,break,,null,,,,,,,,,,,,,,,,,,
4226.89999999851,,realistic_rating,652273,Fictional_Cities_List/img_natural_15.png,,51,Fictional_Cities_List/img_natural_15.png,NAT,3,,,,,,,,,,,,,,,
null,,confidence_buffer,652375,confidence_buffer,,null,,,,,,,,,,,,,,,,,,
2117.89999999851,,pt2_unique_rating,654496,Fictional_Cities_List/img_natural_15.png,,51,,,3,,,,,,,,,,,,,,,
null,,confidence_buffer,654600,confidence_buffer,,null,,,,,,,,,,,,,,,,,,
2002.6999999955297,,pt2_memorable_rating,656606,Fictional_Cities_List/img_natural_15.png,,52,,,4,,,,,,,,,,,,,,,
null,,confidence_buffer,656710,confidence_buffer,,null,,,,,,,,,,,,,,,,,,
1696.8000000044703,,recognition_phase,658411,Fictional_Cities_List/img_natural_15.png,,49,,,,,,old,1,1,,,,,,,,,,
null,,confidence_buffer,658514,confidence_buffer,,null,,,,,,,,,,,,,,,,,,
null,,thebreak,659016,break,,null,,,,,,,,,,,,,,,,,,
3969.39999999851,,realistic_rating,662988,US_Cities_List/mm_okoboji.png,,53,US_Cities_List/mm_okoboji.png,MM,5,,,,,,,,,,,,,,,
null,,confidence_buffer,663094,confidence_buffer,,null,,,,,,,,,,,,,,,,,,
1784.8999999985099,,pt2_unique_rating,664882,US_Cities_List/mm_okoboji.png,,49,,,1,,,,,,,,,,,,,,,
null,,confidence_buffer,664986,confidence_buffer,,null,,,,,,,,,,,,,,,,,,
996.5999999940395,,pt2_memorable_rating,665986,US_Cities_List/mm_okoboji.png,,49,,,1,,,,,,,,,,,,,,,
null,,confidence_buffer,666091,confidence_buffer,,null,,,,,,,,,,,,,,,,,,
3062.8000000044703,,recognition_phase,669157,US_Cities_List/mm_okoboji.png,,52,,,,,,new,1,1,,,,,,,,,,
null,,confidence_buffer,669262,confidence_buffer,,null,,,,,,,,,,,,,,,,,,
null,,thebreak,669764,break,,null,,,,,,,,,,,,,,,,,,
5964.29999999702,,realistic_rating,675731,US_Cities_List/mm_sitka.png,,53,US_Cities_List/mm_sitka.png,MM,5,,,,,,,,,,,,,,,
null,,confidence_buffer,675835,confidence_buffer,,null,,,,,,,,,,,,,,,,,,
2134.3000000044703,,pt2_unique_rating,677972,US_Cities_List/mm_sitka.png,,49,,,1,,,,,,,,,,,,,,,
null,,confidence_buffer,678077,confidence_buffer,,null,,,,,,,,,,,,,,,,,,
983.3999999985099,,pt2_memorable_rating,679063,US_Cities_List/mm_sitka.png,,49,,,1,,,,,,,,,,,,,,,
null,,confidence_buffer,679165,confidence_buffer,,null,,,,,,,,,,,,,,,,,,
4139,,recognition_phase,683306,US_Cities_List/mm_sitka.png,,52,,,,,,new,1,1,,,,,,,,,,
null,,confidence_buffer,683410,confidence_buffer,,null,,,,,,,,,,,,,,,,,,
null,,thebreak,683912,break,,null,,,,,,,,,,,,,,,,,,
4067.5,,realistic_rating,687982,US_Cities_List/mm_delawarecity.png,,53,US_Cities_List/mm_delawarecity.png,MM,5,,,,,,,,,,,,,,,
null,,confidence_buffer,688087,confidence_buffer,,null,,,,,,,,,,,,,,,,,,
1719.5,,pt2_unique_rating,689809,US_Cities_List/mm_delawarecity.png,,49,,,1,,,,,,,,,,,,,,,
null,,confidence_buffer,689915,confidence_buffer,,null,,,,,,,,,,,,,,,,,,
601.5,,pt2_memorable_rating,690520,US_Cities_List/mm_delawarecity.png,,49,,,1,,,,,,,,,,,,,,,
null,,confidence_buffer,690623,confidence_buffer,,null,,,,,,,,,,,,,,,,,,
2552.8000000044703,,recognition_phase,693180,US_Cities_List/mm_delawarecity.png,,49,,,,,,old,1,1,,,,,,,,,,
null,,confidence_buffer,693285,confidence_buffer,,null,,,,,,,,,,,,,,,,,,
null,,thebreak,693787,break,,null,,,,,,,,,,,,,,,,,,
3430,,realistic_rating,697221,Fictional_Cities_List/img_manmade_11.png,,49,Fictional_Cities_List/img_manmade_11.png,MM,1,,,,,,,,,,,,,,,
null,,confidence_buffer,697324,confidence_buffer,,null,,,,,,,,,,,,,,,,,,
2087.5,,pt2_unique_rating,699415,Fictional_Cities_List/img_manmade_11.png,,51,,,3,,,,,,,,,,,,,,,
null,,confidence_buffer,699520,confidence_buffer,,null,,,,,,,,,,,,,,,,,,
1861.1000000014901,,pt2_memorable_rating,701385,Fictional_Cities_List/img_manmade_11.png,,52,,,4,,,,,,,,,,,,,,,
null,,confidence_buffer,701488,confidence_buffer,,null,,,,,,,,,,,,,,,,,,
1846,,recognition_phase,703336,Fictional_Cities_List/img_manmade_11.png,,49,,,,,,old,1,1,,,,,,,,,,
null,,confidence_buffer,703441,confidence_buffer,,null,,,,,,,,,,,,,,,,,,
null,,thebreak,703943,break,,null,,,,,,,,,,,,,,,,,,
2204.89999999851,,realistic_rating,706150,US_Cities_List/nat_sitka.png,,53,US_Cities_List/nat_sitka.png,NAT,5,,,,,,,,,,,,,,,
null,,confidence_buffer,706252,confidence_buffer,,null,,,,,,,,,,,,,,,,,,
2649.39999999851,,pt2_unique_rating,708905,US_Cities_List/nat_sitka.png,,51,,,3,,,,,,,,,,,,,,,
null,,confidence_buffer,709009,confidence_buffer,,null,,,,,,,,,,,,,,,,,,
1304.5999999940395,,probe_rating,710316,probe_rating,,50,,,,2,1,,,,,,,,,,,,,
null,,confidence_buffer,710422,confidence_buffer,,null,,,,,,,,,,,,,,,,,,
2013,,pt2_memorable_rating,712438,US_Cities_List/nat_sitka.png,,52,,,4,,,,,,,,,,,,,,,
null,,confidence_buffer,712543,confidence_buffer,,null,,,,,,,,,,,,,,,,,,
1645.5,,recognition_phase,714192,US_Cities_List/nat_sitka.png,,49,,,,,,old,1,1,,,,,,,,,,
null,,confidence_buffer,714296,confidence_buffer,,null,,,,,,,,,,,,,,,,,,
null,,thebreak,714798,break,,null,,,,,,,,,,,,,,,,,,
6041.0999999940395,,realistic_rating,720841,US_Cities_List/nat_athens.png,,53,US_Cities_List/nat_athens.png,NAT,5,,,,,,,,,,,,,,,
null,,confidence_buffer,720943,confidence_buffer,,null,,,,,,,,,,,,,,,,,,
2273.5,,pt2_unique_rating,723219,US_Cities_List/nat_athens.png,,49,,,1,,,,,,,,,,,,,,,
null,,confidence_buffer,723325,confidence_buffer,,null,,,,,,,,,,,,,,,,,,
1204,,pt2_memorable_rating,724532,US_Cities_List/nat_athens.png,,51,,,3,,,,,,,,,,,,,,,
null,,confidence_buffer,724637,confidence_buffer,,null,,,,,,,,,,,,,,,,,,
1764.7999999970198,,recognition_phase,726406,US_Cities_List/nat_athens.png,,52,,,,,,new,1,1,,,,,,,,,,
null,,confidence_buffer,726510,confidence_buffer,,null,,,,,,,,,,,,,,,,,,
null,,thebreak,727012,break,,null,,,,,,,,,,,,,,,,,,
3153.5999999940395,,realistic_rating,730168,US_Cities_List/mm_cornwall.png,,53,US_Cities_List/mm_cornwall.png,MM,5,,,,,,,,,,,,,,,
null,,confidence_buffer,730273,confidence_buffer,,null,,,,,,,,,,,,,,,,,,
1657.1999999955297,,pt2_unique_rating,731934,US_Cities_List/mm_cornwall.png,,49,,,1,,,,,,,,,,,,,,,
null,,confidence_buffer,732037,confidence_buffer,,null,,,,,,,,,,,,,,,,,,
1679.1999999955297,,pt2_memorable_rating,733720,US_Cities_List/mm_cornwall.png,,51,,,3,,,,,,,,,,,,,,,
null,,confidence_buffer,733824,confidence_buffer,,null,,,,,,,,,,,,,,,,,,
1006.8999999985099,,recognition_phase,734834,US_Cities_List/mm_cornwall.png,,49,,,,,,old,1,1,,,,,,,,,,
null,,confidence_buffer,734940,confidence_buffer,,null,,,,,,,,,,,,,,,,,,
null,,thebreak,735442,break,,null,,,,,,,,,,,,,,,,,,
5936.79999999702,,realistic_rating,741381,Fictional_Cities_List/img_manmade_03.png,,51,Fictional_Cities_List/img_manmade_03.png,MM,3,,,,,,,,,,,,,,,
null,,confidence_buffer,741484,confidence_buffer,,null,,,,,,,,,,,,,,,,,,
3505.7000000029802,,pt2_unique_rating,744993,Fictional_Cities_List/img_manmade_03.png,,49,,,1,,,,,,,,,,,,,,,
null,,confidence_buffer,745097,confidence_buffer,,null,,,,,,,,,,,,,,,,,,
2754.60000000149,,probe_rating,747855,probe_rating,,51,,,,3,1,,,,,,,,,,,,,
null,,confidence_buffer,747963,confidence_buffer,,null,,,,,,,,,,,,,,,,,,
2338.5,,pt2_memorable_rating,750305,Fictional_Cities_List/img_manmade_03.png,,51,,,3,,,,,,,,,,,,,,,
null,,confidence_buffer,750411,confidence_buffer,,null,,,,,,,,,,,,,,,,,,
2924.89999999851,,recognition_phase,753339,Fictional_Cities_List/img_manmade_03.png,,50,,,,,,old,1,1,,,,,,,,,,
null,,confidence_buffer,753441,confidence_buffer,,null,,,,,,,,,,,,,,,,,,
null,,thebreak,753942,break,,null,,,,,,,,,,,,,,,,,,
3381.7000000029802,,realistic_rating,757326,Fictional_Cities_List/img_natural_02.png,,51,Fictional_Cities_List/img_natural_02.png,NAT,3,,,,,,,,,,,,,,,
null,,confidence_buffer,757429,confidence_buffer,,null,,,,,,,,,,,,,,,,,,
1516.3999999985099,,pt2_unique_rating,758948,Fictional_Cities_List/img_natural_02.png,,53,,,5,,,,,,,,,,,,,,,
null,,confidence_buffer,759052,confidence_buffer,,null,,,,,,,,,,,,,,,,,,
1578.6000000014901,,probe_rating,760633,probe_rating,,49,,,,1,1,,,,,,,,,,,,,
null,,confidence_buffer,760735,confidence_buffer,,null,,,,,,,,,,,,,,,,,,
1350.5999999940395,,pt2_memorable_rating,762088,Fictional_Cities_List/img_natural_02.png,,53,,,5,,,,,,,,,,,,,,,
null,,confidence_buffer,762189,confidence_buffer,,null,,,,,,,,,,,,,,,,,,
2050.5,,recognition_phase,764242,Fictional_Cities_List/img_natural_02.png,,49,,,,,,old,1,1,,,,,,,,,,
null,,confidence_buffer,764344,confidence_buffer,,null,,,,,,,,,,,,,,,,,,
null,,thebreak,764845,break,,null,,,,,,,,,,,,,,,,,,
3332.10000000149,,realistic_rating,768179,US_Cities_List/nat_hotsprings.png,,53,US_Cities_List/nat_hotsprings.png,NAT,5,,,,,,,,,,,,,,,
null,,confidence_buffer,768285,confidence_buffer,,null,,,,,,,,,,,,,,,,,,
1877.5999999940395,,pt2_unique_rating,770165,US_Cities_List/nat_hotsprings.png,,50,,,2,,,,,,,,,,,,,,,
null,,confidence_buffer,770268,confidence_buffer,,null,,,,,,,,,,,,,,,,,,
1675.3000000044703,,pt2_memorable_rating,771946,US_Cities_List/nat_hotsprings.png,,51,,,3,,,,,,,,,,,,,,,
null,,confidence_buffer,772051,confidence_buffer,,null,,,,,,,,,,,,,,,,,,
2549.6999999955297,,recognition_phase,774603,US_Cities_List/nat_hotsprings.png,,52,,,,,,new,1,1,,,,,,,,,,
null,,confidence_buffer,774708,confidence_buffer,,null,,,,,,,,,,,,,,,,,,
null,,thebreak,775210,break,,null,,,,,,,,,,,,,,,,,,
3129.39999999851,,realistic_rating,778342,Fictional_Cities_List/img_natural_07.png,,53,Fictional_Cities_List/img_natural_07.png,NAT,5,,,,,,,,,,,,,,,
null,,confidence_buffer,778447,confidence_buffer,,null,,,,,,,,,,,,,,,,,,
1932.7999999970198,,pt2_unique_rating,780383,Fictional_Cities_List/img_natural_07.png,,53,,,5,,,,,,,,,,,,,,,
null,,confidence_buffer,780488,confidence_buffer,,null,,,,,,,,,,,,,,,,,,
1030.3999999985099,,pt2_memorable_rating,781522,Fictional_Cities_List/img_natural_07.png,,53,,,5,,,,,,,,,,,,,,,
null,,confidence_buffer,781624,confidence_buffer,,null,,,,,,,,,,,,,,,,,,
1892,,recognition_phase,783519,Fictional_Cities_List/img_natural_07.png,,52,,,,,,new,1,1,,,,,,,,,,
null,,confidence_buffer,783621,confidence_buffer,,null,,,,,,,,,,,,,,,,,,
null,,thebreak,784124,break,,null,,,,,,,,,,,,,,,,,,
3288.5,,realistic_rating,787416,US_Cities_List/mm_hilo.png,,53,US_Cities_List/mm_hilo.png,MM,5,,,,,,,,,,,,,,,
null,,confidence_buffer,787521,confidence_buffer,,null,,,,,,,,,,,,,,,,,,
1579.8000000044703,,pt2_unique_rating,789104,US_Cities_List/mm_hilo.png,,51,,,3,,,,,,,,,,,,,,,
null,,confidence_buffer,789209,confidence_buffer,,null,,,,,,,,,,,,,,,,,,
1165.3999999985099,,pt2_memorable_rating,790378,US_Cities_List/mm_hilo.png,,51,,,3,,,,,,,,,,,,,,,
null,,confidence_buffer,790482,confidence_buffer,,null,,,,,,,,,,,,,,,,,,
1446.2000000029802,,probe_rating,791932,probe_rating,,50,,,,2,1,,,,,,,,,,,,,
null,,confidence_buffer,792036,confidence_buffer,,null,,,,,,,,,,,,,,,,,,
1714,,recognition_phase,793754,US_Cities_List/mm_hilo.png,,49,,,,,,old,1,1,,,,,,,,,,
null,,confidence_buffer,793859,confidence_buffer,,null,,,,,,,,,,,,,,,,,,
null,,thebreak,794361,break,,null,,,,,,,,,,,,,,,,,,
4198.89999999851,,realistic_rating,798563,Fictional_Cities_List/img_manmade_13.png,,52,Fictional_Cities_List/img_manmade_13.png,MM,4,,,,,,,,,,,,,,,
null,,confidence_buffer,798668,confidence_buffer,,null,,,,,,,,,,,,,,,,,,
2606.10000000149,,pt2_unique_rating,801278,Fictional_Cities_List/img_manmade_13.png,,51,,,3,,,,,,,,,,,,,,,
null,,confidence_buffer,801383,confidence_buffer,,null,,,,,,,,,,,,,,,,,,
1575.7999999970198,,probe_rating,802961,probe_rating,,53,,,,5,1,,,,,,,,,,,,,
null,,confidence_buffer,803063,confidence_buffer,,null,,,,,,,,,,,,,,,,,,
1139.1000000014901,,pt2_memorable_rating,804205,Fictional_Cities_List/img_manmade_13.png,,51,,,3,,,,,,,,,,,,,,,
null,,confidence_buffer,804307,confidence_buffer,,null,,,,,,,,,,,,,,,,,,
1725.3999999985099,,recognition_phase,806036,Fictional_Cities_List/img_manmade_13.png,,52,,,,,,new,1,1,,,,,,,,,,
null,,confidence_buffer,806140,confidence_buffer,,null,,,,,,,,,,,,,,,,,,
null,,thebreak,806642,break,,null,,,,,,,,,,,,,,,,,,
6287.10000000149,,realistic_rating,812933,US_Cities_List/mm_athens.png,,53,US_Cities_List/mm_athens.png,MM,5,,,,,,,,,,,,,,,
null,,confidence_buffer,813037,confidence_buffer,,null,,,,,,,,,,,,,,,,,,
2213,,pt2_unique_rating,815253,US_Cities_List/mm_athens.png,,49,,,1,,,,,,,,,,,,,,,
null,,confidence_buffer,815357,confidence_buffer,,null,,,,,,,,,,,,,,,,,,
2052.0999999940395,,pt2_memorable_rating,817413,US_Cities_List/mm_athens.png,,49,,,1,,,,,,,,,,,,,,,
null,,confidence_buffer,817514,confidence_buffer,,null,,,,,,,,,,,,,,,,,,
1660.1000000014901,,recognition_phase,819177,US_Cities_List/mm_athens.png,,50,,,,,,old,0,0.9615384615384616,,,,,,,,,,
null,,confidence_buffer,819279,confidence_buffer,,null,,,,,,,,,,,,,,,,,,
null,,thebreak,819782,break,,null,,,,,,,,,,,,,,,,,,
1892.7999999970198,,realistic_rating,821677,Fictional_Cities_List/img_manmade_10.png,,49,Fictional_Cities_List/img_manmade_10.png,MM,1,,,,,,,,,,,,,,,
null,,confidence_buffer,821780,confidence_buffer,,null,,,,,,,,,,,,,,,,,,
2347,,pt2_unique_rating,824129,Fictional_Cities_List/img_manmade_10.png,,51,,,3,,,,,,,,,,,,,,,
null,,confidence_buffer,824234,confidence_buffer,,null,,,,,,,,,,,,,,,,,,
1223.3000000044703,,pt2_memorable_rating,825461,Fictional_Cities_List/img_manmade_10.png,,51,,,3,,,,,,,,,,,,,,,
null,,confidence_buffer,825565,confidence_buffer,,null,,,,,,,,,,,,,,,,,,
1693.3999999985099,,recognition_phase,827262,Fictional_Cities_List/img_manmade_10.png,,49,,,,,,old,1,0.9629629629629629,,,,,,,,,,
null,,confidence_buffer,827366,confidence_buffer,,null,,,,,,,,,,,,,,,,,,
null,,thebreak,827868,break,,null,,,,,,,,,,,,,,,,,,
4203.10000000149,,realistic_rating,832074,US_Cities_List/nat_bisbee.png,,53,US_Cities_List/nat_bisbee.png,NAT,5,,,,,,,,,,,,,,,
null,,confidence_buffer,832179,confidence_buffer,,null,,,,,,,,,,,,,,,,,,
3550.5,,pt2_unique_rating,835733,US_Cities_List/nat_bisbee.png,,50,,,2,,,,,,,,,,,,,,,
null,,confidence_buffer,835838,confidence_buffer,,null,,,,,,,,,,,,,,,,,,
1509.7999999970198,,pt2_memorable_rating,837351,US_Cities_List/nat_bisbee.png,,51,,,3,,,,,,,,,,,,,,,
null,,confidence_buffer,837456,confidence_buffer,,null,,,,,,,,,,,,,,,,,,
1675,,recognition_phase,839135,US_Cities_List/nat_bisbee.png,,52,,,,,,new,1,0.9642857142857143,,,,,,,,,,
null,,confidence_buffer,839240,confidence_buffer,,null,,,,,,,,,,,,,,,,,,
null,,thebreak,839742,break,,null,,,,,,,,,,,,,,,,,,
2917.10000000149,,realistic_rating,842662,US_Cities_List/mm_coeurdalene.png,,53,US_Cities_List/mm_coeurdalene.png,MM,5,,,,,,,,,,,,,,,
null,,confidence_buffer,842767,confidence_buffer,,null,,,,,,,,,,,,,,,,,,
2107,,pt2_unique_rating,844877,US_Cities_List/mm_coeurdalene.png,,49,,,1,,,,,,,,,,,,,,,
null,,confidence_buffer,844979,confidence_buffer,,null,,,,,,,,,,,,,,,,,,
2145.10000000149,,pt2_memorable_rating,847128,US_Cities_List/mm_coeurdalene.png,,51,,,3,,,,,,,,,,,,,,,
null,,confidence_buffer,847232,confidence_buffer,,null,,,,,,,,,,,,,,,,,,
1761.2000000029802,,recognition_phase,848997,US_Cities_List/mm_coeurdalene.png,,49,,,,,,old,1,0.9655172413793104,,,,,,,,,,
null,,confidence_buffer,849102,confidence_buffer,,null,,,,,,,,,,,,,,,,,,
null,,thebreak,849604,break,,null,,,,,,,,,,,,,,,,,,
2858.2000000029802,,realistic_rating,852465,Fictional_Cities_List/img_natural_10.png,,53,Fictional_Cities_List/img_natural_10.png,NAT,5,,,,,,,,,,,,,,,
null,,confidence_buffer,852571,confidence_buffer,,null,,,,,,,,,,,,,,,,,,
1443.8000000044703,,probe_rating,854022,probe_rating,,50,,,,2,1,,,,,,,,,,,,,
null,,confidence_buffer,854127,confidence_buffer,,null,,,,,,,,,,,,,,,,,,
2413.39999999851,,pt2_unique_rating,856543,Fictional_Cities_List/img_natural_10.png,,51,,,3,,,,,,,,,,,,,,,
null,,confidence_buffer,856649,confidence_buffer,,null,,,,,,,,,,,,,,,,,,
1405.2999999970198,,pt2_memorable_rating,858057,Fictional_Cities_List/img_natural_10.png,,53,,,5,,,,,,,,,,,,,,,
null,,confidence_buffer,858164,confidence_buffer,,null,,,,,,,,,,,,,,,,,,
1896,,recognition_phase,860064,Fictional_Cities_List/img_natural_10.png,,52,,,,,,new,1,0.9666666666666667,,,,,,,,,,
null,,confidence_buffer,860169,confidence_buffer,,null,,,,,,,,,,,,,,,,,,
null,,thebreak,860671,break,,null,,,,,,,,,,,,,,,,,,
4487.10000000149,,realistic_rating,865161,Fictional_Cities_List/img_natural_04.png,,50,Fictional_Cities_List/img_natural_04.png,NAT,2,,,,,,,,,,,,,,,
null,,confidence_buffer,865265,confidence_buffer,,null,,,,,,,,,,,,,,,,,,
2132.3000000044703,,pt2_unique_rating,867400,Fictional_Cities_List/img_natural_04.png,,52,,,4,,,,,,,,,,,,,,,
null,,confidence_buffer,867502,confidence_buffer,,null,,,,,,,,,,,,,,,,,,
1276.3000000044703,,pt2_memorable_rating,868780,Fictional_Cities_List/img_natural_04.png,,52,,,4,,,,,,,,,,,,,,,
null,,confidence_buffer,868882,confidence_buffer,,null,,,,,,,,,,,,,,,,,,
1364.2999999970198,,probe_rating,870248,probe_rating,,50,,,,2,1,,,,,,,,,,,,,
null,,confidence_buffer,870353,confidence_buffer,,null,,,,,,,,,,,,,,,,,,
2831.39999999851,,recognition_phase,873189,Fictional_Cities_List/img_natural_04.png,,49,,,,,,old,1,0.967741935483871,,,,,,,,,,
null,,confidence_buffer,873294,confidence_buffer,,null,,,,,,,,,,,,,,,,,,
null,,thebreak,873796,break,,null,,,,,,,,,,,,,,,,,,
3024.5,,realistic_rating,876823,Fictional_Cities_List/img_manmade_05.png,,53,Fictional_Cities_List/img_manmade_05.png,MM,5,,,,,,,,,,,,,,,
null,,confidence_buffer,876926,confidence_buffer,,null,,,,,,,,,,,,,,,,,,
2794.39999999851,,pt2_unique_rating,879724,Fictional_Cities_List/img_manmade_05.png,,52,,,4,,,,,,,,,,,,,,,
null,,confidence_buffer,879829,confidence_buffer,,null,,,,,,,,,,,,,,,,,,
928.5,,pt2_memorable_rating,880761,Fictional_Cities_List/img_manmade_05.png,,52,,,4,,,,,,,,,,,,,,,
null,,confidence_buffer,880866,confidence_buffer,,null,,,,,,,,,,,,,,,,,,
2059.60000000149,,recognition_phase,882927,Fictional_Cities_List/img_manmade_05.png,,52,,,,,,new,1,0.96875,,,,,,,,,,
null,,confidence_buffer,883029,confidence_buffer,,null,,,,,,,,,,,,,,,,,,
null,,thebreak,883531,break,,null,,,,,,,,,,,,,,,,,,
4317.10000000149,,realistic_rating,887851,Fictional_Cities_List/img_manmade_14.png,,53,Fictional_Cities_List/img_manmade_14.png,MM,5,,,,,,,,,,,,,,,
null,,confidence_buffer,887955,confidence_buffer,,null,,,,,,,,,,,,,,,,,,
1820.1000000014901,,pt2_unique_rating,889779,Fictional_Cities_List/img_manmade_14.png,,49,,,1,,,,,,,,,,,,,,,
null,,confidence_buffer,889883,confidence_buffer,,null,,,,,,,,,,,,,,,,,,
1554.3000000044703,,pt2_memorable_rating,891439,Fictional_Cities_List/img_manmade_14.png,,49,,,1,,,,,,,,,,,,,,,
null,,confidence_buffer,891545,confidence_buffer,,null,,,,,,,,,,,,,,,,,,
1895.2000000029802,,recognition_phase,893443,Fictional_Cities_List/img_manmade_14.png,,50,,,,,,old,0,0.9393939393939394,,,,,,,,,,
null,,confidence_buffer,893548,confidence_buffer,,null,,,,,,,,,,,,,,,,,,
null,,thebreak,894051,break,,null,,,,,,,,,,,,,,,,,,
2473.60000000149,,realistic_rating,896527,US_Cities_List/mm_hotsprings.png,,53,US_Cities_List/mm_hotsprings.png,MM,5,,,,,,,,,,,,,,,
null,,confidence_buffer,896631,confidence_buffer,,null,,,,,,,,,,,,,,,,,,
1808.0999999940395,,pt2_unique_rating,898442,US_Cities_List/mm_hotsprings.png,,49,,,1,,,,,,,,,,,,,,,
null,,confidence_buffer,898546,confidence_buffer,,null,,,,,,,,,,,,,,,,,,
1033.1999999955297,,pt2_memorable_rating,899583,US_Cities_List/mm_hotsprings.png,,49,,,1,,,,,,,,,,,,,,,
null,,confidence_buffer,899687,confidence_buffer,,null,,,,,,,,,,,,,,,,,,
1705.1999999955297,,recognition_phase,901396,US_Cities_List/mm_hotsprings.png,,52,,,,,,new,1,0.9411764705882353,,,,,,,,,,
null,,confidence_buffer,901500,confidence_buffer,,null,,,,,,,,,,,,,,,,,,
null,,thebreak,902003,break,,null,,,,,,,,,,,,,,,,,,
3991.1999999955297,,realistic_rating,905997,US_Cities_List/nat_westpalmbeach.png,,51,US_Cities_List/nat_westpalmbeach.png,NAT,3,,,,,,,,,,,,,,,
null,,confidence_buffer,906102,confidence_buffer,,null,,,,,,,,,,,,,,,,,,
2585.89999999851,,pt2_unique_rating,908691,US_Cities_List/nat_westpalmbeach.png,,50,,,2,,,,,,,,,,,,,,,
null,,confidence_buffer,908796,confidence_buffer,,null,,,,,,,,,,,,,,,,,,
1181.7000000029802,,pt2_memorable_rating,909982,US_Cities_List/nat_westpalmbeach.png,,51,,,3,,,,,,,,,,,,,,,
null,,confidence_buffer,910085,confidence_buffer,,null,,,,,,,,,,,,,,,,,,
1521,,recognition_phase,911608,US_Cities_List/nat_westpalmbeach.png,,52,,,,,,new,1,0.9428571428571428,,,,,,,,,,
null,,confidence_buffer,911712,confidence_buffer,,null,,,,,,,,,,,,,,,,,,
null,,thebreak,912215,break,,null,,,,,,,,,,,,,,,,,,
3163.2999999970198,,realistic_rating,915382,Fictional_Cities_List/img_manmade_06.png,,53,Fictional_Cities_List/img_manmade_06.png,MM,5,,,,,,,,,,,,,,,
null,,confidence_buffer,915487,confidence_buffer,,null,,,,,,,,,,,,,,,,,,
1892.2000000029802,,pt2_unique_rating,917383,Fictional_Cities_List/img_manmade_06.png,,49,,,1,,,,,,,,,,,,,,,
null,,confidence_buffer,917487,confidence_buffer,,null,,,,,,,,,,,,,,,,,,
2043.5999999940395,,pt2_memorable_rating,919534,Fictional_Cities_List/img_manmade_06.png,,51,,,3,,,,,,,,,,,,,,,
null,,confidence_buffer,919639,confidence_buffer,,null,,,,,,,,,,,,,,,,,,
1495.6999999955297,,recognition_phase,921139,Fictional_Cities_List/img_manmade_06.png,,49,,,,,,old,1,0.9444444444444444,,,,,,,,,,
null,,confidence_buffer,921244,confidence_buffer,,null,,,,,,,,,,,,,,,,,,
null,,thebreak,921746,break,,null,,,,,,,,,,,,,,,,,,
4112.80000000447,,realistic_rating,925862,Fictional_Cities_List/img_manmade_01.png,,53,Fictional_Cities_List/img_manmade_01.png,MM,5,,,,,,,,,,,,,,,
null,,confidence_buffer,925968,confidence_buffer,,null,,,,,,,,,,,,,,,,,,
1528.2000000029802,,pt2_unique_rating,927498,Fictional_Cities_List/img_manmade_01.png,,49,,,1,,,,,,,,,,,,,,,
null,,confidence_buffer,927603,confidence_buffer,,null,,,,,,,,,,,,,,,,,,
2383.2000000029802,,pt2_memorable_rating,929989,Fictional_Cities_List/img_manmade_01.png,,51,,,3,,,,,,,,,,,,,,,
null,,confidence_buffer,930091,confidence_buffer,,null,,,,,,,,,,,,,,,,,,
1252.0999999940395,,recognition_phase,931346,Fictional_Cities_List/img_manmade_01.png,,49,,,,,,old,1,0.9459459459459459,,,,,,,,,,
null,,confidence_buffer,931449,confidence_buffer,,null,,,,,,,,,,,,,,,,,,
null,,thebreak,931950,break,,null,,,,,,,,,,,,,,,,,,
3052.8000000044703,,realistic_rating,935007,Fictional_Cities_List/img_natural_14.png,,51,Fictional_Cities_List/img_natural_14.png,NAT,3,,,,,,,,,,,,,,,
null,,confidence_buffer,935112,confidence_buffer,,null,,,,,,,,,,,,,,,,,,
1496.7999999970198,,pt2_unique_rating,936611,Fictional_Cities_List/img_natural_14.png,,51,,,3,,,,,,,,,,,,,,,
null,,confidence_buffer,936718,confidence_buffer,,null,,,,,,,,,,,,,,,,,,
1077.5,,pt2_memorable_rating,937799,Fictional_Cities_List/img_natural_14.png,,51,,,3,,,,,,,,,,,,,,,
null,,confidence_buffer,937903,confidence_buffer,,null,,,,,,,,,,,,,,,,,,
2048.2999999970198,,recognition_phase,939956,Fictional_Cities_List/img_natural_14.png,,49,,,,,,old,1,0.9473684210526315,,,,,,,,,,
null,,confidence_buffer,940061,confidence_buffer,,null,,,,,,,,,,,,,,,,,,
null,,thebreak,940564,break,,null,,,,,,,,,,,,,,,,,,
3423.7000000029802,,realistic_rating,943990,Fictional_Cities_List/img_natural_03.png,,49,Fictional_Cities_List/img_natural_03.png,NAT,1,,,,,,,,,,,,,,,
null,,confidence_buffer,944093,confidence_buffer,,null,,,,,,,,,,,,,,,,,,
1479.5,,pt2_unique_rating,945575,Fictional_Cities_List/img_natural_03.png,,53,,,5,,,,,,,,,,,,,,,
null,,confidence_buffer,945680,confidence_buffer,,null,,,,,,,,,,,,,,,,,,
961.8999999985099,,pt2_memorable_rating,946646,Fictional_Cities_List/img_natural_03.png,,53,,,5,,,,,,,,,,,,,,,
null,,confidence_buffer,946752,confidence_buffer,,null,,,,,,,,,,,,,,,,,,
1324.6999999955297,,recognition_phase,948081,Fictional_Cities_List/img_natural_03.png,,49,,,,,,old,1,0.9487179487179487,,,,,,,,,,
null,,confidence_buffer,948187,confidence_buffer,,null,,,,,,,,,,,,,,,,,,
null,,thebreak,948689,break,,null,,,,,,,,,,,,,,,,,,
3608.89999999851,,realistic_rating,952302,Fictional_Cities_List/img_natural_05.png,,51,Fictional_Cities_List/img_natural_05.png,NAT,3,,,,,,,,,,,,,,,
null,,confidence_buffer,952408,confidence_buffer,,null,,,,,,,,,,,,,,,,,,
2020.3999999985099,,pt2_unique_rating,954432,Fictional_Cities_List/img_natural_05.png,,53,,,5,,,,,,,,,,,,,,,
null,,confidence_buffer,954537,confidence_buffer,,null,,,,,,,,,,,,,,,,,,
1246.0999999940395,,pt2_memorable_rating,955787,Fictional_Cities_List/img_natural_05.png,,53,,,5,,,,,,,,,,,,,,,
null,,confidence_buffer,955892,confidence_buffer,,null,,,,,,,,,,,,,,,,,,
1451.1000000014901,,recognition_phase,957347,Fictional_Cities_List/img_natural_05.png,,52,,,,,,new,1,0.95,,,,,,,,,,
null,,confidence_buffer,957451,confidence_buffer,,null,,,,,,,,,,,,,,,,,,
null,,thebreak,957953,break,,null,,,,,,,,,,,,,,,,,,
2566.39999999851,,realistic_rating,960522,Fictional_Cities_List/img_natural_01.png,,53,Fictional_Cities_List/img_natural_01.png,NAT,5,,,,,,,,,,,,,,,
null,,confidence_buffer,960625,confidence_buffer,,null,,,,,,,,,,,,,,,,,,
2175.6999999955297,,pt2_unique_rating,962804,Fictional_Cities_List/img_natural_01.png,,51,,,3,,,,,,,,,,,,,,,
null,,confidence_buffer,962911,confidence_buffer,,null,,,,,,,,,,,,,,,,,,
808,,pt2_memorable_rating,963722,Fictional_Cities_List/img_natural_01.png,,51,,,3,,,,,,,,,,,,,,,
null,,confidence_buffer,963825,confidence_buffer,,null,,,,,,,,,,,,,,,,,,
1601.8999999985099,,recognition_phase,965431,Fictional_Cities_List/img_natural_01.png,,52,,,,,,new,1,0.9512195121951219,,,,,,,,,,
null,,confidence_buffer,965537,confidence_buffer,,null,,,,,,,,,,,,,,,,,,
null,,thebreak,966039,break,,null,,,,,,,,,,,,,,,,,,
2173.3000000044703,,realistic_rating,968216,US_Cities_List/mm_boulder.png,,53,US_Cities_List/mm_boulder.png,MM,5,,,,,,,,,,,,,,,
null,,confidence_buffer,968320,confidence_buffer,,null,,,,,,,,,,,,,,,,,,
2012.6000000014901,,pt2_unique_rating,970336,US_Cities_List/mm_boulder.png,,49,,,1,,,,,,,,,,,,,,,
null,,confidence_buffer,970439,confidence_buffer,,null,,,,,,,,,,,,,,,,,,
915.2000000029802,,pt2_memorable_rating,971357,US_Cities_List/mm_boulder.png,,49,,,1,,,,,,,,,,,,,,,
null,,confidence_buffer,971462,confidence_buffer,,null,,,,,,,,,,,,,,,,,,
1771.8999999985099,,recognition_phase,973238,US_Cities_List/mm_boulder.png,,52,,,,,,new,1,0.9523809523809523,,,,,,,,,,
null,,confidence_buffer,973344,confidence_buffer,,null,,,,,,,,,,,,,,,,,,
null,,thebreak,973846,break,,null,,,,,,,,,,,,,,,,,,
3087.2999999970198,,realistic_rating,976937,US_Cities_List/nat_hilo.png,,53,US_Cities_List/nat_hilo.png,NAT,5,,,,,,,,,,,,,,,
null,,confidence_buffer,977041,confidence_buffer,,null,,,,,,,,,,,,,,,,,,
2554.2999999970198,,pt2_unique_rating,979597,US_Cities_List/nat_hilo.png,,51,,,3,,,,,,,,,,,,,,,
null,,confidence_buffer,979701,confidence_buffer,,null,,,,,,,,,,,,,,,,,,
1229.3999999985099,,pt2_memorable_rating,980934,US_Cities_List/nat_hilo.png,,53,,,5,,,,,,,,,,,,,,,
null,,confidence_buffer,981040,confidence_buffer,,null,,,,,,,,,,,,,,,,,,
4196.69999999553,,recognition_phase,985240,US_Cities_List/nat_hilo.png,,52,,,,,,new,1,0.9534883720930233,,,,,,,,,,
null,,confidence_buffer,985342,confidence_buffer,,null,,,,,,,,,,,,,,,,,,
null,,thebreak,985843,break,,null,,,,,,,,,,,,,,,,,,
4002.5,,realistic_rating,989849,US_Cities_List/mm_westpalmbeach.png,,53,US_Cities_List/mm_westpalmbeach.png,MM,5,,,,,,,,,,,,,,,
null,,confidence_buffer,989953,confidence_buffer,,null,,,,,,,,,,,,,,,,,,
5562.20000000298,,pt2_unique_rating,995519,US_Cities_List/mm_westpalmbeach.png,,50,,,2,,,,,,,,,,,,,,,
null,,confidence_buffer,995624,confidence_buffer,,null,,,,,,,,,,,,,,,,,,
1469.2000000029802,,pt2_memorable_rating,997096,US_Cities_List/mm_westpalmbeach.png,,51,,,3,,,,,,,,,,,,,,,
null,,confidence_buffer,997200,confidence_buffer,,null,,,,,,,,,,,,,,,,,,
1372.8999999985099,,recognition_phase,998575,US_Cities_List/mm_westpalmbeach.png,,52,,,,,,new,1,0.9545454545454546,,,,,,,,,,
null,,confidence_buffer,998680,confidence_buffer,,null,,,,,,,,,,,,,,,,,,
null,,thebreak,999183,break,,null,,,,,,,,,,,,,,,,,,
2666.6999999955297,,realistic_rating,1001851,Fictional_Cities_List/img_manmade_09.png,,53,Fictional_Cities_List/img_manmade_09.png,MM,5,,,,,,,,,,,,,,,
null,,confidence_buffer,1001956,confidence_buffer,,null,,,,,,,,,,,,,,,,,,
1701.1000000014901,,pt2_unique_rating,1003661,Fictional_Cities_List/img_manmade_09.png,,49,,,1,,,,,,,,,,,,,,,
null,,confidence_buffer,1003766,confidence_buffer,,null,,,,,,,,,,,,,,,,,,
2113.0999999940395,,pt2_memorable_rating,1005883,Fictional_Cities_List/img_manmade_09.png,,49,,,1,,,,,,,,,,,,,,,
null,,confidence_buffer,1005988,confidence_buffer,,null,,,,,,,,,,,,,,,,,,
1592.1000000014901,,recognition_phase,1007583,Fictional_Cities_List/img_manmade_09.png,,50,,,,,,old,1,0.9555555555555556,,,,,,,,,,
null,,confidence_buffer,1007688,confidence_buffer,,null,,,,,,,,,,,,,,,,,,
null,,thebreak,1008190,break,,null,,,,,,,,,,,,,,,,,,
3120.5,,realistic_rating,1011313,Fictional_Cities_List/img_manmade_08.png,,49,Fictional_Cities_List/img_manmade_08.png,MM,1,,,,,,,,,,,,,,,
null,,confidence_buffer,1011418,confidence_buffer,,null,,,,,,,,,,,,,,,,,,
1835.8000000044703,,pt2_unique_rating,1013258,Fictional_Cities_List/img_manmade_08.png,,51,,,3,,,,,,,,,,,,,,,
null,,confidence_buffer,1013364,confidence_buffer,,null,,,,,,,,,,,,,,,,,,
1033.7999999970198,,pt2_memorable_rating,1014401,Fictional_Cities_List/img_manmade_08.png,,51,,,3,,,,,,,,,,,,,,,
null,,confidence_buffer,1014506,confidence_buffer,,null,,,,,,,,,,,,,,,,,,
1590.1999999955297,,recognition_phase,1016100,Fictional_Cities_List/img_manmade_08.png,,52,,,,,,new,1,0.9565217391304348,,,,,,,,,,
null,,confidence_buffer,1016204,confidence_buffer,,null,,,,,,,,,,,,,,,,,,
null,,thebreak,1016707,break,,null,,,,,,,,,,,,,,,,,,
2617.5999999940395,,realistic_rating,1019327,US_Cities_List/nat_boulder.png,,53,US_Cities_List/nat_boulder.png,NAT,5,,,,,,,,,,,,,,,
null,,confidence_buffer,1019434,confidence_buffer,,null,,,,,,,,,,,,,,,,,,
1923.7999999970198,,pt2_unique_rating,1021365,US_Cities_List/nat_boulder.png,,52,,,4,,,,,,,,,,,,,,,
null,,confidence_buffer,1021470,confidence_buffer,,null,,,,,,,,,,,,,,,,,,
1596.9000000059605,,pt2_memorable_rating,1023069,US_Cities_List/nat_boulder.png,,52,,,4,,,,,,,,,,,,,,,
null,,confidence_buffer,1023172,confidence_buffer,,null,,,,,,,,,,,,,,,,,,
1623.1999999955297,,recognition_phase,1024798,US_Cities_List/nat_boulder.png,,52,,,,,,new,1,0.9574468085106383,,,,,,,,,,
null,,confidence_buffer,1024904,confidence_buffer,,null,,,,,,,,,,,,,,,,,,
null,,thebreak,1025405,break,,null,,,,,,,,,,,,,,,,,,
2044.2000000029802,,realistic_rating,1027452,Fictional_Cities_List/img_manmade_02.png,,53,Fictional_Cities_List/img_manmade_02.png,MM,5,,,,,,,,,,,,,,,
null,,confidence_buffer,1027557,confidence_buffer,,null,,,,,,,,,,,,,,,,,,
1456.5999999940395,,pt2_unique_rating,1029017,Fictional_Cities_List/img_manmade_02.png,,49,,,1,,,,,,,,,,,,,,,
null,,confidence_buffer,1029121,confidence_buffer,,null,,,,,,,,,,,,,,,,,,
1584.5,,pt2_memorable_rating,1030709,Fictional_Cities_List/img_manmade_02.png,,51,,,3,,,,,,,,,,,,,,,
null,,confidence_buffer,1030811,confidence_buffer,,null,,,,,,,,,,,,,,,,,,
588.7999999970198,,recognition_phase,1031403,Fictional_Cities_List/img_manmade_02.png,,49,,,,,,old,1,0.9583333333333334,,,,,,,,,,
null,,confidence_buffer,1031506,confidence_buffer,,null,,,,,,,,,,,,,,,,,,
null,,thebreak,1032008,break,,null,,,,,,,,,,,,,,,,,,
4361.10000000149,,realistic_rating,1036372,Fictional_Cities_List/img_manmade_04.png,,51,Fictional_Cities_List/img_manmade_04.png,MM,3,,,,,,,,,,,,,,,
null,,confidence_buffer,1036478,confidence_buffer,,null,,,,,,,,,,,,,,,,,,
1573.7000000029802,,pt2_unique_rating,1038055,Fictional_Cities_List/img_manmade_04.png,,49,,,1,,,,,,,,,,,,,,,
null,,confidence_buffer,1038158,confidence_buffer,,null,,,,,,,,,,,,,,,,,,
1196.8000000044703,,pt2_memorable_rating,1039357,Fictional_Cities_List/img_manmade_04.png,,49,,,1,,,,,,,,,,,,,,,
null,,confidence_buffer,1039459,confidence_buffer,,null,,,,,,,,,,,,,,,,,,
1325.3000000044703,,recognition_phase,1040786,Fictional_Cities_List/img_manmade_04.png,,52,,,,,,new,1,0.9591836734693877,,,,,,,,,,
null,,confidence_buffer,1040891,confidence_buffer,,null,,,,,,,,,,,,,,,,,,
null,,thebreak,1041393,break,,null,,,,,,,,,,,,,,,,,,
4068,,realistic_rating,1045464,US_Cities_List/nat_carmel.png,,51,US_Cities_List/nat_carmel.png,NAT,3,,,,,,,,,,,,,,,
null,,confidence_buffer,1045569,confidence_buffer,,null,,,,,,,,,,,,,,,,,,
1701.9000000059605,,pt2_unique_rating,1047273,US_Cities_List/nat_carmel.png,,50,,,2,,,,,,,,,,,,,,,
null,,confidence_buffer,1047378,confidence_buffer,,null,,,,,,,,,,,,,,,,,,
1826.9000000059605,,pt2_memorable_rating,1049206,US_Cities_List/nat_carmel.png,,52,,,4,,,,,,,,,,,,,,,
null,,confidence_buffer,1049308,confidence_buffer,,null,,,,,,,,,,,,,,,,,,
1483.5,,recognition_phase,1050794,US_Cities_List/nat_carmel.png,,49,,,,,,old,1,0.96,,,,,,,,,,
null,,confidence_buffer,1050899,confidence_buffer,,null,,,,,,,,,,,,,,,,,,
null,,thebreak,1051401,break,,null,,,,,,,,,,,,,,,,,,
4701.20000000298,,realistic_rating,1056105,Fictional_Cities_List/img_natural_13.png,,50,Fictional_Cities_List/img_natural_13.png,NAT,2,,,,,,,,,,,,,,,
null,,confidence_buffer,1056209,confidence_buffer,,null,,,,,,,,,,,,,,,,,,
2076.0999999940395,,pt2_unique_rating,1058289,Fictional_Cities_List/img_natural_13.png,,53,,,5,,,,,,,,,,,,,,,
null,,confidence_buffer,1058393,confidence_buffer,,null,,,,,,,,,,,,,,,,,,
779.2999999970198,,pt2_memorable_rating,1059176,Fictional_Cities_List/img_natural_13.png,,53,,,5,,,,,,,,,,,,,,,
null,,confidence_buffer,1059281,confidence_buffer,,null,,,,,,,,,,,,,,,,,,
1407.8999999985099,,recognition_phase,1060692,Fictional_Cities_List/img_natural_13.png,,52,,,,,,new,1,0.9607843137254902,,,,,,,,,,
null,,confidence_buffer,1060794,confidence_buffer,,null,,,,,,,,,,,,,,,,,,
null,,thebreak,1061296,break,,null,,,,,,,,,,,,,,,,,,
2208.3000000044703,,realistic_rating,1063507,US_Cities_List/mm_abilene.png,,53,US_Cities_List/mm_abilene.png,MM,5,,,,,,,,,,,,,,,
null,,confidence_buffer,1063609,confidence_buffer,,null,,,,,,,,,,,,,,,,,,
1854.1999999955297,,pt2_unique_rating,1065465,US_Cities_List/mm_abilene.png,,49,,,1,,,,,,,,,,,,,,,
null,,confidence_buffer,1065568,confidence_buffer,,null,,,,,,,,,,,,,,,,,,
1022,,pt2_memorable_rating,1066593,US_Cities_List/mm_abilene.png,,49,,,1,,,,,,,,,,,,,,,
null,,confidence_buffer,1066695,confidence_buffer,,null,,,,,,,,,,,,,,,,,,
713.2999999970198,,recognition_phase,1067411,US_Cities_List/mm_abilene.png,,49,,,,,,old,1,0.9615384615384616,,,,,,,,,,
null,,confidence_buffer,1067515,confidence_buffer,,null,,,,,,,,,,,,,,,,,,
null,,thebreak,1068017,break,,null,,,,,,,,,,,,,,,,,,
4707.60000000149,,realistic_rating,1072727,Fictional_Cities_List/img_natural_12.png,,50,Fictional_Cities_List/img_natural_12.png,NAT,2,,,,,,,,,,,,,,,
null,,confidence_buffer,1072833,confidence_buffer,,null,,,,,,,,,,,,,,,,,,
2031.3999999985099,,pt2_unique_rating,1074868,Fictional_Cities_List/img_natural_12.png,,53,,,5,,,,,,,,,,,,,,,
null,,confidence_buffer,1074972,confidence_buffer,,null,,,,,,,,,,,,,,,,,,
1244.6999999955297,,pt2_memorable_rating,1076220,Fictional_Cities_List/img_natural_12.png,,53,,,5,,,,,,,,,,,,,,,
null,,confidence_buffer,1076323,confidence_buffer,,null,,,,,,,,,,,,,,,,,,
1550.6000000014901,,recognition_phase,1077878,Fictional_Cities_List/img_natural_12.png,,52,,,,,,new,1,0.9622641509433962,,,,,,,,,,
null,,confidence_buffer,1077982,confidence_buffer,,null,,,,,,,,,,,,,,,,,,
null,,thebreak,1078485,break,,null,,,,,,,,,,,,,,,,,,
2841,,realistic_rating,1081328,Fictional_Cities_List/img_natural_08.png,,53,Fictional_Cities_List/img_natural_08.png,NAT,5,,,,,,,,,,,,,,,
null,,confidence_buffer,1081430,confidence_buffer,,null,,,,,,,,,,,,,,,,,,
2075.60000000149,,pt2_unique_rating,1083508,Fictional_Cities_List/img_natural_08.png,,52,,,4,,,,,,,,,,,,,,,
null,,confidence_buffer,1083614,confidence_buffer,,null,,,,,,,,,,,,,,,,,,
1518.1000000014901,,pt2_memorable_rating,1085137,Fictional_Cities_List/img_natural_08.png,,52,,,4,,,,,,,,,,,,,,,
null,,confidence_buffer,1085242,confidence_buffer,,null,,,,,,,,,,,,,,,,,,
1541.7000000029802,,recognition_phase,1086786,Fictional_Cities_List/img_natural_08.png,,49,,,,,,old,1,0.9629629629629629,,,,,,,,,,
null,,confidence_buffer,1086891,confidence_buffer,,null,,,,,,,,,,,,,,,,,,
null,,thebreak,1087395,break,,null,,,,,,,,,,,,,,,,,,
2930.89999999851,,realistic_rating,1090329,US_Cities_List/nat_healdsburg.png,,53,US_Cities_List/nat_healdsburg.png,NAT,5,,,,,,,,,,,,,,,
null,,confidence_buffer,1090431,confidence_buffer,,null,,,,,,,,,,,,,,,,,,
1190.3000000044703,,pt2_unique_rating,1091625,US_Cities_List/nat_healdsburg.png,,49,,,1,,,,,,,,,,,,,,,
null,,confidence_buffer,1091727,confidence_buffer,,null,,,,,,,,,,,,,,,,,,
3292,,pt2_memorable_rating,1095023,US_Cities_List/nat_healdsburg.png,,49,,,1,,,,,,,,,,,,,,,
null,,confidence_buffer,1095129,confidence_buffer,,null,,,,,,,,,,,,,,,,,,
1368.6000000014901,,recognition_phase,1096500,US_Cities_List/nat_healdsburg.png,,51,,,,,,new,0,0.9454545454545454,,,,,,,,,,
null,,confidence_buffer,1096605,confidence_buffer,,null,,,,,,,,,,,,,,,,,,
null,,thebreak,1097107,break,,null,,,,,,,,,,,,,,,,,,
3871.7999999970198,,realistic_rating,1100981,Fictional_Cities_List/img_natural_09.png,,53,Fictional_Cities_List/img_natural_09.png,NAT,5,,,,,,,,,,,,,,,
null,,confidence_buffer,1101086,confidence_buffer,,null,,,,,,,,,,,,,,,,,,
2234.89999999851,,pt2_unique_rating,1103323,Fictional_Cities_List/img_natural_09.png,,52,,,4,,,,,,,,,,,,,,,
null,,confidence_buffer,1103425,confidence_buffer,,null,,,,,,,,,,,,,,,,,,
1127.1000000014901,,pt2_memorable_rating,1104554,Fictional_Cities_List/img_natural_09.png,,53,,,5,,,,,,,,,,,,,,,
null,,confidence_buffer,1104658,confidence_buffer,,null,,,,,,,,,,,,,,,,,,
1184.2000000029802,,recognition_phase,1105846,Fictional_Cities_List/img_natural_09.png,,52,,,,,,new,1,0.9464285714285714,,,,,,,,,,
null,,confidence_buffer,1105950,confidence_buffer,,null,,,,,,,,,,,,,,,,,,
null,,thebreak,1106451,break,,null,,,,,,,,,,,,,,,,,,
3154.0999999940395,,realistic_rating,1109608,US_Cities_List/nat_coeurdalene.png,,53,US_Cities_List/nat_coeurdalene.png,NAT,5,,,,,,,,,,,,,,,
null,,confidence_buffer,1109712,confidence_buffer,,null,,,,,,,,,,,,,,,,,,
1807.8000000044703,,pt2_unique_rating,1111524,US_Cities_List/nat_coeurdalene.png,,51,,,3,,,,,,,,,,,,,,,
null,,confidence_buffer,1111629,confidence_buffer,,null,,,,,,,,,,,,,,,,,,
3377.3000000044703,,pt2_memorable_rating,1115009,US_Cities_List/nat_coeurdalene.png,,51,,,3,,,,,,,,,,,,,,,
null,,confidence_buffer,1115112,confidence_buffer,,null,,,,,,,,,,,,,,,,,,
2532.89999999851,,probe_rating,1117648,probe_rating,,51,,,,3,1,,,,,,,,,,,,,
null,,confidence_buffer,1117753,confidence_buffer,,null,,,,,,,,,,,,,,,,,,
2819.5,,recognition_phase,1120577,US_Cities_List/nat_coeurdalene.png,,52,,,,,,new,1,0.9473684210526315,,,,,,,,,,
null,,confidence_buffer,1120682,confidence_buffer,,null,,,,,,,,,,,,,,,,,,
null,,thebreak,1121185,break,,null,,,,,,,,,,,,,,,,,,
1969.3000000044703,,realistic_rating,1123157,US_Cities_List/mm_peoria.png,,53,US_Cities_List/mm_peoria.png,MM,5,,,,,,,,,,,,,,,
null,,confidence_buffer,1123265,confidence_buffer,,null,,,,,,,,,,,,,,,,,,
1591.2999999970198,,pt2_unique_rating,1124876,US_Cities_List/mm_peoria.png,,49,,,1,,,,,,,,,,,,,,,
null,,confidence_buffer,1124980,confidence_buffer,,null,,,,,,,,,,,,,,,,,,
778.7999999970198,,pt2_memorable_rating,1125762,US_Cities_List/mm_peoria.png,,49,,,1,,,,,,,,,,,,,,,
null,,confidence_buffer,1125864,confidence_buffer,,null,,,,,,,,,,,,,,,,,,
869.1999999955297,,recognition_phase,1126737,US_Cities_List/mm_peoria.png,,49,,,,,,old,1,0.9482758620689655,,,,,,,,,,
null,,confidence_buffer,1126841,confidence_buffer,,null,,,,,,,,,,,,,,,,,,
null,,thebreak,1127343,break,,null,,,,,,,,,,,,,,,,,,
2932.2000000029802,,realistic_rating,1130277,Fictional_Cities_List/img_natural_06.png,,53,Fictional_Cities_List/img_natural_06.png,NAT,5,,,,,,,,,,,,,,,
null,,confidence_buffer,1130379,confidence_buffer,,null,,,,,,,,,,,,,,,,,,
1568,,pt2_unique_rating,1131948,Fictional_Cities_List/img_natural_06.png,,53,,,5,,,,,,,,,,,,,,,
null,,confidence_buffer,1132051,confidence_buffer,,null,,,,,,,,,,,,,,,,,,
1289.5,,probe_rating,1133344,probe_rating,,52,,,,4,1,,,,,,,,,,,,,
null,,confidence_buffer,1133449,confidence_buffer,,null,,,,,,,,,,,,,,,,,,
1657.6999999955297,,pt2_memorable_rating,1135110,Fictional_Cities_List/img_natural_06.png,,53,,,5,,,,,,,,,,,,,,,
null,,confidence_buffer,1135215,confidence_buffer,,null,,,,,,,,,,,,,,,,,,
2694.5999999940395,,recognition_phase,1137913,Fictional_Cities_List/img_natural_06.png,,49,,,,,,old,1,0.9491525423728814,,,,,,,,,,
null,,confidence_buffer,1138014,confidence_buffer,,null,,,,,,,,,,,,,,,,,,
null,,thebreak,1138519,break,,null,,,,,,,,,,,,,,,,,,
3306.5,,realistic_rating,1141827,US_Cities_List/nat_okoboji.png,,53,US_Cities_List/nat_okoboji.png,NAT,5,,,,,,,,,,,,,,,
null,,confidence_buffer,1141929,confidence_buffer,,null,,,,,,,,,,,,,,,,,,
1684.6999999955297,,pt2_unique_rating,1143615,US_Cities_List/nat_okoboji.png,,49,,,1,,,,,,,,,,,,,,,
null,,confidence_buffer,1143717,confidence_buffer,,null,,,,,,,,,,,,,,,,,,
1553.6000000014901,,pt2_memorable_rating,1145273,US_Cities_List/nat_okoboji.png,,49,,,1,,,,,,,,,,,,,,,
null,,confidence_buffer,1145375,confidence_buffer,,null,,,,,,,,,,,,,,,,,,
1668.1000000014901,,recognition_phase,1147045,US_Cities_List/nat_okoboji.png,,52,,,,,,new,1,0.95,,,,,,,,,,
null,,confidence_buffer,1147148,confidence_buffer,,null,,,,,,,,,,,,,,,,,,
null,,thebreak,1147650,break,,null,,,,,,,,,,,,,,,,,,
,,survey,1372214,survey-questions,,,,,,,,,,,none,high,No, I was paying attention.,I don't think I used strategies, I just looked at the pictures and tried to remember the visuals.,If the photo seemed like a place I've seen before, in person or online.,If the image seemed like it would stand out to me and I would remember it after seeing it. This was usually because of the visual detail.,I thought, would this stand out? Does it seem unlike other photographs I've seen? Does it have a different perspective or interesting landscape?,I thought of this as did the image seem to capture a real place rather than a fantasy or imagined place.,No.,I actually thought it was surprisingly easy to remember the photos and I felt confident that I remembered the old and new ones accurately.
