rt,responses,trial_type,time_elapsed,stimulus,button_pressed,key_press,name_trial,city_type,rating,probe,probe_accuracy,response,correct,accuracy,problems,smooth,distraction,strategies,familiar,memorable,unique,realistic,similar,comments
7203.5,{worker_id:671137bfe81fc6cf620ce313},id_enter,7209,,,,,,,,,,,,,,,,,,,,,
6471.5,,fullscreen,13684,fullscreen,0,,,,,,,,,,,,,,,,,,,
8268.600000023842,,intro_0,21961,instruct,,32,,,,,,,,,,,,,,,,,,
67049,,intro_1,89014,instruct,,32,,,,,,,,,,,,,,,,,,
6480.300000011921,,intro_2,95496,instruct,,32,,,,,,,,,,,,,,,,,,
null,,instruct_dir_4,96999,instruct,,null,,,,,,,,,,,,,,,,,,
null,,thebreak,97501,break,,null,,,,,,,,,,,,,,,,,,
4327.300000011921,,familiar_rating,101831,Fictional_Cities_List/img_natural_15.png,,49,Fictional_Cities_List/img_natural_15.png,NAT,1,,,,,,,,,,,,,,,
null,,confidence_buffer,101935,confidence_buffer,,null,,,,,,,,,,,,,,,,,,
3404.5,,unique_rating,105341,Fictional_Cities_List/img_natural_15.png,,53,,,5,,,,,,,,,,,,,,,
null,,confidence_buffer,105445,confidence_buffer,,null,,,,,,,,,,,,,,,,,,
4912.699999988079,,memorable_rating,110360,Fictional_Cities_List/img_natural_15.png,,52,,,4,,,,,,,,,,,,,,,
null,,confidence_buffer,110463,confidence_buffer,,null,,,,,,,,,,,,,,,,,,
null,,thebreak,110969,break,,null,,,,,,,,,,,,,,,,,,
6860.200000047684,,familiar_rating,117832,Fictional_Cities_List/img_manmade_01.png,,49,Fictional_Cities_List/img_manmade_01.png,MM,1,,,,,,,,,,,,,,,
null,,confidence_buffer,117936,confidence_buffer,,null,,,,,,,,,,,,,,,,,,
4122.199999988079,,unique_rating,122060,Fictional_Cities_List/img_manmade_01.png,,51,,,3,,,,,,,,,,,,,,,
null,,confidence_buffer,122162,confidence_buffer,,null,,,,,,,,,,,,,,,,,,
1657.800000011921,,memorable_rating,123824,Fictional_Cities_List/img_manmade_01.png,,51,,,3,,,,,,,,,,,,,,,
null,,confidence_buffer,123927,confidence_buffer,,null,,,,,,,,,,,,,,,,,,
null,,thebreak,124429,break,,null,,,,,,,,,,,,,,,,,,
3901.300000011921,,familiar_rating,128332,Fictional_Cities_List/img_manmade_07.png,,50,Fictional_Cities_List/img_manmade_07.png,MM,2,,,,,,,,,,,,,,,
null,,confidence_buffer,128435,confidence_buffer,,null,,,,,,,,,,,,,,,,,,
3120.300000011921,,unique_rating,131557,Fictional_Cities_List/img_manmade_07.png,,49,,,1,,,,,,,,,,,,,,,
null,,confidence_buffer,131670,confidence_buffer,,null,,,,,,,,,,,,,,,,,,
1470.800000011921,,memorable_rating,133143,Fictional_Cities_List/img_manmade_07.png,,50,,,2,,,,,,,,,,,,,,,
null,,confidence_buffer,133246,confidence_buffer,,null,,,,,,,,,,,,,,,,,,
null,,thebreak,133757,break,,null,,,,,,,,,,,,,,,,,,
2790.800000011921,,familiar_rating,136550,US_Cities_List/mm_peoria.png,,49,US_Cities_List/mm_peoria.png,MM,1,,,,,,,,,,,,,,,
null,,confidence_buffer,136653,confidence_buffer,,null,,,,,,,,,,,,,,,,,,
3489.899999976158,,probe_rating,140144,probe_rating,,53,,,,5,1,,,,,,,,,,,,,
null,,confidence_buffer,140248,confidence_buffer,,null,,,,,,,,,,,,,,,,,,
4311.199999988079,,unique_rating,144561,US_Cities_List/mm_peoria.png,,53,,,5,,,,,,,,,,,,,,,
null,,confidence_buffer,144665,confidence_buffer,,null,,,,,,,,,,,,,,,,,,
2821.199999988079,,memorable_rating,147490,US_Cities_List/mm_peoria.png,,53,,,5,,,,,,,,,,,,,,,
null,,confidence_buffer,147592,confidence_buffer,,null,,,,,,,,,,,,,,,,,,
null,,thebreak,148094,break,,null,,,,,,,,,,,,,,,,,,
5262,,familiar_rating,153359,US_Cities_List/mm_boulder.png,,49,US_Cities_List/mm_boulder.png,MM,1,,,,,,,,,,,,,,,
null,,confidence_buffer,153462,confidence_buffer,,null,,,,,,,,,,,,,,,,,,
2472,,unique_rating,155936,US_Cities_List/mm_boulder.png,,51,,,3,,,,,,,,,,,,,,,
null,,confidence_buffer,156051,confidence_buffer,,null,,,,,,,,,,,,,,,,,,
1352.6000000238419,,memorable_rating,157408,US_Cities_List/mm_boulder.png,,51,,,3,,,,,,,,,,,,,,,
null,,confidence_buffer,157510,confidence_buffer,,null,,,,,,,,,,,,,,,,,,
null,,thebreak,158013,break,,null,,,,,,,,,,,,,,,,,,
3655.899999976158,,familiar_rating,161671,Fictional_Cities_List/img_natural_06.png,,49,Fictional_Cities_List/img_natural_06.png,NAT,1,,,,,,,,,,,,,,,
null,,confidence_buffer,161778,confidence_buffer,,null,,,,,,,,,,,,,,,,,,
1798.3999999761581,,unique_rating,163578,Fictional_Cities_List/img_natural_06.png,,51,,,3,,,,,,,,,,,,,,,
null,,confidence_buffer,163681,confidence_buffer,,null,,,,,,,,,,,,,,,,,,
2348.400000035763,,memorable_rating,166031,Fictional_Cities_List/img_natural_06.png,,51,,,3,,,,,,,,,,,,,,,
null,,confidence_buffer,166134,confidence_buffer,,null,,,,,,,,,,,,,,,,,,
null,,thebreak,166642,break,,null,,,,,,,,,,,,,,,,,,
6923.5,,familiar_rating,173567,Fictional_Cities_List/img_manmade_05.png,,50,Fictional_Cities_List/img_manmade_05.png,MM,2,,,,,,,,,,,,,,,
null,,confidence_buffer,173670,confidence_buffer,,null,,,,,,,,,,,,,,,,,,
3465.800000011921,,unique_rating,177138,Fictional_Cities_List/img_manmade_05.png,,51,,,3,,,,,,,,,,,,,,,
null,,confidence_buffer,177243,confidence_buffer,,null,,,,,,,,,,,,,,,,,,
1960.1000000238419,,memorable_rating,179206,Fictional_Cities_List/img_manmade_05.png,,50,,,2,,,,,,,,,,,,,,,
null,,confidence_buffer,179309,confidence_buffer,,null,,,,,,,,,,,,,,,,,,
null,,thebreak,179811,break,,null,,,,,,,,,,,,,,,,,,
4665.599999964237,,familiar_rating,184478,US_Cities_List/mm_athens.png,,51,US_Cities_List/mm_athens.png,MM,3,,,,,,,,,,,,,,,
null,,confidence_buffer,184581,confidence_buffer,,null,,,,,,,,,,,,,,,,,,
1884.7000000476837,,unique_rating,186467,US_Cities_List/mm_athens.png,,49,,,1,,,,,,,,,,,,,,,
null,,confidence_buffer,186572,confidence_buffer,,null,,,,,,,,,,,,,,,,,,
1090.1000000238419,,memorable_rating,187665,US_Cities_List/mm_athens.png,,49,,,1,,,,,,,,,,,,,,,
null,,confidence_buffer,187767,confidence_buffer,,null,,,,,,,,,,,,,,,,,,
null,,thebreak,188269,break,,null,,,,,,,,,,,,,,,,,,
2081.400000035763,,familiar_rating,190353,Fictional_Cities_List/img_natural_12.png,,50,Fictional_Cities_List/img_natural_12.png,NAT,2,,,,,,,,,,,,,,,
null,,confidence_buffer,190457,confidence_buffer,,null,,,,,,,,,,,,,,,,,,
1703.5,,unique_rating,192162,Fictional_Cities_List/img_natural_12.png,,51,,,3,,,,,,,,,,,,,,,
null,,confidence_buffer,192265,confidence_buffer,,null,,,,,,,,,,,,,,,,,,
1880.6000000238419,,memorable_rating,194147,Fictional_Cities_List/img_natural_12.png,,51,,,3,,,,,,,,,,,,,,,
null,,confidence_buffer,194249,confidence_buffer,,null,,,,,,,,,,,,,,,,,,
null,,thebreak,194751,break,,null,,,,,,,,,,,,,,,,,,
2692.7999999523163,,familiar_rating,197446,Fictional_Cities_List/img_manmade_04.png,,50,Fictional_Cities_List/img_manmade_04.png,MM,2,,,,,,,,,,,,,,,
null,,confidence_buffer,197549,confidence_buffer,,null,,,,,,,,,,,,,,,,,,
1426.8999999761581,,unique_rating,198978,Fictional_Cities_List/img_manmade_04.png,,51,,,3,,,,,,,,,,,,,,,
null,,confidence_buffer,199081,confidence_buffer,,null,,,,,,,,,,,,,,,,,,
2826.600000023842,,memorable_rating,201909,Fictional_Cities_List/img_manmade_04.png,,51,,,3,,,,,,,,,,,,,,,
null,,confidence_buffer,202012,confidence_buffer,,null,,,,,,,,,,,,,,,,,,
null,,thebreak,202515,break,,null,,,,,,,,,,,,,,,,,,
2519.800000011921,,familiar_rating,205037,US_Cities_List/mm_westpalmbeach.png,,49,US_Cities_List/mm_westpalmbeach.png,MM,1,,,,,,,,,,,,,,,
null,,confidence_buffer,205142,confidence_buffer,,null,,,,,,,,,,,,,,,,,,
3885.7999999523163,,unique_rating,209030,US_Cities_List/mm_westpalmbeach.png,,51,,,3,,,,,,,,,,,,,,,
null,,confidence_buffer,209133,confidence_buffer,,null,,,,,,,,,,,,,,,,,,
3092.099999964237,,memorable_rating,212227,US_Cities_List/mm_westpalmbeach.png,,50,,,2,,,,,,,,,,,,,,,
null,,confidence_buffer,212330,confidence_buffer,,null,,,,,,,,,,,,,,,,,,
1845.1000000238419,,probe_rating,214178,probe_rating,,50,,,,2,1,,,,,,,,,,,,,
null,,confidence_buffer,214282,confidence_buffer,,null,,,,,,,,,,,,,,,,,,
null,,thebreak,214784,break,,null,,,,,,,,,,,,,,,,,,
2670.199999988079,,familiar_rating,217457,US_Cities_List/nat_healdsburg.png,,52,US_Cities_List/nat_healdsburg.png,NAT,4,,,,,,,,,,,,,,,
null,,confidence_buffer,217561,confidence_buffer,,null,,,,,,,,,,,,,,,,,,
1980.8999999761581,,unique_rating,219543,US_Cities_List/nat_healdsburg.png,,49,,,1,,,,,,,,,,,,,,,
null,,confidence_buffer,219646,confidence_buffer,,null,,,,,,,,,,,,,,,,,,
1247.5,,memorable_rating,220896,US_Cities_List/nat_healdsburg.png,,49,,,1,,,,,,,,,,,,,,,
null,,confidence_buffer,220998,confidence_buffer,,null,,,,,,,,,,,,,,,,,,
null,,thebreak,221500,break,,null,,,,,,,,,,,,,,,,,,
2085.800000011921,,familiar_rating,223588,US_Cities_List/nat_hilo.png,,50,US_Cities_List/nat_hilo.png,NAT,2,,,,,,,,,,,,,,,
null,,confidence_buffer,223694,confidence_buffer,,null,,,,,,,,,,,,,,,,,,
2036.800000011921,,unique_rating,225733,US_Cities_List/nat_hilo.png,,49,,,1,,,,,,,,,,,,,,,
null,,confidence_buffer,225836,confidence_buffer,,null,,,,,,,,,,,,,,,,,,
1273.8999999761581,,memorable_rating,227111,US_Cities_List/nat_hilo.png,,49,,,1,,,,,,,,,,,,,,,
null,,confidence_buffer,227214,confidence_buffer,,null,,,,,,,,,,,,,,,,,,
null,,thebreak,227716,break,,null,,,,,,,,,,,,,,,,,,
3001.699999988079,,familiar_rating,230720,US_Cities_List/nat_hotsprings.png,,50,US_Cities_List/nat_hotsprings.png,NAT,2,,,,,,,,,,,,,,,
null,,confidence_buffer,230822,confidence_buffer,,null,,,,,,,,,,,,,,,,,,
2821.399999976158,,unique_rating,233645,US_Cities_List/nat_hotsprings.png,,49,,,1,,,,,,,,,,,,,,,
null,,confidence_buffer,233748,confidence_buffer,,null,,,,,,,,,,,,,,,,,,
861.0999999642372,,memorable_rating,234611,US_Cities_List/nat_hotsprings.png,,49,,,1,,,,,,,,,,,,,,,
null,,confidence_buffer,234722,confidence_buffer,,null,,,,,,,,,,,,,,,,,,
null,,thebreak,235226,break,,null,,,,,,,,,,,,,,,,,,
2481.300000011921,,familiar_rating,237709,US_Cities_List/nat_coeurdalene.png,,51,US_Cities_List/nat_coeurdalene.png,NAT,3,,,,,,,,,,,,,,,
null,,confidence_buffer,237826,confidence_buffer,,null,,,,,,,,,,,,,,,,,,
1749.8999999761581,,unique_rating,239577,US_Cities_List/nat_coeurdalene.png,,49,,,1,,,,,,,,,,,,,,,
null,,confidence_buffer,239679,confidence_buffer,,null,,,,,,,,,,,,,,,,,,
605.3000000119209,,memorable_rating,240287,US_Cities_List/nat_coeurdalene.png,,49,,,1,,,,,,,,,,,,,,,
null,,confidence_buffer,240391,confidence_buffer,,null,,,,,,,,,,,,,,,,,,
null,,thebreak,240894,break,,null,,,,,,,,,,,,,,,,,,
3431.600000023842,,familiar_rating,244327,Fictional_Cities_List/img_natural_04.png,,50,Fictional_Cities_List/img_natural_04.png,NAT,2,,,,,,,,,,,,,,,
null,,confidence_buffer,244429,confidence_buffer,,null,,,,,,,,,,,,,,,,,,
3671.800000011921,,unique_rating,248102,Fictional_Cities_List/img_natural_04.png,,50,,,2,,,,,,,,,,,,,,,
null,,confidence_buffer,248206,confidence_buffer,,null,,,,,,,,,,,,,,,,,,
1825.300000011921,,memorable_rating,250033,Fictional_Cities_List/img_natural_04.png,,52,,,4,,,,,,,,,,,,,,,
null,,confidence_buffer,250135,confidence_buffer,,null,,,,,,,,,,,,,,,,,,
null,,thebreak,250638,break,,null,,,,,,,,,,,,,,,,,,
4871.800000011921,,familiar_rating,255511,US_Cities_List/nat_boulder.png,,51,US_Cities_List/nat_boulder.png,NAT,3,,,,,,,,,,,,,,,
null,,confidence_buffer,255614,confidence_buffer,,null,,,,,,,,,,,,,,,,,,
1380.3999999761581,,unique_rating,256996,US_Cities_List/nat_boulder.png,,49,,,1,,,,,,,,,,,,,,,
null,,confidence_buffer,257100,confidence_buffer,,null,,,,,,,,,,,,,,,,,,
1080,,memorable_rating,258181,US_Cities_List/nat_boulder.png,,49,,,1,,,,,,,,,,,,,,,
null,,confidence_buffer,258284,confidence_buffer,,null,,,,,,,,,,,,,,,,,,
null,,thebreak,258786,break,,null,,,,,,,,,,,,,,,,,,
2839,,familiar_rating,261627,Fictional_Cities_List/img_natural_08.png,,52,Fictional_Cities_List/img_natural_08.png,NAT,4,,,,,,,,,,,,,,,
null,,confidence_buffer,261729,confidence_buffer,,null,,,,,,,,,,,,,,,,,,
3613.5,,unique_rating,265344,Fictional_Cities_List/img_natural_08.png,,49,,,1,,,,,,,,,,,,,,,
null,,confidence_buffer,265448,confidence_buffer,,null,,,,,,,,,,,,,,,,,,
1444.6000000238419,,probe_rating,266894,probe_rating,,52,,,,4,1,,,,,,,,,,,,,
null,,confidence_buffer,266997,confidence_buffer,,null,,,,,,,,,,,,,,,,,,
1512,,memorable_rating,268511,Fictional_Cities_List/img_natural_08.png,,49,,,1,,,,,,,,,,,,,,,
null,,confidence_buffer,268614,confidence_buffer,,null,,,,,,,,,,,,,,,,,,
null,,thebreak,269116,break,,null,,,,,,,,,,,,,,,,,,
5125.700000047684,,familiar_rating,274245,Fictional_Cities_List/img_manmade_12.png,,49,Fictional_Cities_List/img_manmade_12.png,MM,1,,,,,,,,,,,,,,,
null,,confidence_buffer,274348,confidence_buffer,,null,,,,,,,,,,,,,,,,,,
1987.5,,unique_rating,276337,Fictional_Cities_List/img_manmade_12.png,,50,,,2,,,,,,,,,,,,,,,
null,,confidence_buffer,276440,confidence_buffer,,null,,,,,,,,,,,,,,,,,,
1748.3999999761581,,memorable_rating,278190,Fictional_Cities_List/img_manmade_12.png,,52,,,4,,,,,,,,,,,,,,,
null,,confidence_buffer,278295,confidence_buffer,,null,,,,,,,,,,,,,,,,,,
null,,thebreak,278798,break,,null,,,,,,,,,,,,,,,,,,
2762.900000035763,,familiar_rating,281563,US_Cities_List/nat_carmel.png,,50,US_Cities_List/nat_carmel.png,NAT,2,,,,,,,,,,,,,,,
null,,confidence_buffer,281666,confidence_buffer,,null,,,,,,,,,,,,,,,,,,
1314.5999999642372,,unique_rating,282982,US_Cities_List/nat_carmel.png,,49,,,1,,,,,,,,,,,,,,,
null,,confidence_buffer,283085,confidence_buffer,,null,,,,,,,,,,,,,,,,,,
2102.2000000476837,,memorable_rating,285188,US_Cities_List/nat_carmel.png,,49,,,1,,,,,,,,,,,,,,,
null,,confidence_buffer,285291,confidence_buffer,,null,,,,,,,,,,,,,,,,,,
null,,thebreak,285794,break,,null,,,,,,,,,,,,,,,,,,
2623.199999988079,,familiar_rating,288419,Fictional_Cities_List/img_manmade_11.png,,49,Fictional_Cities_List/img_manmade_11.png,MM,1,,,,,,,,,,,,,,,
null,,confidence_buffer,288532,confidence_buffer,,null,,,,,,,,,,,,,,,,,,
1414.8999999761581,,unique_rating,289949,Fictional_Cities_List/img_manmade_11.png,,52,,,4,,,,,,,,,,,,,,,
null,,confidence_buffer,290051,confidence_buffer,,null,,,,,,,,,,,,,,,,,,
1086.699999988079,,memorable_rating,291140,Fictional_Cities_List/img_manmade_11.png,,52,,,4,,,,,,,,,,,,,,,
null,,confidence_buffer,291243,confidence_buffer,,null,,,,,,,,,,,,,,,,,,
null,,thebreak,291745,break,,null,,,,,,,,,,,,,,,,,,
3222.800000011921,,familiar_rating,294970,Fictional_Cities_List/img_manmade_08.png,,49,Fictional_Cities_List/img_manmade_08.png,MM,1,,,,,,,,,,,,,,,
null,,confidence_buffer,295072,confidence_buffer,,null,,,,,,,,,,,,,,,,,,
1311.5,,probe_rating,296386,probe_rating,,49,,,,1,1,,,,,,,,,,,,,
null,,confidence_buffer,296489,confidence_buffer,,null,,,,,,,,,,,,,,,,,,
2349.699999988079,,unique_rating,298843,Fictional_Cities_List/img_manmade_08.png,,51,,,3,,,,,,,,,,,,,,,
null,,confidence_buffer,298946,confidence_buffer,,null,,,,,,,,,,,,,,,,,,
2102,,memorable_rating,301050,Fictional_Cities_List/img_manmade_08.png,,53,,,5,,,,,,,,,,,,,,,
null,,confidence_buffer,301153,confidence_buffer,,null,,,,,,,,,,,,,,,,,,
null,,thebreak,301655,break,,null,,,,,,,,,,,,,,,,,,
4062.699999988079,,familiar_rating,305719,US_Cities_List/mm_bisbee.png,,50,US_Cities_List/mm_bisbee.png,MM,2,,,,,,,,,,,,,,,
null,,confidence_buffer,305828,confidence_buffer,,null,,,,,,,,,,,,,,,,,,
1060.3999999761581,,probe_rating,306892,probe_rating,,50,,,,2,1,,,,,,,,,,,,,
null,,confidence_buffer,306997,confidence_buffer,,null,,,,,,,,,,,,,,,,,,
4169.399999976158,,unique_rating,311168,US_Cities_List/mm_bisbee.png,,49,,,1,,,,,,,,,,,,,,,
null,,confidence_buffer,311270,confidence_buffer,,null,,,,,,,,,,,,,,,,,,
1030.3999999761581,,memorable_rating,312302,US_Cities_List/mm_bisbee.png,,49,,,1,,,,,,,,,,,,,,,
null,,confidence_buffer,312405,confidence_buffer,,null,,,,,,,,,,,,,,,,,,
null,,thebreak,312910,break,,null,,,,,,,,,,,,,,,,,,
1827.2999999523163,,familiar_rating,314739,Fictional_Cities_List/img_natural_11.png,,50,Fictional_Cities_List/img_natural_11.png,NAT,2,,,,,,,,,,,,,,,
null,,confidence_buffer,314849,confidence_buffer,,null,,,,,,,,,,,,,,,,,,
1366.300000011921,,unique_rating,316216,Fictional_Cities_List/img_natural_11.png,,49,,,1,,,,,,,,,,,,,,,
null,,confidence_buffer,316319,confidence_buffer,,null,,,,,,,,,,,,,,,,,,
1000.6000000238419,,memorable_rating,317321,Fictional_Cities_List/img_natural_11.png,,50,,,2,,,,,,,,,,,,,,,
null,,confidence_buffer,317424,confidence_buffer,,null,,,,,,,,,,,,,,,,,,
null,,thebreak,317927,break,,null,,,,,,,,,,,,,,,,,,
1753.8999999761581,,familiar_rating,319682,US_Cities_List/mm_cornwall.png,,50,US_Cities_List/mm_cornwall.png,MM,2,,,,,,,,,,,,,,,
null,,confidence_buffer,319785,confidence_buffer,,null,,,,,,,,,,,,,,,,,,
1652.6000000238419,,unique_rating,321439,US_Cities_List/mm_cornwall.png,,49,,,1,,,,,,,,,,,,,,,
null,,confidence_buffer,321547,confidence_buffer,,null,,,,,,,,,,,,,,,,,,
1430.699999988079,,memorable_rating,322979,US_Cities_List/mm_cornwall.png,,49,,,1,,,,,,,,,,,,,,,
null,,confidence_buffer,323082,confidence_buffer,,null,,,,,,,,,,,,,,,,,,
null,,thebreak,323584,break,,null,,,,,,,,,,,,,,,,,,
3274.5,,familiar_rating,326861,Fictional_Cities_List/img_natural_09.png,,52,Fictional_Cities_List/img_natural_09.png,NAT,4,,,,,,,,,,,,,,,
null,,confidence_buffer,326962,confidence_buffer,,null,,,,,,,,,,,,,,,,,,
1258,,unique_rating,328222,Fictional_Cities_List/img_natural_09.png,,49,,,1,,,,,,,,,,,,,,,
null,,confidence_buffer,328324,confidence_buffer,,null,,,,,,,,,,,,,,,,,,
792.6999999880791,,memorable_rating,329119,Fictional_Cities_List/img_natural_09.png,,49,,,1,,,,,,,,,,,,,,,
null,,confidence_buffer,329221,confidence_buffer,,null,,,,,,,,,,,,,,,,,,
null,,thebreak,329723,break,,null,,,,,,,,,,,,,,,,,,
2408.599999964237,,familiar_rating,332137,Fictional_Cities_List/img_natural_05.png,,50,Fictional_Cities_List/img_natural_05.png,NAT,2,,,,,,,,,,,,,,,
null,,confidence_buffer,332240,confidence_buffer,,null,,,,,,,,,,,,,,,,,,
1811.7999999523163,,unique_rating,334053,Fictional_Cities_List/img_natural_05.png,,49,,,1,,,,,,,,,,,,,,,
null,,confidence_buffer,334157,confidence_buffer,,null,,,,,,,,,,,,,,,,,,
892.2999999523163,,memorable_rating,335053,Fictional_Cities_List/img_natural_05.png,,50,,,2,,,,,,,,,,,,,,,
null,,confidence_buffer,335156,confidence_buffer,,null,,,,,,,,,,,,,,,,,,
null,,thebreak,335661,break,,null,,,,,,,,,,,,,,,,,,
3694.899999976158,,familiar_rating,339357,US_Cities_List/nat_okoboji.png,,52,US_Cities_List/nat_okoboji.png,NAT,4,,,,,,,,,,,,,,,
null,,confidence_buffer,339464,confidence_buffer,,null,,,,,,,,,,,,,,,,,,
1572.5999999642372,,unique_rating,341038,US_Cities_List/nat_okoboji.png,,49,,,1,,,,,,,,,,,,,,,
null,,confidence_buffer,341142,confidence_buffer,,null,,,,,,,,,,,,,,,,,,
872.8000000119209,,memorable_rating,342016,US_Cities_List/nat_okoboji.png,,49,,,1,,,,,,,,,,,,,,,
null,,confidence_buffer,342119,confidence_buffer,,null,,,,,,,,,,,,,,,,,,
null,,thebreak,342621,break,,null,,,,,,,,,,,,,,,,,,
3031.300000011921,,familiar_rating,345654,US_Cities_List/mm_delawarecity.png,,50,US_Cities_List/mm_delawarecity.png,MM,2,,,,,,,,,,,,,,,
null,,confidence_buffer,345757,confidence_buffer,,null,,,,,,,,,,,,,,,,,,
1009.4000000357628,,unique_rating,346770,US_Cities_List/mm_delawarecity.png,,49,,,1,,,,,,,,,,,,,,,
null,,confidence_buffer,346887,confidence_buffer,,null,,,,,,,,,,,,,,,,,,
689.3999999761581,,memorable_rating,347578,US_Cities_List/mm_delawarecity.png,,49,,,1,,,,,,,,,,,,,,,
null,,confidence_buffer,347695,confidence_buffer,,null,,,,,,,,,,,,,,,,,,
null,,thebreak,348197,break,,null,,,,,,,,,,,,,,,,,,
3513.599999964237,,familiar_rating,351713,US_Cities_List/mm_okoboji.png,,51,US_Cities_List/mm_okoboji.png,MM,3,,,,,,,,,,,,,,,
null,,confidence_buffer,351817,confidence_buffer,,null,,,,,,,,,,,,,,,,,,
960.5,,unique_rating,352779,US_Cities_List/mm_okoboji.png,,49,,,1,,,,,,,,,,,,,,,
null,,confidence_buffer,352881,confidence_buffer,,null,,,,,,,,,,,,,,,,,,
569.1999999880791,,memorable_rating,353452,US_Cities_List/mm_okoboji.png,,49,,,1,,,,,,,,,,,,,,,
null,,confidence_buffer,353555,confidence_buffer,,null,,,,,,,,,,,,,,,,,,
null,,thebreak,354057,break,,null,,,,,,,,,,,,,,,,,,
4685.100000023842,,intro_0,358747,instruct,,32,,,,,,,,,,,,,,,,,,
7230.099999964237,,intro_1,365979,instruct,,32,,,,,,,,,,,,,,,,,,
10612,,intro_2,376593,instruct,,32,,,,,,,,,,,,,,,,,,
null,,instruct_dir_4,378095,instruct,,null,,,,,,,,,,,,,,,,,,
8616.300000011921,,realistic_rating,386713,Fictional_Cities_List/img_manmade_10.png,,50,Fictional_Cities_List/img_manmade_10.png,MM,2,,,,,,,,,,,,,,,
null,,confidence_buffer,386824,confidence_buffer,,null,,,,,,,,,,,,,,,,,,
2672.100000023842,,pt2_unique_rating,389498,Fictional_Cities_List/img_manmade_10.png,,52,,,4,,,,,,,,,,,,,,,
null,,confidence_buffer,389600,confidence_buffer,,null,,,,,,,,,,,,,,,,,,
1851.800000011921,,pt2_memorable_rating,391454,Fictional_Cities_List/img_manmade_10.png,,52,,,4,,,,,,,,,,,,,,,
null,,confidence_buffer,391557,confidence_buffer,,null,,,,,,,,,,,,,,,,,,
2791.100000023842,,recognition_phase,394350,Fictional_Cities_List/img_manmade_10.png,,52,,,,,,new,1,1,,,,,,,,,,
null,,confidence_buffer,394453,confidence_buffer,,null,,,,,,,,,,,,,,,,,,
null,,thebreak,394955,break,,null,,,,,,,,,,,,,,,,,,
3329.800000011921,,realistic_rating,398287,US_Cities_List/nat_cornwall.png,,53,US_Cities_List/nat_cornwall.png,NAT,5,,,,,,,,,,,,,,,
null,,confidence_buffer,398390,confidence_buffer,,null,,,,,,,,,,,,,,,,,,
1772.5,,pt2_unique_rating,400164,US_Cities_List/nat_cornwall.png,,49,,,1,,,,,,,,,,,,,,,
null,,confidence_buffer,400267,confidence_buffer,,null,,,,,,,,,,,,,,,,,,
2107.2000000476837,,pt2_memorable_rating,402376,US_Cities_List/nat_cornwall.png,,49,,,1,,,,,,,,,,,,,,,
null,,confidence_buffer,402479,confidence_buffer,,null,,,,,,,,,,,,,,,,,,
4922.300000011921,,recognition_phase,407403,US_Cities_List/nat_cornwall.png,,50,,,,,,old,0,0.5,,,,,,,,,,
null,,confidence_buffer,407506,confidence_buffer,,null,,,,,,,,,,,,,,,,,,
null,,thebreak,408008,break,,null,,,,,,,,,,,,,,,,,,
6177.899999976158,,realistic_rating,414192,Fictional_Cities_List/img_natural_02.png,,52,Fictional_Cities_List/img_natural_02.png,NAT,4,,,,,,,,,,,,,,,
null,,confidence_buffer,414298,confidence_buffer,,null,,,,,,,,,,,,,,,,,,
2212.399999976158,,pt2_unique_rating,416513,Fictional_Cities_List/img_natural_02.png,,50,,,2,,,,,,,,,,,,,,,
null,,confidence_buffer,416615,confidence_buffer,,null,,,,,,,,,,,,,,,,,,
3252.900000035763,,pt2_memorable_rating,419869,Fictional_Cities_List/img_natural_02.png,,50,,,2,,,,,,,,,,,,,,,
null,,confidence_buffer,419972,confidence_buffer,,null,,,,,,,,,,,,,,,,,,
1306.4000000357628,,recognition_phase,421280,Fictional_Cities_List/img_natural_02.png,,52,,,,,,new,1,0.6666666666666666,,,,,,,,,,
null,,confidence_buffer,421383,confidence_buffer,,null,,,,,,,,,,,,,,,,,,
null,,thebreak,421885,break,,null,,,,,,,,,,,,,,,,,,
9762.399999976158,,realistic_rating,431650,US_Cities_List/mm_cornwall.png,,51,US_Cities_List/mm_cornwall.png,MM,3,,,,,,,,,,,,,,,
null,,confidence_buffer,431752,confidence_buffer,,null,,,,,,,,,,,,,,,,,,
1866.8999999761581,,pt2_unique_rating,433620,US_Cities_List/mm_cornwall.png,,49,,,1,,,,,,,,,,,,,,,
null,,confidence_buffer,433722,confidence_buffer,,null,,,,,,,,,,,,,,,,,,
1416.5,,probe_rating,435141,probe_rating,,52,,,,4,1,,,,,,,,,,,,,
null,,confidence_buffer,435247,confidence_buffer,,null,,,,,,,,,,,,,,,,,,
4380.600000023842,,pt2_memorable_rating,439630,US_Cities_List/mm_cornwall.png,,50,,,2,,,,,,,,,,,,,,,
null,,confidence_buffer,439732,confidence_buffer,,null,,,,,,,,,,,,,,,,,,
2594.599999964237,,recognition_phase,442328,US_Cities_List/mm_cornwall.png,,49,,,,,,old,1,0.75,,,,,,,,,,
null,,confidence_buffer,442431,confidence_buffer,,null,,,,,,,,,,,,,,,,,,
null,,thebreak,442933,break,,null,,,,,,,,,,,,,,,,,,
2377.300000011921,,realistic_rating,445312,US_Cities_List/nat_boulder.png,,50,US_Cities_List/nat_boulder.png,NAT,2,,,,,,,,,,,,,,,
null,,confidence_buffer,445415,confidence_buffer,,null,,,,,,,,,,,,,,,,,,
1679.199999988079,,pt2_unique_rating,447096,US_Cities_List/nat_boulder.png,,49,,,1,,,,,,,,,,,,,,,
null,,confidence_buffer,447199,confidence_buffer,,null,,,,,,,,,,,,,,,,,,
2900.300000011921,,pt2_memorable_rating,450101,US_Cities_List/nat_boulder.png,,49,,,1,,,,,,,,,,,,,,,
null,,confidence_buffer,450205,confidence_buffer,,null,,,,,,,,,,,,,,,,,,
2672,,recognition_phase,452879,US_Cities_List/nat_boulder.png,,49,,,,,,old,1,0.8,,,,,,,,,,
null,,confidence_buffer,452981,confidence_buffer,,null,,,,,,,,,,,,,,,,,,
null,,thebreak,453483,break,,null,,,,,,,,,,,,,,,,,,
3050.400000035763,,realistic_rating,456535,Fictional_Cities_List/img_manmade_08.png,,51,Fictional_Cities_List/img_manmade_08.png,MM,3,,,,,,,,,,,,,,,
null,,confidence_buffer,456638,confidence_buffer,,null,,,,,,,,,,,,,,,,,,
2000.300000011921,,pt2_unique_rating,458641,Fictional_Cities_List/img_manmade_08.png,,51,,,3,,,,,,,,,,,,,,,
null,,confidence_buffer,458745,confidence_buffer,,null,,,,,,,,,,,,,,,,,,
3153,,pt2_memorable_rating,461899,Fictional_Cities_List/img_manmade_08.png,,51,,,3,,,,,,,,,,,,,,,
null,,confidence_buffer,462002,confidence_buffer,,null,,,,,,,,,,,,,,,,,,
1843.300000011921,,recognition_phase,463847,Fictional_Cities_List/img_manmade_08.png,,49,,,,,,old,1,0.8333333333333334,,,,,,,,,,
null,,confidence_buffer,463949,confidence_buffer,,null,,,,,,,,,,,,,,,,,,
null,,thebreak,464451,break,,null,,,,,,,,,,,,,,,,,,
2884.2999999523163,,realistic_rating,467337,US_Cities_List/nat_hotsprings.png,,52,US_Cities_List/nat_hotsprings.png,NAT,4,,,,,,,,,,,,,,,
null,,confidence_buffer,467440,confidence_buffer,,null,,,,,,,,,,,,,,,,,,
1623.0999999642372,,pt2_unique_rating,469065,US_Cities_List/nat_hotsprings.png,,49,,,1,,,,,,,,,,,,,,,
null,,confidence_buffer,469168,confidence_buffer,,null,,,,,,,,,,,,,,,,,,
1499.300000011921,,pt2_memorable_rating,470669,US_Cities_List/nat_hotsprings.png,,49,,,1,,,,,,,,,,,,,,,
null,,confidence_buffer,470771,confidence_buffer,,null,,,,,,,,,,,,,,,,,,
978.5,,recognition_phase,471751,US_Cities_List/nat_hotsprings.png,,49,,,,,,old,1,0.8571428571428571,,,,,,,,,,
null,,confidence_buffer,471855,confidence_buffer,,null,,,,,,,,,,,,,,,,,,
null,,thebreak,472356,break,,null,,,,,,,,,,,,,,,,,,
2729.400000035763,,realistic_rating,475088,US_Cities_List/nat_sitka.png,,53,US_Cities_List/nat_sitka.png,NAT,5,,,,,,,,,,,,,,,
null,,confidence_buffer,475190,confidence_buffer,,null,,,,,,,,,,,,,,,,,,
1831.7000000476837,,pt2_unique_rating,477024,US_Cities_List/nat_sitka.png,,50,,,2,,,,,,,,,,,,,,,
null,,confidence_buffer,477128,confidence_buffer,,null,,,,,,,,,,,,,,,,,,
1270.199999988079,,pt2_memorable_rating,478399,US_Cities_List/nat_sitka.png,,49,,,1,,,,,,,,,,,,,,,
null,,confidence_buffer,478502,confidence_buffer,,null,,,,,,,,,,,,,,,,,,
1545.0999999642372,,recognition_phase,480049,US_Cities_List/nat_sitka.png,,52,,,,,,new,1,0.875,,,,,,,,,,
null,,confidence_buffer,480153,confidence_buffer,,null,,,,,,,,,,,,,,,,,,
null,,thebreak,480654,break,,null,,,,,,,,,,,,,,,,,,
2816.900000035763,,realistic_rating,483473,Fictional_Cities_List/img_manmade_02.png,,53,Fictional_Cities_List/img_manmade_02.png,MM,5,,,,,,,,,,,,,,,
null,,confidence_buffer,483576,confidence_buffer,,null,,,,,,,,,,,,,,,,,,
2219.699999988079,,pt2_unique_rating,485797,Fictional_Cities_List/img_manmade_02.png,,49,,,1,,,,,,,,,,,,,,,
null,,confidence_buffer,485900,confidence_buffer,,null,,,,,,,,,,,,,,,,,,
1566.6000000238419,,probe_rating,487469,probe_rating,,53,,,,5,1,,,,,,,,,,,,,
null,,confidence_buffer,487572,confidence_buffer,,null,,,,,,,,,,,,,,,,,,
22765.100000023842,,pt2_memorable_rating,510339,Fictional_Cities_List/img_manmade_02.png,,49,,,1,,,,,,,,,,,,,,,
null,,confidence_buffer,510442,confidence_buffer,,null,,,,,,,,,,,,,,,,,,
1968.300000011921,,recognition_phase,512413,Fictional_Cities_List/img_manmade_02.png,,52,,,,,,new,1,0.8888888888888888,,,,,,,,,,
null,,confidence_buffer,512516,confidence_buffer,,null,,,,,,,,,,,,,,,,,,
null,,thebreak,513019,break,,null,,,,,,,,,,,,,,,,,,
3685.699999988079,,realistic_rating,516707,US_Cities_List/mm_carmel.png,,53,US_Cities_List/mm_carmel.png,MM,5,,,,,,,,,,,,,,,
null,,confidence_buffer,516810,confidence_buffer,,null,,,,,,,,,,,,,,,,,,
2173.2999999523163,,pt2_unique_rating,518987,US_Cities_List/mm_carmel.png,,52,,,4,,,,,,,,,,,,,,,
null,,confidence_buffer,519091,confidence_buffer,,null,,,,,,,,,,,,,,,,,,
1378.5,,pt2_memorable_rating,520471,US_Cities_List/mm_carmel.png,,52,,,4,,,,,,,,,,,,,,,
null,,confidence_buffer,520573,confidence_buffer,,null,,,,,,,,,,,,,,,,,,
1407.300000011921,,recognition_phase,521983,US_Cities_List/mm_carmel.png,,52,,,,,,new,1,0.9,,,,,,,,,,
null,,confidence_buffer,522086,confidence_buffer,,null,,,,,,,,,,,,,,,,,,
null,,thebreak,522588,break,,null,,,,,,,,,,,,,,,,,,
3848.699999988079,,realistic_rating,526438,Fictional_Cities_List/img_natural_04.png,,50,Fictional_Cities_List/img_natural_04.png,NAT,2,,,,,,,,,,,,,,,
null,,confidence_buffer,526541,confidence_buffer,,null,,,,,,,,,,,,,,,,,,
4039.399999976158,,pt2_unique_rating,530582,Fictional_Cities_List/img_natural_04.png,,51,,,3,,,,,,,,,,,,,,,
null,,confidence_buffer,530683,confidence_buffer,,null,,,,,,,,,,,,,,,,,,
1338,,pt2_memorable_rating,532023,Fictional_Cities_List/img_natural_04.png,,50,,,2,,,,,,,,,,,,,,,
null,,confidence_buffer,532138,confidence_buffer,,null,,,,,,,,,,,,,,,,,,
1758.800000011921,,recognition_phase,533900,Fictional_Cities_List/img_natural_04.png,,49,,,,,,old,1,0.9090909090909091,,,,,,,,,,
null,,confidence_buffer,534002,confidence_buffer,,null,,,,,,,,,,,,,,,,,,
null,,thebreak,534505,break,,null,,,,,,,,,,,,,,,,,,
2867.2000000476837,,realistic_rating,537374,Fictional_Cities_List/img_natural_06.png,,51,Fictional_Cities_List/img_natural_06.png,NAT,3,,,,,,,,,,,,,,,
null,,confidence_buffer,537477,confidence_buffer,,null,,,,,,,,,,,,,,,,,,
1049.800000011921,,pt2_unique_rating,538530,Fictional_Cities_List/img_natural_06.png,,50,,,2,,,,,,,,,,,,,,,
null,,confidence_buffer,538634,confidence_buffer,,null,,,,,,,,,,,,,,,,,,
1520.800000011921,,pt2_memorable_rating,540157,Fictional_Cities_List/img_natural_06.png,,50,,,2,,,,,,,,,,,,,,,
null,,confidence_buffer,540261,confidence_buffer,,null,,,,,,,,,,,,,,,,,,
1619.800000011921,,recognition_phase,541883,Fictional_Cities_List/img_natural_06.png,,49,,,,,,old,1,0.9166666666666666,,,,,,,,,,
null,,confidence_buffer,541985,confidence_buffer,,null,,,,,,,,,,,,,,,,,,
null,,thebreak,542487,break,,null,,,,,,,,,,,,,,,,,,
7649.099999964237,,realistic_rating,550138,Fictional_Cities_List/img_manmade_06.png,,53,Fictional_Cities_List/img_manmade_06.png,MM,5,,,,,,,,,,,,,,,
null,,confidence_buffer,550241,confidence_buffer,,null,,,,,,,,,,,,,,,,,,
1813.2999999523163,,pt2_unique_rating,552056,Fictional_Cities_List/img_manmade_06.png,,49,,,1,,,,,,,,,,,,,,,
null,,confidence_buffer,552160,confidence_buffer,,null,,,,,,,,,,,,,,,,,,
706.5,,pt2_memorable_rating,552869,Fictional_Cities_List/img_manmade_06.png,,49,,,1,,,,,,,,,,,,,,,
null,,confidence_buffer,552972,confidence_buffer,,null,,,,,,,,,,,,,,,,,,
1207,,recognition_phase,554181,Fictional_Cities_List/img_manmade_06.png,,49,,,,,,old,0,0.8461538461538461,,,,,,,,,,
null,,confidence_buffer,554283,confidence_buffer,,null,,,,,,,,,,,,,,,,,,
null,,thebreak,554785,break,,null,,,,,,,,,,,,,,,,,,
4865.899999976158,,realistic_rating,559652,Fictional_Cities_List/img_manmade_15.png,,52,Fictional_Cities_List/img_manmade_15.png,MM,4,,,,,,,,,,,,,,,
null,,confidence_buffer,559756,confidence_buffer,,null,,,,,,,,,,,,,,,,,,
1319.5999999642372,,pt2_unique_rating,561077,Fictional_Cities_List/img_manmade_15.png,,50,,,2,,,,,,,,,,,,,,,
null,,confidence_buffer,561183,confidence_buffer,,null,,,,,,,,,,,,,,,,,,
1429.6000000238419,,pt2_memorable_rating,562614,Fictional_Cities_List/img_manmade_15.png,,50,,,2,,,,,,,,,,,,,,,
null,,confidence_buffer,562716,confidence_buffer,,null,,,,,,,,,,,,,,,,,,
2139.600000023842,,recognition_phase,564858,Fictional_Cities_List/img_manmade_15.png,,52,,,,,,new,1,0.8571428571428571,,,,,,,,,,
null,,confidence_buffer,564960,confidence_buffer,,null,,,,,,,,,,,,,,,,,,
null,,thebreak,565464,break,,null,,,,,,,,,,,,,,,,,,
3063.800000011921,,realistic_rating,568529,US_Cities_List/mm_hilo.png,,51,US_Cities_List/mm_hilo.png,MM,3,,,,,,,,,,,,,,,
null,,confidence_buffer,568631,confidence_buffer,,null,,,,,,,,,,,,,,,,,,
1539.4000000357628,,pt2_unique_rating,570172,US_Cities_List/mm_hilo.png,,50,,,2,,,,,,,,,,,,,,,
null,,confidence_buffer,570274,confidence_buffer,,null,,,,,,,,,,,,,,,,,,
837.8000000119209,,pt2_memorable_rating,571113,US_Cities_List/mm_hilo.png,,50,,,2,,,,,,,,,,,,,,,
null,,confidence_buffer,571216,confidence_buffer,,null,,,,,,,,,,,,,,,,,,
1790.699999988079,,recognition_phase,573008,US_Cities_List/mm_hilo.png,,52,,,,,,new,1,0.8666666666666667,,,,,,,,,,
null,,confidence_buffer,573111,confidence_buffer,,null,,,,,,,,,,,,,,,,,,
null,,thebreak,573613,break,,null,,,,,,,,,,,,,,,,,,
3050.5,,realistic_rating,576666,US_Cities_List/mm_westpalmbeach.png,,51,US_Cities_List/mm_westpalmbeach.png,MM,3,,,,,,,,,,,,,,,
null,,confidence_buffer,576769,confidence_buffer,,null,,,,,,,,,,,,,,,,,,
1354.5,,pt2_unique_rating,578125,US_Cities_List/mm_westpalmbeach.png,,50,,,2,,,,,,,,,,,,,,,
null,,confidence_buffer,578229,confidence_buffer,,null,,,,,,,,,,,,,,,,,,
543.5999999642372,,pt2_memorable_rating,578774,US_Cities_List/mm_westpalmbeach.png,,49,,,1,,,,,,,,,,,,,,,
null,,confidence_buffer,578879,confidence_buffer,,null,,,,,,,,,,,,,,,,,,
1423.300000011921,,recognition_phase,580305,US_Cities_List/mm_westpalmbeach.png,,49,,,,,,old,1,0.875,,,,,,,,,,
null,,confidence_buffer,580408,confidence_buffer,,null,,,,,,,,,,,,,,,,,,
null,,thebreak,580910,break,,null,,,,,,,,,,,,,,,,,,
3118.199999988079,,realistic_rating,584034,US_Cities_List/mm_hotsprings.png,,53,US_Cities_List/mm_hotsprings.png,MM,5,,,,,,,,,,,,,,,
null,,confidence_buffer,584137,confidence_buffer,,null,,,,,,,,,,,,,,,,,,
2931.899999976158,,pt2_unique_rating,587071,US_Cities_List/mm_hotsprings.png,,49,,,1,,,,,,,,,,,,,,,
null,,confidence_buffer,587174,confidence_buffer,,null,,,,,,,,,,,,,,,,,,
800.1000000238419,,pt2_memorable_rating,587976,US_Cities_List/mm_hotsprings.png,,49,,,1,,,,,,,,,,,,,,,
null,,confidence_buffer,588078,confidence_buffer,,null,,,,,,,,,,,,,,,,,,
1507.4000000357628,,recognition_phase,589588,US_Cities_List/mm_hotsprings.png,,52,,,,,,new,1,0.8823529411764706,,,,,,,,,,
null,,confidence_buffer,589691,confidence_buffer,,null,,,,,,,,,,,,,,,,,,
null,,thebreak,590193,break,,null,,,,,,,,,,,,,,,,,,
3609.899999976158,,realistic_rating,593805,US_Cities_List/nat_healdsburg.png,,53,US_Cities_List/nat_healdsburg.png,NAT,5,,,,,,,,,,,,,,,
null,,confidence_buffer,593907,confidence_buffer,,null,,,,,,,,,,,,,,,,,,
1419.199999988079,,pt2_unique_rating,595331,US_Cities_List/nat_healdsburg.png,,49,,,1,,,,,,,,,,,,,,,
null,,confidence_buffer,595434,confidence_buffer,,null,,,,,,,,,,,,,,,,,,
415.19999998807907,,pt2_memorable_rating,595851,US_Cities_List/nat_healdsburg.png,,49,,,1,,,,,,,,,,,,,,,
null,,confidence_buffer,595953,confidence_buffer,,null,,,,,,,,,,,,,,,,,,
592.8999999761581,,recognition_phase,596548,US_Cities_List/nat_healdsburg.png,,49,,,,,,old,1,0.8888888888888888,,,,,,,,,,
null,,confidence_buffer,596650,confidence_buffer,,null,,,,,,,,,,,,,,,,,,
null,,thebreak,597152,break,,null,,,,,,,,,,,,,,,,,,
2127.900000035763,,realistic_rating,599282,Fictional_Cities_List/img_natural_14.png,,52,Fictional_Cities_List/img_natural_14.png,NAT,4,,,,,,,,,,,,,,,
null,,confidence_buffer,599384,confidence_buffer,,null,,,,,,,,,,,,,,,,,,
2146.100000023842,,pt2_unique_rating,601532,Fictional_Cities_List/img_natural_14.png,,49,,,1,,,,,,,,,,,,,,,
null,,confidence_buffer,601634,confidence_buffer,,null,,,,,,,,,,,,,,,,,,
4599.700000047684,,pt2_memorable_rating,606236,Fictional_Cities_List/img_natural_14.png,,49,,,1,,,,,,,,,,,,,,,
null,,confidence_buffer,606339,confidence_buffer,,null,,,,,,,,,,,,,,,,,,
1759.6000000238419,,recognition_phase,608101,Fictional_Cities_List/img_natural_14.png,,52,,,,,,new,1,0.8947368421052632,,,,,,,,,,
null,,confidence_buffer,608204,confidence_buffer,,null,,,,,,,,,,,,,,,,,,
null,,thebreak,608707,break,,null,,,,,,,,,,,,,,,,,,
3151.699999988079,,realistic_rating,611860,Fictional_Cities_List/img_natural_10.png,,49,Fictional_Cities_List/img_natural_10.png,NAT,1,,,,,,,,,,,,,,,
null,,confidence_buffer,611967,confidence_buffer,,null,,,,,,,,,,,,,,,,,,
1764.199999988079,,pt2_unique_rating,613732,Fictional_Cities_List/img_natural_10.png,,51,,,3,,,,,,,,,,,,,,,
null,,confidence_buffer,613835,confidence_buffer,,null,,,,,,,,,,,,,,,,,,
407.60000002384186,,pt2_memorable_rating,614244,Fictional_Cities_List/img_natural_10.png,,49,,,1,,,,,,,,,,,,,,,
null,,confidence_buffer,614351,confidence_buffer,,null,,,,,,,,,,,,,,,,,,
2021.6000000238419,,recognition_phase,616374,Fictional_Cities_List/img_natural_10.png,,52,,,,,,new,1,0.9,,,,,,,,,,
null,,confidence_buffer,616477,confidence_buffer,,null,,,,,,,,,,,,,,,,,,
null,,thebreak,616981,break,,null,,,,,,,,,,,,,,,,,,
5283.600000023842,,realistic_rating,622267,Fictional_Cities_List/img_manmade_14.png,,51,Fictional_Cities_List/img_manmade_14.png,MM,3,,,,,,,,,,,,,,,
null,,confidence_buffer,622370,confidence_buffer,,null,,,,,,,,,,,,,,,,,,
1273.3999999761581,,pt2_unique_rating,623647,Fictional_Cities_List/img_manmade_14.png,,49,,,1,,,,,,,,,,,,,,,
null,,confidence_buffer,623751,confidence_buffer,,null,,,,,,,,,,,,,,,,,,
425.9000000357628,,pt2_memorable_rating,624181,Fictional_Cities_List/img_manmade_14.png,,49,,,1,,,,,,,,,,,,,,,
null,,confidence_buffer,624284,confidence_buffer,,null,,,,,,,,,,,,,,,,,,
2975.2999999523163,,probe_rating,627262,probe_rating,,51,,,,3,1,,,,,,,,,,,,,
null,,confidence_buffer,627366,confidence_buffer,,null,,,,,,,,,,,,,,,,,,
1623.0999999642372,,recognition_phase,628990,Fictional_Cities_List/img_manmade_14.png,,50,,,,,,old,0,0.8571428571428571,,,,,,,,,,
null,,confidence_buffer,629093,confidence_buffer,,null,,,,,,,,,,,,,,,,,,
null,,thebreak,629595,break,,null,,,,,,,,,,,,,,,,,,
2409.699999988079,,realistic_rating,632008,US_Cities_List/nat_abilene.png,,52,US_Cities_List/nat_abilene.png,NAT,4,,,,,,,,,,,,,,,
null,,confidence_buffer,632111,confidence_buffer,,null,,,,,,,,,,,,,,,,,,
771.1000000238419,,pt2_unique_rating,632885,US_Cities_List/nat_abilene.png,,49,,,1,,,,,,,,,,,,,,,
null,,confidence_buffer,632989,confidence_buffer,,null,,,,,,,,,,,,,,,,,,
468,,pt2_memorable_rating,633459,US_Cities_List/nat_abilene.png,,49,,,1,,,,,,,,,,,,,,,
null,,confidence_buffer,633563,confidence_buffer,,null,,,,,,,,,,,,,,,,,,
954.7000000476837,,recognition_phase,634520,US_Cities_List/nat_abilene.png,,52,,,,,,new,1,0.8636363636363636,,,,,,,,,,
null,,confidence_buffer,634622,confidence_buffer,,null,,,,,,,,,,,,,,,,,,
null,,thebreak,635124,break,,null,,,,,,,,,,,,,,,,,,
2977.399999976158,,realistic_rating,638103,Fictional_Cities_List/img_manmade_07.png,,52,Fictional_Cities_List/img_manmade_07.png,MM,4,,,,,,,,,,,,,,,
null,,confidence_buffer,638207,confidence_buffer,,null,,,,,,,,,,,,,,,,,,
1507.199999988079,,pt2_unique_rating,639716,Fictional_Cities_List/img_manmade_07.png,,49,,,1,,,,,,,,,,,,,,,
null,,confidence_buffer,639818,confidence_buffer,,null,,,,,,,,,,,,,,,,,,
339.19999998807907,,pt2_memorable_rating,640159,Fictional_Cities_List/img_manmade_07.png,,49,,,1,,,,,,,,,,,,,,,
null,,confidence_buffer,640270,confidence_buffer,,null,,,,,,,,,,,,,,,,,,
1093.300000011921,,recognition_phase,641367,Fictional_Cities_List/img_manmade_07.png,,49,,,,,,old,1,0.8695652173913043,,,,,,,,,,
null,,confidence_buffer,641470,confidence_buffer,,null,,,,,,,,,,,,,,,,,,
null,,thebreak,641972,break,,null,,,,,,,,,,,,,,,,,,
5705.600000023842,,realistic_rating,647682,Fictional_Cities_List/img_manmade_13.png,,50,Fictional_Cities_List/img_manmade_13.png,MM,2,,,,,,,,,,,,,,,
null,,confidence_buffer,647784,confidence_buffer,,null,,,,,,,,,,,,,,,,,,
1687.7999999523163,,pt2_unique_rating,649474,Fictional_Cities_List/img_manmade_13.png,,51,,,3,,,,,,,,,,,,,,,
null,,confidence_buffer,649577,confidence_buffer,,null,,,,,,,,,,,,,,,,,,
930.8000000119209,,pt2_memorable_rating,650510,Fictional_Cities_List/img_manmade_13.png,,50,,,2,,,,,,,,,,,,,,,
null,,confidence_buffer,650613,confidence_buffer,,null,,,,,,,,,,,,,,,,,,
2096.300000011921,,recognition_phase,652715,Fictional_Cities_List/img_manmade_13.png,,52,,,,,,new,1,0.875,,,,,,,,,,
null,,confidence_buffer,652818,confidence_buffer,,null,,,,,,,,,,,,,,,,,,
null,,thebreak,653320,break,,null,,,,,,,,,,,,,,,,,,
2176.800000011921,,realistic_rating,655499,US_Cities_List/nat_athens.png,,53,US_Cities_List/nat_athens.png,NAT,5,,,,,,,,,,,,,,,
null,,confidence_buffer,655602,confidence_buffer,,null,,,,,,,,,,,,,,,,,,
1383.300000011921,,pt2_unique_rating,656986,US_Cities_List/nat_athens.png,,50,,,2,,,,,,,,,,,,,,,
null,,confidence_buffer,657099,confidence_buffer,,null,,,,,,,,,,,,,,,,,,
836.8000000119209,,pt2_memorable_rating,657938,US_Cities_List/nat_athens.png,,50,,,2,,,,,,,,,,,,,,,
null,,confidence_buffer,658042,confidence_buffer,,null,,,,,,,,,,,,,,,,,,
1930.1000000238419,,recognition_phase,659973,US_Cities_List/nat_athens.png,,52,,,,,,new,1,0.88,,,,,,,,,,
null,,confidence_buffer,660076,confidence_buffer,,null,,,,,,,,,,,,,,,,,,
null,,thebreak,660578,break,,null,,,,,,,,,,,,,,,,,,
3251.399999976158,,realistic_rating,663834,US_Cities_List/nat_bisbee.png,,52,US_Cities_List/nat_bisbee.png,NAT,4,,,,,,,,,,,,,,,
null,,confidence_buffer,663938,confidence_buffer,,null,,,,,,,,,,,,,,,,,,
2055,,pt2_unique_rating,665994,US_Cities_List/nat_bisbee.png,,49,,,1,,,,,,,,,,,,,,,
null,,confidence_buffer,666100,confidence_buffer,,null,,,,,,,,,,,,,,,,,,
674.1999999880791,,pt2_memorable_rating,666776,US_Cities_List/nat_bisbee.png,,49,,,1,,,,,,,,,,,,,,,
null,,confidence_buffer,666878,confidence_buffer,,null,,,,,,,,,,,,,,,,,,
2387.5,,recognition_phase,669267,US_Cities_List/nat_bisbee.png,,51,,,,,,new,1,0.8846153846153846,,,,,,,,,,
null,,confidence_buffer,669370,confidence_buffer,,null,,,,,,,,,,,,,,,,,,
null,,thebreak,669873,break,,null,,,,,,,,,,,,,,,,,,
2651.800000011921,,realistic_rating,672527,Fictional_Cities_List/img_natural_07.png,,53,Fictional_Cities_List/img_natural_07.png,NAT,5,,,,,,,,,,,,,,,
null,,confidence_buffer,672633,confidence_buffer,,null,,,,,,,,,,,,,,,,,,
1743.3999999761581,,pt2_unique_rating,674378,Fictional_Cities_List/img_natural_07.png,,49,,,1,,,,,,,,,,,,,,,
null,,confidence_buffer,674483,confidence_buffer,,null,,,,,,,,,,,,,,,,,,
1153.2000000476837,,pt2_memorable_rating,675638,Fictional_Cities_List/img_natural_07.png,,49,,,1,,,,,,,,,,,,,,,
null,,confidence_buffer,675741,confidence_buffer,,null,,,,,,,,,,,,,,,,,,
3182.699999988079,,recognition_phase,678926,Fictional_Cities_List/img_natural_07.png,,51,,,,,,new,1,0.8888888888888888,,,,,,,,,,
null,,confidence_buffer,679028,confidence_buffer,,null,,,,,,,,,,,,,,,,,,
null,,thebreak,679532,break,,null,,,,,,,,,,,,,,,,,,
2317.5,,realistic_rating,681851,Fictional_Cities_List/img_natural_12.png,,52,Fictional_Cities_List/img_natural_12.png,NAT,4,,,,,,,,,,,,,,,
null,,confidence_buffer,681954,confidence_buffer,,null,,,,,,,,,,,,,,,,,,
2427.600000023842,,pt2_unique_rating,684383,Fictional_Cities_List/img_natural_12.png,,49,,,1,,,,,,,,,,,,,,,
null,,confidence_buffer,684486,confidence_buffer,,null,,,,,,,,,,,,,,,,,,
1979.199999988079,,pt2_memorable_rating,686466,Fictional_Cities_List/img_natural_12.png,,50,,,2,,,,,,,,,,,,,,,
null,,confidence_buffer,686570,confidence_buffer,,null,,,,,,,,,,,,,,,,,,
1020.1000000238419,,recognition_phase,687592,Fictional_Cities_List/img_natural_12.png,,49,,,,,,old,1,0.8928571428571429,,,,,,,,,,
null,,confidence_buffer,687698,confidence_buffer,,null,,,,,,,,,,,,,,,,,,
null,,thebreak,688200,break,,null,,,,,,,,,,,,,,,,,,
2176,,realistic_rating,690377,US_Cities_List/nat_peoria.png,,53,US_Cities_List/nat_peoria.png,NAT,5,,,,,,,,,,,,,,,
null,,confidence_buffer,690482,confidence_buffer,,null,,,,,,,,,,,,,,,,,,
1734.1000000238419,,pt2_unique_rating,692218,US_Cities_List/nat_peoria.png,,49,,,1,,,,,,,,,,,,,,,
null,,confidence_buffer,692321,confidence_buffer,,null,,,,,,,,,,,,,,,,,,
794.3999999761581,,pt2_memorable_rating,693117,US_Cities_List/nat_peoria.png,,49,,,1,,,,,,,,,,,,,,,
null,,confidence_buffer,693220,confidence_buffer,,null,,,,,,,,,,,,,,,,,,
2545.300000011921,,recognition_phase,695768,US_Cities_List/nat_peoria.png,,51,,,,,,new,1,0.896551724137931,,,,,,,,,,
null,,confidence_buffer,695871,confidence_buffer,,null,,,,,,,,,,,,,,,,,,
null,,thebreak,696373,break,,null,,,,,,,,,,,,,,,,,,
2987.599999964237,,realistic_rating,699364,Fictional_Cities_List/img_manmade_04.png,,50,Fictional_Cities_List/img_manmade_04.png,MM,2,,,,,,,,,,,,,,,
null,,confidence_buffer,699466,confidence_buffer,,null,,,,,,,,,,,,,,,,,,
1566.0999999642372,,pt2_unique_rating,701034,Fictional_Cities_List/img_manmade_04.png,,51,,,3,,,,,,,,,,,,,,,
null,,confidence_buffer,701137,confidence_buffer,,null,,,,,,,,,,,,,,,,,,
2171.900000035763,,pt2_memorable_rating,703312,Fictional_Cities_List/img_manmade_04.png,,51,,,3,,,,,,,,,,,,,,,
null,,confidence_buffer,703418,confidence_buffer,,null,,,,,,,,,,,,,,,,,,
1768.6000000238419,,recognition_phase,705189,Fictional_Cities_List/img_manmade_04.png,,49,,,,,,old,1,0.9,,,,,,,,,,
null,,confidence_buffer,705291,confidence_buffer,,null,,,,,,,,,,,,,,,,,,
null,,thebreak,705799,break,,null,,,,,,,,,,,,,,,,,,
3436.699999988079,,realistic_rating,709238,Fictional_Cities_List/img_natural_05.png,,50,Fictional_Cities_List/img_natural_05.png,NAT,2,,,,,,,,,,,,,,,
null,,confidence_buffer,709341,confidence_buffer,,null,,,,,,,,,,,,,,,,,,
1796.199999988079,,pt2_unique_rating,711140,Fictional_Cities_List/img_natural_05.png,,50,,,2,,,,,,,,,,,,,,,
null,,confidence_buffer,711243,confidence_buffer,,null,,,,,,,,,,,,,,,,,,
1559.5,,pt2_memorable_rating,712805,Fictional_Cities_List/img_natural_05.png,,50,,,2,,,,,,,,,,,,,,,
null,,confidence_buffer,712907,confidence_buffer,,null,,,,,,,,,,,,,,,,,,
1256.6000000238419,,recognition_phase,714166,Fictional_Cities_List/img_natural_05.png,,49,,,,,,old,1,0.9032258064516129,,,,,,,,,,
null,,confidence_buffer,714269,confidence_buffer,,null,,,,,,,,,,,,,,,,,,
null,,thebreak,714771,break,,null,,,,,,,,,,,,,,,,,,
2377.600000023842,,realistic_rating,717150,Fictional_Cities_List/img_natural_01.png,,53,Fictional_Cities_List/img_natural_01.png,NAT,5,,,,,,,,,,,,,,,
null,,confidence_buffer,717253,confidence_buffer,,null,,,,,,,,,,,,,,,,,,
1832.699999988079,,probe_rating,719087,probe_rating,,52,,,,4,1,,,,,,,,,,,,,
null,,confidence_buffer,719190,confidence_buffer,,null,,,,,,,,,,,,,,,,,,
1675.800000011921,,pt2_unique_rating,720867,Fictional_Cities_List/img_natural_01.png,,49,,,1,,,,,,,,,,,,,,,
null,,confidence_buffer,720970,confidence_buffer,,null,,,,,,,,,,,,,,,,,,
1036.199999988079,,pt2_memorable_rating,722008,Fictional_Cities_List/img_natural_01.png,,50,,,2,,,,,,,,,,,,,,,
null,,confidence_buffer,722111,confidence_buffer,,null,,,,,,,,,,,,,,,,,,
1616.1000000238419,,recognition_phase,723728,Fictional_Cities_List/img_natural_01.png,,52,,,,,,new,1,0.90625,,,,,,,,,,
null,,confidence_buffer,723834,confidence_buffer,,null,,,,,,,,,,,,,,,,,,
null,,thebreak,724335,break,,null,,,,,,,,,,,,,,,,,,
4275,,realistic_rating,728612,Fictional_Cities_List/img_manmade_03.png,,51,Fictional_Cities_List/img_manmade_03.png,MM,3,,,,,,,,,,,,,,,
null,,confidence_buffer,728718,confidence_buffer,,null,,,,,,,,,,,,,,,,,,
1172.5,,pt2_unique_rating,729892,Fictional_Cities_List/img_manmade_03.png,,51,,,3,,,,,,,,,,,,,,,
null,,confidence_buffer,729995,confidence_buffer,,null,,,,,,,,,,,,,,,,,,
1274.1000000238419,,pt2_memorable_rating,731271,Fictional_Cities_List/img_manmade_03.png,,51,,,3,,,,,,,,,,,,,,,
null,,confidence_buffer,731374,confidence_buffer,,null,,,,,,,,,,,,,,,,,,
2299.800000011921,,recognition_phase,733675,Fictional_Cities_List/img_manmade_03.png,,51,,,,,,new,1,0.9090909090909091,,,,,,,,,,
null,,confidence_buffer,733778,confidence_buffer,,null,,,,,,,,,,,,,,,,,,
null,,thebreak,734283,break,,null,,,,,,,,,,,,,,,,,,
2890.400000035763,,realistic_rating,737175,US_Cities_List/nat_okoboji.png,,53,US_Cities_List/nat_okoboji.png,NAT,5,,,,,,,,,,,,,,,
null,,confidence_buffer,737292,confidence_buffer,,null,,,,,,,,,,,,,,,,,,
1421.9000000357628,,pt2_unique_rating,738716,US_Cities_List/nat_okoboji.png,,49,,,1,,,,,,,,,,,,,,,
null,,confidence_buffer,738819,confidence_buffer,,null,,,,,,,,,,,,,,,,,,
414.5,,pt2_memorable_rating,739236,US_Cities_List/nat_okoboji.png,,49,,,1,,,,,,,,,,,,,,,
null,,confidence_buffer,739338,confidence_buffer,,null,,,,,,,,,,,,,,,,,,
760,,recognition_phase,740100,US_Cities_List/nat_okoboji.png,,49,,,,,,old,1,0.9117647058823529,,,,,,,,,,
null,,confidence_buffer,740203,confidence_buffer,,null,,,,,,,,,,,,,,,,,,
null,,thebreak,740708,break,,null,,,,,,,,,,,,,,,,,,
2697.899999976158,,realistic_rating,743408,US_Cities_List/mm_bisbee.png,,53,US_Cities_List/mm_bisbee.png,MM,5,,,,,,,,,,,,,,,
null,,confidence_buffer,743511,confidence_buffer,,null,,,,,,,,,,,,,,,,,,
1779.8999999761581,,probe_rating,745292,probe_rating,,53,,,,5,1,,,,,,,,,,,,,
null,,confidence_buffer,745395,confidence_buffer,,null,,,,,,,,,,,,,,,,,,
1694.7999999523163,,pt2_unique_rating,747092,US_Cities_List/mm_bisbee.png,,49,,,1,,,,,,,,,,,,,,,
null,,confidence_buffer,747195,confidence_buffer,,null,,,,,,,,,,,,,,,,,,
806.6999999880791,,pt2_memorable_rating,748003,US_Cities_List/mm_bisbee.png,,49,,,1,,,,,,,,,,,,,,,
null,,confidence_buffer,748106,confidence_buffer,,null,,,,,,,,,,,,,,,,,,
932.0999999642372,,recognition_phase,749041,US_Cities_List/mm_bisbee.png,,49,,,,,,old,1,0.9142857142857143,,,,,,,,,,
null,,confidence_buffer,749143,confidence_buffer,,null,,,,,,,,,,,,,,,,,,
null,,thebreak,749646,break,,null,,,,,,,,,,,,,,,,,,
2789.600000023842,,realistic_rating,752438,US_Cities_List/nat_coeurdalene.png,,53,US_Cities_List/nat_coeurdalene.png,NAT,5,,,,,,,,,,,,,,,
null,,confidence_buffer,752542,confidence_buffer,,null,,,,,,,,,,,,,,,,,,
1730.9000000357628,,pt2_unique_rating,754275,US_Cities_List/nat_coeurdalene.png,,49,,,1,,,,,,,,,,,,,,,
null,,confidence_buffer,754377,confidence_buffer,,null,,,,,,,,,,,,,,,,,,
521.6000000238419,,pt2_memorable_rating,754901,US_Cities_List/nat_coeurdalene.png,,49,,,1,,,,,,,,,,,,,,,
null,,confidence_buffer,755003,confidence_buffer,,null,,,,,,,,,,,,,,,,,,
680.6000000238419,,recognition_phase,755686,US_Cities_List/nat_coeurdalene.png,,49,,,,,,old,1,0.9166666666666666,,,,,,,,,,
null,,confidence_buffer,755801,confidence_buffer,,null,,,,,,,,,,,,,,,,,,
null,,thebreak,756302,break,,null,,,,,,,,,,,,,,,,,,
3232.400000035763,,realistic_rating,759537,US_Cities_List/mm_boulder.png,,52,US_Cities_List/mm_boulder.png,MM,4,,,,,,,,,,,,,,,
null,,confidence_buffer,759640,confidence_buffer,,null,,,,,,,,,,,,,,,,,,
1209.699999988079,,pt2_unique_rating,760851,US_Cities_List/mm_boulder.png,,49,,,1,,,,,,,,,,,,,,,
null,,confidence_buffer,760954,confidence_buffer,,null,,,,,,,,,,,,,,,,,,
516.1999999880791,,pt2_memorable_rating,761472,US_Cities_List/mm_boulder.png,,49,,,1,,,,,,,,,,,,,,,
null,,confidence_buffer,761575,confidence_buffer,,null,,,,,,,,,,,,,,,,,,
442.19999998807907,,recognition_phase,762020,US_Cities_List/mm_boulder.png,,49,,,,,,old,1,0.918918918918919,,,,,,,,,,
null,,confidence_buffer,762122,confidence_buffer,,null,,,,,,,,,,,,,,,,,,
null,,thebreak,762624,break,,null,,,,,,,,,,,,,,,,,,
2113.5,,realistic_rating,764740,US_Cities_List/nat_carmel.png,,53,US_Cities_List/nat_carmel.png,NAT,5,,,,,,,,,,,,,,,
null,,confidence_buffer,764843,confidence_buffer,,null,,,,,,,,,,,,,,,,,,
1489.5999999642372,,pt2_unique_rating,766334,US_Cities_List/nat_carmel.png,,49,,,1,,,,,,,,,,,,,,,
null,,confidence_buffer,766436,confidence_buffer,,null,,,,,,,,,,,,,,,,,,
1101.1000000238419,,pt2_memorable_rating,767539,US_Cities_List/nat_carmel.png,,49,,,1,,,,,,,,,,,,,,,
null,,confidence_buffer,767653,confidence_buffer,,null,,,,,,,,,,,,,,,,,,
716.5,,recognition_phase,768371,US_Cities_List/nat_carmel.png,,49,,,,,,old,1,0.9210526315789473,,,,,,,,,,
null,,confidence_buffer,768474,confidence_buffer,,null,,,,,,,,,,,,,,,,,,
null,,thebreak,768976,break,,null,,,,,,,,,,,,,,,,,,
2910.7999999523163,,realistic_rating,771888,US_Cities_List/mm_sitka.png,,50,US_Cities_List/mm_sitka.png,MM,2,,,,,,,,,,,,,,,
null,,confidence_buffer,771992,confidence_buffer,,null,,,,,,,,,,,,,,,,,,
1691.1000000238419,,pt2_unique_rating,773684,US_Cities_List/mm_sitka.png,,51,,,3,,,,,,,,,,,,,,,
null,,confidence_buffer,773787,confidence_buffer,,null,,,,,,,,,,,,,,,,,,
939.1000000238419,,pt2_memorable_rating,774727,US_Cities_List/mm_sitka.png,,50,,,2,,,,,,,,,,,,,,,
null,,confidence_buffer,774832,confidence_buffer,,null,,,,,,,,,,,,,,,,,,
1655.800000011921,,recognition_phase,776490,US_Cities_List/mm_sitka.png,,52,,,,,,new,1,0.9230769230769231,,,,,,,,,,
null,,confidence_buffer,776593,confidence_buffer,,null,,,,,,,,,,,,,,,,,,
null,,thebreak,777094,break,,null,,,,,,,,,,,,,,,,,,
2580.2999999523163,,realistic_rating,779676,US_Cities_List/mm_peoria.png,,50,US_Cities_List/mm_peoria.png,MM,2,,,,,,,,,,,,,,,
null,,confidence_buffer,779781,confidence_buffer,,null,,,,,,,,,,,,,,,,,,
1652.9000000357628,,pt2_unique_rating,781437,US_Cities_List/mm_peoria.png,,51,,,3,,,,,,,,,,,,,,,
null,,confidence_buffer,781539,confidence_buffer,,null,,,,,,,,,,,,,,,,,,
1534.699999988079,,probe_rating,783075,probe_rating,,50,,,,2,1,,,,,,,,,,,,,
null,,confidence_buffer,783183,confidence_buffer,,null,,,,,,,,,,,,,,,,,,
2539.5,,pt2_memorable_rating,785724,US_Cities_List/mm_peoria.png,,51,,,3,,,,,,,,,,,,,,,
null,,confidence_buffer,785827,confidence_buffer,,null,,,,,,,,,,,,,,,,,,
1156.7000000476837,,recognition_phase,786986,US_Cities_List/mm_peoria.png,,49,,,,,,old,1,0.925,,,,,,,,,,
null,,confidence_buffer,787088,confidence_buffer,,null,,,,,,,,,,,,,,,,,,
null,,thebreak,787590,break,,null,,,,,,,,,,,,,,,,,,
2668.699999988079,,realistic_rating,790261,Fictional_Cities_List/img_natural_13.png,,51,Fictional_Cities_List/img_natural_13.png,NAT,3,,,,,,,,,,,,,,,
null,,confidence_buffer,790365,confidence_buffer,,null,,,,,,,,,,,,,,,,,,
1288.800000011921,,probe_rating,791656,probe_rating,,52,,,,4,1,,,,,,,,,,,,,
null,,confidence_buffer,791760,confidence_buffer,,null,,,,,,,,,,,,,,,,,,
1456.7999999523163,,pt2_unique_rating,793218,Fictional_Cities_List/img_natural_13.png,,51,,,3,,,,,,,,,,,,,,,
null,,confidence_buffer,793322,confidence_buffer,,null,,,,,,,,,,,,,,,,,,
1566.9000000357628,,pt2_memorable_rating,794890,Fictional_Cities_List/img_natural_13.png,,50,,,2,,,,,,,,,,,,,,,
null,,confidence_buffer,794992,confidence_buffer,,null,,,,,,,,,,,,,,,,,,
1647.6000000238419,,recognition_phase,796642,Fictional_Cities_List/img_natural_13.png,,51,,,,,,new,1,0.926829268292683,,,,,,,,,,
null,,confidence_buffer,796745,confidence_buffer,,null,,,,,,,,,,,,,,,,,,
null,,thebreak,797250,break,,null,,,,,,,,,,,,,,,,,,
2848.600000023842,,realistic_rating,800100,Fictional_Cities_List/img_natural_03.png,,50,Fictional_Cities_List/img_natural_03.png,NAT,2,,,,,,,,,,,,,,,
null,,confidence_buffer,800203,confidence_buffer,,null,,,,,,,,,,,,,,,,,,
1843.8999999761581,,pt2_unique_rating,802049,Fictional_Cities_List/img_natural_03.png,,52,,,4,,,,,,,,,,,,,,,
null,,confidence_buffer,802152,confidence_buffer,,null,,,,,,,,,,,,,,,,,,
985.5999999642372,,probe_rating,803139,probe_rating,,50,,,,2,1,,,,,,,,,,,,,
null,,confidence_buffer,803242,confidence_buffer,,null,,,,,,,,,,,,,,,,,,
1410.5,,pt2_memorable_rating,804655,Fictional_Cities_List/img_natural_03.png,,51,,,3,,,,,,,,,,,,,,,
null,,confidence_buffer,804758,confidence_buffer,,null,,,,,,,,,,,,,,,,,,
1413.5,,recognition_phase,806173,Fictional_Cities_List/img_natural_03.png,,52,,,,,,new,1,0.9285714285714286,,,,,,,,,,
null,,confidence_buffer,806276,confidence_buffer,,null,,,,,,,,,,,,,,,,,,
null,,thebreak,806779,break,,null,,,,,,,,,,,,,,,,,,
3604,,realistic_rating,810387,US_Cities_List/mm_abilene.png,,52,US_Cities_List/mm_abilene.png,MM,4,,,,,,,,,,,,,,,
null,,confidence_buffer,810491,confidence_buffer,,null,,,,,,,,,,,,,,,,,,
1824.5,,pt2_unique_rating,812317,US_Cities_List/mm_abilene.png,,50,,,2,,,,,,,,,,,,,,,
null,,confidence_buffer,812420,confidence_buffer,,null,,,,,,,,,,,,,,,,,,
1368.800000011921,,pt2_memorable_rating,813790,US_Cities_List/mm_abilene.png,,50,,,2,,,,,,,,,,,,,,,
null,,confidence_buffer,813893,confidence_buffer,,null,,,,,,,,,,,,,,,,,,
1333.7999999523163,,recognition_phase,815229,US_Cities_List/mm_abilene.png,,52,,,,,,new,1,0.9302325581395349,,,,,,,,,,
null,,confidence_buffer,815335,confidence_buffer,,null,,,,,,,,,,,,,,,,,,
null,,thebreak,815837,break,,null,,,,,,,,,,,,,,,,,,
1946.8999999761581,,realistic_rating,817785,US_Cities_List/mm_athens.png,,53,US_Cities_List/mm_athens.png,MM,5,,,,,,,,,,,,,,,
null,,confidence_buffer,817889,confidence_buffer,,null,,,,,,,,,,,,,,,,,,
1132.6000000238419,,pt2_unique_rating,819023,US_Cities_List/mm_athens.png,,49,,,1,,,,,,,,,,,,,,,
null,,confidence_buffer,819126,confidence_buffer,,null,,,,,,,,,,,,,,,,,,
425.80000001192093,,pt2_memorable_rating,819554,US_Cities_List/mm_athens.png,,49,,,1,,,,,,,,,,,,,,,
null,,confidence_buffer,819656,confidence_buffer,,null,,,,,,,,,,,,,,,,,,
793.5,,recognition_phase,820451,US_Cities_List/mm_athens.png,,49,,,,,,old,1,0.9318181818181818,,,,,,,,,,
null,,confidence_buffer,820554,confidence_buffer,,null,,,,,,,,,,,,,,,,,,
null,,thebreak,821056,break,,null,,,,,,,,,,,,,,,,,,
7793.100000023842,,realistic_rating,828852,Fictional_Cities_List/img_manmade_12.png,,52,Fictional_Cities_List/img_manmade_12.png,MM,4,,,,,,,,,,,,,,,
null,,confidence_buffer,828954,confidence_buffer,,null,,,,,,,,,,,,,,,,,,
53468.39999997616,,pt2_unique_rating,882425,Fictional_Cities_List/img_manmade_12.png,,50,,,2,,,,,,,,,,,,,,,
null,,confidence_buffer,882527,confidence_buffer,,null,,,,,,,,,,,,,,,,,,
1208.8999999761581,,pt2_memorable_rating,883738,Fictional_Cities_List/img_manmade_12.png,,51,,,3,,,,,,,,,,,,,,,
null,,confidence_buffer,883840,confidence_buffer,,null,,,,,,,,,,,,,,,,,,
1545.1000000238419,,probe_rating,885387,probe_rating,,49,,,,1,1,,,,,,,,,,,,,
null,,confidence_buffer,885500,confidence_buffer,,null,,,,,,,,,,,,,,,,,,
1125.7999999523163,,recognition_phase,886628,Fictional_Cities_List/img_manmade_12.png,,49,,,,,,old,1,0.9333333333333333,,,,,,,,,,
null,,confidence_buffer,886731,confidence_buffer,,null,,,,,,,,,,,,,,,,,,
null,,thebreak,887234,break,,null,,,,,,,,,,,,,,,,,,
3260.800000011921,,realistic_rating,890497,Fictional_Cities_List/img_natural_08.png,,53,Fictional_Cities_List/img_natural_08.png,NAT,5,,,,,,,,,,,,,,,
null,,confidence_buffer,890604,confidence_buffer,,null,,,,,,,,,,,,,,,,,,
1002.6999999880791,,pt2_unique_rating,891609,Fictional_Cities_List/img_natural_08.png,,49,,,1,,,,,,,,,,,,,,,
null,,confidence_buffer,891712,confidence_buffer,,null,,,,,,,,,,,,,,,,,,
687,,pt2_memorable_rating,892401,Fictional_Cities_List/img_natural_08.png,,49,,,1,,,,,,,,,,,,,,,
null,,confidence_buffer,892503,confidence_buffer,,null,,,,,,,,,,,,,,,,,,
1979.800000011921,,recognition_phase,894485,Fictional_Cities_List/img_natural_08.png,,50,,,,,,old,1,0.9347826086956522,,,,,,,,,,
null,,confidence_buffer,894587,confidence_buffer,,null,,,,,,,,,,,,,,,,,,
null,,thebreak,895090,break,,null,,,,,,,,,,,,,,,,,,
2041.3999999761581,,realistic_rating,897133,US_Cities_List/mm_coeurdalene.png,,53,US_Cities_List/mm_coeurdalene.png,MM,5,,,,,,,,,,,,,,,
null,,confidence_buffer,897235,confidence_buffer,,null,,,,,,,,,,,,,,,,,,
1400.2999999523163,,pt2_unique_rating,898638,US_Cities_List/mm_coeurdalene.png,,49,,,1,,,,,,,,,,,,,,,
null,,confidence_buffer,898740,confidence_buffer,,null,,,,,,,,,,,,,,,,,,
480.39999997615814,,pt2_memorable_rating,899222,US_Cities_List/mm_coeurdalene.png,,49,,,1,,,,,,,,,,,,,,,
null,,confidence_buffer,899324,confidence_buffer,,null,,,,,,,,,,,,,,,,,,
1468.699999988079,,recognition_phase,900795,US_Cities_List/mm_coeurdalene.png,,51,,,,,,new,1,0.9361702127659575,,,,,,,,,,
null,,confidence_buffer,900899,confidence_buffer,,null,,,,,,,,,,,,,,,,,,
null,,thebreak,901401,break,,null,,,,,,,,,,,,,,,,,,
2577,,realistic_rating,903981,Fictional_Cities_List/img_manmade_11.png,,52,Fictional_Cities_List/img_manmade_11.png,MM,4,,,,,,,,,,,,,,,
null,,confidence_buffer,904084,confidence_buffer,,null,,,,,,,,,,,,,,,,,,
2066.399999976158,,pt2_unique_rating,906152,Fictional_Cities_List/img_manmade_11.png,,51,,,3,,,,,,,,,,,,,,,
null,,confidence_buffer,906255,confidence_buffer,,null,,,,,,,,,,,,,,,,,,
874.3999999761581,,pt2_memorable_rating,907134,Fictional_Cities_List/img_manmade_11.png,,51,,,3,,,,,,,,,,,,,,,
null,,confidence_buffer,907236,confidence_buffer,,null,,,,,,,,,,,,,,,,,,
1146.5,,recognition_phase,908385,Fictional_Cities_List/img_manmade_11.png,,49,,,,,,old,1,0.9375,,,,,,,,,,
null,,confidence_buffer,908488,confidence_buffer,,null,,,,,,,,,,,,,,,,,,
null,,thebreak,908990,break,,null,,,,,,,,,,,,,,,,,,
2589.599999964237,,realistic_rating,911584,US_Cities_List/mm_delawarecity.png,,52,US_Cities_List/mm_delawarecity.png,MM,4,,,,,,,,,,,,,,,
null,,confidence_buffer,911686,confidence_buffer,,null,,,,,,,,,,,,,,,,,,
2648.600000023842,,pt2_unique_rating,914336,US_Cities_List/mm_delawarecity.png,,49,,,1,,,,,,,,,,,,,,,
null,,confidence_buffer,914439,confidence_buffer,,null,,,,,,,,,,,,,,,,,,
616.1000000238419,,pt2_memorable_rating,915057,US_Cities_List/mm_delawarecity.png,,49,,,1,,,,,,,,,,,,,,,
null,,confidence_buffer,915166,confidence_buffer,,null,,,,,,,,,,,,,,,,,,
802.1999999880791,,recognition_phase,915970,US_Cities_List/mm_delawarecity.png,,49,,,,,,old,1,0.9387755102040817,,,,,,,,,,
null,,confidence_buffer,916073,confidence_buffer,,null,,,,,,,,,,,,,,,,,,
null,,thebreak,916575,break,,null,,,,,,,,,,,,,,,,,,
2144.099999964237,,realistic_rating,918721,Fictional_Cities_List/img_manmade_05.png,,52,Fictional_Cities_List/img_manmade_05.png,MM,4,,,,,,,,,,,,,,,
null,,confidence_buffer,918823,confidence_buffer,,null,,,,,,,,,,,,,,,,,,
1242.699999988079,,pt2_unique_rating,920068,Fictional_Cities_List/img_manmade_05.png,,50,,,2,,,,,,,,,,,,,,,
null,,confidence_buffer,920169,confidence_buffer,,null,,,,,,,,,,,,,,,,,,
1249.3999999761581,,pt2_memorable_rating,921420,Fictional_Cities_List/img_manmade_05.png,,50,,,2,,,,,,,,,,,,,,,
null,,confidence_buffer,921524,confidence_buffer,,null,,,,,,,,,,,,,,,,,,
537.2000000476837,,recognition_phase,922064,Fictional_Cities_List/img_manmade_05.png,,49,,,,,,old,1,0.94,,,,,,,,,,
null,,confidence_buffer,922168,confidence_buffer,,null,,,,,,,,,,,,,,,,,,
null,,thebreak,922670,break,,null,,,,,,,,,,,,,,,,,,
2900.300000011921,,realistic_rating,925573,Fictional_Cities_List/img_natural_15.png,,50,Fictional_Cities_List/img_natural_15.png,NAT,2,,,,,,,,,,,,,,,
null,,confidence_buffer,925676,confidence_buffer,,null,,,,,,,,,,,,,,,,,,
2780.599999964237,,pt2_unique_rating,928458,Fictional_Cities_List/img_natural_15.png,,52,,,4,,,,,,,,,,,,,,,
null,,confidence_buffer,928560,confidence_buffer,,null,,,,,,,,,,,,,,,,,,
1211.699999988079,,pt2_memorable_rating,929773,Fictional_Cities_List/img_natural_15.png,,51,,,3,,,,,,,,,,,,,,,
null,,confidence_buffer,929884,confidence_buffer,,null,,,,,,,,,,,,,,,,,,
1144.6000000238419,,probe_rating,931030,probe_rating,,51,,,,3,1,,,,,,,,,,,,,
null,,confidence_buffer,931136,confidence_buffer,,null,,,,,,,,,,,,,,,,,,
881.3999999761581,,recognition_phase,932019,Fictional_Cities_List/img_natural_15.png,,49,,,,,,old,1,0.9411764705882353,,,,,,,,,,
null,,confidence_buffer,932122,confidence_buffer,,null,,,,,,,,,,,,,,,,,,
null,,thebreak,932627,break,,null,,,,,,,,,,,,,,,,,,
3642.699999988079,,realistic_rating,936272,US_Cities_List/mm_healdsburg.png,,51,US_Cities_List/mm_healdsburg.png,MM,3,,,,,,,,,,,,,,,
null,,confidence_buffer,936375,confidence_buffer,,null,,,,,,,,,,,,,,,,,,
1077.800000011921,,pt2_unique_rating,937454,US_Cities_List/mm_healdsburg.png,,50,,,2,,,,,,,,,,,,,,,
null,,confidence_buffer,937558,confidence_buffer,,null,,,,,,,,,,,,,,,,,,
632.5,,pt2_memorable_rating,938192,US_Cities_List/mm_healdsburg.png,,50,,,2,,,,,,,,,,,,,,,
null,,confidence_buffer,938294,confidence_buffer,,null,,,,,,,,,,,,,,,,,,
1489.6000000238419,,recognition_phase,939786,US_Cities_List/mm_healdsburg.png,,50,,,,,,old,0,0.9230769230769231,,,,,,,,,,
null,,confidence_buffer,939889,confidence_buffer,,null,,,,,,,,,,,,,,,,,,
null,,thebreak,940395,break,,null,,,,,,,,,,,,,,,,,,
2158.300000011921,,realistic_rating,942555,US_Cities_List/nat_delawarecity.png,,53,US_Cities_List/nat_delawarecity.png,NAT,5,,,,,,,,,,,,,,,
null,,confidence_buffer,942658,confidence_buffer,,null,,,,,,,,,,,,,,,,,,
1530.3999999761581,,pt2_unique_rating,944190,US_Cities_List/nat_delawarecity.png,,49,,,1,,,,,,,,,,,,,,,
null,,confidence_buffer,944293,confidence_buffer,,null,,,,,,,,,,,,,,,,,,
480.4000000357628,,pt2_memorable_rating,944775,US_Cities_List/nat_delawarecity.png,,49,,,1,,,,,,,,,,,,,,,
null,,confidence_buffer,944877,confidence_buffer,,null,,,,,,,,,,,,,,,,,,
3702.199999988079,,recognition_phase,948582,US_Cities_List/nat_delawarecity.png,,51,,,,,,new,1,0.9245283018867925,,,,,,,,,,
null,,confidence_buffer,948685,confidence_buffer,,null,,,,,,,,,,,,,,,,,,
null,,thebreak,949188,break,,null,,,,,,,,,,,,,,,,,,
1914.0999999642372,,realistic_rating,951104,Fictional_Cities_List/img_manmade_09.png,,53,Fictional_Cities_List/img_manmade_09.png,MM,5,,,,,,,,,,,,,,,
null,,confidence_buffer,951207,confidence_buffer,,null,,,,,,,,,,,,,,,,,,
3244.199999988079,,pt2_unique_rating,954454,Fictional_Cities_List/img_manmade_09.png,,50,,,2,,,,,,,,,,,,,,,
null,,confidence_buffer,954556,confidence_buffer,,null,,,,,,,,,,,,,,,,,,
3312.600000023842,,pt2_memorable_rating,957870,Fictional_Cities_List/img_manmade_09.png,,49,,,1,,,,,,,,,,,,,,,
null,,confidence_buffer,957975,confidence_buffer,,null,,,,,,,,,,,,,,,,,,
3487.600000023842,,recognition_phase,961464,Fictional_Cities_List/img_manmade_09.png,,50,,,,,,old,0,0.9074074074074074,,,,,,,,,,
null,,confidence_buffer,961570,confidence_buffer,,null,,,,,,,,,,,,,,,,,,
null,,thebreak,962072,break,,null,,,,,,,,,,,,,,,,,,
3051.5,,realistic_rating,965125,US_Cities_List/nat_hilo.png,,51,US_Cities_List/nat_hilo.png,NAT,3,,,,,,,,,,,,,,,
null,,confidence_buffer,965229,confidence_buffer,,null,,,,,,,,,,,,,,,,,,
1359.5,,probe_rating,966590,probe_rating,,49,,,,1,1,,,,,,,,,,,,,
null,,confidence_buffer,966694,confidence_buffer,,null,,,,,,,,,,,,,,,,,,
1531,,pt2_unique_rating,968226,US_Cities_List/nat_hilo.png,,49,,,1,,,,,,,,,,,,,,,
null,,confidence_buffer,968330,confidence_buffer,,null,,,,,,,,,,,,,,,,,,
614.1999999880791,,pt2_memorable_rating,968946,US_Cities_List/nat_hilo.png,,49,,,1,,,,,,,,,,,,,,,
null,,confidence_buffer,969052,confidence_buffer,,null,,,,,,,,,,,,,,,,,,
558.7999999523163,,recognition_phase,969613,US_Cities_List/nat_hilo.png,,49,,,,,,old,1,0.9090909090909091,,,,,,,,,,
null,,confidence_buffer,969719,confidence_buffer,,null,,,,,,,,,,,,,,,,,,
null,,thebreak,970231,break,,null,,,,,,,,,,,,,,,,,,
1829.300000011921,,realistic_rating,972067,US_Cities_List/mm_okoboji.png,,53,US_Cities_List/mm_okoboji.png,MM,5,,,,,,,,,,,,,,,
null,,confidence_buffer,972170,confidence_buffer,,null,,,,,,,,,,,,,,,,,,
3343.600000023842,,pt2_unique_rating,975517,US_Cities_List/mm_okoboji.png,,49,,,1,,,,,,,,,,,,,,,
null,,confidence_buffer,975620,confidence_buffer,,null,,,,,,,,,,,,,,,,,,
526.0999999642372,,pt2_memorable_rating,976148,US_Cities_List/mm_okoboji.png,,49,,,1,,,,,,,,,,,,,,,
null,,confidence_buffer,976253,confidence_buffer,,null,,,,,,,,,,,,,,,,,,
755.3999999761581,,probe_rating,977011,probe_rating,,50,,,,2,1,,,,,,,,,,,,,
null,,confidence_buffer,977114,confidence_buffer,,null,,,,,,,,,,,,,,,,,,
637.6000000238419,,recognition_phase,977754,US_Cities_List/mm_okoboji.png,,49,,,,,,old,1,0.9107142857142857,,,,,,,,,,
null,,confidence_buffer,977857,confidence_buffer,,null,,,,,,,,,,,,,,,,,,
null,,thebreak,978358,break,,null,,,,,,,,,,,,,,,,,,
2420.899999976158,,realistic_rating,980781,Fictional_Cities_List/img_manmade_01.png,,52,Fictional_Cities_List/img_manmade_01.png,MM,4,,,,,,,,,,,,,,,
null,,confidence_buffer,980887,confidence_buffer,,null,,,,,,,,,,,,,,,,,,
1910,,pt2_unique_rating,982801,Fictional_Cities_List/img_manmade_01.png,,49,,,1,,,,,,,,,,,,,,,
null,,confidence_buffer,982904,confidence_buffer,,null,,,,,,,,,,,,,,,,,,
501,,pt2_memorable_rating,983406,Fictional_Cities_List/img_manmade_01.png,,49,,,1,,,,,,,,,,,,,,,
null,,confidence_buffer,983508,confidence_buffer,,null,,,,,,,,,,,,,,,,,,
841.1000000238419,,recognition_phase,984351,Fictional_Cities_List/img_manmade_01.png,,49,,,,,,old,1,0.9122807017543859,,,,,,,,,,
null,,confidence_buffer,984455,confidence_buffer,,null,,,,,,,,,,,,,,,,,,
null,,thebreak,984957,break,,null,,,,,,,,,,,,,,,,,,
4994.200000047684,,realistic_rating,989953,US_Cities_List/nat_westpalmbeach.png,,52,US_Cities_List/nat_westpalmbeach.png,NAT,4,,,,,,,,,,,,,,,
null,,confidence_buffer,990056,confidence_buffer,,null,,,,,,,,,,,,,,,,,,
1500.5999999642372,,pt2_unique_rating,991558,US_Cities_List/nat_westpalmbeach.png,,50,,,2,,,,,,,,,,,,,,,
null,,confidence_buffer,991672,confidence_buffer,,null,,,,,,,,,,,,,,,,,,
963.3000000119209,,pt2_memorable_rating,992637,US_Cities_List/nat_westpalmbeach.png,,50,,,2,,,,,,,,,,,,,,,
null,,confidence_buffer,992740,confidence_buffer,,null,,,,,,,,,,,,,,,,,,
1920.699999988079,,recognition_phase,994662,US_Cities_List/nat_westpalmbeach.png,,52,,,,,,new,1,0.9137931034482759,,,,,,,,,,
null,,confidence_buffer,994764,confidence_buffer,,null,,,,,,,,,,,,,,,,,,
null,,thebreak,995268,break,,null,,,,,,,,,,,,,,,,,,
2119.399999976158,,realistic_rating,997390,Fictional_Cities_List/img_natural_09.png,,53,Fictional_Cities_List/img_natural_09.png,NAT,5,,,,,,,,,,,,,,,
null,,confidence_buffer,997492,confidence_buffer,,null,,,,,,,,,,,,,,,,,,
1460.7000000476837,,pt2_unique_rating,998955,Fictional_Cities_List/img_natural_09.png,,49,,,1,,,,,,,,,,,,,,,
null,,confidence_buffer,999058,confidence_buffer,,null,,,,,,,,,,,,,,,,,,
642.2999999523163,,pt2_memorable_rating,999702,Fictional_Cities_List/img_natural_09.png,,49,,,1,,,,,,,,,,,,,,,
null,,confidence_buffer,999805,confidence_buffer,,null,,,,,,,,,,,,,,,,,,
873.9000000357628,,recognition_phase,1000681,Fictional_Cities_List/img_natural_09.png,,49,,,,,,old,1,0.9152542372881356,,,,,,,,,,
null,,confidence_buffer,1000788,confidence_buffer,,null,,,,,,,,,,,,,,,,,,
null,,thebreak,1001289,break,,null,,,,,,,,,,,,,,,,,,
2552.2999999523163,,realistic_rating,1003843,Fictional_Cities_List/img_natural_11.png,,53,Fictional_Cities_List/img_natural_11.png,NAT,5,,,,,,,,,,,,,,,
null,,confidence_buffer,1003946,confidence_buffer,,null,,,,,,,,,,,,,,,,,,
2169.800000011921,,pt2_unique_rating,1006117,Fictional_Cities_List/img_natural_11.png,,49,,,1,,,,,,,,,,,,,,,
null,,confidence_buffer,1006219,confidence_buffer,,null,,,,,,,,,,,,,,,,,,
1360.699999988079,,probe_rating,1007581,probe_rating,,52,,,,4,1,,,,,,,,,,,,,
null,,confidence_buffer,1007683,confidence_buffer,,null,,,,,,,,,,,,,,,,,,
1152.300000011921,,pt2_memorable_rating,1008837,Fictional_Cities_List/img_natural_11.png,,49,,,1,,,,,,,,,,,,,,,
null,,confidence_buffer,1008940,confidence_buffer,,null,,,,,,,,,,,,,,,,,,
801.5,,recognition_phase,1009743,Fictional_Cities_List/img_natural_11.png,,49,,,,,,old,1,0.9166666666666666,,,,,,,,,,
null,,confidence_buffer,1009846,confidence_buffer,,null,,,,,,,,,,,,,,,,,,
null,,thebreak,1010348,break,,null,,,,,,,,,,,,,,,,,,
,,survey,1171388,survey-questions,,,,,,,,,,,none,high,No, the study had my full attention.,I tried to picture the place in real life and if I would like to be there or not. It helped me remember the images. ,If I had seen or heard of places like the picture.,If I had been to a place similar to the picture.,If I had seen it based on future vacation spots or vacation photos I've seen from others. ,If it could be somewhere that was a common place.,no,All went well, thank you.
