rt,responses,trial_type,time_elapsed,stimulus,button_pressed,key_press,name_trial,city_type,rating,probe,probe_accuracy,response,correct,accuracy,problems,smooth,distraction,strategies,familiar,memorable,unique,realistic,similar,comments
22950.199999999255,{worker_id:67d6e1a36086654c357b5e2e},id_enter,22960,,,,,,,,,,,,,,,,,,,,,
29345,,fullscreen,52497,fullscreen,0,,,,,,,,,,,,,,,,,,,
22098.699999999255,,intro_0,74655,instruct,,32,,,,,,,,,,,,,,,,,,
23135.800000000745,,intro_1,97804,instruct,,32,,,,,,,,,,,,,,,,,,
12764.29999999702,,intro_2,110570,instruct,,32,,,,,,,,,,,,,,,,,,
null,,instruct_dir_4,112074,instruct,,null,,,,,,,,,,,,,,,,,,
null,,thebreak,112578,break,,null,,,,,,,,,,,,,,,,,,
49608.699999999255,,familiar_rating,162190,Fictional_Cities_List/img_manmade_10.png,,50,Fictional_Cities_List/img_manmade_10.png,MM,2,,,,,,,,,,,,,,,
null,,confidence_buffer,162354,confidence_buffer,,null,,,,,,,,,,,,,,,,,,
5889.800000000745,,unique_rating,168247,Fictional_Cities_List/img_manmade_10.png,,50,,,2,,,,,,,,,,,,,,,
null,,confidence_buffer,168351,confidence_buffer,,null,,,,,,,,,,,,,,,,,,
26742.699999999255,,memorable_rating,195096,Fictional_Cities_List/img_manmade_10.png,,52,,,4,,,,,,,,,,,,,,,
null,,confidence_buffer,195200,confidence_buffer,,null,,,,,,,,,,,,,,,,,,
null,,thebreak,195702,break,,null,,,,,,,,,,,,,,,,,,
23044.20000000298,,familiar_rating,218749,US_Cities_List/nat_delawarecity.png,,49,US_Cities_List/nat_delawarecity.png,NAT,1,,,,,,,,,,,,,,,
null,,confidence_buffer,218852,confidence_buffer,,null,,,,,,,,,,,,,,,,,,
14567.199999999255,,unique_rating,233422,US_Cities_List/nat_delawarecity.png,,49,,,1,,,,,,,,,,,,,,,
null,,confidence_buffer,233527,confidence_buffer,,null,,,,,,,,,,,,,,,,,,
7654.599999997765,,memorable_rating,241184,US_Cities_List/nat_delawarecity.png,,49,,,1,,,,,,,,,,,,,,,
null,,confidence_buffer,241288,confidence_buffer,,null,,,,,,,,,,,,,,,,,,
null,,thebreak,241790,break,,null,,,,,,,,,,,,,,,,,,
16029.60000000149,,familiar_rating,257823,Fictional_Cities_List/img_manmade_02.png,,51,Fictional_Cities_List/img_manmade_02.png,MM,3,,,,,,,,,,,,,,,
null,,confidence_buffer,257927,confidence_buffer,,null,,,,,,,,,,,,,,,,,,
4833.10000000149,,unique_rating,262763,Fictional_Cities_List/img_manmade_02.png,,51,,,3,,,,,,,,,,,,,,,
null,,confidence_buffer,262866,confidence_buffer,,null,,,,,,,,,,,,,,,,,,
2275.7000000029802,,memorable_rating,265144,Fictional_Cities_List/img_manmade_02.png,,51,,,3,,,,,,,,,,,,,,,
null,,confidence_buffer,265248,confidence_buffer,,null,,,,,,,,,,,,,,,,,,
null,,thebreak,265751,break,,null,,,,,,,,,,,,,,,,,,
10120.400000002235,,familiar_rating,275874,Fictional_Cities_List/img_natural_15.png,,49,Fictional_Cities_List/img_natural_15.png,NAT,1,,,,,,,,,,,,,,,
null,,confidence_buffer,275978,confidence_buffer,,null,,,,,,,,,,,,,,,,,,
2800.60000000149,,unique_rating,278782,Fictional_Cities_List/img_natural_15.png,,49,,,1,,,,,,,,,,,,,,,
null,,confidence_buffer,278886,confidence_buffer,,null,,,,,,,,,,,,,,,,,,
9614.10000000149,,memorable_rating,288503,Fictional_Cities_List/img_natural_15.png,,50,,,2,,,,,,,,,,,,,,,
null,,confidence_buffer,288607,confidence_buffer,,null,,,,,,,,,,,,,,,,,,
null,,thebreak,289110,break,,null,,,,,,,,,,,,,,,,,,
10164.800000000745,,familiar_rating,299277,US_Cities_List/mm_hilo.png,,51,US_Cities_List/mm_hilo.png,MM,3,,,,,,,,,,,,,,,
null,,confidence_buffer,299382,confidence_buffer,,null,,,,,,,,,,,,,,,,,,
9773,,unique_rating,309158,US_Cities_List/mm_hilo.png,,50,,,2,,,,,,,,,,,,,,,
null,,confidence_buffer,309269,confidence_buffer,,null,,,,,,,,,,,,,,,,,,
9607.400000002235,,memorable_rating,318879,US_Cities_List/mm_hilo.png,,52,,,4,,,,,,,,,,,,,,,
null,,confidence_buffer,318983,confidence_buffer,,null,,,,,,,,,,,,,,,,,,
null,,thebreak,319485,break,,null,,,,,,,,,,,,,,,,,,
9623.699999999255,,familiar_rating,329112,Fictional_Cities_List/img_manmade_07.png,,50,Fictional_Cities_List/img_manmade_07.png,MM,2,,,,,,,,,,,,,,,
null,,confidence_buffer,329216,confidence_buffer,,null,,,,,,,,,,,,,,,,,,
4534.900000002235,,unique_rating,333754,Fictional_Cities_List/img_manmade_07.png,,49,,,1,,,,,,,,,,,,,,,
null,,confidence_buffer,333858,confidence_buffer,,null,,,,,,,,,,,,,,,,,,
20629,,memorable_rating,354489,Fictional_Cities_List/img_manmade_07.png,,51,,,3,,,,,,,,,,,,,,,
null,,confidence_buffer,354593,confidence_buffer,,null,,,,,,,,,,,,,,,,,,
23576.79999999702,,probe_rating,378173,probe_rating,,51,,,,3,1,,,,,,,,,,,,,
null,,confidence_buffer,378286,confidence_buffer,,null,,,,,,,,,,,,,,,,,,
null,,thebreak,378789,break,,null,,,,,,,,,,,,,,,,,,
14645.5,,familiar_rating,393438,US_Cities_List/mm_coeurdalene.png,,50,US_Cities_List/mm_coeurdalene.png,MM,2,,,,,,,,,,,,,,,
null,,confidence_buffer,393542,confidence_buffer,,null,,,,,,,,,,,,,,,,,,
23942,,unique_rating,417487,US_Cities_List/mm_coeurdalene.png,,50,,,2,,,,,,,,,,,,,,,
null,,confidence_buffer,417591,confidence_buffer,,null,,,,,,,,,,,,,,,,,,
4535.5,,memorable_rating,422129,US_Cities_List/mm_coeurdalene.png,,50,,,2,,,,,,,,,,,,,,,
null,,confidence_buffer,422234,confidence_buffer,,null,,,,,,,,,,,,,,,,,,
null,,thebreak,422737,break,,null,,,,,,,,,,,,,,,,,,
10413.60000000149,,familiar_rating,433153,US_Cities_List/mm_cornwall.png,,50,US_Cities_List/mm_cornwall.png,MM,2,,,,,,,,,,,,,,,
null,,confidence_buffer,433257,confidence_buffer,,null,,,,,,,,,,,,,,,,,,
6434.89999999851,,unique_rating,439695,US_Cities_List/mm_cornwall.png,,52,,,4,,,,,,,,,,,,,,,
null,,confidence_buffer,439798,confidence_buffer,,null,,,,,,,,,,,,,,,,,,
2460.39999999851,,memorable_rating,442262,US_Cities_List/mm_cornwall.png,,52,,,4,,,,,,,,,,,,,,,
null,,confidence_buffer,442366,confidence_buffer,,null,,,,,,,,,,,,,,,,,,
4797.900000002235,,probe_rating,447166,probe_rating,,52,,,,4,1,,,,,,,,,,,,,
null,,confidence_buffer,447271,confidence_buffer,,null,,,,,,,,,,,,,,,,,,
null,,thebreak,447780,break,,null,,,,,,,,,,,,,,,,,,
7954.39999999851,,familiar_rating,455737,Fictional_Cities_List/img_natural_06.png,,49,Fictional_Cities_List/img_natural_06.png,NAT,1,,,,,,,,,,,,,,,
null,,confidence_buffer,455841,confidence_buffer,,null,,,,,,,,,,,,,,,,,,
4246.10000000149,,unique_rating,460090,Fictional_Cities_List/img_natural_06.png,,50,,,2,,,,,,,,,,,,,,,
null,,confidence_buffer,460194,confidence_buffer,,null,,,,,,,,,,,,,,,,,,
9236.199999999255,,memorable_rating,469434,Fictional_Cities_List/img_natural_06.png,,49,,,1,,,,,,,,,,,,,,,
null,,confidence_buffer,469537,confidence_buffer,,null,,,,,,,,,,,,,,,,,,
null,,thebreak,470040,break,,null,,,,,,,,,,,,,,,,,,
7957.300000000745,,familiar_rating,478000,Fictional_Cities_List/img_natural_08.png,,49,Fictional_Cities_List/img_natural_08.png,NAT,1,,,,,,,,,,,,,,,
null,,confidence_buffer,478104,confidence_buffer,,null,,,,,,,,,,,,,,,,,,
5822.89999999851,,unique_rating,483930,Fictional_Cities_List/img_natural_08.png,,50,,,2,,,,,,,,,,,,,,,
null,,confidence_buffer,484034,confidence_buffer,,null,,,,,,,,,,,,,,,,,,
5116.300000000745,,memorable_rating,489153,Fictional_Cities_List/img_natural_08.png,,50,,,2,,,,,,,,,,,,,,,
null,,confidence_buffer,489257,confidence_buffer,,null,,,,,,,,,,,,,,,,,,
null,,thebreak,489761,break,,null,,,,,,,,,,,,,,,,,,
6595.199999999255,,familiar_rating,496359,US_Cities_List/nat_athens.png,,49,US_Cities_List/nat_athens.png,NAT,1,,,,,,,,,,,,,,,
null,,confidence_buffer,496463,confidence_buffer,,null,,,,,,,,,,,,,,,,,,
3590.699999999255,,unique_rating,500057,US_Cities_List/nat_athens.png,,49,,,1,,,,,,,,,,,,,,,
null,,confidence_buffer,500161,confidence_buffer,,null,,,,,,,,,,,,,,,,,,
3864.400000002235,,probe_rating,504028,probe_rating,,53,,,,5,1,,,,,,,,,,,,,
null,,confidence_buffer,504132,confidence_buffer,,null,,,,,,,,,,,,,,,,,,
6675,,memorable_rating,510810,US_Cities_List/nat_athens.png,,49,,,1,,,,,,,,,,,,,,,
null,,confidence_buffer,510914,confidence_buffer,,null,,,,,,,,,,,,,,,,,,
null,,thebreak,511418,break,,null,,,,,,,,,,,,,,,,,,
11399.29999999702,,familiar_rating,522820,US_Cities_List/mm_boulder.png,,49,US_Cities_List/mm_boulder.png,MM,1,,,,,,,,,,,,,,,
null,,confidence_buffer,522923,confidence_buffer,,null,,,,,,,,,,,,,,,,,,
7422.39999999851,,unique_rating,530349,US_Cities_List/mm_boulder.png,,53,,,5,,,,,,,,,,,,,,,
null,,confidence_buffer,530452,confidence_buffer,,null,,,,,,,,,,,,,,,,,,
3441.10000000149,,memorable_rating,533896,US_Cities_List/mm_boulder.png,,52,,,4,,,,,,,,,,,,,,,
null,,confidence_buffer,534000,confidence_buffer,,null,,,,,,,,,,,,,,,,,,
null,,thebreak,534503,break,,null,,,,,,,,,,,,,,,,,,
5413,,familiar_rating,539918,Fictional_Cities_List/img_natural_04.png,,49,Fictional_Cities_List/img_natural_04.png,NAT,1,,,,,,,,,,,,,,,
null,,confidence_buffer,540022,confidence_buffer,,null,,,,,,,,,,,,,,,,,,
8020.900000002235,,unique_rating,548046,Fictional_Cities_List/img_natural_04.png,,49,,,1,,,,,,,,,,,,,,,
null,,confidence_buffer,548149,confidence_buffer,,null,,,,,,,,,,,,,,,,,,
5843.10000000149,,memorable_rating,553995,Fictional_Cities_List/img_natural_04.png,,49,,,1,,,,,,,,,,,,,,,
null,,confidence_buffer,554099,confidence_buffer,,null,,,,,,,,,,,,,,,,,,
null,,thebreak,554602,break,,null,,,,,,,,,,,,,,,,,,
5877,,familiar_rating,560482,Fictional_Cities_List/img_natural_11.png,,49,Fictional_Cities_List/img_natural_11.png,NAT,1,,,,,,,,,,,,,,,
null,,confidence_buffer,560585,confidence_buffer,,null,,,,,,,,,,,,,,,,,,
6155.599999997765,,unique_rating,566743,Fictional_Cities_List/img_natural_11.png,,51,,,3,,,,,,,,,,,,,,,
null,,confidence_buffer,566847,confidence_buffer,,null,,,,,,,,,,,,,,,,,,
5691.39999999851,,memorable_rating,572541,Fictional_Cities_List/img_natural_11.png,,52,,,4,,,,,,,,,,,,,,,
null,,confidence_buffer,572644,confidence_buffer,,null,,,,,,,,,,,,,,,,,,
null,,thebreak,573147,break,,null,,,,,,,,,,,,,,,,,,
4445,,familiar_rating,577595,US_Cities_List/mm_healdsburg.png,,49,US_Cities_List/mm_healdsburg.png,MM,1,,,,,,,,,,,,,,,
null,,confidence_buffer,577698,confidence_buffer,,null,,,,,,,,,,,,,,,,,,
8102,,unique_rating,585803,US_Cities_List/mm_healdsburg.png,,50,,,2,,,,,,,,,,,,,,,
null,,confidence_buffer,585906,confidence_buffer,,null,,,,,,,,,,,,,,,,,,
3243.5,,memorable_rating,589152,US_Cities_List/mm_healdsburg.png,,51,,,3,,,,,,,,,,,,,,,
null,,confidence_buffer,589255,confidence_buffer,,null,,,,,,,,,,,,,,,,,,
null,,thebreak,589758,break,,null,,,,,,,,,,,,,,,,,,
4752.400000002235,,familiar_rating,594513,US_Cities_List/nat_cornwall.png,,49,US_Cities_List/nat_cornwall.png,NAT,1,,,,,,,,,,,,,,,
null,,confidence_buffer,594616,confidence_buffer,,null,,,,,,,,,,,,,,,,,,
6335.60000000149,,unique_rating,600954,US_Cities_List/nat_cornwall.png,,49,,,1,,,,,,,,,,,,,,,
null,,confidence_buffer,601058,confidence_buffer,,null,,,,,,,,,,,,,,,,,,
2352.300000000745,,memorable_rating,603413,US_Cities_List/nat_cornwall.png,,49,,,1,,,,,,,,,,,,,,,
null,,confidence_buffer,603517,confidence_buffer,,null,,,,,,,,,,,,,,,,,,
null,,thebreak,604019,break,,null,,,,,,,,,,,,,,,,,,
15137,,familiar_rating,619159,Fictional_Cities_List/img_natural_09.png,,52,Fictional_Cities_List/img_natural_09.png,NAT,4,,,,,,,,,,,,,,,
null,,confidence_buffer,619264,confidence_buffer,,null,,,,,,,,,,,,,,,,,,
4478.5,,unique_rating,623745,Fictional_Cities_List/img_natural_09.png,,52,,,4,,,,,,,,,,,,,,,
null,,confidence_buffer,623849,confidence_buffer,,null,,,,,,,,,,,,,,,,,,
5769.400000002235,,memorable_rating,629621,Fictional_Cities_List/img_natural_09.png,,53,,,5,,,,,,,,,,,,,,,
null,,confidence_buffer,629726,confidence_buffer,,null,,,,,,,,,,,,,,,,,,
null,,thebreak,630228,break,,null,,,,,,,,,,,,,,,,,,
5353,,familiar_rating,635584,US_Cities_List/nat_abilene.png,,50,US_Cities_List/nat_abilene.png,NAT,2,,,,,,,,,,,,,,,
null,,confidence_buffer,635688,confidence_buffer,,null,,,,,,,,,,,,,,,,,,
7262.5,,unique_rating,642953,US_Cities_List/nat_abilene.png,,51,,,3,,,,,,,,,,,,,,,
null,,confidence_buffer,643056,confidence_buffer,,null,,,,,,,,,,,,,,,,,,
6470,,memorable_rating,649529,US_Cities_List/nat_abilene.png,,51,,,3,,,,,,,,,,,,,,,
null,,confidence_buffer,649632,confidence_buffer,,null,,,,,,,,,,,,,,,,,,
null,,thebreak,650135,break,,null,,,,,,,,,,,,,,,,,,
5858.89999999851,,familiar_rating,655996,US_Cities_List/nat_boulder.png,,50,US_Cities_List/nat_boulder.png,NAT,2,,,,,,,,,,,,,,,
null,,confidence_buffer,656099,confidence_buffer,,null,,,,,,,,,,,,,,,,,,
1960.1000000014901,,unique_rating,658062,US_Cities_List/nat_boulder.png,,50,,,2,,,,,,,,,,,,,,,
null,,confidence_buffer,658167,confidence_buffer,,null,,,,,,,,,,,,,,,,,,
2165.5,,memorable_rating,660336,US_Cities_List/nat_boulder.png,,51,,,3,,,,,,,,,,,,,,,
null,,confidence_buffer,660439,confidence_buffer,,null,,,,,,,,,,,,,,,,,,
null,,thebreak,660941,break,,null,,,,,,,,,,,,,,,,,,
2952.5,,familiar_rating,663897,US_Cities_List/mm_carmel.png,,49,US_Cities_List/mm_carmel.png,MM,1,,,,,,,,,,,,,,,
null,,confidence_buffer,664001,confidence_buffer,,null,,,,,,,,,,,,,,,,,,
2326.89999999851,,unique_rating,666330,US_Cities_List/mm_carmel.png,,49,,,1,,,,,,,,,,,,,,,
null,,confidence_buffer,666434,confidence_buffer,,null,,,,,,,,,,,,,,,,,,
3897.39999999851,,probe_rating,670334,probe_rating,,51,,,,3,1,,,,,,,,,,,,,
null,,confidence_buffer,670438,confidence_buffer,,null,,,,,,,,,,,,,,,,,,
10224,,memorable_rating,680665,US_Cities_List/mm_carmel.png,,50,,,2,,,,,,,,,,,,,,,
null,,confidence_buffer,680769,confidence_buffer,,null,,,,,,,,,,,,,,,,,,
null,,thebreak,681272,break,,null,,,,,,,,,,,,,,,,,,
4304.300000000745,,familiar_rating,685579,Fictional_Cities_List/img_manmade_01.png,,49,Fictional_Cities_List/img_manmade_01.png,MM,1,,,,,,,,,,,,,,,
null,,confidence_buffer,685682,confidence_buffer,,null,,,,,,,,,,,,,,,,,,
4478.39999999851,,unique_rating,690163,Fictional_Cities_List/img_manmade_01.png,,52,,,4,,,,,,,,,,,,,,,
null,,confidence_buffer,690267,confidence_buffer,,null,,,,,,,,,,,,,,,,,,
5422.599999997765,,memorable_rating,695692,Fictional_Cities_List/img_manmade_01.png,,53,,,5,,,,,,,,,,,,,,,
null,,confidence_buffer,695795,confidence_buffer,,null,,,,,,,,,,,,,,,,,,
null,,thebreak,696298,break,,null,,,,,,,,,,,,,,,,,,
8745.599999997765,,familiar_rating,705046,US_Cities_List/mm_bisbee.png,,49,US_Cities_List/mm_bisbee.png,MM,1,,,,,,,,,,,,,,,
null,,confidence_buffer,705150,confidence_buffer,,null,,,,,,,,,,,,,,,,,,
3288.10000000149,,unique_rating,708442,US_Cities_List/mm_bisbee.png,,50,,,2,,,,,,,,,,,,,,,
null,,confidence_buffer,708545,confidence_buffer,,null,,,,,,,,,,,,,,,,,,
7540.400000002235,,memorable_rating,716089,US_Cities_List/mm_bisbee.png,,50,,,2,,,,,,,,,,,,,,,
null,,confidence_buffer,716198,confidence_buffer,,null,,,,,,,,,,,,,,,,,,
null,,thebreak,716701,break,,null,,,,,,,,,,,,,,,,,,
4983.699999999255,,familiar_rating,721687,US_Cities_List/nat_sitka.png,,51,US_Cities_List/nat_sitka.png,NAT,3,,,,,,,,,,,,,,,
null,,confidence_buffer,721805,confidence_buffer,,null,,,,,,,,,,,,,,,,,,
7041.5,,unique_rating,728849,US_Cities_List/nat_sitka.png,,50,,,2,,,,,,,,,,,,,,,
null,,confidence_buffer,728952,confidence_buffer,,null,,,,,,,,,,,,,,,,,,
6525.5,,memorable_rating,735480,US_Cities_List/nat_sitka.png,,50,,,2,,,,,,,,,,,,,,,
null,,confidence_buffer,735584,confidence_buffer,,null,,,,,,,,,,,,,,,,,,
null,,thebreak,736087,break,,null,,,,,,,,,,,,,,,,,,
7492.800000000745,,familiar_rating,743582,Fictional_Cities_List/img_natural_02.png,,49,Fictional_Cities_List/img_natural_02.png,NAT,1,,,,,,,,,,,,,,,
null,,confidence_buffer,743686,confidence_buffer,,null,,,,,,,,,,,,,,,,,,
3266.699999999255,,unique_rating,746955,Fictional_Cities_List/img_natural_02.png,,49,,,1,,,,,,,,,,,,,,,
null,,confidence_buffer,747073,confidence_buffer,,null,,,,,,,,,,,,,,,,,,
8464,,memorable_rating,755540,Fictional_Cities_List/img_natural_02.png,,50,,,2,,,,,,,,,,,,,,,
null,,confidence_buffer,755643,confidence_buffer,,null,,,,,,,,,,,,,,,,,,
null,,thebreak,756152,break,,null,,,,,,,,,,,,,,,,,,
4335.79999999702,,familiar_rating,760491,US_Cities_List/mm_sitka.png,,49,US_Cities_List/mm_sitka.png,MM,1,,,,,,,,,,,,,,,
null,,confidence_buffer,760595,confidence_buffer,,null,,,,,,,,,,,,,,,,,,
1257.300000000745,,unique_rating,761855,US_Cities_List/mm_sitka.png,,49,,,1,,,,,,,,,,,,,,,
null,,confidence_buffer,761961,confidence_buffer,,null,,,,,,,,,,,,,,,,,,
7740.60000000149,,memorable_rating,769706,US_Cities_List/mm_sitka.png,,50,,,2,,,,,,,,,,,,,,,
null,,confidence_buffer,769810,confidence_buffer,,null,,,,,,,,,,,,,,,,,,
null,,thebreak,770314,break,,null,,,,,,,,,,,,,,,,,,
5511.5,,familiar_rating,775828,Fictional_Cities_List/img_natural_05.png,,49,Fictional_Cities_List/img_natural_05.png,NAT,1,,,,,,,,,,,,,,,
null,,confidence_buffer,775931,confidence_buffer,,null,,,,,,,,,,,,,,,,,,
6606.699999999255,,unique_rating,782541,Fictional_Cities_List/img_natural_05.png,,53,,,5,,,,,,,,,,,,,,,
null,,confidence_buffer,782645,confidence_buffer,,null,,,,,,,,,,,,,,,,,,
4033.800000000745,,memorable_rating,786682,Fictional_Cities_List/img_natural_05.png,,52,,,4,,,,,,,,,,,,,,,
null,,confidence_buffer,786786,confidence_buffer,,null,,,,,,,,,,,,,,,,,,
null,,thebreak,787289,break,,null,,,,,,,,,,,,,,,,,,
11185.10000000149,,familiar_rating,798477,Fictional_Cities_List/img_manmade_03.png,,53,Fictional_Cities_List/img_manmade_03.png,MM,5,,,,,,,,,,,,,,,
null,,confidence_buffer,798582,confidence_buffer,,null,,,,,,,,,,,,,,,,,,
5961.199999999255,,unique_rating,804546,Fictional_Cities_List/img_manmade_03.png,,53,,,5,,,,,,,,,,,,,,,
null,,confidence_buffer,804650,confidence_buffer,,null,,,,,,,,,,,,,,,,,,
2668.099999997765,,memorable_rating,807322,Fictional_Cities_List/img_manmade_03.png,,52,,,4,,,,,,,,,,,,,,,
null,,confidence_buffer,807428,confidence_buffer,,null,,,,,,,,,,,,,,,,,,
null,,thebreak,807930,break,,null,,,,,,,,,,,,,,,,,,
8586.099999997765,,familiar_rating,816520,US_Cities_List/nat_carmel.png,,49,US_Cities_List/nat_carmel.png,NAT,1,,,,,,,,,,,,,,,
null,,confidence_buffer,816624,confidence_buffer,,null,,,,,,,,,,,,,,,,,,
3299.5,,unique_rating,819927,US_Cities_List/nat_carmel.png,,49,,,1,,,,,,,,,,,,,,,
null,,confidence_buffer,820032,confidence_buffer,,null,,,,,,,,,,,,,,,,,,
3616,,memorable_rating,823652,US_Cities_List/nat_carmel.png,,49,,,1,,,,,,,,,,,,,,,
null,,confidence_buffer,823756,confidence_buffer,,null,,,,,,,,,,,,,,,,,,
null,,thebreak,824259,break,,null,,,,,,,,,,,,,,,,,,
5330.89999999851,,familiar_rating,829593,Fictional_Cities_List/img_manmade_08.png,,49,Fictional_Cities_List/img_manmade_08.png,MM,1,,,,,,,,,,,,,,,
null,,confidence_buffer,829697,confidence_buffer,,null,,,,,,,,,,,,,,,,,,
5087.39999999851,,unique_rating,834788,Fictional_Cities_List/img_manmade_08.png,,51,,,3,,,,,,,,,,,,,,,
null,,confidence_buffer,834893,confidence_buffer,,null,,,,,,,,,,,,,,,,,,
6180.199999999255,,memorable_rating,841076,Fictional_Cities_List/img_manmade_08.png,,51,,,3,,,,,,,,,,,,,,,
null,,confidence_buffer,841180,confidence_buffer,,null,,,,,,,,,,,,,,,,,,
null,,thebreak,841685,break,,null,,,,,,,,,,,,,,,,,,
18672.099999997765,,familiar_rating,860360,Fictional_Cities_List/img_manmade_15.png,,49,Fictional_Cities_List/img_manmade_15.png,MM,1,,,,,,,,,,,,,,,
null,,confidence_buffer,860464,confidence_buffer,,null,,,,,,,,,,,,,,,,,,
6518.89999999851,,unique_rating,866986,Fictional_Cities_List/img_manmade_15.png,,51,,,3,,,,,,,,,,,,,,,
null,,confidence_buffer,867089,confidence_buffer,,null,,,,,,,,,,,,,,,,,,
5815.900000002235,,memorable_rating,872908,Fictional_Cities_List/img_manmade_15.png,,51,,,3,,,,,,,,,,,,,,,
null,,confidence_buffer,873016,confidence_buffer,,null,,,,,,,,,,,,,,,,,,
null,,thebreak,873519,break,,null,,,,,,,,,,,,,,,,,,
13933.199999999255,,intro_0,887454,instruct,,32,,,,,,,,,,,,,,,,,,
13584.60000000149,,intro_1,901040,instruct,,32,,,,,,,,,,,,,,,,,,
36340.099999997765,,intro_2,937383,instruct,,32,,,,,,,,,,,,,,,,,,
null,,instruct_dir_4,938886,instruct,,null,,,,,,,,,,,,,,,,,,
30986.800000000745,,realistic_rating,969876,US_Cities_List/mm_cornwall.png,,53,US_Cities_List/mm_cornwall.png,MM,5,,,,,,,,,,,,,,,
null,,confidence_buffer,969982,confidence_buffer,,null,,,,,,,,,,,,,,,,,,
10347.5,,pt2_unique_rating,980333,US_Cities_List/mm_cornwall.png,,52,,,4,,,,,,,,,,,,,,,
null,,confidence_buffer,980438,confidence_buffer,,null,,,,,,,,,,,,,,,,,,
5591.5,,pt2_memorable_rating,986034,US_Cities_List/mm_cornwall.png,,52,,,4,,,,,,,,,,,,,,,
null,,confidence_buffer,986143,confidence_buffer,,null,,,,,,,,,,,,,,,,,,
7166.89999999851,,recognition_phase,993314,US_Cities_List/mm_cornwall.png,,49,,,,,,old,1,1,,,,,,,,,,
null,,confidence_buffer,993418,confidence_buffer,,null,,,,,,,,,,,,,,,,,,
null,,thebreak,993922,break,,null,,,,,,,,,,,,,,,,,,
19873,,realistic_rating,1013798,Fictional_Cities_List/img_natural_14.png,,50,Fictional_Cities_List/img_natural_14.png,NAT,2,,,,,,,,,,,,,,,
null,,confidence_buffer,1013903,confidence_buffer,,null,,,,,,,,,,,,,,,,,,
9766.39999999851,,pt2_unique_rating,1023672,Fictional_Cities_List/img_natural_14.png,,50,,,2,,,,,,,,,,,,,,,
null,,confidence_buffer,1023775,confidence_buffer,,null,,,,,,,,,,,,,,,,,,
5645.800000000745,,pt2_memorable_rating,1029426,Fictional_Cities_List/img_natural_14.png,,51,,,3,,,,,,,,,,,,,,,
null,,confidence_buffer,1029530,confidence_buffer,,null,,,,,,,,,,,,,,,,,,
5337,,probe_rating,1034870,probe_rating,,49,,,,1,1,,,,,,,,,,,,,
null,,confidence_buffer,1034974,confidence_buffer,,null,,,,,,,,,,,,,,,,,,
7779.099999997765,,recognition_phase,1042756,Fictional_Cities_List/img_natural_14.png,,52,,,,,,new,1,1,,,,,,,,,,
null,,confidence_buffer,1042860,confidence_buffer,,null,,,,,,,,,,,,,,,,,,
null,,thebreak,1043364,break,,null,,,,,,,,,,,,,,,,,,
8046.5,,realistic_rating,1051415,US_Cities_List/nat_abilene.png,,52,US_Cities_List/nat_abilene.png,NAT,4,,,,,,,,,,,,,,,
null,,confidence_buffer,1051518,confidence_buffer,,null,,,,,,,,,,,,,,,,,,
19508.10000000149,,pt2_unique_rating,1071029,US_Cities_List/nat_abilene.png,,50,,,2,,,,,,,,,,,,,,,
null,,confidence_buffer,1071134,confidence_buffer,,null,,,,,,,,,,,,,,,,,,
1385.8999999985099,,pt2_memorable_rating,1072523,US_Cities_List/nat_abilene.png,,50,,,2,,,,,,,,,,,,,,,
null,,confidence_buffer,1072626,confidence_buffer,,null,,,,,,,,,,,,,,,,,,
3583.2000000029802,,recognition_phase,1076212,US_Cities_List/nat_abilene.png,,49,,,,,,old,1,1,,,,,,,,,,
null,,confidence_buffer,1076320,confidence_buffer,,null,,,,,,,,,,,,,,,,,,
null,,thebreak,1076824,break,,null,,,,,,,,,,,,,,,,,,
6400.900000002235,,realistic_rating,1083229,US_Cities_List/nat_peoria.png,,51,US_Cities_List/nat_peoria.png,NAT,3,,,,,,,,,,,,,,,
null,,confidence_buffer,1083334,confidence_buffer,,null,,,,,,,,,,,,,,,,,,
1799.2000000029802,,pt2_unique_rating,1085138,US_Cities_List/nat_peoria.png,,51,,,3,,,,,,,,,,,,,,,
null,,confidence_buffer,1085248,confidence_buffer,,null,,,,,,,,,,,,,,,,,,
1785.0999999977648,,pt2_memorable_rating,1087038,US_Cities_List/nat_peoria.png,,51,,,3,,,,,,,,,,,,,,,
null,,confidence_buffer,1087143,confidence_buffer,,null,,,,,,,,,,,,,,,,,,
7245.39999999851,,recognition_phase,1094393,US_Cities_List/nat_peoria.png,,51,,,,,,new,1,1,,,,,,,,,,
null,,confidence_buffer,1094498,confidence_buffer,,null,,,,,,,,,,,,,,,,,,
null,,thebreak,1095001,break,,null,,,,,,,,,,,,,,,,,,
7067.800000000745,,realistic_rating,1102073,Fictional_Cities_List/img_natural_11.png,,50,Fictional_Cities_List/img_natural_11.png,NAT,2,,,,,,,,,,,,,,,
null,,confidence_buffer,1102176,confidence_buffer,,null,,,,,,,,,,,,,,,,,,
1142.6000000014901,,pt2_unique_rating,1103322,Fictional_Cities_List/img_natural_11.png,,50,,,2,,,,,,,,,,,,,,,
null,,confidence_buffer,1103426,confidence_buffer,,null,,,,,,,,,,,,,,,,,,
1177.300000000745,,pt2_memorable_rating,1104607,Fictional_Cities_List/img_natural_11.png,,50,,,2,,,,,,,,,,,,,,,
null,,confidence_buffer,1104718,confidence_buffer,,null,,,,,,,,,,,,,,,,,,
3017.900000002235,,recognition_phase,1107738,Fictional_Cities_List/img_natural_11.png,,50,,,,,,old,1,1,,,,,,,,,,
null,,confidence_buffer,1107843,confidence_buffer,,null,,,,,,,,,,,,,,,,,,
null,,thebreak,1108347,break,,null,,,,,,,,,,,,,,,,,,
4985.10000000149,,realistic_rating,1113336,Fictional_Cities_List/img_natural_12.png,,49,Fictional_Cities_List/img_natural_12.png,NAT,1,,,,,,,,,,,,,,,
null,,confidence_buffer,1113440,confidence_buffer,,null,,,,,,,,,,,,,,,,,,
12254.699999999255,,pt2_unique_rating,1125697,Fictional_Cities_List/img_natural_12.png,,50,,,2,,,,,,,,,,,,,,,
null,,confidence_buffer,1125801,confidence_buffer,,null,,,,,,,,,,,,,,,,,,
3428.10000000149,,pt2_memorable_rating,1129232,Fictional_Cities_List/img_natural_12.png,,50,,,2,,,,,,,,,,,,,,,
null,,confidence_buffer,1129336,confidence_buffer,,null,,,,,,,,,,,,,,,,,,
4325.5,,recognition_phase,1133665,Fictional_Cities_List/img_natural_12.png,,51,,,,,,new,1,1,,,,,,,,,,
null,,confidence_buffer,1133768,confidence_buffer,,null,,,,,,,,,,,,,,,,,,
null,,thebreak,1134272,break,,null,,,,,,,,,,,,,,,,,,
8586.300000000745,,realistic_rating,1142861,US_Cities_List/mm_hotsprings.png,,52,US_Cities_List/mm_hotsprings.png,MM,4,,,,,,,,,,,,,,,
null,,confidence_buffer,1142968,confidence_buffer,,null,,,,,,,,,,,,,,,,,,
9138.800000000745,,pt2_unique_rating,1152111,US_Cities_List/mm_hotsprings.png,,51,,,3,,,,,,,,,,,,,,,
null,,confidence_buffer,1152215,confidence_buffer,,null,,,,,,,,,,,,,,,,,,
1335.7000000029802,,pt2_memorable_rating,1153553,US_Cities_List/mm_hotsprings.png,,51,,,3,,,,,,,,,,,,,,,
null,,confidence_buffer,1153657,confidence_buffer,,null,,,,,,,,,,,,,,,,,,
4631.400000002235,,recognition_phase,1158292,US_Cities_List/mm_hotsprings.png,,51,,,,,,new,1,1,,,,,,,,,,
null,,confidence_buffer,1158396,confidence_buffer,,null,,,,,,,,,,,,,,,,,,
null,,thebreak,1158900,break,,null,,,,,,,,,,,,,,,,,,
14694.900000002235,,realistic_rating,1173598,US_Cities_List/mm_athens.png,,53,US_Cities_List/mm_athens.png,MM,5,,,,,,,,,,,,,,,
null,,confidence_buffer,1173702,confidence_buffer,,null,,,,,,,,,,,,,,,,,,
8999.199999999255,,pt2_unique_rating,1182704,US_Cities_List/mm_athens.png,,51,,,3,,,,,,,,,,,,,,,
null,,confidence_buffer,1182809,confidence_buffer,,null,,,,,,,,,,,,,,,,,,
3613.699999999255,,probe_rating,1186427,probe_rating,,52,,,,4,1,,,,,,,,,,,,,
null,,confidence_buffer,1186532,confidence_buffer,,null,,,,,,,,,,,,,,,,,,
9501,,pt2_memorable_rating,1196037,US_Cities_List/mm_athens.png,,52,,,4,,,,,,,,,,,,,,,
null,,confidence_buffer,1196155,confidence_buffer,,null,,,,,,,,,,,,,,,,,,
4371,,recognition_phase,1200529,US_Cities_List/mm_athens.png,,51,,,,,,new,1,1,,,,,,,,,,
null,,confidence_buffer,1200633,confidence_buffer,,null,,,,,,,,,,,,,,,,,,
null,,thebreak,1201136,break,,null,,,,,,,,,,,,,,,,,,
11956.599999997765,,realistic_rating,1213096,Fictional_Cities_List/img_manmade_01.png,,53,Fictional_Cities_List/img_manmade_01.png,MM,5,,,,,,,,,,,,,,,
null,,confidence_buffer,1213201,confidence_buffer,,null,,,,,,,,,,,,,,,,,,
2476.5,,pt2_unique_rating,1215682,Fictional_Cities_List/img_manmade_01.png,,53,,,5,,,,,,,,,,,,,,,
null,,confidence_buffer,1215787,confidence_buffer,,null,,,,,,,,,,,,,,,,,,
3185.300000000745,,pt2_memorable_rating,1218976,Fictional_Cities_List/img_manmade_01.png,,53,,,5,,,,,,,,,,,,,,,
null,,confidence_buffer,1219079,confidence_buffer,,null,,,,,,,,,,,,,,,,,,
2773.300000000745,,recognition_phase,1221855,Fictional_Cities_List/img_manmade_01.png,,49,,,,,,old,1,1,,,,,,,,,,
null,,confidence_buffer,1221959,confidence_buffer,,null,,,,,,,,,,,,,,,,,,
null,,thebreak,1222462,break,,null,,,,,,,,,,,,,,,,,,
9795,,realistic_rating,1232260,Fictional_Cities_List/img_manmade_14.png,,52,Fictional_Cities_List/img_manmade_14.png,MM,4,,,,,,,,,,,,,,,
null,,confidence_buffer,1232363,confidence_buffer,,null,,,,,,,,,,,,,,,,,,
4457,,pt2_unique_rating,1236823,Fictional_Cities_List/img_manmade_14.png,,52,,,4,,,,,,,,,,,,,,,
null,,confidence_buffer,1236928,confidence_buffer,,null,,,,,,,,,,,,,,,,,,
9393.199999999255,,pt2_memorable_rating,1246325,Fictional_Cities_List/img_manmade_14.png,,53,,,5,,,,,,,,,,,,,,,
null,,confidence_buffer,1246430,confidence_buffer,,null,,,,,,,,,,,,,,,,,,
9852.29999999702,,recognition_phase,1256285,Fictional_Cities_List/img_manmade_14.png,,51,,,,,,new,1,1,,,,,,,,,,
null,,confidence_buffer,1256389,confidence_buffer,,null,,,,,,,,,,,,,,,,,,
null,,thebreak,1256893,break,,null,,,,,,,,,,,,,,,,,,
9915.89999999851,,realistic_rating,1266811,US_Cities_List/nat_boulder.png,,52,US_Cities_List/nat_boulder.png,NAT,4,,,,,,,,,,,,,,,
null,,confidence_buffer,1266914,confidence_buffer,,null,,,,,,,,,,,,,,,,,,
4390.10000000149,,pt2_unique_rating,1271307,US_Cities_List/nat_boulder.png,,49,,,1,,,,,,,,,,,,,,,
null,,confidence_buffer,1271411,confidence_buffer,,null,,,,,,,,,,,,,,,,,,
4539.60000000149,,pt2_memorable_rating,1275954,US_Cities_List/nat_boulder.png,,49,,,1,,,,,,,,,,,,,,,
null,,confidence_buffer,1276058,confidence_buffer,,null,,,,,,,,,,,,,,,,,,
3627.300000000745,,recognition_phase,1279688,US_Cities_List/nat_boulder.png,,49,,,,,,old,1,1,,,,,,,,,,
null,,confidence_buffer,1279793,confidence_buffer,,null,,,,,,,,,,,,,,,,,,
null,,thebreak,1280295,break,,null,,,,,,,,,,,,,,,,,,
12785.60000000149,,realistic_rating,1293083,Fictional_Cities_List/img_manmade_13.png,,50,Fictional_Cities_List/img_manmade_13.png,MM,2,,,,,,,,,,,,,,,
null,,confidence_buffer,1293187,confidence_buffer,,null,,,,,,,,,,,,,,,,,,
5752.900000002235,,pt2_unique_rating,1298944,Fictional_Cities_List/img_manmade_13.png,,50,,,2,,,,,,,,,,,,,,,
null,,confidence_buffer,1299048,confidence_buffer,,null,,,,,,,,,,,,,,,,,,
8469.20000000298,,pt2_memorable_rating,1307521,Fictional_Cities_List/img_manmade_13.png,,51,,,3,,,,,,,,,,,,,,,
null,,confidence_buffer,1307626,confidence_buffer,,null,,,,,,,,,,,,,,,,,,
7059.39999999851,,recognition_phase,1314690,Fictional_Cities_List/img_manmade_13.png,,52,,,,,,new,1,1,,,,,,,,,,
null,,confidence_buffer,1314796,confidence_buffer,,null,,,,,,,,,,,,,,,,,,
null,,thebreak,1315299,break,,null,,,,,,,,,,,,,,,,,,
6037.400000002235,,realistic_rating,1321341,US_Cities_List/nat_hotsprings.png,,49,US_Cities_List/nat_hotsprings.png,NAT,1,,,,,,,,,,,,,,,
null,,confidence_buffer,1321451,confidence_buffer,,null,,,,,,,,,,,,,,,,,,
5363.5,,pt2_unique_rating,1326818,US_Cities_List/nat_hotsprings.png,,49,,,1,,,,,,,,,,,,,,,
null,,confidence_buffer,1326923,confidence_buffer,,null,,,,,,,,,,,,,,,,,,
1571.1000000014901,,pt2_memorable_rating,1328498,US_Cities_List/nat_hotsprings.png,,49,,,1,,,,,,,,,,,,,,,
null,,confidence_buffer,1328604,confidence_buffer,,null,,,,,,,,,,,,,,,,,,
4167.800000000745,,recognition_phase,1332776,US_Cities_List/nat_hotsprings.png,,51,,,,,,new,1,1,,,,,,,,,,
null,,confidence_buffer,1332881,confidence_buffer,,null,,,,,,,,,,,,,,,,,,
null,,thebreak,1333384,break,,null,,,,,,,,,,,,,,,,,,
12245.29999999702,,realistic_rating,1345635,Fictional_Cities_List/img_natural_08.png,,51,Fictional_Cities_List/img_natural_08.png,NAT,3,,,,,,,,,,,,,,,
null,,confidence_buffer,1345740,confidence_buffer,,null,,,,,,,,,,,,,,,,,,
2358.699999999255,,pt2_unique_rating,1348102,Fictional_Cities_List/img_natural_08.png,,51,,,3,,,,,,,,,,,,,,,
null,,confidence_buffer,1348207,confidence_buffer,,null,,,,,,,,,,,,,,,,,,
1128.800000000745,,pt2_memorable_rating,1349341,Fictional_Cities_List/img_natural_08.png,,51,,,3,,,,,,,,,,,,,,,
null,,confidence_buffer,1349446,confidence_buffer,,null,,,,,,,,,,,,,,,,,,
3895.2000000029802,,recognition_phase,1353345,Fictional_Cities_List/img_natural_08.png,,50,,,,,,old,1,1,,,,,,,,,,
null,,confidence_buffer,1353449,confidence_buffer,,null,,,,,,,,,,,,,,,,,,
null,,thebreak,1353951,break,,null,,,,,,,,,,,,,,,,,,
8874.5,,realistic_rating,1362829,Fictional_Cities_List/img_natural_06.png,,50,Fictional_Cities_List/img_natural_06.png,NAT,2,,,,,,,,,,,,,,,
null,,confidence_buffer,1362932,confidence_buffer,,null,,,,,,,,,,,,,,,,,,
2499.800000000745,,pt2_unique_rating,1365435,Fictional_Cities_List/img_natural_06.png,,50,,,2,,,,,,,,,,,,,,,
null,,confidence_buffer,1365541,confidence_buffer,,null,,,,,,,,,,,,,,,,,,
1324.9000000022352,,pt2_memorable_rating,1366870,Fictional_Cities_List/img_natural_06.png,,50,,,2,,,,,,,,,,,,,,,
null,,confidence_buffer,1366976,confidence_buffer,,null,,,,,,,,,,,,,,,,,,
2997.599999997765,,recognition_phase,1369978,Fictional_Cities_List/img_natural_06.png,,50,,,,,,old,1,1,,,,,,,,,,
null,,confidence_buffer,1370082,confidence_buffer,,null,,,,,,,,,,,,,,,,,,
null,,thebreak,1370585,break,,null,,,,,,,,,,,,,,,,,,
8175.699999999255,,realistic_rating,1378764,Fictional_Cities_List/img_natural_07.png,,51,Fictional_Cities_List/img_natural_07.png,NAT,3,,,,,,,,,,,,,,,
null,,confidence_buffer,1378867,confidence_buffer,,null,,,,,,,,,,,,,,,,,,
1422.300000000745,,pt2_unique_rating,1380292,Fictional_Cities_List/img_natural_07.png,,51,,,3,,,,,,,,,,,,,,,
null,,confidence_buffer,1380395,confidence_buffer,,null,,,,,,,,,,,,,,,,,,
2101.199999999255,,pt2_memorable_rating,1382499,Fictional_Cities_List/img_natural_07.png,,51,,,3,,,,,,,,,,,,,,,
null,,confidence_buffer,1382603,confidence_buffer,,null,,,,,,,,,,,,,,,,,,
8642.20000000298,,recognition_phase,1391248,Fictional_Cities_List/img_natural_07.png,,51,,,,,,new,1,1,,,,,,,,,,
null,,confidence_buffer,1391352,confidence_buffer,,null,,,,,,,,,,,,,,,,,,
null,,thebreak,1391856,break,,null,,,,,,,,,,,,,,,,,,
21780.60000000149,,realistic_rating,1413640,Fictional_Cities_List/img_natural_05.png,,50,Fictional_Cities_List/img_natural_05.png,NAT,2,,,,,,,,,,,,,,,
null,,confidence_buffer,1413744,confidence_buffer,,null,,,,,,,,,,,,,,,,,,
6580.89999999851,,pt2_unique_rating,1420329,Fictional_Cities_List/img_natural_05.png,,52,,,4,,,,,,,,,,,,,,,
null,,confidence_buffer,1420432,confidence_buffer,,null,,,,,,,,,,,,,,,,,,
7097.300000000745,,pt2_memorable_rating,1427532,Fictional_Cities_List/img_natural_05.png,,52,,,4,,,,,,,,,,,,,,,
null,,confidence_buffer,1427636,confidence_buffer,,null,,,,,,,,,,,,,,,,,,
2873.699999999255,,recognition_phase,1430512,Fictional_Cities_List/img_natural_05.png,,49,,,,,,old,1,1,,,,,,,,,,
null,,confidence_buffer,1430617,confidence_buffer,,null,,,,,,,,,,,,,,,,,,
null,,thebreak,1431121,break,,null,,,,,,,,,,,,,,,,,,
5894.5,,realistic_rating,1437019,US_Cities_List/nat_bisbee.png,,50,US_Cities_List/nat_bisbee.png,NAT,2,,,,,,,,,,,,,,,
null,,confidence_buffer,1437123,confidence_buffer,,null,,,,,,,,,,,,,,,,,,
1800.7000000029802,,pt2_unique_rating,1438927,US_Cities_List/nat_bisbee.png,,50,,,2,,,,,,,,,,,,,,,
null,,confidence_buffer,1439031,confidence_buffer,,null,,,,,,,,,,,,,,,,,,
1139.300000000745,,pt2_memorable_rating,1440173,US_Cities_List/nat_bisbee.png,,50,,,2,,,,,,,,,,,,,,,
null,,confidence_buffer,1440278,confidence_buffer,,null,,,,,,,,,,,,,,,,,,
7507.900000002235,,recognition_phase,1447788,US_Cities_List/nat_bisbee.png,,52,,,,,,new,1,1,,,,,,,,,,
null,,confidence_buffer,1447892,confidence_buffer,,null,,,,,,,,,,,,,,,,,,
null,,thebreak,1448394,break,,null,,,,,,,,,,,,,,,,,,
12471.70000000298,,realistic_rating,1460869,Fictional_Cities_List/img_manmade_08.png,,49,Fictional_Cities_List/img_manmade_08.png,MM,1,,,,,,,,,,,,,,,
null,,confidence_buffer,1460972,confidence_buffer,,null,,,,,,,,,,,,,,,,,,
24369.699999999255,,pt2_unique_rating,1485344,Fictional_Cities_List/img_manmade_08.png,,50,,,2,,,,,,,,,,,,,,,
null,,confidence_buffer,1485447,confidence_buffer,,null,,,,,,,,,,,,,,,,,,
1714.5,,pt2_memorable_rating,1487165,Fictional_Cities_List/img_manmade_08.png,,50,,,2,,,,,,,,,,,,,,,
null,,confidence_buffer,1487268,confidence_buffer,,null,,,,,,,,,,,,,,,,,,
6147,,recognition_phase,1493418,Fictional_Cities_List/img_manmade_08.png,,49,,,,,,old,1,1,,,,,,,,,,
null,,confidence_buffer,1493522,confidence_buffer,,null,,,,,,,,,,,,,,,,,,
null,,thebreak,1494025,break,,null,,,,,,,,,,,,,,,,,,
12415.39999999851,,realistic_rating,1506444,US_Cities_List/nat_hilo.png,,49,US_Cities_List/nat_hilo.png,NAT,1,,,,,,,,,,,,,,,
null,,confidence_buffer,1506550,confidence_buffer,,null,,,,,,,,,,,,,,,,,,
7446.300000000745,,pt2_unique_rating,1514000,US_Cities_List/nat_hilo.png,,50,,,2,,,,,,,,,,,,,,,
null,,confidence_buffer,1514103,confidence_buffer,,null,,,,,,,,,,,,,,,,,,
5295.5,,pt2_memorable_rating,1519401,US_Cities_List/nat_hilo.png,,52,,,4,,,,,,,,,,,,,,,
null,,confidence_buffer,1519505,confidence_buffer,,null,,,,,,,,,,,,,,,,,,
3868.300000000745,,recognition_phase,1523378,US_Cities_List/nat_hilo.png,,52,,,,,,new,1,1,,,,,,,,,,
null,,confidence_buffer,1523483,confidence_buffer,,null,,,,,,,,,,,,,,,,,,
null,,thebreak,1523986,break,,null,,,,,,,,,,,,,,,,,,
28976,,realistic_rating,1552965,US_Cities_List/mm_sitka.png,,53,US_Cities_List/mm_sitka.png,MM,5,,,,,,,,,,,,,,,
null,,confidence_buffer,1553070,confidence_buffer,,null,,,,,,,,,,,,,,,,,,
3884.300000000745,,pt2_unique_rating,1556957,US_Cities_List/mm_sitka.png,,49,,,1,,,,,,,,,,,,,,,
null,,confidence_buffer,1557070,confidence_buffer,,null,,,,,,,,,,,,,,,,,,
5704.5,,pt2_memorable_rating,1562777,US_Cities_List/mm_sitka.png,,50,,,2,,,,,,,,,,,,,,,
null,,confidence_buffer,1562882,confidence_buffer,,null,,,,,,,,,,,,,,,,,,
7676.699999999255,,recognition_phase,1570562,US_Cities_List/mm_sitka.png,,49,,,,,,old,1,1,,,,,,,,,,
null,,confidence_buffer,1570666,confidence_buffer,,null,,,,,,,,,,,,,,,,,,
null,,thebreak,1571169,break,,null,,,,,,,,,,,,,,,,,,
33508.5,,realistic_rating,1604681,US_Cities_List/mm_westpalmbeach.png,,49,US_Cities_List/mm_westpalmbeach.png,MM,1,,,,,,,,,,,,,,,
null,,confidence_buffer,1604786,confidence_buffer,,null,,,,,,,,,,,,,,,,,,
26974.800000000745,,pt2_unique_rating,1631764,US_Cities_List/mm_westpalmbeach.png,,52,,,4,,,,,,,,,,,,,,,
null,,confidence_buffer,1631867,confidence_buffer,,null,,,,,,,,,,,,,,,,,,
1957.9000000022352,,pt2_memorable_rating,1633828,US_Cities_List/mm_westpalmbeach.png,,52,,,4,,,,,,,,,,,,,,,
null,,confidence_buffer,1633935,confidence_buffer,,null,,,,,,,,,,,,,,,,,,
29704.699999999255,,recognition_phase,1663643,US_Cities_List/mm_westpalmbeach.png,,51,,,,,,new,1,1,,,,,,,,,,
null,,confidence_buffer,1663746,confidence_buffer,,null,,,,,,,,,,,,,,,,,,
null,,thebreak,1664250,break,,null,,,,,,,,,,,,,,,,,,
6679.10000000149,,realistic_rating,1670932,US_Cities_List/mm_okoboji.png,,52,US_Cities_List/mm_okoboji.png,MM,4,,,,,,,,,,,,,,,
null,,confidence_buffer,1671036,confidence_buffer,,null,,,,,,,,,,,,,,,,,,
2618.60000000149,,pt2_unique_rating,1673658,US_Cities_List/mm_okoboji.png,,52,,,4,,,,,,,,,,,,,,,
null,,confidence_buffer,1673762,confidence_buffer,,null,,,,,,,,,,,,,,,,,,
1478.5,,pt2_memorable_rating,1675244,US_Cities_List/mm_okoboji.png,,52,,,4,,,,,,,,,,,,,,,
null,,confidence_buffer,1675348,confidence_buffer,,null,,,,,,,,,,,,,,,,,,
6026.599999997765,,recognition_phase,1681378,US_Cities_List/mm_okoboji.png,,52,,,,,,new,1,1,,,,,,,,,,
null,,confidence_buffer,1681481,confidence_buffer,,null,,,,,,,,,,,,,,,,,,
null,,thebreak,1681985,break,,null,,,,,,,,,,,,,,,,,,
6187.5,,realistic_rating,1688176,Fictional_Cities_List/img_manmade_15.png,,49,Fictional_Cities_List/img_manmade_15.png,MM,1,,,,,,,,,,,,,,,
null,,confidence_buffer,1688288,confidence_buffer,,null,,,,,,,,,,,,,,,,,,
1978.199999999255,,pt2_unique_rating,1690270,Fictional_Cities_List/img_manmade_15.png,,49,,,1,,,,,,,,,,,,,,,
null,,confidence_buffer,1690375,confidence_buffer,,null,,,,,,,,,,,,,,,,,,
9463.5,,probe_rating,1699842,probe_rating,,49,,,,1,1,,,,,,,,,,,,,
null,,confidence_buffer,1699948,confidence_buffer,,null,,,,,,,,,,,,,,,,,,
5458.20000000298,,pt2_memorable_rating,1705409,Fictional_Cities_List/img_manmade_15.png,,50,,,2,,,,,,,,,,,,,,,
null,,confidence_buffer,1705514,confidence_buffer,,null,,,,,,,,,,,,,,,,,,
3831.60000000149,,recognition_phase,1709349,Fictional_Cities_List/img_manmade_15.png,,49,,,,,,old,1,1,,,,,,,,,,
null,,confidence_buffer,1709453,confidence_buffer,,null,,,,,,,,,,,,,,,,,,
null,,thebreak,1709956,break,,null,,,,,,,,,,,,,,,,,,
17576.5,,realistic_rating,1727536,Fictional_Cities_List/img_natural_09.png,,50,Fictional_Cities_List/img_natural_09.png,NAT,2,,,,,,,,,,,,,,,
null,,confidence_buffer,1727641,confidence_buffer,,null,,,,,,,,,,,,,,,,,,
7085.099999997765,,pt2_unique_rating,1734731,Fictional_Cities_List/img_natural_09.png,,52,,,4,,,,,,,,,,,,,,,
null,,confidence_buffer,1734837,confidence_buffer,,null,,,,,,,,,,,,,,,,,,
3667.900000002235,,pt2_memorable_rating,1738509,Fictional_Cities_List/img_natural_09.png,,52,,,4,,,,,,,,,,,,,,,
null,,confidence_buffer,1738614,confidence_buffer,,null,,,,,,,,,,,,,,,,,,
1957.6000000014901,,recognition_phase,1740577,Fictional_Cities_List/img_natural_09.png,,49,,,,,,old,1,1,,,,,,,,,,
null,,confidence_buffer,1740685,confidence_buffer,,null,,,,,,,,,,,,,,,,,,
null,,thebreak,1741190,break,,null,,,,,,,,,,,,,,,,,,
5502.400000002235,,realistic_rating,1746697,Fictional_Cities_List/img_natural_13.png,,49,Fictional_Cities_List/img_natural_13.png,NAT,1,,,,,,,,,,,,,,,
null,,confidence_buffer,1746803,confidence_buffer,,null,,,,,,,,,,,,,,,,,,
3598.10000000149,,pt2_unique_rating,1750404,Fictional_Cities_List/img_natural_13.png,,49,,,1,,,,,,,,,,,,,,,
null,,confidence_buffer,1750518,confidence_buffer,,null,,,,,,,,,,,,,,,,,,
3289.60000000149,,pt2_memorable_rating,1753811,Fictional_Cities_List/img_natural_13.png,,49,,,1,,,,,,,,,,,,,,,
null,,confidence_buffer,1753915,confidence_buffer,,null,,,,,,,,,,,,,,,,,,
6148.099999997765,,recognition_phase,1760067,Fictional_Cities_List/img_natural_13.png,,52,,,,,,new,1,1,,,,,,,,,,
null,,confidence_buffer,1760171,confidence_buffer,,null,,,,,,,,,,,,,,,,,,
null,,thebreak,1760674,break,,null,,,,,,,,,,,,,,,,,,
6369.099999997765,,realistic_rating,1767046,US_Cities_List/mm_hilo.png,,51,US_Cities_List/mm_hilo.png,MM,3,,,,,,,,,,,,,,,
null,,confidence_buffer,1767150,confidence_buffer,,null,,,,,,,,,,,,,,,,,,
12947.39999999851,,pt2_unique_rating,1780100,US_Cities_List/mm_hilo.png,,51,,,3,,,,,,,,,,,,,,,
null,,confidence_buffer,1780205,confidence_buffer,,null,,,,,,,,,,,,,,,,,,
10610.79999999702,,pt2_memorable_rating,1790819,US_Cities_List/mm_hilo.png,,51,,,3,,,,,,,,,,,,,,,
null,,confidence_buffer,1790922,confidence_buffer,,null,,,,,,,,,,,,,,,,,,
3037.5,,recognition_phase,1793963,US_Cities_List/mm_hilo.png,,49,,,,,,old,1,1,,,,,,,,,,
null,,confidence_buffer,1794066,confidence_buffer,,null,,,,,,,,,,,,,,,,,,
null,,thebreak,1794569,break,,null,,,,,,,,,,,,,,,,,,
6725.300000000745,,realistic_rating,1801299,US_Cities_List/nat_coeurdalene.png,,50,US_Cities_List/nat_coeurdalene.png,NAT,2,,,,,,,,,,,,,,,
null,,confidence_buffer,1801402,confidence_buffer,,null,,,,,,,,,,,,,,,,,,
14689.900000002235,,pt2_unique_rating,1816094,US_Cities_List/nat_coeurdalene.png,,50,,,2,,,,,,,,,,,,,,,
null,,confidence_buffer,1816198,confidence_buffer,,null,,,,,,,,,,,,,,,,,,
7614.900000002235,,pt2_memorable_rating,1823816,US_Cities_List/nat_coeurdalene.png,,49,,,1,,,,,,,,,,,,,,,
null,,confidence_buffer,1823920,confidence_buffer,,null,,,,,,,,,,,,,,,,,,
3915.400000002235,,recognition_phase,1827838,US_Cities_List/nat_coeurdalene.png,,51,,,,,,new,1,1,,,,,,,,,,
null,,confidence_buffer,1827942,confidence_buffer,,null,,,,,,,,,,,,,,,,,,
null,,thebreak,1828446,break,,null,,,,,,,,,,,,,,,,,,
9717.60000000149,,realistic_rating,1838166,US_Cities_List/mm_abilene.png,,49,US_Cities_List/mm_abilene.png,MM,1,,,,,,,,,,,,,,,
null,,confidence_buffer,1838271,confidence_buffer,,null,,,,,,,,,,,,,,,,,,
11611.099999997765,,pt2_unique_rating,1849885,US_Cities_List/mm_abilene.png,,50,,,2,,,,,,,,,,,,,,,
null,,confidence_buffer,1849988,confidence_buffer,,null,,,,,,,,,,,,,,,,,,
2349.60000000149,,pt2_memorable_rating,1852341,US_Cities_List/mm_abilene.png,,50,,,2,,,,,,,,,,,,,,,
null,,confidence_buffer,1852451,confidence_buffer,,null,,,,,,,,,,,,,,,,,,
3194.699999999255,,recognition_phase,1855649,US_Cities_List/mm_abilene.png,,51,,,,,,new,1,1,,,,,,,,,,
null,,confidence_buffer,1855753,confidence_buffer,,null,,,,,,,,,,,,,,,,,,
null,,thebreak,1856257,break,,null,,,,,,,,,,,,,,,,,,
3982.400000002235,,realistic_rating,1860243,Fictional_Cities_List/img_natural_10.png,,49,Fictional_Cities_List/img_natural_10.png,NAT,1,,,,,,,,,,,,,,,
null,,confidence_buffer,1860348,confidence_buffer,,null,,,,,,,,,,,,,,,,,,
1443.7000000029802,,pt2_unique_rating,1861794,Fictional_Cities_List/img_natural_10.png,,49,,,1,,,,,,,,,,,,,,,
null,,confidence_buffer,1861898,confidence_buffer,,null,,,,,,,,,,,,,,,,,,
5428.800000000745,,pt2_memorable_rating,1867330,Fictional_Cities_List/img_natural_10.png,,50,,,2,,,,,,,,,,,,,,,
null,,confidence_buffer,1867437,confidence_buffer,,null,,,,,,,,,,,,,,,,,,
3839.7000000029802,,probe_rating,1871282,probe_rating,,49,,,,1,1,,,,,,,,,,,,,
null,,confidence_buffer,1871387,confidence_buffer,,null,,,,,,,,,,,,,,,,,,
8670.89999999851,,recognition_phase,1880061,Fictional_Cities_List/img_natural_10.png,,52,,,,,,new,1,1,,,,,,,,,,
null,,confidence_buffer,1880167,confidence_buffer,,null,,,,,,,,,,,,,,,,,,
null,,thebreak,1880670,break,,null,,,,,,,,,,,,,,,,,,
114614.80000000075,,realistic_rating,1995288,US_Cities_List/nat_cornwall.png,,49,US_Cities_List/nat_cornwall.png,NAT,1,,,,,,,,,,,,,,,
null,,confidence_buffer,1995392,confidence_buffer,,null,,,,,,,,,,,,,,,,,,
3539.7999999970198,,pt2_unique_rating,1998936,US_Cities_List/nat_cornwall.png,,49,,,1,,,,,,,,,,,,,,,
null,,confidence_buffer,1999041,confidence_buffer,,null,,,,,,,,,,,,,,,,,,
5797.400000002235,,pt2_memorable_rating,2004841,US_Cities_List/nat_cornwall.png,,50,,,2,,,,,,,,,,,,,,,
null,,confidence_buffer,2004945,confidence_buffer,,null,,,,,,,,,,,,,,,,,,
2501.099999997765,,recognition_phase,2007450,US_Cities_List/nat_cornwall.png,,50,,,,,,old,1,1,,,,,,,,,,
null,,confidence_buffer,2007555,confidence_buffer,,null,,,,,,,,,,,,,,,,,,
null,,thebreak,2008058,break,,null,,,,,,,,,,,,,,,,,,
7056,,realistic_rating,2015117,US_Cities_List/nat_athens.png,,51,US_Cities_List/nat_athens.png,NAT,3,,,,,,,,,,,,,,,
null,,confidence_buffer,2015221,confidence_buffer,,null,,,,,,,,,,,,,,,,,,
1564,,pt2_unique_rating,2016789,US_Cities_List/nat_athens.png,,51,,,3,,,,,,,,,,,,,,,
null,,confidence_buffer,2016903,confidence_buffer,,null,,,,,,,,,,,,,,,,,,
7272.800000000745,,probe_rating,2024179,probe_rating,,53,,,,5,1,,,,,,,,,,,,,
null,,confidence_buffer,2024284,confidence_buffer,,null,,,,,,,,,,,,,,,,,,
18195,,pt2_memorable_rating,2042483,US_Cities_List/nat_athens.png,,51,,,3,,,,,,,,,,,,,,,
null,,confidence_buffer,2042587,confidence_buffer,,null,,,,,,,,,,,,,,,,,,
4782.099999997765,,recognition_phase,2047373,US_Cities_List/nat_athens.png,,49,,,,,,old,1,1,,,,,,,,,,
null,,confidence_buffer,2047478,confidence_buffer,,null,,,,,,,,,,,,,,,,,,
null,,thebreak,2047982,break,,null,,,,,,,,,,,,,,,,,,
12204.300000000745,,realistic_rating,2060191,US_Cities_List/mm_bisbee.png,,53,US_Cities_List/mm_bisbee.png,MM,5,,,,,,,,,,,,,,,
null,,confidence_buffer,2060294,confidence_buffer,,null,,,,,,,,,,,,,,,,,,
52624.800000000745,,pt2_unique_rating,2112922,US_Cities_List/mm_bisbee.png,,52,,,4,,,,,,,,,,,,,,,
null,,confidence_buffer,2113025,confidence_buffer,,null,,,,,,,,,,,,,,,,,,
51341.800000000745,,pt2_memorable_rating,2164370,US_Cities_List/mm_bisbee.png,,51,,,3,,,,,,,,,,,,,,,
null,,confidence_buffer,2164474,confidence_buffer,,null,,,,,,,,,,,,,,,,,,
2701.10000000149,,recognition_phase,2167178,US_Cities_List/mm_bisbee.png,,49,,,,,,old,1,1,,,,,,,,,,
null,,confidence_buffer,2167284,confidence_buffer,,null,,,,,,,,,,,,,,,,,,
null,,thebreak,2167788,break,,null,,,,,,,,,,,,,,,,,,
4898.300000000745,,realistic_rating,2172691,US_Cities_List/mm_healdsburg.png,,53,US_Cities_List/mm_healdsburg.png,MM,5,,,,,,,,,,,,,,,
null,,confidence_buffer,2172795,confidence_buffer,,null,,,,,,,,,,,,,,,,,,
3452.60000000149,,pt2_unique_rating,2176251,US_Cities_List/mm_healdsburg.png,,52,,,4,,,,,,,,,,,,,,,
null,,confidence_buffer,2176356,confidence_buffer,,null,,,,,,,,,,,,,,,,,,
4473.20000000298,,pt2_memorable_rating,2180832,US_Cities_List/mm_healdsburg.png,,52,,,4,,,,,,,,,,,,,,,
null,,confidence_buffer,2180938,confidence_buffer,,null,,,,,,,,,,,,,,,,,,
3060.199999999255,,recognition_phase,2184003,US_Cities_List/mm_healdsburg.png,,49,,,,,,old,1,1,,,,,,,,,,
null,,confidence_buffer,2184108,confidence_buffer,,null,,,,,,,,,,,,,,,,,,
null,,thebreak,2184611,break,,null,,,,,,,,,,,,,,,,,,
5887.800000000745,,realistic_rating,2190501,Fictional_Cities_List/img_manmade_07.png,,53,Fictional_Cities_List/img_manmade_07.png,MM,5,,,,,,,,,,,,,,,
null,,confidence_buffer,2190606,confidence_buffer,,null,,,,,,,,,,,,,,,,,,
4740.599999997765,,pt2_unique_rating,2195350,Fictional_Cities_List/img_manmade_07.png,,52,,,4,,,,,,,,,,,,,,,
null,,confidence_buffer,2195453,confidence_buffer,,null,,,,,,,,,,,,,,,,,,
3881.199999999255,,probe_rating,2199338,probe_rating,,52,,,,4,1,,,,,,,,,,,,,
null,,confidence_buffer,2199441,confidence_buffer,,null,,,,,,,,,,,,,,,,,,
6825.39999999851,,pt2_memorable_rating,2206269,Fictional_Cities_List/img_manmade_07.png,,51,,,3,,,,,,,,,,,,,,,
null,,confidence_buffer,2206374,confidence_buffer,,null,,,,,,,,,,,,,,,,,,
14222.300000000745,,recognition_phase,2220600,Fictional_Cities_List/img_manmade_07.png,,49,,,,,,old,1,1,,,,,,,,,,
null,,confidence_buffer,2220705,confidence_buffer,,null,,,,,,,,,,,,,,,,,,
null,,thebreak,2221221,break,,null,,,,,,,,,,,,,,,,,,
11363.699999999255,,realistic_rating,2232588,Fictional_Cities_List/img_manmade_02.png,,52,Fictional_Cities_List/img_manmade_02.png,MM,4,,,,,,,,,,,,,,,
null,,confidence_buffer,2232693,confidence_buffer,,null,,,,,,,,,,,,,,,,,,
8272.400000002235,,pt2_unique_rating,2240968,Fictional_Cities_List/img_manmade_02.png,,50,,,2,,,,,,,,,,,,,,,
null,,confidence_buffer,2241072,confidence_buffer,,null,,,,,,,,,,,,,,,,,,
1315.699999999255,,pt2_memorable_rating,2242391,Fictional_Cities_List/img_manmade_02.png,,50,,,2,,,,,,,,,,,,,,,
null,,confidence_buffer,2242494,confidence_buffer,,null,,,,,,,,,,,,,,,,,,
2814.39999999851,,recognition_phase,2245312,Fictional_Cities_List/img_manmade_02.png,,49,,,,,,old,1,1,,,,,,,,,,
null,,confidence_buffer,2245417,confidence_buffer,,null,,,,,,,,,,,,,,,,,,
null,,thebreak,2245921,break,,null,,,,,,,,,,,,,,,,,,
10012.60000000149,,realistic_rating,2255937,Fictional_Cities_List/img_natural_15.png,,49,Fictional_Cities_List/img_natural_15.png,NAT,1,,,,,,,,,,,,,,,
null,,confidence_buffer,2256042,confidence_buffer,,null,,,,,,,,,,,,,,,,,,
6675.599999997765,,pt2_unique_rating,2262720,Fictional_Cities_List/img_natural_15.png,,50,,,2,,,,,,,,,,,,,,,
null,,confidence_buffer,2262825,confidence_buffer,,null,,,,,,,,,,,,,,,,,,
3750.7000000029802,,probe_rating,2266579,probe_rating,,49,,,,1,1,,,,,,,,,,,,,
null,,confidence_buffer,2266683,confidence_buffer,,null,,,,,,,,,,,,,,,,,,
5976.800000000745,,pt2_memorable_rating,2272663,Fictional_Cities_List/img_natural_15.png,,51,,,3,,,,,,,,,,,,,,,
null,,confidence_buffer,2272767,confidence_buffer,,null,,,,,,,,,,,,,,,,,,
4417.199999999255,,recognition_phase,2277188,Fictional_Cities_List/img_natural_15.png,,49,,,,,,old,1,1,,,,,,,,,,
null,,confidence_buffer,2277296,confidence_buffer,,null,,,,,,,,,,,,,,,,,,
null,,thebreak,2277799,break,,null,,,,,,,,,,,,,,,,,,
10241.800000000745,,realistic_rating,2288043,Fictional_Cities_List/img_manmade_09.png,,53,Fictional_Cities_List/img_manmade_09.png,MM,5,,,,,,,,,,,,,,,
null,,confidence_buffer,2288148,confidence_buffer,,null,,,,,,,,,,,,,,,,,,
3294.199999999255,,pt2_unique_rating,2291445,Fictional_Cities_List/img_manmade_09.png,,52,,,4,,,,,,,,,,,,,,,
null,,confidence_buffer,2291549,confidence_buffer,,null,,,,,,,,,,,,,,,,,,
7613.199999999255,,pt2_memorable_rating,2299166,Fictional_Cities_List/img_manmade_09.png,,51,,,3,,,,,,,,,,,,,,,
null,,confidence_buffer,2299272,confidence_buffer,,null,,,,,,,,,,,,,,,,,,
3481.199999999255,,recognition_phase,2302757,Fictional_Cities_List/img_manmade_09.png,,49,,,,,,old,0,0.9736842105263158,,,,,,,,,,
null,,confidence_buffer,2302861,confidence_buffer,,null,,,,,,,,,,,,,,,,,,
null,,thebreak,2303364,break,,null,,,,,,,,,,,,,,,,,,
6227.199999999255,,realistic_rating,2309594,US_Cities_List/mm_carmel.png,,52,US_Cities_List/mm_carmel.png,MM,4,,,,,,,,,,,,,,,
null,,confidence_buffer,2309699,confidence_buffer,,null,,,,,,,,,,,,,,,,,,
4149.70000000298,,pt2_unique_rating,2313852,US_Cities_List/mm_carmel.png,,51,,,3,,,,,,,,,,,,,,,
null,,confidence_buffer,2313957,confidence_buffer,,null,,,,,,,,,,,,,,,,,,
1558.300000000745,,pt2_memorable_rating,2315519,US_Cities_List/mm_carmel.png,,51,,,3,,,,,,,,,,,,,,,
null,,confidence_buffer,2315624,confidence_buffer,,null,,,,,,,,,,,,,,,,,,
3987.7999999970198,,recognition_phase,2319616,US_Cities_List/mm_carmel.png,,51,,,,,,new,0,0.9487179487179487,,,,,,,,,,
null,,confidence_buffer,2319720,confidence_buffer,,null,,,,,,,,,,,,,,,,,,
null,,thebreak,2320222,break,,null,,,,,,,,,,,,,,,,,,
5229.60000000149,,realistic_rating,2325455,US_Cities_List/nat_healdsburg.png,,51,US_Cities_List/nat_healdsburg.png,NAT,3,,,,,,,,,,,,,,,
null,,confidence_buffer,2325558,confidence_buffer,,null,,,,,,,,,,,,,,,,,,
1569.300000000745,,pt2_unique_rating,2327131,US_Cities_List/nat_healdsburg.png,,51,,,3,,,,,,,,,,,,,,,
null,,confidence_buffer,2327235,confidence_buffer,,null,,,,,,,,,,,,,,,,,,
1078.2999999970198,,pt2_memorable_rating,2328316,US_Cities_List/nat_healdsburg.png,,51,,,3,,,,,,,,,,,,,,,
null,,confidence_buffer,2328423,confidence_buffer,,null,,,,,,,,,,,,,,,,,,
4108.5,,recognition_phase,2332534,US_Cities_List/nat_healdsburg.png,,51,,,,,,new,1,0.95,,,,,,,,,,
null,,confidence_buffer,2332638,confidence_buffer,,null,,,,,,,,,,,,,,,,,,
null,,thebreak,2333141,break,,null,,,,,,,,,,,,,,,,,,
7450.39999999851,,realistic_rating,2340594,US_Cities_List/nat_sitka.png,,50,US_Cities_List/nat_sitka.png,NAT,2,,,,,,,,,,,,,,,
null,,confidence_buffer,2340699,confidence_buffer,,null,,,,,,,,,,,,,,,,,,
2809,,pt2_unique_rating,2343511,US_Cities_List/nat_sitka.png,,50,,,2,,,,,,,,,,,,,,,
null,,confidence_buffer,2343614,confidence_buffer,,null,,,,,,,,,,,,,,,,,,
1490,,pt2_memorable_rating,2345108,US_Cities_List/nat_sitka.png,,50,,,2,,,,,,,,,,,,,,,
null,,confidence_buffer,2345213,confidence_buffer,,null,,,,,,,,,,,,,,,,,,
6870.599999997765,,recognition_phase,2352087,US_Cities_List/nat_sitka.png,,49,,,,,,old,1,0.9512195121951219,,,,,,,,,,
null,,confidence_buffer,2352196,confidence_buffer,,null,,,,,,,,,,,,,,,,,,
null,,thebreak,2352699,break,,null,,,,,,,,,,,,,,,,,,
10975.400000002235,,realistic_rating,2363677,US_Cities_List/mm_boulder.png,,53,US_Cities_List/mm_boulder.png,MM,5,,,,,,,,,,,,,,,
null,,confidence_buffer,2363781,confidence_buffer,,null,,,,,,,,,,,,,,,,,,
13572.300000000745,,pt2_unique_rating,2377356,US_Cities_List/mm_boulder.png,,52,,,4,,,,,,,,,,,,,,,
null,,confidence_buffer,2377459,confidence_buffer,,null,,,,,,,,,,,,,,,,,,
6117.60000000149,,pt2_memorable_rating,2383580,US_Cities_List/mm_boulder.png,,52,,,4,,,,,,,,,,,,,,,
null,,confidence_buffer,2383683,confidence_buffer,,null,,,,,,,,,,,,,,,,,,
2624.60000000149,,recognition_phase,2386311,US_Cities_List/mm_boulder.png,,49,,,,,,old,1,0.9523809523809523,,,,,,,,,,
null,,confidence_buffer,2386416,confidence_buffer,,null,,,,,,,,,,,,,,,,,,
null,,thebreak,2386919,break,,null,,,,,,,,,,,,,,,,,,
4641.60000000149,,realistic_rating,2391563,Fictional_Cities_List/img_manmade_03.png,,52,Fictional_Cities_List/img_manmade_03.png,MM,4,,,,,,,,,,,,,,,
null,,confidence_buffer,2391667,confidence_buffer,,null,,,,,,,,,,,,,,,,,,
1306.300000000745,,pt2_unique_rating,2392976,Fictional_Cities_List/img_manmade_03.png,,52,,,4,,,,,,,,,,,,,,,
null,,confidence_buffer,2393079,confidence_buffer,,null,,,,,,,,,,,,,,,,,,
2191.39999999851,,pt2_memorable_rating,2395274,Fictional_Cities_List/img_manmade_03.png,,52,,,4,,,,,,,,,,,,,,,
null,,confidence_buffer,2395380,confidence_buffer,,null,,,,,,,,,,,,,,,,,,
4476.599999997765,,recognition_phase,2399859,Fictional_Cities_List/img_manmade_03.png,,49,,,,,,old,1,0.9534883720930233,,,,,,,,,,
null,,confidence_buffer,2399964,confidence_buffer,,null,,,,,,,,,,,,,,,,,,
null,,thebreak,2400467,break,,null,,,,,,,,,,,,,,,,,,
38631.699999999255,,realistic_rating,2439102,Fictional_Cities_List/img_natural_02.png,,49,Fictional_Cities_List/img_natural_02.png,NAT,1,,,,,,,,,,,,,,,
null,,confidence_buffer,2439207,confidence_buffer,,null,,,,,,,,,,,,,,,,,,
2367.60000000149,,pt2_unique_rating,2441578,Fictional_Cities_List/img_natural_02.png,,49,,,1,,,,,,,,,,,,,,,
null,,confidence_buffer,2441683,confidence_buffer,,null,,,,,,,,,,,,,,,,,,
1715,,pt2_memorable_rating,2443402,Fictional_Cities_List/img_natural_02.png,,49,,,1,,,,,,,,,,,,,,,
null,,confidence_buffer,2443506,confidence_buffer,,null,,,,,,,,,,,,,,,,,,
3316.89999999851,,probe_rating,2446825,probe_rating,,49,,,,1,1,,,,,,,,,,,,,
null,,confidence_buffer,2446929,confidence_buffer,,null,,,,,,,,,,,,,,,,,,
2552.39999999851,,recognition_phase,2449485,Fictional_Cities_List/img_natural_02.png,,49,,,,,,old,1,0.9545454545454546,,,,,,,,,,
null,,confidence_buffer,2449589,confidence_buffer,,null,,,,,,,,,,,,,,,,,,
null,,thebreak,2450098,break,,null,,,,,,,,,,,,,,,,,,
8653.699999999255,,realistic_rating,2458755,Fictional_Cities_List/img_natural_04.png,,50,Fictional_Cities_List/img_natural_04.png,NAT,2,,,,,,,,,,,,,,,
null,,confidence_buffer,2458859,confidence_buffer,,null,,,,,,,,,,,,,,,,,,
1760.5,,pt2_unique_rating,2460622,Fictional_Cities_List/img_natural_04.png,,50,,,2,,,,,,,,,,,,,,,
null,,confidence_buffer,2460726,confidence_buffer,,null,,,,,,,,,,,,,,,,,,
701.1999999992549,,pt2_memorable_rating,2461430,Fictional_Cities_List/img_natural_04.png,,50,,,2,,,,,,,,,,,,,,,
null,,confidence_buffer,2461535,confidence_buffer,,null,,,,,,,,,,,,,,,,,,
2863.300000000745,,recognition_phase,2464401,Fictional_Cities_List/img_natural_04.png,,49,,,,,,old,1,0.9555555555555556,,,,,,,,,,
null,,confidence_buffer,2464506,confidence_buffer,,null,,,,,,,,,,,,,,,,,,
null,,thebreak,2465009,break,,null,,,,,,,,,,,,,,,,,,
7940.400000002235,,realistic_rating,2472953,Fictional_Cities_List/img_manmade_12.png,,50,Fictional_Cities_List/img_manmade_12.png,MM,2,,,,,,,,,,,,,,,
null,,confidence_buffer,2473058,confidence_buffer,,null,,,,,,,,,,,,,,,,,,
1279.5,,pt2_unique_rating,2474340,Fictional_Cities_List/img_manmade_12.png,,50,,,2,,,,,,,,,,,,,,,
null,,confidence_buffer,2474444,confidence_buffer,,null,,,,,,,,,,,,,,,,,,
861.6999999992549,,pt2_memorable_rating,2475309,Fictional_Cities_List/img_manmade_12.png,,50,,,2,,,,,,,,,,,,,,,
null,,confidence_buffer,2475412,confidence_buffer,,null,,,,,,,,,,,,,,,,,,
3473.800000000745,,recognition_phase,2478889,Fictional_Cities_List/img_manmade_12.png,,51,,,,,,new,1,0.9565217391304348,,,,,,,,,,
null,,confidence_buffer,2478992,confidence_buffer,,null,,,,,,,,,,,,,,,,,,
null,,thebreak,2479496,break,,null,,,,,,,,,,,,,,,,,,
9446.900000002235,,realistic_rating,2488945,US_Cities_List/nat_okoboji.png,,50,US_Cities_List/nat_okoboji.png,NAT,2,,,,,,,,,,,,,,,
null,,confidence_buffer,2489049,confidence_buffer,,null,,,,,,,,,,,,,,,,,,
4129.300000000745,,pt2_unique_rating,2493182,US_Cities_List/nat_okoboji.png,,50,,,2,,,,,,,,,,,,,,,
null,,confidence_buffer,2493287,confidence_buffer,,null,,,,,,,,,,,,,,,,,,
736.6999999992549,,pt2_memorable_rating,2494027,US_Cities_List/nat_okoboji.png,,50,,,2,,,,,,,,,,,,,,,
null,,confidence_buffer,2494133,confidence_buffer,,null,,,,,,,,,,,,,,,,,,
2350,,recognition_phase,2496487,US_Cities_List/nat_okoboji.png,,51,,,,,,new,1,0.9574468085106383,,,,,,,,,,
null,,confidence_buffer,2496591,confidence_buffer,,null,,,,,,,,,,,,,,,,,,
null,,thebreak,2497094,break,,null,,,,,,,,,,,,,,,,,,
5088.60000000149,,realistic_rating,2502185,Fictional_Cities_List/img_manmade_04.png,,50,Fictional_Cities_List/img_manmade_04.png,MM,2,,,,,,,,,,,,,,,
null,,confidence_buffer,2502289,confidence_buffer,,null,,,,,,,,,,,,,,,,,,
6412.699999999255,,pt2_unique_rating,2508705,Fictional_Cities_List/img_manmade_04.png,,50,,,2,,,,,,,,,,,,,,,
null,,confidence_buffer,2508809,confidence_buffer,,null,,,,,,,,,,,,,,,,,,
2343.300000000745,,pt2_memorable_rating,2511156,Fictional_Cities_List/img_manmade_04.png,,50,,,2,,,,,,,,,,,,,,,
null,,confidence_buffer,2511261,confidence_buffer,,null,,,,,,,,,,,,,,,,,,
3250.800000000745,,recognition_phase,2514517,Fictional_Cities_List/img_manmade_04.png,,51,,,,,,new,1,0.9583333333333334,,,,,,,,,,
null,,confidence_buffer,2514623,confidence_buffer,,null,,,,,,,,,,,,,,,,,,
null,,thebreak,2515126,break,,null,,,,,,,,,,,,,,,,,,
7256.300000000745,,realistic_rating,2522386,Fictional_Cities_List/img_manmade_10.png,,50,Fictional_Cities_List/img_manmade_10.png,MM,2,,,,,,,,,,,,,,,
null,,confidence_buffer,2522489,confidence_buffer,,null,,,,,,,,,,,,,,,,,,
793.1999999992549,,pt2_unique_rating,2523286,Fictional_Cities_List/img_manmade_10.png,,50,,,2,,,,,,,,,,,,,,,
null,,confidence_buffer,2523391,confidence_buffer,,null,,,,,,,,,,,,,,,,,,
2959.199999999255,,pt2_memorable_rating,2526353,Fictional_Cities_List/img_manmade_10.png,,50,,,2,,,,,,,,,,,,,,,
null,,confidence_buffer,2526456,confidence_buffer,,null,,,,,,,,,,,,,,,,,,
11675.39999999851,,recognition_phase,2538134,Fictional_Cities_List/img_manmade_10.png,,49,,,,,,old,1,0.9591836734693877,,,,,,,,,,
null,,confidence_buffer,2538238,confidence_buffer,,null,,,,,,,,,,,,,,,,,,
null,,thebreak,2538740,break,,null,,,,,,,,,,,,,,,,,,
7555.5,,realistic_rating,2546298,Fictional_Cities_List/img_manmade_06.png,,53,Fictional_Cities_List/img_manmade_06.png,MM,5,,,,,,,,,,,,,,,
null,,confidence_buffer,2546402,confidence_buffer,,null,,,,,,,,,,,,,,,,,,
3506,,pt2_unique_rating,2549911,Fictional_Cities_List/img_manmade_06.png,,51,,,3,,,,,,,,,,,,,,,
null,,confidence_buffer,2550015,confidence_buffer,,null,,,,,,,,,,,,,,,,,,
1420.300000000745,,pt2_memorable_rating,2551439,Fictional_Cities_List/img_manmade_06.png,,51,,,3,,,,,,,,,,,,,,,
null,,confidence_buffer,2551544,confidence_buffer,,null,,,,,,,,,,,,,,,,,,
3476.60000000149,,recognition_phase,2555024,Fictional_Cities_List/img_manmade_06.png,,51,,,,,,new,1,0.96,,,,,,,,,,
null,,confidence_buffer,2555128,confidence_buffer,,null,,,,,,,,,,,,,,,,,,
null,,thebreak,2555631,break,,null,,,,,,,,,,,,,,,,,,
8735.199999999255,,realistic_rating,2564369,Fictional_Cities_List/img_manmade_05.png,,50,Fictional_Cities_List/img_manmade_05.png,MM,2,,,,,,,,,,,,,,,
null,,confidence_buffer,2564475,confidence_buffer,,null,,,,,,,,,,,,,,,,,,
7785.099999997765,,pt2_unique_rating,2572265,Fictional_Cities_List/img_manmade_05.png,,51,,,3,,,,,,,,,,,,,,,
null,,confidence_buffer,2572369,confidence_buffer,,null,,,,,,,,,,,,,,,,,,
940.8999999985099,,pt2_memorable_rating,2573313,Fictional_Cities_List/img_manmade_05.png,,51,,,3,,,,,,,,,,,,,,,
null,,confidence_buffer,2573417,confidence_buffer,,null,,,,,,,,,,,,,,,,,,
2894.5,,recognition_phase,2576315,Fictional_Cities_List/img_manmade_05.png,,51,,,,,,new,1,0.9607843137254902,,,,,,,,,,
null,,confidence_buffer,2576418,confidence_buffer,,null,,,,,,,,,,,,,,,,,,
null,,thebreak,2576921,break,,null,,,,,,,,,,,,,,,,,,
5889.10000000149,,realistic_rating,2582813,Fictional_Cities_List/img_natural_01.png,,51,Fictional_Cities_List/img_natural_01.png,NAT,3,,,,,,,,,,,,,,,
null,,confidence_buffer,2582931,confidence_buffer,,null,,,,,,,,,,,,,,,,,,
1637.800000000745,,pt2_unique_rating,2584573,Fictional_Cities_List/img_natural_01.png,,51,,,3,,,,,,,,,,,,,,,
null,,confidence_buffer,2584676,confidence_buffer,,null,,,,,,,,,,,,,,,,,,
1207.1000000014901,,pt2_memorable_rating,2585886,Fictional_Cities_List/img_natural_01.png,,51,,,3,,,,,,,,,,,,,,,
null,,confidence_buffer,2585994,confidence_buffer,,null,,,,,,,,,,,,,,,,,,
1912.1000000014901,,recognition_phase,2587909,Fictional_Cities_List/img_natural_01.png,,51,,,,,,new,1,0.9615384615384616,,,,,,,,,,
null,,confidence_buffer,2588013,confidence_buffer,,null,,,,,,,,,,,,,,,,,,
null,,thebreak,2588516,break,,null,,,,,,,,,,,,,,,,,,
10653.5,,realistic_rating,2599172,US_Cities_List/nat_delawarecity.png,,53,US_Cities_List/nat_delawarecity.png,NAT,5,,,,,,,,,,,,,,,
null,,confidence_buffer,2599278,confidence_buffer,,null,,,,,,,,,,,,,,,,,,
1484.4000000022352,,pt2_unique_rating,2600765,US_Cities_List/nat_delawarecity.png,,53,,,5,,,,,,,,,,,,,,,
null,,confidence_buffer,2600868,confidence_buffer,,null,,,,,,,,,,,,,,,,,,
8202.39999999851,,pt2_memorable_rating,2609074,US_Cities_List/nat_delawarecity.png,,50,,,2,,,,,,,,,,,,,,,
null,,confidence_buffer,2609178,confidence_buffer,,null,,,,,,,,,,,,,,,,,,
2224.599999997765,,recognition_phase,2611405,US_Cities_List/nat_delawarecity.png,,49,,,,,,old,1,0.9622641509433962,,,,,,,,,,
null,,confidence_buffer,2611508,confidence_buffer,,null,,,,,,,,,,,,,,,,,,
null,,thebreak,2612011,break,,null,,,,,,,,,,,,,,,,,,
7735.20000000298,,realistic_rating,2619749,US_Cities_List/nat_carmel.png,,50,US_Cities_List/nat_carmel.png,NAT,2,,,,,,,,,,,,,,,
null,,confidence_buffer,2619853,confidence_buffer,,null,,,,,,,,,,,,,,,,,,
18460.5,,pt2_unique_rating,2638317,US_Cities_List/nat_carmel.png,,50,,,2,,,,,,,,,,,,,,,
null,,confidence_buffer,2638423,confidence_buffer,,null,,,,,,,,,,,,,,,,,,
4610,,pt2_memorable_rating,2643037,US_Cities_List/nat_carmel.png,,49,,,1,,,,,,,,,,,,,,,
null,,confidence_buffer,2643141,confidence_buffer,,null,,,,,,,,,,,,,,,,,,
15390.099999997765,,recognition_phase,2658536,US_Cities_List/nat_carmel.png,,49,,,,,,old,1,0.9629629629629629,,,,,,,,,,
null,,confidence_buffer,2658643,confidence_buffer,,null,,,,,,,,,,,,,,,,,,
null,,thebreak,2659147,break,,null,,,,,,,,,,,,,,,,,,
9707.699999999255,,realistic_rating,2668859,US_Cities_List/mm_coeurdalene.png,,52,US_Cities_List/mm_coeurdalene.png,MM,4,,,,,,,,,,,,,,,
null,,confidence_buffer,2668962,confidence_buffer,,null,,,,,,,,,,,,,,,,,,
2056.900000002235,,pt2_unique_rating,2671023,US_Cities_List/mm_coeurdalene.png,,52,,,4,,,,,,,,,,,,,,,
null,,confidence_buffer,2671130,confidence_buffer,,null,,,,,,,,,,,,,,,,,,
4232.199999999255,,pt2_memorable_rating,2675367,US_Cities_List/mm_coeurdalene.png,,50,,,2,,,,,,,,,,,,,,,
null,,confidence_buffer,2675472,confidence_buffer,,null,,,,,,,,,,,,,,,,,,
3760.5,,recognition_phase,2679237,US_Cities_List/mm_coeurdalene.png,,50,,,,,,old,1,0.9636363636363636,,,,,,,,,,
null,,confidence_buffer,2679342,confidence_buffer,,null,,,,,,,,,,,,,,,,,,
null,,thebreak,2679846,break,,null,,,,,,,,,,,,,,,,,,
16220.29999999702,,realistic_rating,2696070,US_Cities_List/nat_westpalmbeach.png,,51,US_Cities_List/nat_westpalmbeach.png,NAT,3,,,,,,,,,,,,,,,
null,,confidence_buffer,2696174,confidence_buffer,,null,,,,,,,,,,,,,,,,,,
1310.6000000014901,,pt2_unique_rating,2697488,US_Cities_List/nat_westpalmbeach.png,,51,,,3,,,,,,,,,,,,,,,
null,,confidence_buffer,2697593,confidence_buffer,,null,,,,,,,,,,,,,,,,,,
857.1999999992549,,pt2_memorable_rating,2698455,US_Cities_List/nat_westpalmbeach.png,,51,,,3,,,,,,,,,,,,,,,
null,,confidence_buffer,2698575,confidence_buffer,,null,,,,,,,,,,,,,,,,,,
3375.89999999851,,recognition_phase,2701955,US_Cities_List/nat_westpalmbeach.png,,51,,,,,,new,1,0.9642857142857143,,,,,,,,,,
null,,confidence_buffer,2702060,confidence_buffer,,null,,,,,,,,,,,,,,,,,,
null,,thebreak,2702565,break,,null,,,,,,,,,,,,,,,,,,
15296.599999997765,,realistic_rating,2717866,Fictional_Cities_List/img_manmade_11.png,,49,Fictional_Cities_List/img_manmade_11.png,MM,1,,,,,,,,,,,,,,,
null,,confidence_buffer,2717972,confidence_buffer,,null,,,,,,,,,,,,,,,,,,
4924.10000000149,,probe_rating,2722900,probe_rating,,52,,,,4,1,,,,,,,,,,,,,
null,,confidence_buffer,2723005,confidence_buffer,,null,,,,,,,,,,,,,,,,,,
22613.800000000745,,pt2_unique_rating,2745623,Fictional_Cities_List/img_manmade_11.png,,50,,,2,,,,,,,,,,,,,,,
null,,confidence_buffer,2745728,confidence_buffer,,null,,,,,,,,,,,,,,,,,,
1111,,pt2_memorable_rating,2746843,Fictional_Cities_List/img_manmade_11.png,,50,,,2,,,,,,,,,,,,,,,
null,,confidence_buffer,2746949,confidence_buffer,,null,,,,,,,,,,,,,,,,,,
3905.300000000745,,recognition_phase,2750860,Fictional_Cities_List/img_manmade_11.png,,51,,,,,,new,1,0.9649122807017544,,,,,,,,,,
null,,confidence_buffer,2750965,confidence_buffer,,null,,,,,,,,,,,,,,,,,,
null,,thebreak,2751470,break,,null,,,,,,,,,,,,,,,,,,
14480.29999999702,,realistic_rating,2765955,Fictional_Cities_List/img_natural_03.png,,50,Fictional_Cities_List/img_natural_03.png,NAT,2,,,,,,,,,,,,,,,
null,,confidence_buffer,2766074,confidence_buffer,,null,,,,,,,,,,,,,,,,,,
7571.60000000149,,pt2_unique_rating,2773650,Fictional_Cities_List/img_natural_03.png,,50,,,2,,,,,,,,,,,,,,,
null,,confidence_buffer,2773755,confidence_buffer,,null,,,,,,,,,,,,,,,,,,
13689.10000000149,,pt2_memorable_rating,2787448,Fictional_Cities_List/img_natural_03.png,,50,,,2,,,,,,,,,,,,,,,
null,,confidence_buffer,2787552,confidence_buffer,,null,,,,,,,,,,,,,,,,,,
5620.900000002235,,recognition_phase,2793176,Fictional_Cities_List/img_natural_03.png,,51,,,,,,new,1,0.9655172413793104,,,,,,,,,,
null,,confidence_buffer,2793280,confidence_buffer,,null,,,,,,,,,,,,,,,,,,
null,,thebreak,2793783,break,,null,,,,,,,,,,,,,,,,,,
29181.10000000149,,realistic_rating,2822968,US_Cities_List/mm_peoria.png,,50,US_Cities_List/mm_peoria.png,MM,2,,,,,,,,,,,,,,,
null,,confidence_buffer,2823073,confidence_buffer,,null,,,,,,,,,,,,,,,,,,
1517.1000000014901,,pt2_unique_rating,2824593,US_Cities_List/mm_peoria.png,,50,,,2,,,,,,,,,,,,,,,
null,,confidence_buffer,2824698,confidence_buffer,,null,,,,,,,,,,,,,,,,,,
1256.5,,pt2_memorable_rating,2825959,US_Cities_List/mm_peoria.png,,50,,,2,,,,,,,,,,,,,,,
null,,confidence_buffer,2826064,confidence_buffer,,null,,,,,,,,,,,,,,,,,,
4512.699999999255,,recognition_phase,2830581,US_Cities_List/mm_peoria.png,,51,,,,,,new,1,0.9661016949152542,,,,,,,,,,
null,,confidence_buffer,2830687,confidence_buffer,,null,,,,,,,,,,,,,,,,,,
null,,thebreak,2831192,break,,null,,,,,,,,,,,,,,,,,,
6788.5,,realistic_rating,2837984,US_Cities_List/mm_delawarecity.png,,52,US_Cities_List/mm_delawarecity.png,MM,4,,,,,,,,,,,,,,,
null,,confidence_buffer,2838090,confidence_buffer,,null,,,,,,,,,,,,,,,,,,
1261.5999999977648,,pt2_unique_rating,2839355,US_Cities_List/mm_delawarecity.png,,52,,,4,,,,,,,,,,,,,,,
null,,confidence_buffer,2839470,confidence_buffer,,null,,,,,,,,,,,,,,,,,,
4915.39999999851,,probe_rating,2844390,probe_rating,,49,,,,1,1,,,,,,,,,,,,,
null,,confidence_buffer,2844494,confidence_buffer,,null,,,,,,,,,,,,,,,,,,
39148.800000000745,,pt2_memorable_rating,2883645,US_Cities_List/mm_delawarecity.png,,50,,,2,,,,,,,,,,,,,,,
null,,confidence_buffer,2883750,confidence_buffer,,null,,,,,,,,,,,,,,,,,,
12260.39999999851,,recognition_phase,2896013,US_Cities_List/mm_delawarecity.png,,51,,,,,,new,1,0.9666666666666667,,,,,,,,,,
null,,confidence_buffer,2896117,confidence_buffer,,null,,,,,,,,,,,,,,,,,,
null,,thebreak,2896620,break,,null,,,,,,,,,,,,,,,,,,
,,survey,3837934,survey-questions,,,,,,,,,,,connection,med,No I concentrated entirely on the study,I have good photographic memory and so I had to maximize on that to learn the images,I rated familiar objects as those I had encountered and seen before  in other different circumstances,I rated their memorability based on the key features that were on the images that made them be worth remembering .,The uniqueness of each image was determined by the features present in the  images that make them to stand out among the rest of the images.,I rated the realitry of the images based on the surrounding environments of the images and relating to the ideal way they would have appeard  to look in the real time.,No, I haven't participated in such a study on any  other platform,The images are too many
