rt,responses,trial_type,time_elapsed,stimulus,button_pressed,key_press,name_trial,city_type,rating,probe,probe_accuracy,response,correct,accuracy
20836.39999999944,{worker_id:67f24dddcc783cdf7a1ea017},id_enter,20842,,,,,,,,,,,
2301.2999999998137,,fullscreen,23148,fullscreen,0,,,,,,,,,
3713.399999999441,,intro_0,26865,instruct,,32,,,,,,,,
2076,,intro_1,28943,instruct,,32,,,,,,,,
1333.5999999996275,,intro_2,30279,instruct,,32,,,,,,,,
null,,instruct_dir_4,31783,instruct,,null,,,,,,,,
null,,thebreak,32286,break,,null,,,,,,,,
3518.2000000001863,,familiar_rating,35808,US_Cities_List/mm_hilo.png,,51,US_Cities_List/mm_hilo.png,MM,3,,,,,
null,,confidence_buffer,35913,confidence_buffer,,null,,,,,,,,
1155.7000000001863,,unique_rating,37072,US_Cities_List/mm_hilo.png,,51,,,3,,,,,
null,,confidence_buffer,37175,confidence_buffer,,null,,,,,,,,
2085.0999999996275,,memorable_rating,39264,US_Cities_List/mm_hilo.png,,52,,,4,,,,,
null,,confidence_buffer,39367,confidence_buffer,,null,,,,,,,,
null,,thebreak,39869,break,,null,,,,,,,,
863.0999999996275,,familiar_rating,40735,Fictional_Cities_List/img_manmade_07.png,,50,Fictional_Cities_List/img_manmade_07.png,MM,2,,,,,
null,,confidence_buffer,40839,confidence_buffer,,null,,,,,,,,
933.2999999998137,,unique_rating,41775,Fictional_Cities_List/img_manmade_07.png,,52,,,4,,,,,
null,,confidence_buffer,41879,confidence_buffer,,null,,,,,,,,
877.7999999998137,,memorable_rating,42759,Fictional_Cities_List/img_manmade_07.png,,51,,,3,,,,,
null,,confidence_buffer,42862,confidence_buffer,,null,,,,,,,,
null,,thebreak,43364,break,,null,,,,,,,,
2128.2999999998137,,familiar_rating,45496,Fictional_Cities_List/img_manmade_10.png,,52,Fictional_Cities_List/img_manmade_10.png,MM,4,,,,,
null,,confidence_buffer,45600,confidence_buffer,,null,,,,,,,,
1094.3999999994412,,unique_rating,46697,Fictional_Cities_List/img_manmade_10.png,,51,,,3,,,,,
null,,confidence_buffer,46800,confidence_buffer,,null,,,,,,,,
828,,memorable_rating,47631,Fictional_Cities_List/img_manmade_10.png,,50,,,2,,,,,
null,,confidence_buffer,47735,confidence_buffer,,null,,,,,,,,
null,,thebreak,48237,break,,null,,,,,,,,
1647.2999999998137,,familiar_rating,49887,Fictional_Cities_List/img_natural_07.png,,53,Fictional_Cities_List/img_natural_07.png,NAT,5,,,,,
null,,confidence_buffer,49991,confidence_buffer,,null,,,,,,,,
916.7000000001863,,unique_rating,50911,Fictional_Cities_List/img_natural_07.png,,52,,,4,,,,,
null,,confidence_buffer,51014,confidence_buffer,,null,,,,,,,,
638.7000000001863,,memorable_rating,51655,Fictional_Cities_List/img_natural_07.png,,51,,,3,,,,,
null,,confidence_buffer,51758,confidence_buffer,,null,,,,,,,,
null,,thebreak,52260,break,,null,,,,,,,,
1295.5999999996275,,familiar_rating,53559,Fictional_Cities_List/img_manmade_04.png,,49,Fictional_Cities_List/img_manmade_04.png,MM,1,,,,,
null,,confidence_buffer,53663,confidence_buffer,,null,,,,,,,,
582,,unique_rating,54248,Fictional_Cities_List/img_manmade_04.png,,50,,,2,,,,,
null,,confidence_buffer,54352,confidence_buffer,,null,,,,,,,,
507.69999999925494,,memorable_rating,54863,Fictional_Cities_List/img_manmade_04.png,,51,,,3,,,,,
null,,confidence_buffer,54967,confidence_buffer,,null,,,,,,,,
null,,thebreak,55469,break,,null,,,,,,,,
1807.6000000005588,,familiar_rating,57280,Fictional_Cities_List/img_natural_01.png,,53,Fictional_Cities_List/img_natural_01.png,NAT,5,,,,,
null,,confidence_buffer,57384,confidence_buffer,,null,,,,,,,,
525.1000000005588,,unique_rating,57911,Fictional_Cities_List/img_natural_01.png,,52,,,4,,,,,
null,,confidence_buffer,58015,confidence_buffer,,null,,,,,,,,
693.7999999998137,,memorable_rating,58711,Fictional_Cities_List/img_natural_01.png,,51,,,3,,,,,
null,,confidence_buffer,58815,confidence_buffer,,null,,,,,,,,
null,,thebreak,59317,break,,null,,,,,,,,
1824.8999999994412,,familiar_rating,61145,US_Cities_List/mm_bisbee.png,,50,US_Cities_List/mm_bisbee.png,MM,2,,,,,
null,,confidence_buffer,61249,confidence_buffer,,null,,,,,,,,
449.79999999981374,,unique_rating,61701,US_Cities_List/mm_bisbee.png,,51,,,3,,,,,
null,,confidence_buffer,61803,confidence_buffer,,null,,,,,,,,
961.5999999996275,,memorable_rating,62767,US_Cities_List/mm_bisbee.png,,52,,,4,,,,,
null,,confidence_buffer,62870,confidence_buffer,,null,,,,,,,,
null,,thebreak,63372,break,,null,,,,,,,,
887.8999999994412,,familiar_rating,64263,Fictional_Cities_List/img_natural_08.png,,52,Fictional_Cities_List/img_natural_08.png,NAT,4,,,,,
null,,confidence_buffer,64367,confidence_buffer,,null,,,,,,,,
454.59999999962747,,unique_rating,64823,Fictional_Cities_List/img_natural_08.png,,51,,,3,,,,,
null,,confidence_buffer,64926,confidence_buffer,,null,,,,,,,,
398.09999999962747,,memorable_rating,65327,Fictional_Cities_List/img_natural_08.png,,50,,,2,,,,,
null,,confidence_buffer,65430,confidence_buffer,,null,,,,,,,,
null,,thebreak,65933,break,,null,,,,,,,,
1985.2000000001863,,familiar_rating,67920,US_Cities_List/mm_westpalmbeach.png,,52,US_Cities_List/mm_westpalmbeach.png,MM,4,,,,,
null,,confidence_buffer,68023,confidence_buffer,,null,,,,,,,,
396.8999999994412,,probe_rating,68423,probe_rating,,51,,,,3,0,,,
null,,confidence_buffer,68527,confidence_buffer,,null,,,,,,,,
341.29999999981374,,unique_rating,68871,US_Cities_List/mm_westpalmbeach.png,,50,,,2,,,,,
null,,confidence_buffer,68974,confidence_buffer,,null,,,,,,,,
1134,,memorable_rating,70111,US_Cities_List/mm_westpalmbeach.png,,51,,,3,,,,,
null,,confidence_buffer,70215,confidence_buffer,,null,,,,,,,,
null,,thebreak,70716,break,,null,,,,,,,,
1440.5999999996275,,familiar_rating,72159,Fictional_Cities_List/img_manmade_05.png,,53,Fictional_Cities_List/img_manmade_05.png,MM,5,,,,,
null,,confidence_buffer,72262,confidence_buffer,,null,,,,,,,,
262.29999999981374,,unique_rating,72527,Fictional_Cities_List/img_manmade_05.png,,52,,,4,,,,,
null,,confidence_buffer,72631,confidence_buffer,,null,,,,,,,,
542.2000000001863,,memorable_rating,73175,Fictional_Cities_List/img_manmade_05.png,,51,,,3,,,,,
null,,confidence_buffer,73279,confidence_buffer,,null,,,,,,,,
null,,thebreak,73780,break,,null,,,,,,,,
784.2000000001863,,familiar_rating,74567,US_Cities_List/nat_boulder.png,,50,US_Cities_List/nat_boulder.png,NAT,2,,,,,
null,,confidence_buffer,74670,confidence_buffer,,null,,,,,,,,
1910.300000000745,,probe_rating,76584,probe_rating,,51,,,,3,1,,,
null,,confidence_buffer,76687,confidence_buffer,,null,,,,,,,,
2030.5,,unique_rating,78720,US_Cities_List/nat_boulder.png,,53,,,5,,,,,
null,,confidence_buffer,78824,confidence_buffer,,null,,,,,,,,
444.09999999962747,,memorable_rating,79271,US_Cities_List/nat_boulder.png,,52,,,4,,,,,
null,,confidence_buffer,79374,confidence_buffer,,null,,,,,,,,
null,,thebreak,79876,break,,null,,,,,,,,
1248.0999999996275,,familiar_rating,81127,US_Cities_List/nat_healdsburg.png,,51,US_Cities_List/nat_healdsburg.png,NAT,3,,,,,
null,,confidence_buffer,81231,confidence_buffer,,null,,,,,,,,
765.0999999996275,,unique_rating,81999,US_Cities_List/nat_healdsburg.png,,52,,,4,,,,,
null,,confidence_buffer,82102,confidence_buffer,,null,,,,,,,,
606.8000000007451,,memorable_rating,82711,US_Cities_List/nat_healdsburg.png,,50,,,2,,,,,
null,,confidence_buffer,82816,confidence_buffer,,null,,,,,,,,
null,,thebreak,83318,break,,null,,,,,,,,
1478.2999999998137,,familiar_rating,84799,Fictional_Cities_List/img_manmade_11.png,,53,Fictional_Cities_List/img_manmade_11.png,MM,5,,,,,
null,,confidence_buffer,84902,confidence_buffer,,null,,,,,,,,
398.1000000005588,,unique_rating,85303,Fictional_Cities_List/img_manmade_11.png,,52,,,4,,,,,
null,,confidence_buffer,85407,confidence_buffer,,null,,,,,,,,
405.09999999962747,,memorable_rating,85815,Fictional_Cities_List/img_manmade_11.png,,51,,,3,,,,,
null,,confidence_buffer,85918,confidence_buffer,,null,,,,,,,,
null,,thebreak,86420,break,,null,,,,,,,,
1360.5999999996275,,familiar_rating,87783,US_Cities_List/mm_abilene.png,,50,US_Cities_List/mm_abilene.png,MM,2,,,,,
null,,confidence_buffer,87887,confidence_buffer,,null,,,,,,,,
333.80000000074506,,unique_rating,88223,US_Cities_List/mm_abilene.png,,51,,,3,,,,,
null,,confidence_buffer,88328,confidence_buffer,,null,,,,,,,,
797.8000000007451,,memorable_rating,89128,US_Cities_List/mm_abilene.png,,52,,,4,,,,,
null,,confidence_buffer,89232,confidence_buffer,,null,,,,,,,,
null,,thebreak,89736,break,,null,,,,,,,,
836.5,,familiar_rating,90575,Fictional_Cities_List/img_manmade_15.png,,51,Fictional_Cities_List/img_manmade_15.png,MM,3,,,,,
null,,confidence_buffer,90678,confidence_buffer,,null,,,,,,,,
918.6999999992549,,unique_rating,91599,Fictional_Cities_List/img_manmade_15.png,,50,,,2,,,,,
null,,confidence_buffer,91703,confidence_buffer,,null,,,,,,,,
771.9000000003725,,memorable_rating,92477,Fictional_Cities_List/img_manmade_15.png,,51,,,3,,,,,
null,,confidence_buffer,92580,confidence_buffer,,null,,,,,,,,
null,,thebreak,93081,break,,null,,,,,,,,
1835.7000000001863,,familiar_rating,94919,Fictional_Cities_List/img_manmade_08.png,,53,Fictional_Cities_List/img_manmade_08.png,MM,5,,,,,
null,,confidence_buffer,95022,confidence_buffer,,null,,,,,,,,
470.90000000037253,,unique_rating,95495,Fictional_Cities_List/img_manmade_08.png,,52,,,4,,,,,
null,,confidence_buffer,95598,confidence_buffer,,null,,,,,,,,
414.3999999994412,,memorable_rating,96015,Fictional_Cities_List/img_manmade_08.png,,51,,,3,,,,,
null,,confidence_buffer,96118,confidence_buffer,,null,,,,,,,,
null,,thebreak,96620,break,,null,,,,,,,,
1743.5,,familiar_rating,98365,US_Cities_List/nat_abilene.png,,53,US_Cities_List/nat_abilene.png,NAT,5,,,,,
null,,confidence_buffer,98468,confidence_buffer,,null,,,,,,,,
374.79999999981374,,unique_rating,98845,US_Cities_List/nat_abilene.png,,52,,,4,,,,,
null,,confidence_buffer,98947,confidence_buffer,,null,,,,,,,,
424.5,,memorable_rating,99373,US_Cities_List/nat_abilene.png,,51,,,3,,,,,
null,,confidence_buffer,99475,confidence_buffer,,null,,,,,,,,
null,,thebreak,99976,break,,null,,,,,,,,
1275.2000000001863,,familiar_rating,101253,US_Cities_List/mm_boulder.png,,50,US_Cities_List/mm_boulder.png,MM,2,,,,,
null,,confidence_buffer,101354,confidence_buffer,,null,,,,,,,,
329,,unique_rating,101684,US_Cities_List/mm_boulder.png,,51,,,3,,,,,
null,,confidence_buffer,101787,confidence_buffer,,null,,,,,,,,
1056.199999999255,,memorable_rating,102845,US_Cities_List/mm_boulder.png,,52,,,4,,,,,
null,,confidence_buffer,102947,confidence_buffer,,null,,,,,,,,
null,,thebreak,103448,break,,null,,,,,,,,
1770.7999999998137,,familiar_rating,105221,US_Cities_List/mm_peoria.png,,52,US_Cities_List/mm_peoria.png,MM,4,,,,,
null,,confidence_buffer,105322,confidence_buffer,,null,,,,,,,,
448.90000000037253,,unique_rating,105772,US_Cities_List/mm_peoria.png,,51,,,3,,,,,
null,,confidence_buffer,105874,confidence_buffer,,null,,,,,,,,
625,,memorable_rating,106501,US_Cities_List/mm_peoria.png,,50,,,2,,,,,
null,,confidence_buffer,106603,confidence_buffer,,null,,,,,,,,
null,,thebreak,107104,break,,null,,,,,,,,
1139.5,,familiar_rating,108245,US_Cities_List/nat_hotsprings.png,,49,US_Cities_List/nat_hotsprings.png,NAT,1,,,,,
null,,confidence_buffer,108347,confidence_buffer,,null,,,,,,,,
1176.1000000005588,,unique_rating,109525,US_Cities_List/nat_hotsprings.png,,52,,,4,,,,,
null,,confidence_buffer,109627,confidence_buffer,,null,,,,,,,,
752.5,,memorable_rating,110381,US_Cities_List/nat_hotsprings.png,,51,,,3,,,,,
null,,confidence_buffer,110483,confidence_buffer,,null,,,,,,,,
null,,thebreak,110984,break,,null,,,,,,,,
1147.0999999996275,,familiar_rating,112132,US_Cities_List/mm_sitka.png,,52,US_Cities_List/mm_sitka.png,MM,4,,,,,
null,,confidence_buffer,112235,confidence_buffer,,null,,,,,,,,
576.1000000005588,,unique_rating,112813,US_Cities_List/mm_sitka.png,,51,,,3,,,,,
null,,confidence_buffer,112915,confidence_buffer,,null,,,,,,,,
688.9000000003725,,memorable_rating,113605,US_Cities_List/mm_sitka.png,,50,,,2,,,,,
null,,confidence_buffer,113708,confidence_buffer,,null,,,,,,,,
null,,thebreak,114222,break,,null,,,,,,,,
1829,,familiar_rating,116053,Fictional_Cities_List/img_natural_15.png,,52,Fictional_Cities_List/img_natural_15.png,NAT,4,,,,,
null,,confidence_buffer,116154,confidence_buffer,,null,,,,,,,,
456.8999999994412,,unique_rating,116613,Fictional_Cities_List/img_natural_15.png,,51,,,3,,,,,
null,,confidence_buffer,116714,confidence_buffer,,null,,,,,,,,
1586.7999999998137,,memorable_rating,118303,Fictional_Cities_List/img_natural_15.png,,53,,,5,,,,,
null,,confidence_buffer,118407,confidence_buffer,,null,,,,,,,,
null,,thebreak,118909,break,,null,,,,,,,,
895.7000000001863,,familiar_rating,119807,Fictional_Cities_List/img_natural_11.png,,52,Fictional_Cities_List/img_natural_11.png,NAT,4,,,,,
null,,confidence_buffer,119911,confidence_buffer,,null,,,,,,,,
422,,unique_rating,120336,Fictional_Cities_List/img_natural_11.png,,51,,,3,,,,,
null,,confidence_buffer,120440,confidence_buffer,,null,,,,,,,,
436.19999999925494,,memorable_rating,120879,Fictional_Cities_List/img_natural_11.png,,50,,,2,,,,,
null,,confidence_buffer,120982,confidence_buffer,,null,,,,,,,,
null,,thebreak,121484,break,,null,,,,,,,,
1416.2000000001863,,familiar_rating,122904,Fictional_Cities_List/img_natural_10.png,,53,Fictional_Cities_List/img_natural_10.png,NAT,5,,,,,
null,,confidence_buffer,123007,confidence_buffer,,null,,,,,,,,
316.59999999962747,,unique_rating,123327,Fictional_Cities_List/img_natural_10.png,,52,,,4,,,,,
null,,confidence_buffer,123430,confidence_buffer,,null,,,,,,,,
494.70000000018626,,memorable_rating,123927,Fictional_Cities_List/img_natural_10.png,,51,,,3,,,,,
null,,confidence_buffer,124031,confidence_buffer,,null,,,,,,,,
null,,thebreak,124533,break,,null,,,,,,,,
1303.1000000005588,,familiar_rating,125839,US_Cities_List/nat_hilo.png,,49,US_Cities_List/nat_hilo.png,NAT,1,,,,,
null,,confidence_buffer,125943,confidence_buffer,,null,,,,,,,,
341.70000000018626,,unique_rating,126287,US_Cities_List/nat_hilo.png,,50,,,2,,,,,
null,,confidence_buffer,126391,confidence_buffer,,null,,,,,,,,
1221.4000000003725,,memorable_rating,127615,US_Cities_List/nat_hilo.png,,52,,,4,,,,,
null,,confidence_buffer,127718,confidence_buffer,,null,,,,,,,,
null,,thebreak,128220,break,,null,,,,,,,,
1360.5,,familiar_rating,129583,US_Cities_List/nat_okoboji.png,,53,US_Cities_List/nat_okoboji.png,NAT,5,,,,,
null,,confidence_buffer,129687,confidence_buffer,,null,,,,,,,,
502.29999999981374,,unique_rating,130192,US_Cities_List/nat_okoboji.png,,52,,,4,,,,,
null,,confidence_buffer,130295,confidence_buffer,,null,,,,,,,,
365.5,,memorable_rating,130663,US_Cities_List/nat_okoboji.png,,51,,,3,,,,,
null,,confidence_buffer,130766,confidence_buffer,,null,,,,,,,,
null,,thebreak,131268,break,,null,,,,,,,,
1592.2000000001863,,familiar_rating,132863,US_Cities_List/mm_delawarecity.png,,50,US_Cities_List/mm_delawarecity.png,MM,2,,,,,
null,,confidence_buffer,132967,confidence_buffer,,null,,,,,,,,
1421.7999999998137,,unique_rating,134391,US_Cities_List/mm_delawarecity.png,,53,,,5,,,,,
null,,confidence_buffer,134494,confidence_buffer,,null,,,,,,,,
598.2999999998137,,memorable_rating,135095,US_Cities_List/mm_delawarecity.png,,52,,,4,,,,,
null,,confidence_buffer,135198,confidence_buffer,,null,,,,,,,,
null,,thebreak,135700,break,,null,,,,,,,,
1224.6000000005588,,familiar_rating,136928,US_Cities_List/nat_cornwall.png,,51,US_Cities_List/nat_cornwall.png,NAT,3,,,,,
null,,confidence_buffer,137030,confidence_buffer,,null,,,,,,,,
1197.8999999994412,,unique_rating,138231,US_Cities_List/nat_cornwall.png,,50,,,2,,,,,
null,,confidence_buffer,138335,confidence_buffer,,null,,,,,,,,
654.4000000003725,,memorable_rating,138992,US_Cities_List/nat_cornwall.png,,52,,,4,,,,,
null,,confidence_buffer,139097,confidence_buffer,,null,,,,,,,,
null,,thebreak,139599,break,,null,,,,,,,,
1325.7000000001863,,familiar_rating,140928,Fictional_Cities_List/img_natural_05.png,,50,Fictional_Cities_List/img_natural_05.png,NAT,2,,,,,
null,,confidence_buffer,141044,confidence_buffer,,null,,,,,,,,
1024.7999999998137,,unique_rating,142071,Fictional_Cities_List/img_natural_05.png,,51,,,3,,,,,
null,,confidence_buffer,142175,confidence_buffer,,null,,,,,,,,
821.7999999998137,,memorable_rating,142999,Fictional_Cities_List/img_natural_05.png,,52,,,4,,,,,
null,,confidence_buffer,143102,confidence_buffer,,null,,,,,,,,
null,,thebreak,143604,break,,null,,,,,,,,
1576.3999999994412,,familiar_rating,145183,Fictional_Cities_List/img_natural_09.png,,52,Fictional_Cities_List/img_natural_09.png,NAT,4,,,,,
null,,confidence_buffer,145287,confidence_buffer,,null,,,,,,,,
1268.4000000003725,,unique_rating,146558,Fictional_Cities_List/img_natural_09.png,,51,,,3,,,,,
null,,confidence_buffer,146660,confidence_buffer,,null,,,,,,,,
528,,memorable_rating,147191,Fictional_Cities_List/img_natural_09.png,,50,,,2,,,,,
null,,confidence_buffer,147295,confidence_buffer,,null,,,,,,,,
null,,thebreak,147796,break,,null,,,,,,,,
3465.2000000001863,,intro_0,151264,instruct,,32,,,,,,,,
1020.7000000001863,,intro_1,152287,instruct,,32,,,,,,,,
17758.599999999627,,intro_2,170048,instruct,,32,,,,,,,,
null,,instruct_dir_4,171549,instruct,,null,,,,,,,,
2455.300000000745,,realistic_rating,174007,Fictional_Cities_List/img_natural_12.png,,53,Fictional_Cities_List/img_natural_12.png,NAT,5,,,,,
null,,confidence_buffer,174112,confidence_buffer,,null,,,,,,,,
556.3999999994412,,pt2_unique_rating,174671,Fictional_Cities_List/img_natural_12.png,,52,,,4,,,,,
null,,confidence_buffer,174775,confidence_buffer,,null,,,,,,,,
1477.5999999996275,,probe_rating,176255,probe_rating,,49,,,,1,1,,,
null,,confidence_buffer,176359,confidence_buffer,,null,,,,,,,,
1166,,pt2_memorable_rating,177528,Fictional_Cities_List/img_natural_12.png,,52,,,4,,,,,
null,,confidence_buffer,177631,confidence_buffer,,null,,,,,,,,
3222.5,,recognition_phase,180856,Fictional_Cities_List/img_natural_12.png,,52,,,,,,new,1,1
null,,confidence_buffer,180960,confidence_buffer,,null,,,,,,,,
null,,thebreak,181462,break,,null,,,,,,,,
1318.0999999996275,,realistic_rating,182783,Fictional_Cities_List/img_manmade_04.png,,51,Fictional_Cities_List/img_manmade_04.png,MM,3,,,,,
null,,confidence_buffer,182886,confidence_buffer,,null,,,,,,,,
596,,pt2_unique_rating,183485,Fictional_Cities_List/img_manmade_04.png,,50,,,2,,,,,
null,,confidence_buffer,183587,confidence_buffer,,null,,,,,,,,
602.2999999998137,,pt2_memorable_rating,184192,Fictional_Cities_List/img_manmade_04.png,,52,,,4,,,,,
null,,confidence_buffer,184295,confidence_buffer,,null,,,,,,,,
2421.4000000003725,,recognition_phase,186719,Fictional_Cities_List/img_manmade_04.png,,52,,,,,,new,0,0.5
null,,confidence_buffer,186822,confidence_buffer,,null,,,,,,,,
null,,thebreak,187324,break,,null,,,,,,,,
1175.699999999255,,realistic_rating,188503,Fictional_Cities_List/img_natural_11.png,,52,Fictional_Cities_List/img_natural_11.png,NAT,4,,,,,
null,,confidence_buffer,188607,confidence_buffer,,null,,,,,,,,
349.29999999981374,,pt2_unique_rating,188959,Fictional_Cities_List/img_natural_11.png,,51,,,3,,,,,
null,,confidence_buffer,189063,confidence_buffer,,null,,,,,,,,
437.79999999981374,,pt2_memorable_rating,189504,Fictional_Cities_List/img_natural_11.png,,50,,,2,,,,,
null,,confidence_buffer,189607,confidence_buffer,,null,,,,,,,,
613.8999999994412,,recognition_phase,190223,Fictional_Cities_List/img_natural_11.png,,52,,,,,,new,0,0.3333333333333333
null,,confidence_buffer,190327,confidence_buffer,,null,,,,,,,,
null,,thebreak,190829,break,,null,,,,,,,,
4175.5,,realistic_rating,195008,US_Cities_List/mm_hotsprings.png,,53,US_Cities_List/mm_hotsprings.png,MM,5,,,,,
null,,confidence_buffer,195111,confidence_buffer,,null,,,,,,,,
461.5,,pt2_unique_rating,195575,US_Cities_List/mm_hotsprings.png,,52,,,4,,,,,
null,,confidence_buffer,195679,confidence_buffer,,null,,,,,,,,
885.5999999996275,,pt2_memorable_rating,196567,US_Cities_List/mm_hotsprings.png,,51,,,3,,,,,
null,,confidence_buffer,196670,confidence_buffer,,null,,,,,,,,
2573.899999999441,,recognition_phase,199248,US_Cities_List/mm_hotsprings.png,,52,,,,,,new,1,0.5
null,,confidence_buffer,199351,confidence_buffer,,null,,,,,,,,
null,,thebreak,199854,break,,null,,,,,,,,
1158.5,,realistic_rating,201015,Fictional_Cities_List/img_natural_02.png,,51,Fictional_Cities_List/img_natural_02.png,NAT,3,,,,,
null,,confidence_buffer,201118,confidence_buffer,,null,,,,,,,,
542,,pt2_unique_rating,201663,Fictional_Cities_List/img_natural_02.png,,50,,,2,,,,,
null,,confidence_buffer,201767,confidence_buffer,,null,,,,,,,,
950.0999999996275,,pt2_memorable_rating,202719,Fictional_Cities_List/img_natural_02.png,,50,,,2,,,,,
null,,confidence_buffer,202823,confidence_buffer,,null,,,,,,,,
813,,recognition_phase,203639,Fictional_Cities_List/img_natural_02.png,,49,,,,,,old,0,0.4
null,,confidence_buffer,203742,confidence_buffer,,null,,,,,,,,
null,,thebreak,204244,break,,null,,,,,,,,
2344.4000000003725,,realistic_rating,206591,Fictional_Cities_List/img_manmade_08.png,,50,Fictional_Cities_List/img_manmade_08.png,MM,2,,,,,
null,,confidence_buffer,206694,confidence_buffer,,null,,,,,,,,
357.79999999981374,,pt2_unique_rating,207055,Fictional_Cities_List/img_manmade_08.png,,51,,,3,,,,,
null,,confidence_buffer,207159,confidence_buffer,,null,,,,,,,,
821.1999999992549,,pt2_memorable_rating,207983,Fictional_Cities_List/img_manmade_08.png,,52,,,4,,,,,
null,,confidence_buffer,208087,confidence_buffer,,null,,,,,,,,
1669.800000000745,,recognition_phase,209760,Fictional_Cities_List/img_manmade_08.png,,50,,,,,,old,1,0.5
null,,confidence_buffer,209863,confidence_buffer,,null,,,,,,,,
null,,thebreak,210365,break,,null,,,,,,,,
1239.5,,realistic_rating,211607,US_Cities_List/mm_peoria.png,,51,US_Cities_List/mm_peoria.png,MM,3,,,,,
null,,confidence_buffer,211711,confidence_buffer,,null,,,,,,,,
629.5,,pt2_unique_rating,212343,US_Cities_List/mm_peoria.png,,52,,,4,,,,,
null,,confidence_buffer,212447,confidence_buffer,,null,,,,,,,,
438,,pt2_memorable_rating,212887,US_Cities_List/mm_peoria.png,,51,,,3,,,,,
null,,confidence_buffer,212991,confidence_buffer,,null,,,,,,,,
1469.5,,probe_rating,214463,probe_rating,,49,,,,1,1,,,
null,,confidence_buffer,214567,confidence_buffer,,null,,,,,,,,
1917.4000000003725,,recognition_phase,216487,US_Cities_List/mm_peoria.png,,49,,,,,,old,1,0.5714285714285714
null,,confidence_buffer,216591,confidence_buffer,,null,,,,,,,,
null,,thebreak,217093,break,,null,,,,,,,,
1663.4000000003725,,realistic_rating,218759,US_Cities_List/nat_peoria.png,,53,US_Cities_List/nat_peoria.png,NAT,5,,,,,
null,,confidence_buffer,218863,confidence_buffer,,null,,,,,,,,
629.4000000003725,,pt2_unique_rating,219495,US_Cities_List/nat_peoria.png,,52,,,4,,,,,
null,,confidence_buffer,219598,confidence_buffer,,null,,,,,,,,
582.7999999998137,,pt2_memorable_rating,220183,US_Cities_List/nat_peoria.png,,51,,,3,,,,,
null,,confidence_buffer,220287,confidence_buffer,,null,,,,,,,,
5070.100000000559,,recognition_phase,225360,US_Cities_List/nat_peoria.png,,50,,,,,,old,0,0.5
null,,confidence_buffer,225463,confidence_buffer,,null,,,,,,,,
null,,thebreak,225966,break,,null,,,,,,,,
1726.2000000001863,,realistic_rating,227695,US_Cities_List/mm_delawarecity.png,,53,US_Cities_List/mm_delawarecity.png,MM,5,,,,,
null,,confidence_buffer,227799,confidence_buffer,,null,,,,,,,,
646.4000000003725,,pt2_unique_rating,228448,US_Cities_List/mm_delawarecity.png,,52,,,4,,,,,
null,,confidence_buffer,228551,confidence_buffer,,null,,,,,,,,
397.1000000005588,,pt2_memorable_rating,228951,US_Cities_List/mm_delawarecity.png,,51,,,3,,,,,
null,,confidence_buffer,229054,confidence_buffer,,null,,,,,,,,
2918.2000000001863,,recognition_phase,231975,US_Cities_List/mm_delawarecity.png,,52,,,,,,new,0,0.4444444444444444
null,,confidence_buffer,232079,confidence_buffer,,null,,,,,,,,
null,,thebreak,232582,break,,null,,,,,,,,
1678.5,,realistic_rating,234263,US_Cities_List/nat_sitka.png,,52,US_Cities_List/nat_sitka.png,NAT,4,,,,,
null,,confidence_buffer,234367,confidence_buffer,,null,,,,,,,,
333.30000000074506,,pt2_unique_rating,234703,US_Cities_List/nat_sitka.png,,51,,,3,,,,,
null,,confidence_buffer,234807,confidence_buffer,,null,,,,,,,,
477.20000000018626,,pt2_memorable_rating,235287,US_Cities_List/nat_sitka.png,,50,,,2,,,,,
null,,confidence_buffer,235390,confidence_buffer,,null,,,,,,,,
1902.5,,recognition_phase,237295,US_Cities_List/nat_sitka.png,,50,,,,,,old,0,0.4
null,,confidence_buffer,237399,confidence_buffer,,null,,,,,,,,
null,,thebreak,237901,break,,null,,,,,,,,
1455.5,,realistic_rating,239359,US_Cities_List/mm_coeurdalene.png,,53,US_Cities_List/mm_coeurdalene.png,MM,5,,,,,
null,,confidence_buffer,239462,confidence_buffer,,null,,,,,,,,
286.40000000037253,,pt2_unique_rating,239751,US_Cities_List/mm_coeurdalene.png,,52,,,4,,,,,
null,,confidence_buffer,239854,confidence_buffer,,null,,,,,,,,
742,,pt2_memorable_rating,240599,US_Cities_List/mm_coeurdalene.png,,51,,,3,,,,,
null,,confidence_buffer,240703,confidence_buffer,,null,,,,,,,,
1701,,recognition_phase,242407,US_Cities_List/mm_coeurdalene.png,,50,,,,,,old,0,0.36363636363636365
null,,confidence_buffer,242511,confidence_buffer,,null,,,,,,,,
null,,thebreak,243013,break,,null,,,,,,,,
1887.7000000001863,,realistic_rating,244904,US_Cities_List/mm_athens.png,,53,US_Cities_List/mm_athens.png,MM,5,,,,,
null,,confidence_buffer,245007,confidence_buffer,,null,,,,,,,,
300.8999999994412,,pt2_unique_rating,245311,US_Cities_List/mm_athens.png,,52,,,4,,,,,
null,,confidence_buffer,245414,confidence_buffer,,null,,,,,,,,
430.79999999981374,,pt2_memorable_rating,245848,US_Cities_List/mm_athens.png,,51,,,3,,,,,
null,,confidence_buffer,245951,confidence_buffer,,null,,,,,,,,
586.7999999998137,,recognition_phase,246541,US_Cities_List/mm_athens.png,,50,,,,,,old,0,0.3333333333333333
null,,confidence_buffer,246643,confidence_buffer,,null,,,,,,,,
null,,thebreak,247146,break,,null,,,,,,,,
2178.399999999441,,realistic_rating,249327,US_Cities_List/mm_okoboji.png,,53,US_Cities_List/mm_okoboji.png,MM,5,,,,,
null,,confidence_buffer,249430,confidence_buffer,,null,,,,,,,,
270.09999999962747,,pt2_unique_rating,249703,US_Cities_List/mm_okoboji.png,,52,,,4,,,,,
null,,confidence_buffer,249807,confidence_buffer,,null,,,,,,,,
1757.7000000001863,,probe_rating,251567,probe_rating,,51,,,,3,1,,,
null,,confidence_buffer,251670,confidence_buffer,,null,,,,,,,,
2958.2000000001863,,pt2_memorable_rating,254631,US_Cities_List/mm_okoboji.png,,52,,,4,,,,,
null,,confidence_buffer,254736,confidence_buffer,,null,,,,,,,,
4867.799999999814,,recognition_phase,259607,US_Cities_List/mm_okoboji.png,,50,,,,,,old,0,0.3076923076923077
null,,confidence_buffer,259711,confidence_buffer,,null,,,,,,,,
null,,thebreak,260213,break,,null,,,,,,,,
1503.9000000003725,,realistic_rating,261719,US_Cities_List/mm_westpalmbeach.png,,53,US_Cities_List/mm_westpalmbeach.png,MM,5,,,,,
null,,confidence_buffer,261822,confidence_buffer,,null,,,,,,,,
415,,pt2_unique_rating,262241,US_Cities_List/mm_westpalmbeach.png,,52,,,4,,,,,
null,,confidence_buffer,262344,confidence_buffer,,null,,,,,,,,
540.5999999996275,,pt2_memorable_rating,262887,US_Cities_List/mm_westpalmbeach.png,,51,,,3,,,,,
null,,confidence_buffer,262990,confidence_buffer,,null,,,,,,,,
1412,,recognition_phase,264404,US_Cities_List/mm_westpalmbeach.png,,49,,,,,,old,1,0.35714285714285715
null,,confidence_buffer,264506,confidence_buffer,,null,,,,,,,,
null,,thebreak,265008,break,,null,,,,,,,,
1284.3999999994412,,realistic_rating,266295,Fictional_Cities_List/img_natural_06.png,,53,Fictional_Cities_List/img_natural_06.png,NAT,5,,,,,
null,,confidence_buffer,266399,confidence_buffer,,null,,,,,,,,
723.4000000003725,,pt2_unique_rating,267124,Fictional_Cities_List/img_natural_06.png,,52,,,4,,,,,
null,,confidence_buffer,267227,confidence_buffer,,null,,,,,,,,
498.5,,pt2_memorable_rating,267728,Fictional_Cities_List/img_natural_06.png,,50,,,2,,,,,
null,,confidence_buffer,267832,confidence_buffer,,null,,,,,,,,
1748.5999999996275,,recognition_phase,269583,Fictional_Cities_List/img_natural_06.png,,50,,,,,,old,0,0.3333333333333333
null,,confidence_buffer,269687,confidence_buffer,,null,,,,,,,,
null,,thebreak,270189,break,,null,,,,,,,,
1375.0999999996275,,realistic_rating,271567,Fictional_Cities_List/img_natural_07.png,,53,Fictional_Cities_List/img_natural_07.png,NAT,5,,,,,
null,,confidence_buffer,271671,confidence_buffer,,null,,,,,,,,
910,,pt2_unique_rating,272583,Fictional_Cities_List/img_natural_07.png,,52,,,4,,,,,
null,,confidence_buffer,272686,confidence_buffer,,null,,,,,,,,
318.09999999962747,,pt2_memorable_rating,273007,Fictional_Cities_List/img_natural_07.png,,51,,,3,,,,,
null,,confidence_buffer,273110,confidence_buffer,,null,,,,,,,,
1502.2999999998137,,recognition_phase,274615,Fictional_Cities_List/img_natural_07.png,,49,,,,,,old,1,0.375
null,,confidence_buffer,274718,confidence_buffer,,null,,,,,,,,
null,,thebreak,275220,break,,null,,,,,,,,
1360,,realistic_rating,276584,Fictional_Cities_List/img_manmade_11.png,,53,Fictional_Cities_List/img_manmade_11.png,MM,5,,,,,
null,,confidence_buffer,276689,confidence_buffer,,null,,,,,,,,
611.5,,pt2_unique_rating,277303,Fictional_Cities_List/img_manmade_11.png,,52,,,4,,,,,
null,,confidence_buffer,277407,confidence_buffer,,null,,,,,,,,
1909.5,,probe_rating,279319,probe_rating,,52,,,,4,1,,,
null,,confidence_buffer,279423,confidence_buffer,,null,,,,,,,,
2069.4000000003725,,pt2_memorable_rating,281495,Fictional_Cities_List/img_manmade_11.png,,51,,,3,,,,,
null,,confidence_buffer,281599,confidence_buffer,,null,,,,,,,,
2413.9000000003725,,recognition_phase,284016,Fictional_Cities_List/img_manmade_11.png,,49,,,,,,old,1,0.4117647058823529
null,,confidence_buffer,284120,confidence_buffer,,null,,,,,,,,
null,,thebreak,284621,break,,null,,,,,,,,
1526.9000000003725,,realistic_rating,286151,US_Cities_List/mm_abilene.png,,52,US_Cities_List/mm_abilene.png,MM,4,,,,,
null,,confidence_buffer,286255,confidence_buffer,,null,,,,,,,,
909.5999999996275,,pt2_unique_rating,287167,US_Cities_List/mm_abilene.png,,51,,,3,,,,,
null,,confidence_buffer,287271,confidence_buffer,,null,,,,,,,,
957.8999999994412,,pt2_memorable_rating,288231,US_Cities_List/mm_abilene.png,,50,,,2,,,,,
null,,confidence_buffer,288335,confidence_buffer,,null,,,,,,,,
1325.300000000745,,recognition_phase,289663,US_Cities_List/mm_abilene.png,,49,,,,,,old,1,0.4444444444444444
null,,confidence_buffer,289767,confidence_buffer,,null,,,,,,,,
null,,thebreak,290268,break,,null,,,,,,,,
1425.2999999998137,,realistic_rating,291697,Fictional_Cities_List/img_natural_14.png,,53,Fictional_Cities_List/img_natural_14.png,NAT,5,,,,,
null,,confidence_buffer,291801,confidence_buffer,,null,,,,,,,,
755.5,,pt2_unique_rating,292559,Fictional_Cities_List/img_natural_14.png,,52,,,4,,,,,
null,,confidence_buffer,292663,confidence_buffer,,null,,,,,,,,
661.5999999996275,,pt2_memorable_rating,293327,Fictional_Cities_List/img_natural_14.png,,51,,,3,,,,,
null,,confidence_buffer,293430,confidence_buffer,,null,,,,,,,,
1502.7999999998137,,recognition_phase,294936,Fictional_Cities_List/img_natural_14.png,,52,,,,,,new,1,0.47368421052631576
null,,confidence_buffer,295039,confidence_buffer,,null,,,,,,,,
null,,thebreak,295542,break,,null,,,,,,,,
1526.9000000003725,,realistic_rating,297072,US_Cities_List/nat_carmel.png,,52,US_Cities_List/nat_carmel.png,NAT,4,,,,,
null,,confidence_buffer,297175,confidence_buffer,,null,,,,,,,,
917.1000000005588,,pt2_unique_rating,298095,US_Cities_List/nat_carmel.png,,51,,,3,,,,,
null,,confidence_buffer,298198,confidence_buffer,,null,,,,,,,,
870.9000000003725,,pt2_memorable_rating,299071,US_Cities_List/nat_carmel.png,,50,,,2,,,,,
null,,confidence_buffer,299174,confidence_buffer,,null,,,,,,,,
2077.7000000001863,,recognition_phase,301255,US_Cities_List/nat_carmel.png,,52,,,,,,new,1,0.5
null,,confidence_buffer,301358,confidence_buffer,,null,,,,,,,,
null,,thebreak,301860,break,,null,,,,,,,,
1351.9000000003725,,realistic_rating,303215,US_Cities_List/nat_okoboji.png,,52,US_Cities_List/nat_okoboji.png,NAT,4,,,,,
null,,confidence_buffer,303318,confidence_buffer,,null,,,,,,,,
502.20000000018626,,pt2_unique_rating,303823,US_Cities_List/nat_okoboji.png,,51,,,3,,,,,
null,,confidence_buffer,303927,confidence_buffer,,null,,,,,,,,
933.5999999996275,,pt2_memorable_rating,304863,US_Cities_List/nat_okoboji.png,,50,,,2,,,,,
null,,confidence_buffer,304967,confidence_buffer,,null,,,,,,,,
1133.9000000003725,,recognition_phase,306103,US_Cities_List/nat_okoboji.png,,49,,,,,,old,1,0.5238095238095238
null,,confidence_buffer,306207,confidence_buffer,,null,,,,,,,,
null,,thebreak,306723,break,,null,,,,,,,,
1825.2000000001863,,realistic_rating,308551,Fictional_Cities_List/img_manmade_07.png,,52,Fictional_Cities_List/img_manmade_07.png,MM,4,,,,,
null,,confidence_buffer,308655,confidence_buffer,,null,,,,,,,,
605.2999999998137,,pt2_unique_rating,309263,Fictional_Cities_List/img_manmade_07.png,,51,,,3,,,,,
null,,confidence_buffer,309367,confidence_buffer,,null,,,,,,,,
541.7999999998137,,pt2_memorable_rating,309911,Fictional_Cities_List/img_manmade_07.png,,50,,,2,,,,,
null,,confidence_buffer,310015,confidence_buffer,,null,,,,,,,,
821.5,,recognition_phase,310839,Fictional_Cities_List/img_manmade_07.png,,49,,,,,,old,1,0.5454545454545454
null,,confidence_buffer,310942,confidence_buffer,,null,,,,,,,,
null,,thebreak,311444,break,,null,,,,,,,,
1272.0999999996275,,realistic_rating,312719,US_Cities_List/nat_coeurdalene.png,,52,US_Cities_List/nat_coeurdalene.png,NAT,4,,,,,
null,,confidence_buffer,312823,confidence_buffer,,null,,,,,,,,
645.6000000005588,,pt2_unique_rating,313471,US_Cities_List/nat_coeurdalene.png,,51,,,3,,,,,
null,,confidence_buffer,313574,confidence_buffer,,null,,,,,,,,
1070.5999999996275,,pt2_memorable_rating,314647,US_Cities_List/nat_coeurdalene.png,,50,,,2,,,,,
null,,confidence_buffer,314751,confidence_buffer,,null,,,,,,,,
1668.300000000745,,recognition_phase,316421,US_Cities_List/nat_coeurdalene.png,,51,,,,,,new,1,0.5652173913043478
null,,confidence_buffer,316523,confidence_buffer,,null,,,,,,,,
null,,thebreak,317025,break,,null,,,,,,,,
1163.3999999994412,,realistic_rating,318191,Fictional_Cities_List/img_natural_03.png,,52,Fictional_Cities_List/img_natural_03.png,NAT,4,,,,,
null,,confidence_buffer,318295,confidence_buffer,,null,,,,,,,,
789.9000000003725,,pt2_unique_rating,319087,Fictional_Cities_List/img_natural_03.png,,51,,,3,,,,,
null,,confidence_buffer,319190,confidence_buffer,,null,,,,,,,,
646,,pt2_memorable_rating,319839,Fictional_Cities_List/img_natural_03.png,,50,,,2,,,,,
null,,confidence_buffer,319942,confidence_buffer,,null,,,,,,,,
1238.0999999996275,,recognition_phase,321183,Fictional_Cities_List/img_natural_03.png,,51,,,,,,new,1,0.5833333333333334
null,,confidence_buffer,321286,confidence_buffer,,null,,,,,,,,
null,,thebreak,321789,break,,null,,,,,,,,
935.7000000001863,,realistic_rating,322727,Fictional_Cities_List/img_natural_01.png,,52,Fictional_Cities_List/img_natural_01.png,NAT,4,,,,,
null,,confidence_buffer,322831,confidence_buffer,,null,,,,,,,,
477.90000000037253,,pt2_unique_rating,323312,Fictional_Cities_List/img_natural_01.png,,51,,,3,,,,,
null,,confidence_buffer,323417,confidence_buffer,,null,,,,,,,,
563.9000000003725,,pt2_memorable_rating,323984,Fictional_Cities_List/img_natural_01.png,,50,,,2,,,,,
null,,confidence_buffer,324087,confidence_buffer,,null,,,,,,,,
1125.699999999255,,recognition_phase,325215,Fictional_Cities_List/img_natural_01.png,,49,,,,,,old,1,0.6
null,,confidence_buffer,325319,confidence_buffer,,null,,,,,,,,
null,,thebreak,325820,break,,null,,,,,,,,
1151.9000000003725,,realistic_rating,326975,Fictional_Cities_List/img_natural_05.png,,52,Fictional_Cities_List/img_natural_05.png,NAT,4,,,,,
null,,confidence_buffer,327078,confidence_buffer,,null,,,,,,,,
485.8999999994412,,pt2_unique_rating,327567,Fictional_Cities_List/img_natural_05.png,,51,,,3,,,,,
null,,confidence_buffer,327670,confidence_buffer,,null,,,,,,,,
534.7000000001863,,pt2_memorable_rating,328208,Fictional_Cities_List/img_natural_05.png,,50,,,2,,,,,
null,,confidence_buffer,328312,confidence_buffer,,null,,,,,,,,
1683.7000000001863,,recognition_phase,329999,Fictional_Cities_List/img_natural_05.png,,51,,,,,,new,0,0.5769230769230769
null,,confidence_buffer,330102,confidence_buffer,,null,,,,,,,,
null,,thebreak,330604,break,,null,,,,,,,,
1111.800000000745,,realistic_rating,331719,US_Cities_List/nat_delawarecity.png,,52,US_Cities_List/nat_delawarecity.png,NAT,4,,,,,
null,,confidence_buffer,331823,confidence_buffer,,null,,,,,,,,
1853.5999999996275,,pt2_unique_rating,333679,US_Cities_List/nat_delawarecity.png,,51,,,3,,,,,
null,,confidence_buffer,333782,confidence_buffer,,null,,,,,,,,
606.5,,pt2_memorable_rating,334391,US_Cities_List/nat_delawarecity.png,,50,,,2,,,,,
null,,confidence_buffer,334495,confidence_buffer,,null,,,,,,,,
100.09999999962747,,recognition_phase,334597,US_Cities_List/nat_delawarecity.png,,50,,,,,,old,0,0.5555555555555556
null,,confidence_buffer,334700,confidence_buffer,,null,,,,,,,,
null,,thebreak,335202,break,,null,,,,,,,,
2803.100000000559,,realistic_rating,338008,Fictional_Cities_List/img_manmade_06.png,,52,Fictional_Cities_List/img_manmade_06.png,MM,4,,,,,
null,,confidence_buffer,338112,confidence_buffer,,null,,,,,,,,
404.5,,pt2_unique_rating,338520,Fictional_Cities_List/img_manmade_06.png,,51,,,3,,,,,
null,,confidence_buffer,338623,confidence_buffer,,null,,,,,,,,
413.70000000018626,,pt2_memorable_rating,339039,Fictional_Cities_List/img_manmade_06.png,,50,,,2,,,,,
null,,confidence_buffer,339142,confidence_buffer,,null,,,,,,,,
1877.5,,recognition_phase,341023,Fictional_Cities_List/img_manmade_06.png,,52,,,,,,new,1,0.5714285714285714
null,,confidence_buffer,341127,confidence_buffer,,null,,,,,,,,
null,,thebreak,341629,break,,null,,,,,,,,
751.5,,realistic_rating,342384,Fictional_Cities_List/img_manmade_05.png,,51,Fictional_Cities_List/img_manmade_05.png,MM,3,,,,,
null,,confidence_buffer,342487,confidence_buffer,,null,,,,,,,,
629.7999999998137,,pt2_unique_rating,343119,Fictional_Cities_List/img_manmade_05.png,,50,,,2,,,,,
null,,confidence_buffer,343222,confidence_buffer,,null,,,,,,,,
1206.1000000005588,,pt2_memorable_rating,344431,Fictional_Cities_List/img_manmade_05.png,,52,,,4,,,,,
null,,confidence_buffer,344534,confidence_buffer,,null,,,,,,,,
1134,,recognition_phase,345671,Fictional_Cities_List/img_manmade_05.png,,50,,,,,,old,1,0.5862068965517241
null,,confidence_buffer,345775,confidence_buffer,,null,,,,,,,,
null,,thebreak,346277,break,,null,,,,,,,,
647.0999999996275,,realistic_rating,346927,Fictional_Cities_List/img_manmade_12.png,,52,Fictional_Cities_List/img_manmade_12.png,MM,4,,,,,
null,,confidence_buffer,347031,confidence_buffer,,null,,,,,,,,
477.5,,pt2_unique_rating,347511,Fictional_Cities_List/img_manmade_12.png,,51,,,3,,,,,
null,,confidence_buffer,347615,confidence_buffer,,null,,,,,,,,
581.4000000003725,,pt2_memorable_rating,348200,Fictional_Cities_List/img_manmade_12.png,,50,,,2,,,,,
null,,confidence_buffer,348315,confidence_buffer,,null,,,,,,,,
6168.800000000745,,recognition_phase,354487,Fictional_Cities_List/img_manmade_12.png,,50,,,,,,old,0,0.5666666666666667
null,,confidence_buffer,354590,confidence_buffer,,null,,,,,,,,
null,,thebreak,355092,break,,null,,,,,,,,
1408.2000000001863,,realistic_rating,356503,Fictional_Cities_List/img_natural_10.png,,52,Fictional_Cities_List/img_natural_10.png,NAT,4,,,,,
null,,confidence_buffer,356607,confidence_buffer,,null,,,,,,,,
340.79999999981374,,pt2_unique_rating,356951,Fictional_Cities_List/img_natural_10.png,,51,,,3,,,,,
null,,confidence_buffer,357055,confidence_buffer,,null,,,,,,,,
1317.9000000003725,,pt2_memorable_rating,358376,Fictional_Cities_List/img_natural_10.png,,51,,,3,,,,,
null,,confidence_buffer,358479,confidence_buffer,,null,,,,,,,,
1108.9000000003725,,recognition_phase,359591,Fictional_Cities_List/img_natural_10.png,,49,,,,,,old,1,0.5806451612903226
null,,confidence_buffer,359694,confidence_buffer,,null,,,,,,,,
null,,thebreak,360197,break,,null,,,,,,,,
1167.1000000005588,,realistic_rating,361367,Fictional_Cities_List/img_natural_13.png,,52,Fictional_Cities_List/img_natural_13.png,NAT,4,,,,,
null,,confidence_buffer,361470,confidence_buffer,,null,,,,,,,,
446.20000000018626,,pt2_unique_rating,361919,Fictional_Cities_List/img_natural_13.png,,51,,,3,,,,,
null,,confidence_buffer,362022,confidence_buffer,,null,,,,,,,,
670.4000000003725,,pt2_memorable_rating,362695,Fictional_Cities_List/img_natural_13.png,,50,,,2,,,,,
null,,confidence_buffer,362798,confidence_buffer,,null,,,,,,,,
1254.5,,recognition_phase,364055,Fictional_Cities_List/img_natural_13.png,,52,,,,,,new,1,0.59375
null,,confidence_buffer,364158,confidence_buffer,,null,,,,,,,,
null,,thebreak,364660,break,,null,,,,,,,,
1040,,realistic_rating,365703,US_Cities_List/mm_sitka.png,,51,US_Cities_List/mm_sitka.png,MM,3,,,,,
null,,confidence_buffer,365806,confidence_buffer,,null,,,,,,,,
326.1000000005588,,probe_rating,366135,probe_rating,,50,,,,2,0,,,
null,,confidence_buffer,366240,confidence_buffer,,null,,,,,,,,
1516.5999999996275,,pt2_unique_rating,367759,US_Cities_List/mm_sitka.png,,52,,,4,,,,,
null,,confidence_buffer,367863,confidence_buffer,,null,,,,,,,,
2821.5,,pt2_memorable_rating,370687,US_Cities_List/mm_sitka.png,,51,,,3,,,,,
null,,confidence_buffer,370790,confidence_buffer,,null,,,,,,,,
1277.800000000745,,recognition_phase,372071,US_Cities_List/mm_sitka.png,,49,,,,,,old,1,0.6060606060606061
null,,confidence_buffer,372174,confidence_buffer,,null,,,,,,,,
null,,thebreak,372677,break,,null,,,,,,,,
1567.2000000001863,,realistic_rating,374247,Fictional_Cities_List/img_manmade_02.png,,53,Fictional_Cities_List/img_manmade_02.png,MM,5,,,,,
null,,confidence_buffer,374350,confidence_buffer,,null,,,,,,,,
342.20000000018626,,pt2_unique_rating,374695,Fictional_Cities_List/img_manmade_02.png,,52,,,4,,,,,
null,,confidence_buffer,374798,confidence_buffer,,null,,,,,,,,
1438.5,,probe_rating,376239,probe_rating,,50,,,,2,1,,,
null,,confidence_buffer,376343,confidence_buffer,,null,,,,,,,,
1571.7000000001863,,pt2_memorable_rating,377919,Fictional_Cities_List/img_manmade_02.png,,53,,,5,,,,,
null,,confidence_buffer,378022,confidence_buffer,,null,,,,,,,,
2670.5999999996275,,recognition_phase,380695,Fictional_Cities_List/img_manmade_02.png,,51,,,,,,new,1,0.6176470588235294
null,,confidence_buffer,380799,confidence_buffer,,null,,,,,,,,
null,,thebreak,381302,break,,null,,,,,,,,
1486.7000000001863,,realistic_rating,382791,Fictional_Cities_List/img_natural_08.png,,53,Fictional_Cities_List/img_natural_08.png,NAT,5,,,,,
null,,confidence_buffer,382895,confidence_buffer,,null,,,,,,,,
885.7000000001863,,pt2_unique_rating,383783,Fictional_Cities_List/img_natural_08.png,,52,,,4,,,,,
null,,confidence_buffer,383887,confidence_buffer,,null,,,,,,,,
501.40000000037253,,pt2_memorable_rating,384391,Fictional_Cities_List/img_natural_08.png,,51,,,3,,,,,
null,,confidence_buffer,384494,confidence_buffer,,null,,,,,,,,
1214.2999999998137,,recognition_phase,385711,Fictional_Cities_List/img_natural_08.png,,49,,,,,,old,1,0.6285714285714286
null,,confidence_buffer,385814,confidence_buffer,,null,,,,,,,,
null,,thebreak,386316,break,,null,,,,,,,,
1535.6000000005588,,realistic_rating,387855,US_Cities_List/nat_hotsprings.png,,53,US_Cities_List/nat_hotsprings.png,NAT,5,,,,,
null,,confidence_buffer,387958,confidence_buffer,,null,,,,,,,,
758.3000000007451,,probe_rating,388719,probe_rating,,52,,,,4,0,,,
null,,confidence_buffer,388823,confidence_buffer,,null,,,,,,,,
757.3000000007451,,pt2_unique_rating,389583,US_Cities_List/nat_hotsprings.png,,50,,,2,,,,,
null,,confidence_buffer,389687,confidence_buffer,,null,,,,,,,,
1061.699999999255,,pt2_memorable_rating,390751,US_Cities_List/nat_hotsprings.png,,52,,,4,,,,,
null,,confidence_buffer,390855,confidence_buffer,,null,,,,,,,,
1405.7000000001863,,recognition_phase,392264,US_Cities_List/nat_hotsprings.png,,50,,,,,,old,1,0.6388888888888888
null,,confidence_buffer,392367,confidence_buffer,,null,,,,,,,,
null,,thebreak,392869,break,,null,,,,,,,,
1575.0999999996275,,realistic_rating,394447,US_Cities_List/nat_healdsburg.png,,53,US_Cities_List/nat_healdsburg.png,NAT,5,,,,,
null,,confidence_buffer,394551,confidence_buffer,,null,,,,,,,,
453.70000000018626,,pt2_unique_rating,395007,US_Cities_List/nat_healdsburg.png,,52,,,4,,,,,
null,,confidence_buffer,395111,confidence_buffer,,null,,,,,,,,
1485.300000000745,,probe_rating,396599,probe_rating,,53,,,,5,1,,,
null,,confidence_buffer,396703,confidence_buffer,,null,,,,,,,,
1165.5999999996275,,pt2_memorable_rating,397871,US_Cities_List/nat_healdsburg.png,,52,,,4,,,,,
null,,confidence_buffer,397975,confidence_buffer,,null,,,,,,,,
1188.9000000003725,,recognition_phase,399167,US_Cities_List/nat_healdsburg.png,,50,,,,,,old,1,0.6486486486486487
null,,confidence_buffer,399271,confidence_buffer,,null,,,,,,,,
null,,thebreak,399773,break,,null,,,,,,,,
1423.5,,realistic_rating,401199,US_Cities_List/mm_hilo.png,,53,US_Cities_List/mm_hilo.png,MM,5,,,,,
null,,confidence_buffer,401303,confidence_buffer,,null,,,,,,,,
349.6000000005588,,pt2_unique_rating,401656,US_Cities_List/mm_hilo.png,,52,,,4,,,,,
null,,confidence_buffer,401760,confidence_buffer,,null,,,,,,,,
1068.800000000745,,pt2_memorable_rating,402831,US_Cities_List/mm_hilo.png,,51,,,3,,,,,
null,,confidence_buffer,402934,confidence_buffer,,null,,,,,,,,
1670,,recognition_phase,404607,US_Cities_List/mm_hilo.png,,49,,,,,,old,1,0.6578947368421053
null,,confidence_buffer,404711,confidence_buffer,,null,,,,,,,,
null,,thebreak,405213,break,,null,,,,,,,,
1231.5999999996275,,realistic_rating,406447,Fictional_Cities_List/img_natural_04.png,,53,Fictional_Cities_List/img_natural_04.png,NAT,5,,,,,
null,,confidence_buffer,406551,confidence_buffer,,null,,,,,,,,
445.70000000018626,,pt2_unique_rating,406999,Fictional_Cities_List/img_natural_04.png,,52,,,4,,,,,
null,,confidence_buffer,407102,confidence_buffer,,null,,,,,,,,
741.7000000001863,,pt2_memorable_rating,407847,Fictional_Cities_List/img_natural_04.png,,51,,,3,,,,,
null,,confidence_buffer,407950,confidence_buffer,,null,,,,,,,,
1726.2000000001863,,recognition_phase,409679,Fictional_Cities_List/img_natural_04.png,,51,,,,,,new,1,0.6666666666666666
null,,confidence_buffer,409783,confidence_buffer,,null,,,,,,,,
null,,thebreak,410285,break,,null,,,,,,,,
1511.2999999998137,,realistic_rating,411799,Fictional_Cities_List/img_manmade_03.png,,53,Fictional_Cities_List/img_manmade_03.png,MM,5,,,,,
null,,confidence_buffer,411903,confidence_buffer,,null,,,,,,,,
797.6000000005588,,pt2_unique_rating,412703,Fictional_Cities_List/img_manmade_03.png,,52,,,4,,,,,
null,,confidence_buffer,412807,confidence_buffer,,null,,,,,,,,
381.6000000005588,,pt2_memorable_rating,413191,Fictional_Cities_List/img_manmade_03.png,,51,,,3,,,,,
null,,confidence_buffer,413295,confidence_buffer,,null,,,,,,,,
1885.5,,recognition_phase,415183,Fictional_Cities_List/img_manmade_03.png,,51,,,,,,new,1,0.675
null,,confidence_buffer,415287,confidence_buffer,,null,,,,,,,,
null,,thebreak,415789,break,,null,,,,,,,,
1087.2999999998137,,realistic_rating,416879,US_Cities_List/nat_boulder.png,,50,US_Cities_List/nat_boulder.png,NAT,2,,,,,
null,,confidence_buffer,416983,confidence_buffer,,null,,,,,,,,
573.2000000001863,,pt2_unique_rating,417559,US_Cities_List/nat_boulder.png,,51,,,3,,,,,
null,,confidence_buffer,417663,confidence_buffer,,null,,,,,,,,
485,,pt2_memorable_rating,418151,US_Cities_List/nat_boulder.png,,52,,,4,,,,,
null,,confidence_buffer,418254,confidence_buffer,,null,,,,,,,,
1821.800000000745,,recognition_phase,420079,US_Cities_List/nat_boulder.png,,52,,,,,,new,0,0.6585365853658537
null,,confidence_buffer,420182,confidence_buffer,,null,,,,,,,,
null,,thebreak,420684,break,,null,,,,,,,,
928.2999999998137,,realistic_rating,421615,US_Cities_List/mm_healdsburg.png,,51,US_Cities_List/mm_healdsburg.png,MM,3,,,,,
null,,confidence_buffer,421718,confidence_buffer,,null,,,,,,,,
878.1999999992549,,pt2_unique_rating,422599,US_Cities_List/mm_healdsburg.png,,50,,,2,,,,,
null,,confidence_buffer,422702,confidence_buffer,,null,,,,,,,,
654,,pt2_memorable_rating,423359,US_Cities_List/mm_healdsburg.png,,51,,,3,,,,,
null,,confidence_buffer,423463,confidence_buffer,,null,,,,,,,,
1453.2999999998137,,recognition_phase,424919,US_Cities_List/mm_healdsburg.png,,52,,,,,,new,1,0.6666666666666666
null,,confidence_buffer,425023,confidence_buffer,,null,,,,,,,,
null,,thebreak,425526,break,,null,,,,,,,,
726.2999999998137,,realistic_rating,426255,US_Cities_List/mm_bisbee.png,,51,US_Cities_List/mm_bisbee.png,MM,3,,,,,
null,,confidence_buffer,426360,confidence_buffer,,null,,,,,,,,
452.09999999962747,,probe_rating,426815,probe_rating,,50,,,,2,0,,,
