rt,responses,trial_type,time_elapsed,stimulus,button_pressed,key_press,name_trial,city_type,rating,probe,probe_accuracy,response,correct,accuracy,problems,smooth,distraction,strategies,familiar,memorable,unique,realistic,similar,comments
25522.90000000596,{worker_id:6796ecd6b293ff275db6e0f3},id_enter,25537,,,,,,,,,,,,,,,,,,,,,
21163.09999999404,,fullscreen,46703,fullscreen,0,,,,,,,,,,,,,,,,,,,
7730.5999999940395,,intro_0,54436,instruct,,32,,,,,,,,,,,,,,,,,,
15285.299999982119,,intro_1,69724,instruct,,32,,,,,,,,,,,,,,,,,,
9627.59999999404,,intro_2,79354,instruct,,32,,,,,,,,,,,,,,,,,,
null,,instruct_dir_4,80856,instruct,,null,,,,,,,,,,,,,,,,,,
null,,thebreak,81359,break,,null,,,,,,,,,,,,,,,,,,
7290.4000000059605,,familiar_rating,88652,US_Cities_List/nat_okoboji.png,,50,US_Cities_List/nat_okoboji.png,NAT,2,,,,,,,,,,,,,,,
null,,confidence_buffer,88757,confidence_buffer,,null,,,,,,,,,,,,,,,,,,
5698.199999988079,,unique_rating,94458,US_Cities_List/nat_okoboji.png,,52,,,4,,,,,,,,,,,,,,,
null,,confidence_buffer,94562,confidence_buffer,,null,,,,,,,,,,,,,,,,,,
23554.30000001192,,memorable_rating,118119,US_Cities_List/nat_okoboji.png,,50,,,2,,,,,,,,,,,,,,,
null,,confidence_buffer,118223,confidence_buffer,,null,,,,,,,,,,,,,,,,,,
null,,thebreak,118726,break,,null,,,,,,,,,,,,,,,,,,
8962.800000011921,,familiar_rating,127692,US_Cities_List/mm_bisbee.png,,51,US_Cities_List/mm_bisbee.png,MM,3,,,,,,,,,,,,,,,
null,,confidence_buffer,127796,confidence_buffer,,null,,,,,,,,,,,,,,,,,,
3030.600000023842,,unique_rating,130830,US_Cities_List/mm_bisbee.png,,51,,,3,,,,,,,,,,,,,,,
null,,confidence_buffer,130933,confidence_buffer,,null,,,,,,,,,,,,,,,,,,
2567.699999988079,,memorable_rating,133503,US_Cities_List/mm_bisbee.png,,50,,,2,,,,,,,,,,,,,,,
null,,confidence_buffer,133607,confidence_buffer,,null,,,,,,,,,,,,,,,,,,
null,,thebreak,134110,break,,null,,,,,,,,,,,,,,,,,,
6127.5999999940395,,familiar_rating,140240,Fictional_Cities_List/img_manmade_02.png,,51,Fictional_Cities_List/img_manmade_02.png,MM,3,,,,,,,,,,,,,,,
null,,confidence_buffer,140344,confidence_buffer,,null,,,,,,,,,,,,,,,,,,
1531.5999999940395,,unique_rating,141878,Fictional_Cities_List/img_manmade_02.png,,52,,,4,,,,,,,,,,,,,,,
null,,confidence_buffer,141981,confidence_buffer,,null,,,,,,,,,,,,,,,,,,
2675.0999999940395,,memorable_rating,144659,Fictional_Cities_List/img_manmade_02.png,,51,,,3,,,,,,,,,,,,,,,
null,,confidence_buffer,144763,confidence_buffer,,null,,,,,,,,,,,,,,,,,,
null,,thebreak,145265,break,,null,,,,,,,,,,,,,,,,,,
4217.9000000059605,,familiar_rating,149486,US_Cities_List/nat_athens.png,,52,US_Cities_List/nat_athens.png,NAT,4,,,,,,,,,,,,,,,
null,,confidence_buffer,149590,confidence_buffer,,null,,,,,,,,,,,,,,,,,,
1942.7000000178814,,unique_rating,151535,US_Cities_List/nat_athens.png,,52,,,4,,,,,,,,,,,,,,,
null,,confidence_buffer,151639,confidence_buffer,,null,,,,,,,,,,,,,,,,,,
1945.1000000238419,,memorable_rating,153586,US_Cities_List/nat_athens.png,,52,,,4,,,,,,,,,,,,,,,
null,,confidence_buffer,153689,confidence_buffer,,null,,,,,,,,,,,,,,,,,,
null,,thebreak,154191,break,,null,,,,,,,,,,,,,,,,,,
10712.40000000596,,familiar_rating,164906,US_Cities_List/mm_westpalmbeach.png,,50,US_Cities_List/mm_westpalmbeach.png,MM,2,,,,,,,,,,,,,,,
null,,confidence_buffer,165010,confidence_buffer,,null,,,,,,,,,,,,,,,,,,
4901.800000011921,,unique_rating,169914,US_Cities_List/mm_westpalmbeach.png,,53,,,5,,,,,,,,,,,,,,,
null,,confidence_buffer,170017,confidence_buffer,,null,,,,,,,,,,,,,,,,,,
3689.899999976158,,memorable_rating,173710,US_Cities_List/mm_westpalmbeach.png,,50,,,2,,,,,,,,,,,,,,,
null,,confidence_buffer,173812,confidence_buffer,,null,,,,,,,,,,,,,,,,,,
4492.299999982119,,probe_rating,178307,probe_rating,,52,,,,4,1,,,,,,,,,,,,,
null,,confidence_buffer,178412,confidence_buffer,,null,,,,,,,,,,,,,,,,,,
null,,thebreak,178918,break,,null,,,,,,,,,,,,,,,,,,
3456.699999988079,,familiar_rating,182377,Fictional_Cities_List/img_manmade_09.png,,53,Fictional_Cities_List/img_manmade_09.png,MM,5,,,,,,,,,,,,,,,
null,,confidence_buffer,182481,confidence_buffer,,null,,,,,,,,,,,,,,,,,,
3600.9000000059605,,unique_rating,186085,Fictional_Cities_List/img_manmade_09.png,,53,,,5,,,,,,,,,,,,,,,
null,,confidence_buffer,186188,confidence_buffer,,null,,,,,,,,,,,,,,,,,,
1532.699999988079,,memorable_rating,187723,Fictional_Cities_List/img_manmade_09.png,,53,,,5,,,,,,,,,,,,,,,
null,,confidence_buffer,187826,confidence_buffer,,null,,,,,,,,,,,,,,,,,,
null,,thebreak,188329,break,,null,,,,,,,,,,,,,,,,,,
5310.199999988079,,familiar_rating,193642,US_Cities_List/mm_peoria.png,,52,US_Cities_List/mm_peoria.png,MM,4,,,,,,,,,,,,,,,
null,,confidence_buffer,193745,confidence_buffer,,null,,,,,,,,,,,,,,,,,,
2778.5999999940395,,unique_rating,196526,US_Cities_List/mm_peoria.png,,53,,,5,,,,,,,,,,,,,,,
null,,confidence_buffer,196629,confidence_buffer,,null,,,,,,,,,,,,,,,,,,
12256.90000000596,,memorable_rating,208888,US_Cities_List/mm_peoria.png,,52,,,4,,,,,,,,,,,,,,,
null,,confidence_buffer,208991,confidence_buffer,,null,,,,,,,,,,,,,,,,,,
null,,thebreak,209494,break,,null,,,,,,,,,,,,,,,,,,
7288.9000000059605,,familiar_rating,216786,Fictional_Cities_List/img_natural_06.png,,50,Fictional_Cities_List/img_natural_06.png,NAT,2,,,,,,,,,,,,,,,
null,,confidence_buffer,216890,confidence_buffer,,null,,,,,,,,,,,,,,,,,,
1647.2999999821186,,unique_rating,218540,Fictional_Cities_List/img_natural_06.png,,53,,,5,,,,,,,,,,,,,,,
null,,confidence_buffer,218642,confidence_buffer,,null,,,,,,,,,,,,,,,,,,
1785.9000000059605,,memorable_rating,220430,Fictional_Cities_List/img_natural_06.png,,50,,,2,,,,,,,,,,,,,,,
null,,confidence_buffer,220534,confidence_buffer,,null,,,,,,,,,,,,,,,,,,
null,,thebreak,221036,break,,null,,,,,,,,,,,,,,,,,,
5254.5,,familiar_rating,226293,US_Cities_List/nat_bisbee.png,,51,US_Cities_List/nat_bisbee.png,NAT,3,,,,,,,,,,,,,,,
null,,confidence_buffer,226397,confidence_buffer,,null,,,,,,,,,,,,,,,,,,
2701.199999988079,,unique_rating,229101,US_Cities_List/nat_bisbee.png,,53,,,5,,,,,,,,,,,,,,,
null,,confidence_buffer,229205,confidence_buffer,,null,,,,,,,,,,,,,,,,,,
2995.7999999821186,,memorable_rating,232203,US_Cities_List/nat_bisbee.png,,52,,,4,,,,,,,,,,,,,,,
null,,confidence_buffer,232307,confidence_buffer,,null,,,,,,,,,,,,,,,,,,
null,,thebreak,232810,break,,null,,,,,,,,,,,,,,,,,,
2893.7000000178814,,familiar_rating,235706,US_Cities_List/nat_abilene.png,,53,US_Cities_List/nat_abilene.png,NAT,5,,,,,,,,,,,,,,,
null,,confidence_buffer,235810,confidence_buffer,,null,,,,,,,,,,,,,,,,,,
1643.2999999821186,,unique_rating,237457,US_Cities_List/nat_abilene.png,,53,,,5,,,,,,,,,,,,,,,
null,,confidence_buffer,237560,confidence_buffer,,null,,,,,,,,,,,,,,,,,,
1191.0999999940395,,memorable_rating,238754,US_Cities_List/nat_abilene.png,,53,,,5,,,,,,,,,,,,,,,
null,,confidence_buffer,238857,confidence_buffer,,null,,,,,,,,,,,,,,,,,,
null,,thebreak,239359,break,,null,,,,,,,,,,,,,,,,,,
6588.4000000059605,,familiar_rating,245951,US_Cities_List/nat_delawarecity.png,,52,US_Cities_List/nat_delawarecity.png,NAT,4,,,,,,,,,,,,,,,
null,,confidence_buffer,246055,confidence_buffer,,null,,,,,,,,,,,,,,,,,,
1545.2999999821186,,unique_rating,247603,US_Cities_List/nat_delawarecity.png,,52,,,4,,,,,,,,,,,,,,,
null,,confidence_buffer,247706,confidence_buffer,,null,,,,,,,,,,,,,,,,,,
893.6999999880791,,memorable_rating,248602,US_Cities_List/nat_delawarecity.png,,52,,,4,,,,,,,,,,,,,,,
null,,confidence_buffer,248705,confidence_buffer,,null,,,,,,,,,,,,,,,,,,
null,,thebreak,249208,break,,null,,,,,,,,,,,,,,,,,,
5970,,familiar_rating,255180,US_Cities_List/nat_cornwall.png,,51,US_Cities_List/nat_cornwall.png,NAT,3,,,,,,,,,,,,,,,
null,,confidence_buffer,255284,confidence_buffer,,null,,,,,,,,,,,,,,,,,,
1399.7999999821186,,unique_rating,256687,US_Cities_List/nat_cornwall.png,,52,,,4,,,,,,,,,,,,,,,
null,,confidence_buffer,256790,confidence_buffer,,null,,,,,,,,,,,,,,,,,,
1384.699999988079,,memorable_rating,258178,US_Cities_List/nat_cornwall.png,,51,,,3,,,,,,,,,,,,,,,
null,,confidence_buffer,258280,confidence_buffer,,null,,,,,,,,,,,,,,,,,,
null,,thebreak,258783,break,,null,,,,,,,,,,,,,,,,,,
3447,,familiar_rating,262233,Fictional_Cities_List/img_manmade_07.png,,53,Fictional_Cities_List/img_manmade_07.png,MM,5,,,,,,,,,,,,,,,
null,,confidence_buffer,262337,confidence_buffer,,null,,,,,,,,,,,,,,,,,,
1965.4000000059605,,unique_rating,264306,Fictional_Cities_List/img_manmade_07.png,,51,,,3,,,,,,,,,,,,,,,
null,,confidence_buffer,264410,confidence_buffer,,null,,,,,,,,,,,,,,,,,,
2369.7000000178814,,probe_rating,266782,probe_rating,,50,,,,2,1,,,,,,,,,,,,,
null,,confidence_buffer,266884,confidence_buffer,,null,,,,,,,,,,,,,,,,,,
2369.800000011921,,memorable_rating,269255,Fictional_Cities_List/img_manmade_07.png,,51,,,3,,,,,,,,,,,,,,,
null,,confidence_buffer,269359,confidence_buffer,,null,,,,,,,,,,,,,,,,,,
null,,thebreak,269868,break,,null,,,,,,,,,,,,,,,,,,
4790.299999982119,,familiar_rating,274661,Fictional_Cities_List/img_natural_14.png,,53,Fictional_Cities_List/img_natural_14.png,NAT,5,,,,,,,,,,,,,,,
null,,confidence_buffer,274765,confidence_buffer,,null,,,,,,,,,,,,,,,,,,
1960.2000000178814,,unique_rating,276728,Fictional_Cities_List/img_natural_14.png,,53,,,5,,,,,,,,,,,,,,,
null,,confidence_buffer,276830,confidence_buffer,,null,,,,,,,,,,,,,,,,,,
3087.699999988079,,memorable_rating,279921,Fictional_Cities_List/img_natural_14.png,,53,,,5,,,,,,,,,,,,,,,
null,,confidence_buffer,280024,confidence_buffer,,null,,,,,,,,,,,,,,,,,,
4122.300000011921,,probe_rating,284148,probe_rating,,49,,,,1,1,,,,,,,,,,,,,
null,,confidence_buffer,284251,confidence_buffer,,null,,,,,,,,,,,,,,,,,,
null,,thebreak,284754,break,,null,,,,,,,,,,,,,,,,,,
3988.2999999821186,,familiar_rating,288745,Fictional_Cities_List/img_manmade_06.png,,53,Fictional_Cities_List/img_manmade_06.png,MM,5,,,,,,,,,,,,,,,
null,,confidence_buffer,288848,confidence_buffer,,null,,,,,,,,,,,,,,,,,,
1421.1000000238419,,unique_rating,290272,Fictional_Cities_List/img_manmade_06.png,,53,,,5,,,,,,,,,,,,,,,
null,,confidence_buffer,290376,confidence_buffer,,null,,,,,,,,,,,,,,,,,,
1756.800000011921,,memorable_rating,292135,Fictional_Cities_List/img_manmade_06.png,,52,,,4,,,,,,,,,,,,,,,
null,,confidence_buffer,292239,confidence_buffer,,null,,,,,,,,,,,,,,,,,,
null,,thebreak,292741,break,,null,,,,,,,,,,,,,,,,,,
3626.5999999940395,,familiar_rating,296370,US_Cities_List/mm_sitka.png,,52,US_Cities_List/mm_sitka.png,MM,4,,,,,,,,,,,,,,,
null,,confidence_buffer,296474,confidence_buffer,,null,,,,,,,,,,,,,,,,,,
3255.4000000059605,,unique_rating,299732,US_Cities_List/mm_sitka.png,,51,,,3,,,,,,,,,,,,,,,
null,,confidence_buffer,299836,confidence_buffer,,null,,,,,,,,,,,,,,,,,,
1935.2000000178814,,memorable_rating,301774,US_Cities_List/mm_sitka.png,,52,,,4,,,,,,,,,,,,,,,
null,,confidence_buffer,301877,confidence_buffer,,null,,,,,,,,,,,,,,,,,,
null,,thebreak,302379,break,,null,,,,,,,,,,,,,,,,,,
4220,,familiar_rating,306602,Fictional_Cities_List/img_manmade_03.png,,52,Fictional_Cities_List/img_manmade_03.png,MM,4,,,,,,,,,,,,,,,
null,,confidence_buffer,306705,confidence_buffer,,null,,,,,,,,,,,,,,,,,,
1795.2000000178814,,unique_rating,308503,Fictional_Cities_List/img_manmade_03.png,,53,,,5,,,,,,,,,,,,,,,
null,,confidence_buffer,308607,confidence_buffer,,null,,,,,,,,,,,,,,,,,,
1283.9000000059605,,memorable_rating,309893,Fictional_Cities_List/img_manmade_03.png,,51,,,3,,,,,,,,,,,,,,,
null,,confidence_buffer,309996,confidence_buffer,,null,,,,,,,,,,,,,,,,,,
null,,thebreak,310499,break,,null,,,,,,,,,,,,,,,,,,
5158.9000000059605,,familiar_rating,315660,US_Cities_List/mm_boulder.png,,53,US_Cities_List/mm_boulder.png,MM,5,,,,,,,,,,,,,,,
null,,confidence_buffer,315764,confidence_buffer,,null,,,,,,,,,,,,,,,,,,
3030.9000000059605,,probe_rating,318798,probe_rating,,53,,,,5,1,,,,,,,,,,,,,
null,,confidence_buffer,318901,confidence_buffer,,null,,,,,,,,,,,,,,,,,,
4177.5999999940395,,unique_rating,323081,US_Cities_List/mm_boulder.png,,52,,,4,,,,,,,,,,,,,,,
null,,confidence_buffer,323185,confidence_buffer,,null,,,,,,,,,,,,,,,,,,
2011.699999988079,,memorable_rating,325199,US_Cities_List/mm_boulder.png,,52,,,4,,,,,,,,,,,,,,,
null,,confidence_buffer,325303,confidence_buffer,,null,,,,,,,,,,,,,,,,,,
null,,thebreak,325806,break,,null,,,,,,,,,,,,,,,,,,
4503,,familiar_rating,330311,US_Cities_List/nat_coeurdalene.png,,53,US_Cities_List/nat_coeurdalene.png,NAT,5,,,,,,,,,,,,,,,
null,,confidence_buffer,330415,confidence_buffer,,null,,,,,,,,,,,,,,,,,,
1393.7999999821186,,unique_rating,331812,US_Cities_List/nat_coeurdalene.png,,51,,,3,,,,,,,,,,,,,,,
null,,confidence_buffer,331916,confidence_buffer,,null,,,,,,,,,,,,,,,,,,
1779.2000000178814,,memorable_rating,333697,US_Cities_List/nat_coeurdalene.png,,51,,,3,,,,,,,,,,,,,,,
null,,confidence_buffer,333801,confidence_buffer,,null,,,,,,,,,,,,,,,,,,
null,,thebreak,334303,break,,null,,,,,,,,,,,,,,,,,,
6487.300000011921,,familiar_rating,340793,Fictional_Cities_List/img_natural_02.png,,51,Fictional_Cities_List/img_natural_02.png,NAT,3,,,,,,,,,,,,,,,
null,,confidence_buffer,340897,confidence_buffer,,null,,,,,,,,,,,,,,,,,,
1921,,unique_rating,342820,Fictional_Cities_List/img_natural_02.png,,53,,,5,,,,,,,,,,,,,,,
null,,confidence_buffer,342923,confidence_buffer,,null,,,,,,,,,,,,,,,,,,
3913.7000000178814,,memorable_rating,346840,Fictional_Cities_List/img_natural_02.png,,50,,,2,,,,,,,,,,,,,,,
null,,confidence_buffer,346944,confidence_buffer,,null,,,,,,,,,,,,,,,,,,
null,,thebreak,347447,break,,null,,,,,,,,,,,,,,,,,,
3646.5999999940395,,familiar_rating,351096,Fictional_Cities_List/img_manmade_01.png,,52,Fictional_Cities_List/img_manmade_01.png,MM,4,,,,,,,,,,,,,,,
null,,confidence_buffer,351199,confidence_buffer,,null,,,,,,,,,,,,,,,,,,
2097.4000000059605,,unique_rating,353299,Fictional_Cities_List/img_manmade_01.png,,52,,,4,,,,,,,,,,,,,,,
null,,confidence_buffer,353403,confidence_buffer,,null,,,,,,,,,,,,,,,,,,
4643.9000000059605,,memorable_rating,358050,Fictional_Cities_List/img_manmade_01.png,,51,,,3,,,,,,,,,,,,,,,
null,,confidence_buffer,358153,confidence_buffer,,null,,,,,,,,,,,,,,,,,,
null,,thebreak,358656,break,,null,,,,,,,,,,,,,,,,,,
4614.5,,familiar_rating,363273,Fictional_Cities_List/img_natural_01.png,,52,Fictional_Cities_List/img_natural_01.png,NAT,4,,,,,,,,,,,,,,,
null,,confidence_buffer,363378,confidence_buffer,,null,,,,,,,,,,,,,,,,,,
1729.9000000059605,,unique_rating,365110,Fictional_Cities_List/img_natural_01.png,,52,,,4,,,,,,,,,,,,,,,
null,,confidence_buffer,365213,confidence_buffer,,null,,,,,,,,,,,,,,,,,,
7201.4000000059605,,memorable_rating,372418,Fictional_Cities_List/img_natural_01.png,,51,,,3,,,,,,,,,,,,,,,
null,,confidence_buffer,372522,confidence_buffer,,null,,,,,,,,,,,,,,,,,,
null,,thebreak,373034,break,,null,,,,,,,,,,,,,,,,,,
8514.40000000596,,familiar_rating,381551,Fictional_Cities_List/img_natural_13.png,,52,Fictional_Cities_List/img_natural_13.png,NAT,4,,,,,,,,,,,,,,,
null,,confidence_buffer,381654,confidence_buffer,,null,,,,,,,,,,,,,,,,,,
1823.5999999940395,,unique_rating,383480,Fictional_Cities_List/img_natural_13.png,,53,,,5,,,,,,,,,,,,,,,
null,,confidence_buffer,383583,confidence_buffer,,null,,,,,,,,,,,,,,,,,,
2592.5,,memorable_rating,386177,Fictional_Cities_List/img_natural_13.png,,51,,,3,,,,,,,,,,,,,,,
null,,confidence_buffer,386281,confidence_buffer,,null,,,,,,,,,,,,,,,,,,
null,,thebreak,386783,break,,null,,,,,,,,,,,,,,,,,,
6732.9000000059605,,familiar_rating,393519,Fictional_Cities_List/img_manmade_11.png,,50,Fictional_Cities_List/img_manmade_11.png,MM,2,,,,,,,,,,,,,,,
null,,confidence_buffer,393621,confidence_buffer,,null,,,,,,,,,,,,,,,,,,
3327.2999999821186,,unique_rating,396951,Fictional_Cities_List/img_manmade_11.png,,53,,,5,,,,,,,,,,,,,,,
null,,confidence_buffer,397055,confidence_buffer,,null,,,,,,,,,,,,,,,,,,
2432.2000000178814,,memorable_rating,399490,Fictional_Cities_List/img_manmade_11.png,,50,,,2,,,,,,,,,,,,,,,
null,,confidence_buffer,399593,confidence_buffer,,null,,,,,,,,,,,,,,,,,,
null,,thebreak,400109,break,,null,,,,,,,,,,,,,,,,,,
2763.199999988079,,familiar_rating,402876,US_Cities_List/mm_hotsprings.png,,53,US_Cities_List/mm_hotsprings.png,MM,5,,,,,,,,,,,,,,,
null,,confidence_buffer,402979,confidence_buffer,,null,,,,,,,,,,,,,,,,,,
2578.5,,unique_rating,405561,US_Cities_List/mm_hotsprings.png,,53,,,5,,,,,,,,,,,,,,,
null,,confidence_buffer,405664,confidence_buffer,,null,,,,,,,,,,,,,,,,,,
3363.9000000059605,,probe_rating,409031,probe_rating,,50,,,,2,1,,,,,,,,,,,,,
null,,confidence_buffer,409135,confidence_buffer,,null,,,,,,,,,,,,,,,,,,
2426.4000000059605,,memorable_rating,411564,US_Cities_List/mm_hotsprings.png,,52,,,4,,,,,,,,,,,,,,,
null,,confidence_buffer,411667,confidence_buffer,,null,,,,,,,,,,,,,,,,,,
null,,thebreak,412169,break,,null,,,,,,,,,,,,,,,,,,
5657.5,,familiar_rating,417829,Fictional_Cities_List/img_natural_04.png,,50,Fictional_Cities_List/img_natural_04.png,NAT,2,,,,,,,,,,,,,,,
null,,confidence_buffer,417932,confidence_buffer,,null,,,,,,,,,,,,,,,,,,
2247.199999988079,,unique_rating,420182,Fictional_Cities_List/img_natural_04.png,,52,,,4,,,,,,,,,,,,,,,
null,,confidence_buffer,420285,confidence_buffer,,null,,,,,,,,,,,,,,,,,,
2163.199999988079,,memorable_rating,422451,Fictional_Cities_List/img_natural_04.png,,50,,,2,,,,,,,,,,,,,,,
null,,confidence_buffer,422554,confidence_buffer,,null,,,,,,,,,,,,,,,,,,
null,,thebreak,423057,break,,null,,,,,,,,,,,,,,,,,,
10875.800000011921,,familiar_rating,433935,Fictional_Cities_List/img_natural_12.png,,50,Fictional_Cities_List/img_natural_12.png,NAT,2,,,,,,,,,,,,,,,
null,,confidence_buffer,434038,confidence_buffer,,null,,,,,,,,,,,,,,,,,,
2322.5,,unique_rating,436363,Fictional_Cities_List/img_natural_12.png,,52,,,4,,,,,,,,,,,,,,,
null,,confidence_buffer,436467,confidence_buffer,,null,,,,,,,,,,,,,,,,,,
1708,,memorable_rating,438177,Fictional_Cities_List/img_natural_12.png,,50,,,2,,,,,,,,,,,,,,,
null,,confidence_buffer,438282,confidence_buffer,,null,,,,,,,,,,,,,,,,,,
2539.0999999940395,,probe_rating,440824,probe_rating,,53,,,,5,1,,,,,,,,,,,,,
null,,confidence_buffer,440928,confidence_buffer,,null,,,,,,,,,,,,,,,,,,
null,,thebreak,441432,break,,null,,,,,,,,,,,,,,,,,,
5398.399999976158,,familiar_rating,446833,Fictional_Cities_List/img_natural_09.png,,53,Fictional_Cities_List/img_natural_09.png,NAT,5,,,,,,,,,,,,,,,
null,,confidence_buffer,446937,confidence_buffer,,null,,,,,,,,,,,,,,,,,,
1094.5999999940395,,unique_rating,448034,Fictional_Cities_List/img_natural_09.png,,53,,,5,,,,,,,,,,,,,,,
null,,confidence_buffer,448137,confidence_buffer,,null,,,,,,,,,,,,,,,,,,
1758.5,,memorable_rating,449899,Fictional_Cities_List/img_natural_09.png,,53,,,5,,,,,,,,,,,,,,,
null,,confidence_buffer,450003,confidence_buffer,,null,,,,,,,,,,,,,,,,,,
null,,thebreak,450505,break,,null,,,,,,,,,,,,,,,,,,
5632.800000011921,,familiar_rating,456141,US_Cities_List/mm_abilene.png,,51,US_Cities_List/mm_abilene.png,MM,3,,,,,,,,,,,,,,,
null,,confidence_buffer,456244,confidence_buffer,,null,,,,,,,,,,,,,,,,,,
4258.299999982119,,unique_rating,460505,US_Cities_List/mm_abilene.png,,52,,,4,,,,,,,,,,,,,,,
null,,confidence_buffer,460608,confidence_buffer,,null,,,,,,,,,,,,,,,,,,
3041.0999999940395,,memorable_rating,463651,US_Cities_List/mm_abilene.png,,51,,,3,,,,,,,,,,,,,,,
null,,confidence_buffer,463755,confidence_buffer,,null,,,,,,,,,,,,,,,,,,
null,,thebreak,464258,break,,null,,,,,,,,,,,,,,,,,,
5642.299999982119,,familiar_rating,469902,US_Cities_List/mm_okoboji.png,,50,US_Cities_List/mm_okoboji.png,MM,2,,,,,,,,,,,,,,,
null,,confidence_buffer,470006,confidence_buffer,,null,,,,,,,,,,,,,,,,,,
5230.4000000059605,,unique_rating,475239,US_Cities_List/mm_okoboji.png,,52,,,4,,,,,,,,,,,,,,,
null,,confidence_buffer,475341,confidence_buffer,,null,,,,,,,,,,,,,,,,,,
2056.699999988079,,memorable_rating,477401,US_Cities_List/mm_okoboji.png,,50,,,2,,,,,,,,,,,,,,,
null,,confidence_buffer,477504,confidence_buffer,,null,,,,,,,,,,,,,,,,,,
null,,thebreak,478007,break,,null,,,,,,,,,,,,,,,,,,
6565.300000011921,,intro_0,484574,instruct,,32,,,,,,,,,,,,,,,,,,
8248.40000000596,,intro_1,492824,instruct,,32,,,,,,,,,,,,,,,,,,
37708,,intro_2,530533,instruct,,32,,,,,,,,,,,,,,,,,,
null,,instruct_dir_4,532036,instruct,,null,,,,,,,,,,,,,,,,,,
8533,,realistic_rating,540572,US_Cities_List/mm_healdsburg.png,,53,US_Cities_List/mm_healdsburg.png,MM,5,,,,,,,,,,,,,,,
null,,confidence_buffer,540676,confidence_buffer,,null,,,,,,,,,,,,,,,,,,
4670.800000011921,,pt2_unique_rating,545349,US_Cities_List/mm_healdsburg.png,,52,,,4,,,,,,,,,,,,,,,
null,,confidence_buffer,545453,confidence_buffer,,null,,,,,,,,,,,,,,,,,,
3121.4000000059605,,probe_rating,548577,probe_rating,,52,,,,4,1,,,,,,,,,,,,,
null,,confidence_buffer,548680,confidence_buffer,,null,,,,,,,,,,,,,,,,,,
4747.699999988079,,pt2_memorable_rating,553431,US_Cities_List/mm_healdsburg.png,,51,,,3,,,,,,,,,,,,,,,
null,,confidence_buffer,553534,confidence_buffer,,null,,,,,,,,,,,,,,,,,,
6878.800000011921,,recognition_phase,560416,US_Cities_List/mm_healdsburg.png,,52,,,,,,new,1,1,,,,,,,,,,
null,,confidence_buffer,560520,confidence_buffer,,null,,,,,,,,,,,,,,,,,,
null,,thebreak,561022,break,,null,,,,,,,,,,,,,,,,,,
11449.59999999404,,realistic_rating,572474,US_Cities_List/mm_coeurdalene.png,,53,US_Cities_List/mm_coeurdalene.png,MM,5,,,,,,,,,,,,,,,
null,,confidence_buffer,572577,confidence_buffer,,null,,,,,,,,,,,,,,,,,,
2691.699999988079,,pt2_unique_rating,575270,US_Cities_List/mm_coeurdalene.png,,53,,,5,,,,,,,,,,,,,,,
null,,confidence_buffer,575374,confidence_buffer,,null,,,,,,,,,,,,,,,,,,
1634.199999988079,,probe_rating,577011,probe_rating,,49,,,,1,1,,,,,,,,,,,,,
null,,confidence_buffer,577115,confidence_buffer,,null,,,,,,,,,,,,,,,,,,
2551,,pt2_memorable_rating,579669,US_Cities_List/mm_coeurdalene.png,,52,,,4,,,,,,,,,,,,,,,
null,,confidence_buffer,579772,confidence_buffer,,null,,,,,,,,,,,,,,,,,,
3725.5,,recognition_phase,583500,US_Cities_List/mm_coeurdalene.png,,52,,,,,,new,1,1,,,,,,,,,,
null,,confidence_buffer,583604,confidence_buffer,,null,,,,,,,,,,,,,,,,,,
null,,thebreak,584107,break,,null,,,,,,,,,,,,,,,,,,
13372.09999999404,,realistic_rating,597481,US_Cities_List/mm_hilo.png,,52,US_Cities_List/mm_hilo.png,MM,4,,,,,,,,,,,,,,,
null,,confidence_buffer,597585,confidence_buffer,,null,,,,,,,,,,,,,,,,,,
2085.4000000059605,,probe_rating,599674,probe_rating,,51,,,,3,1,,,,,,,,,,,,,
null,,confidence_buffer,599777,confidence_buffer,,null,,,,,,,,,,,,,,,,,,
3851.5,,pt2_unique_rating,603631,US_Cities_List/mm_hilo.png,,52,,,4,,,,,,,,,,,,,,,
null,,confidence_buffer,603735,confidence_buffer,,null,,,,,,,,,,,,,,,,,,
1627.7999999821186,,pt2_memorable_rating,605365,US_Cities_List/mm_hilo.png,,50,,,2,,,,,,,,,,,,,,,
null,,confidence_buffer,605469,confidence_buffer,,null,,,,,,,,,,,,,,,,,,
2769.0999999940395,,recognition_phase,608241,US_Cities_List/mm_hilo.png,,52,,,,,,new,1,1,,,,,,,,,,
null,,confidence_buffer,608345,confidence_buffer,,null,,,,,,,,,,,,,,,,,,
null,,thebreak,608848,break,,null,,,,,,,,,,,,,,,,,,
7941.5999999940395,,realistic_rating,616792,US_Cities_List/mm_westpalmbeach.png,,53,US_Cities_List/mm_westpalmbeach.png,MM,5,,,,,,,,,,,,,,,
null,,confidence_buffer,616896,confidence_buffer,,null,,,,,,,,,,,,,,,,,,
2531.300000011921,,pt2_unique_rating,619430,US_Cities_List/mm_westpalmbeach.png,,53,,,5,,,,,,,,,,,,,,,
null,,confidence_buffer,619533,confidence_buffer,,null,,,,,,,,,,,,,,,,,,
2999.800000011921,,pt2_memorable_rating,622535,US_Cities_List/mm_westpalmbeach.png,,52,,,4,,,,,,,,,,,,,,,
null,,confidence_buffer,622639,confidence_buffer,,null,,,,,,,,,,,,,,,,,,
1839.5,,probe_rating,624481,probe_rating,,50,,,,2,1,,,,,,,,,,,,,
null,,confidence_buffer,624584,confidence_buffer,,null,,,,,,,,,,,,,,,,,,
2462,,recognition_phase,627049,US_Cities_List/mm_westpalmbeach.png,,49,,,,,,old,1,1,,,,,,,,,,
null,,confidence_buffer,627153,confidence_buffer,,null,,,,,,,,,,,,,,,,,,
null,,thebreak,627656,break,,null,,,,,,,,,,,,,,,,,,
4767.0999999940395,,realistic_rating,632425,US_Cities_List/nat_sitka.png,,52,US_Cities_List/nat_sitka.png,NAT,4,,,,,,,,,,,,,,,
null,,confidence_buffer,632529,confidence_buffer,,null,,,,,,,,,,,,,,,,,,
2445.0999999940395,,probe_rating,634977,probe_rating,,53,,,,5,1,,,,,,,,,,,,,
null,,confidence_buffer,635081,confidence_buffer,,null,,,,,,,,,,,,,,,,,,
4817.5999999940395,,pt2_unique_rating,639901,US_Cities_List/nat_sitka.png,,51,,,3,,,,,,,,,,,,,,,
null,,confidence_buffer,640005,confidence_buffer,,null,,,,,,,,,,,,,,,,,,
1586.7999999821186,,pt2_memorable_rating,641594,US_Cities_List/nat_sitka.png,,51,,,3,,,,,,,,,,,,,,,
null,,confidence_buffer,641698,confidence_buffer,,null,,,,,,,,,,,,,,,,,,
4000.5,,recognition_phase,645701,US_Cities_List/nat_sitka.png,,52,,,,,,new,1,1,,,,,,,,,,
null,,confidence_buffer,645802,confidence_buffer,,null,,,,,,,,,,,,,,,,,,
null,,thebreak,646305,break,,null,,,,,,,,,,,,,,,,,,
6357.5999999940395,,realistic_rating,652665,US_Cities_List/nat_delawarecity.png,,53,US_Cities_List/nat_delawarecity.png,NAT,5,,,,,,,,,,,,,,,
null,,confidence_buffer,652768,confidence_buffer,,null,,,,,,,,,,,,,,,,,,
2096,,probe_rating,654867,probe_rating,,52,,,,4,1,,,,,,,,,,,,,
null,,confidence_buffer,654971,confidence_buffer,,null,,,,,,,,,,,,,,,,,,
4473.699999988079,,pt2_unique_rating,659448,US_Cities_List/nat_delawarecity.png,,50,,,2,,,,,,,,,,,,,,,
null,,confidence_buffer,659552,confidence_buffer,,null,,,,,,,,,,,,,,,,,,
3675,,pt2_memorable_rating,663229,US_Cities_List/nat_delawarecity.png,,52,,,4,,,,,,,,,,,,,,,
null,,confidence_buffer,663333,confidence_buffer,,null,,,,,,,,,,,,,,,,,,
2306.5,,recognition_phase,665642,US_Cities_List/nat_delawarecity.png,,49,,,,,,old,1,1,,,,,,,,,,
null,,confidence_buffer,665756,confidence_buffer,,null,,,,,,,,,,,,,,,,,,
null,,thebreak,666271,break,,null,,,,,,,,,,,,,,,,,,
3962.800000011921,,realistic_rating,670237,US_Cities_List/nat_boulder.png,,53,US_Cities_List/nat_boulder.png,NAT,5,,,,,,,,,,,,,,,
null,,confidence_buffer,670340,confidence_buffer,,null,,,,,,,,,,,,,,,,,,
4719.5999999940395,,pt2_unique_rating,675061,US_Cities_List/nat_boulder.png,,51,,,3,,,,,,,,,,,,,,,
null,,confidence_buffer,675165,confidence_buffer,,null,,,,,,,,,,,,,,,,,,
2072.100000023842,,pt2_memorable_rating,677240,US_Cities_List/nat_boulder.png,,51,,,3,,,,,,,,,,,,,,,
null,,confidence_buffer,677342,confidence_buffer,,null,,,,,,,,,,,,,,,,,,
2813.199999988079,,recognition_phase,680158,US_Cities_List/nat_boulder.png,,52,,,,,,new,1,1,,,,,,,,,,
null,,confidence_buffer,680262,confidence_buffer,,null,,,,,,,,,,,,,,,,,,
null,,thebreak,680764,break,,null,,,,,,,,,,,,,,,,,,
6294.800000011921,,realistic_rating,687062,Fictional_Cities_List/img_manmade_11.png,,51,Fictional_Cities_List/img_manmade_11.png,MM,3,,,,,,,,,,,,,,,
null,,confidence_buffer,687166,confidence_buffer,,null,,,,,,,,,,,,,,,,,,
3652.4000000059605,,pt2_unique_rating,690821,Fictional_Cities_List/img_manmade_11.png,,51,,,3,,,,,,,,,,,,,,,
null,,confidence_buffer,690924,confidence_buffer,,null,,,,,,,,,,,,,,,,,,
1821.0999999940395,,pt2_memorable_rating,692748,Fictional_Cities_List/img_manmade_11.png,,50,,,2,,,,,,,,,,,,,,,
null,,confidence_buffer,692850,confidence_buffer,,null,,,,,,,,,,,,,,,,,,
2830.2999999821186,,recognition_phase,695684,Fictional_Cities_List/img_manmade_11.png,,49,,,,,,old,1,1,,,,,,,,,,
null,,confidence_buffer,695786,confidence_buffer,,null,,,,,,,,,,,,,,,,,,
null,,thebreak,696287,break,,null,,,,,,,,,,,,,,,,,,
5162.5999999940395,,realistic_rating,701453,US_Cities_List/nat_cornwall.png,,51,US_Cities_List/nat_cornwall.png,NAT,3,,,,,,,,,,,,,,,
null,,confidence_buffer,701556,confidence_buffer,,null,,,,,,,,,,,,,,,,,,
3898.9000000059605,,pt2_unique_rating,705457,US_Cities_List/nat_cornwall.png,,50,,,2,,,,,,,,,,,,,,,
null,,confidence_buffer,705561,confidence_buffer,,null,,,,,,,,,,,,,,,,,,
1053.4000000059605,,pt2_memorable_rating,706618,US_Cities_List/nat_cornwall.png,,50,,,2,,,,,,,,,,,,,,,
null,,confidence_buffer,706721,confidence_buffer,,null,,,,,,,,,,,,,,,,,,
3243.5999999940395,,recognition_phase,709967,US_Cities_List/nat_cornwall.png,,49,,,,,,old,1,1,,,,,,,,,,
null,,confidence_buffer,710071,confidence_buffer,,null,,,,,,,,,,,,,,,,,,
null,,thebreak,710573,break,,null,,,,,,,,,,,,,,,,,,
7687,,realistic_rating,718263,Fictional_Cities_List/img_natural_08.png,,53,Fictional_Cities_List/img_natural_08.png,NAT,5,,,,,,,,,,,,,,,
null,,confidence_buffer,718381,confidence_buffer,,null,,,,,,,,,,,,,,,,,,
1960.7999999821186,,pt2_unique_rating,720344,Fictional_Cities_List/img_natural_08.png,,52,,,4,,,,,,,,,,,,,,,
null,,confidence_buffer,720448,confidence_buffer,,null,,,,,,,,,,,,,,,,,,
2218.7999999821186,,pt2_memorable_rating,722669,Fictional_Cities_List/img_natural_08.png,,52,,,4,,,,,,,,,,,,,,,
null,,confidence_buffer,722772,confidence_buffer,,null,,,,,,,,,,,,,,,,,,
3180.5,,recognition_phase,725956,Fictional_Cities_List/img_natural_08.png,,52,,,,,,new,1,1,,,,,,,,,,
null,,confidence_buffer,726059,confidence_buffer,,null,,,,,,,,,,,,,,,,,,
null,,thebreak,726568,break,,null,,,,,,,,,,,,,,,,,,
3929.4000000059605,,realistic_rating,730500,US_Cities_List/mm_hotsprings.png,,53,US_Cities_List/mm_hotsprings.png,MM,5,,,,,,,,,,,,,,,
null,,confidence_buffer,730603,confidence_buffer,,null,,,,,,,,,,,,,,,,,,
16058.40000000596,,pt2_unique_rating,746664,US_Cities_List/mm_hotsprings.png,,52,,,4,,,,,,,,,,,,,,,
null,,confidence_buffer,746768,confidence_buffer,,null,,,,,,,,,,,,,,,,,,
3188.899999976158,,pt2_memorable_rating,749959,US_Cities_List/mm_hotsprings.png,,52,,,4,,,,,,,,,,,,,,,
null,,confidence_buffer,750063,confidence_buffer,,null,,,,,,,,,,,,,,,,,,
3745.5999999940395,,recognition_phase,753811,US_Cities_List/mm_hotsprings.png,,49,,,,,,old,1,1,,,,,,,,,,
null,,confidence_buffer,753915,confidence_buffer,,null,,,,,,,,,,,,,,,,,,
null,,thebreak,754417,break,,null,,,,,,,,,,,,,,,,,,
4963.9000000059605,,realistic_rating,759383,Fictional_Cities_List/img_manmade_10.png,,49,Fictional_Cities_List/img_manmade_10.png,MM,1,,,,,,,,,,,,,,,
null,,confidence_buffer,759493,confidence_buffer,,null,,,,,,,,,,,,,,,,,,
5286.5,,pt2_unique_rating,764781,Fictional_Cities_List/img_manmade_10.png,,50,,,2,,,,,,,,,,,,,,,
null,,confidence_buffer,764885,confidence_buffer,,null,,,,,,,,,,,,,,,,,,
2546.5999999940395,,pt2_memorable_rating,767434,Fictional_Cities_List/img_manmade_10.png,,50,,,2,,,,,,,,,,,,,,,
null,,confidence_buffer,767537,confidence_buffer,,null,,,,,,,,,,,,,,,,,,
2218.4000000059605,,recognition_phase,769759,Fictional_Cities_List/img_manmade_10.png,,52,,,,,,new,1,1,,,,,,,,,,
null,,confidence_buffer,769862,confidence_buffer,,null,,,,,,,,,,,,,,,,,,
null,,thebreak,770364,break,,null,,,,,,,,,,,,,,,,,,
3673.4000000059605,,realistic_rating,774040,US_Cities_List/nat_peoria.png,,53,US_Cities_List/nat_peoria.png,NAT,5,,,,,,,,,,,,,,,
null,,confidence_buffer,774143,confidence_buffer,,null,,,,,,,,,,,,,,,,,,
2603.199999988079,,probe_rating,776748,probe_rating,,53,,,,5,1,,,,,,,,,,,,,
null,,confidence_buffer,776852,confidence_buffer,,null,,,,,,,,,,,,,,,,,,
4196,,pt2_unique_rating,781052,US_Cities_List/nat_peoria.png,,51,,,3,,,,,,,,,,,,,,,
null,,confidence_buffer,781156,confidence_buffer,,null,,,,,,,,,,,,,,,,,,
2019,,pt2_memorable_rating,783177,US_Cities_List/nat_peoria.png,,52,,,4,,,,,,,,,,,,,,,
null,,confidence_buffer,783281,confidence_buffer,,null,,,,,,,,,,,,,,,,,,
2623.5,,recognition_phase,785908,US_Cities_List/nat_peoria.png,,52,,,,,,new,1,1,,,,,,,,,,
null,,confidence_buffer,786011,confidence_buffer,,null,,,,,,,,,,,,,,,,,,
null,,thebreak,786514,break,,null,,,,,,,,,,,,,,,,,,
6807.299999982119,,realistic_rating,793323,Fictional_Cities_List/img_manmade_14.png,,52,Fictional_Cities_List/img_manmade_14.png,MM,4,,,,,,,,,,,,,,,
null,,confidence_buffer,793427,confidence_buffer,,null,,,,,,,,,,,,,,,,,,
2454.5,,pt2_unique_rating,795884,Fictional_Cities_List/img_manmade_14.png,,51,,,3,,,,,,,,,,,,,,,
null,,confidence_buffer,795987,confidence_buffer,,null,,,,,,,,,,,,,,,,,,
1929.5999999940395,,pt2_memorable_rating,797919,Fictional_Cities_List/img_manmade_14.png,,51,,,3,,,,,,,,,,,,,,,
null,,confidence_buffer,798023,confidence_buffer,,null,,,,,,,,,,,,,,,,,,
2449.2999999821186,,recognition_phase,800475,Fictional_Cities_List/img_manmade_14.png,,52,,,,,,new,1,1,,,,,,,,,,
null,,confidence_buffer,800579,confidence_buffer,,null,,,,,,,,,,,,,,,,,,
null,,thebreak,801083,break,,null,,,,,,,,,,,,,,,,,,
3381.7999999821186,,realistic_rating,804467,Fictional_Cities_List/img_manmade_04.png,,49,Fictional_Cities_List/img_manmade_04.png,MM,1,,,,,,,,,,,,,,,
null,,confidence_buffer,804571,confidence_buffer,,null,,,,,,,,,,,,,,,,,,
6499.300000011921,,pt2_unique_rating,811073,Fictional_Cities_List/img_manmade_04.png,,50,,,2,,,,,,,,,,,,,,,
null,,confidence_buffer,811190,confidence_buffer,,null,,,,,,,,,,,,,,,,,,
2057.399999976158,,pt2_memorable_rating,813250,Fictional_Cities_List/img_manmade_04.png,,51,,,3,,,,,,,,,,,,,,,
null,,confidence_buffer,813353,confidence_buffer,,null,,,,,,,,,,,,,,,,,,
5462.299999982119,,recognition_phase,818818,Fictional_Cities_List/img_manmade_04.png,,51,,,,,,new,1,1,,,,,,,,,,
null,,confidence_buffer,818921,confidence_buffer,,null,,,,,,,,,,,,,,,,,,
null,,thebreak,819424,break,,null,,,,,,,,,,,,,,,,,,
7543.4000000059605,,realistic_rating,826970,Fictional_Cities_List/img_natural_15.png,,49,Fictional_Cities_List/img_natural_15.png,NAT,1,,,,,,,,,,,,,,,
null,,confidence_buffer,827073,confidence_buffer,,null,,,,,,,,,,,,,,,,,,
3556.4000000059605,,pt2_unique_rating,830632,Fictional_Cities_List/img_natural_15.png,,51,,,3,,,,,,,,,,,,,,,
null,,confidence_buffer,830735,confidence_buffer,,null,,,,,,,,,,,,,,,,,,
2614.100000023842,,pt2_memorable_rating,833351,Fictional_Cities_List/img_natural_15.png,,51,,,3,,,,,,,,,,,,,,,
null,,confidence_buffer,833455,confidence_buffer,,null,,,,,,,,,,,,,,,,,,
1650.2999999821186,,recognition_phase,835108,Fictional_Cities_List/img_natural_15.png,,52,,,,,,new,1,1,,,,,,,,,,
null,,confidence_buffer,835211,confidence_buffer,,null,,,,,,,,,,,,,,,,,,
null,,thebreak,835714,break,,null,,,,,,,,,,,,,,,,,,
7173.899999976158,,realistic_rating,842890,US_Cities_List/mm_athens.png,,52,US_Cities_List/mm_athens.png,MM,4,,,,,,,,,,,,,,,
null,,confidence_buffer,842994,confidence_buffer,,null,,,,,,,,,,,,,,,,,,
1695.5999999940395,,pt2_unique_rating,844692,US_Cities_List/mm_athens.png,,52,,,4,,,,,,,,,,,,,,,
null,,confidence_buffer,844795,confidence_buffer,,null,,,,,,,,,,,,,,,,,,
1813.800000011921,,pt2_memorable_rating,846612,US_Cities_List/mm_athens.png,,51,,,3,,,,,,,,,,,,,,,
null,,confidence_buffer,846715,confidence_buffer,,null,,,,,,,,,,,,,,,,,,
3825.4000000059605,,recognition_phase,850544,US_Cities_List/mm_athens.png,,51,,,,,,new,1,1,,,,,,,,,,
null,,confidence_buffer,850651,confidence_buffer,,null,,,,,,,,,,,,,,,,,,
null,,thebreak,851153,break,,null,,,,,,,,,,,,,,,,,,
8327.40000000596,,realistic_rating,859483,Fictional_Cities_List/img_natural_14.png,,50,Fictional_Cities_List/img_natural_14.png,NAT,2,,,,,,,,,,,,,,,
null,,confidence_buffer,859587,confidence_buffer,,null,,,,,,,,,,,,,,,,,,
2024,,pt2_unique_rating,861614,Fictional_Cities_List/img_natural_14.png,,51,,,3,,,,,,,,,,,,,,,
null,,confidence_buffer,861717,confidence_buffer,,null,,,,,,,,,,,,,,,,,,
2391.0999999940395,,pt2_memorable_rating,864111,Fictional_Cities_List/img_natural_14.png,,51,,,3,,,,,,,,,,,,,,,
null,,confidence_buffer,864214,confidence_buffer,,null,,,,,,,,,,,,,,,,,,
2508,,probe_rating,866725,probe_rating,,52,,,,4,1,,,,,,,,,,,,,
null,,confidence_buffer,866828,confidence_buffer,,null,,,,,,,,,,,,,,,,,,
2611.300000011921,,recognition_phase,869442,Fictional_Cities_List/img_natural_14.png,,49,,,,,,old,1,1,,,,,,,,,,
null,,confidence_buffer,869546,confidence_buffer,,null,,,,,,,,,,,,,,,,,,
null,,thebreak,870049,break,,null,,,,,,,,,,,,,,,,,,
8615.300000011921,,realistic_rating,878668,Fictional_Cities_List/img_natural_07.png,,51,Fictional_Cities_List/img_natural_07.png,NAT,3,,,,,,,,,,,,,,,
null,,confidence_buffer,878771,confidence_buffer,,null,,,,,,,,,,,,,,,,,,
1993.8999999761581,,pt2_unique_rating,880768,Fictional_Cities_List/img_natural_07.png,,52,,,4,,,,,,,,,,,,,,,
null,,confidence_buffer,880871,confidence_buffer,,null,,,,,,,,,,,,,,,,,,
1391.9000000059605,,pt2_memorable_rating,882266,Fictional_Cities_List/img_natural_07.png,,51,,,3,,,,,,,,,,,,,,,
null,,confidence_buffer,882370,confidence_buffer,,null,,,,,,,,,,,,,,,,,,
3338.300000011921,,recognition_phase,885711,Fictional_Cities_List/img_natural_07.png,,52,,,,,,new,1,1,,,,,,,,,,
null,,confidence_buffer,885814,confidence_buffer,,null,,,,,,,,,,,,,,,,,,
null,,thebreak,886317,break,,null,,,,,,,,,,,,,,,,,,
5490.899999976158,,realistic_rating,891811,Fictional_Cities_List/img_natural_06.png,,50,Fictional_Cities_List/img_natural_06.png,NAT,2,,,,,,,,,,,,,,,
null,,confidence_buffer,891914,confidence_buffer,,null,,,,,,,,,,,,,,,,,,
1717.3999999761581,,pt2_unique_rating,893634,Fictional_Cities_List/img_natural_06.png,,51,,,3,,,,,,,,,,,,,,,
null,,confidence_buffer,893750,confidence_buffer,,null,,,,,,,,,,,,,,,,,,
1261.9000000059605,,pt2_memorable_rating,895014,Fictional_Cities_List/img_natural_06.png,,50,,,2,,,,,,,,,,,,,,,
null,,confidence_buffer,895117,confidence_buffer,,null,,,,,,,,,,,,,,,,,,
2849.7999999821186,,recognition_phase,897970,Fictional_Cities_List/img_natural_06.png,,49,,,,,,old,1,1,,,,,,,,,,
null,,confidence_buffer,898074,confidence_buffer,,null,,,,,,,,,,,,,,,,,,
null,,thebreak,898576,break,,null,,,,,,,,,,,,,,,,,,
4443,,realistic_rating,903022,Fictional_Cities_List/img_natural_13.png,,50,Fictional_Cities_List/img_natural_13.png,NAT,2,,,,,,,,,,,,,,,
null,,confidence_buffer,903126,confidence_buffer,,null,,,,,,,,,,,,,,,,,,
2503,,pt2_unique_rating,905631,Fictional_Cities_List/img_natural_13.png,,51,,,3,,,,,,,,,,,,,,,
null,,confidence_buffer,905735,confidence_buffer,,null,,,,,,,,,,,,,,,,,,
1117.6000000238419,,pt2_memorable_rating,906855,Fictional_Cities_List/img_natural_13.png,,50,,,2,,,,,,,,,,,,,,,
null,,confidence_buffer,906958,confidence_buffer,,null,,,,,,,,,,,,,,,,,,
1712,,recognition_phase,908673,Fictional_Cities_List/img_natural_13.png,,49,,,,,,old,1,1,,,,,,,,,,
null,,confidence_buffer,908777,confidence_buffer,,null,,,,,,,,,,,,,,,,,,
null,,thebreak,909279,break,,null,,,,,,,,,,,,,,,,,,
10188.300000011921,,realistic_rating,919470,Fictional_Cities_List/img_natural_05.png,,50,Fictional_Cities_List/img_natural_05.png,NAT,2,,,,,,,,,,,,,,,
null,,confidence_buffer,919573,confidence_buffer,,null,,,,,,,,,,,,,,,,,,
4100.5,,pt2_unique_rating,923676,Fictional_Cities_List/img_natural_05.png,,51,,,3,,,,,,,,,,,,,,,
null,,confidence_buffer,923778,confidence_buffer,,null,,,,,,,,,,,,,,,,,,
1930,,pt2_memorable_rating,925711,Fictional_Cities_List/img_natural_05.png,,51,,,3,,,,,,,,,,,,,,,
null,,confidence_buffer,925814,confidence_buffer,,null,,,,,,,,,,,,,,,,,,
4666.199999988079,,recognition_phase,930483,Fictional_Cities_List/img_natural_05.png,,52,,,,,,new,1,1,,,,,,,,,,
null,,confidence_buffer,930587,confidence_buffer,,null,,,,,,,,,,,,,,,,,,
null,,thebreak,931090,break,,null,,,,,,,,,,,,,,,,,,
6190.4000000059605,,realistic_rating,937282,US_Cities_List/mm_bisbee.png,,52,US_Cities_List/mm_bisbee.png,MM,4,,,,,,,,,,,,,,,
null,,confidence_buffer,937386,confidence_buffer,,null,,,,,,,,,,,,,,,,,,
1977.2000000178814,,pt2_unique_rating,939366,US_Cities_List/mm_bisbee.png,,52,,,4,,,,,,,,,,,,,,,
null,,confidence_buffer,939469,confidence_buffer,,null,,,,,,,,,,,,,,,,,,
1063.9000000059605,,pt2_memorable_rating,940536,US_Cities_List/mm_bisbee.png,,52,,,4,,,,,,,,,,,,,,,
null,,confidence_buffer,940640,confidence_buffer,,null,,,,,,,,,,,,,,,,,,
2516.9000000059605,,recognition_phase,943159,US_Cities_List/mm_bisbee.png,,49,,,,,,old,1,1,,,,,,,,,,
null,,confidence_buffer,943264,confidence_buffer,,null,,,,,,,,,,,,,,,,,,
null,,thebreak,943767,break,,null,,,,,,,,,,,,,,,,,,
6247.800000011921,,realistic_rating,950017,US_Cities_List/nat_athens.png,,51,US_Cities_List/nat_athens.png,NAT,3,,,,,,,,,,,,,,,
null,,confidence_buffer,950122,confidence_buffer,,null,,,,,,,,,,,,,,,,,,
4111.5,,pt2_unique_rating,954236,US_Cities_List/nat_athens.png,,50,,,2,,,,,,,,,,,,,,,
null,,confidence_buffer,954340,confidence_buffer,,null,,,,,,,,,,,,,,,,,,
1360.300000011921,,pt2_memorable_rating,955703,US_Cities_List/nat_athens.png,,51,,,3,,,,,,,,,,,,,,,
null,,confidence_buffer,955806,confidence_buffer,,null,,,,,,,,,,,,,,,,,,
1544.4000000059605,,probe_rating,957353,probe_rating,,50,,,,2,1,,,,,,,,,,,,,
null,,confidence_buffer,957457,confidence_buffer,,null,,,,,,,,,,,,,,,,,,
1337.5,,recognition_phase,958797,US_Cities_List/nat_athens.png,,49,,,,,,old,1,1,,,,,,,,,,
null,,confidence_buffer,958904,confidence_buffer,,null,,,,,,,,,,,,,,,,,,
null,,thebreak,959407,break,,null,,,,,,,,,,,,,,,,,,
3859.199999988079,,realistic_rating,963269,Fictional_Cities_List/img_natural_03.png,,49,Fictional_Cities_List/img_natural_03.png,NAT,1,,,,,,,,,,,,,,,
null,,confidence_buffer,963372,confidence_buffer,,null,,,,,,,,,,,,,,,,,,
1850.300000011921,,pt2_unique_rating,965225,Fictional_Cities_List/img_natural_03.png,,50,,,2,,,,,,,,,,,,,,,
null,,confidence_buffer,965328,confidence_buffer,,null,,,,,,,,,,,,,,,,,,
2128.5,,pt2_memorable_rating,967459,Fictional_Cities_List/img_natural_03.png,,50,,,2,,,,,,,,,,,,,,,
null,,confidence_buffer,967563,confidence_buffer,,null,,,,,,,,,,,,,,,,,,
5049.5999999940395,,recognition_phase,972615,Fictional_Cities_List/img_natural_03.png,,52,,,,,,new,1,1,,,,,,,,,,
null,,confidence_buffer,972718,confidence_buffer,,null,,,,,,,,,,,,,,,,,,
null,,thebreak,973222,break,,null,,,,,,,,,,,,,,,,,,
10816,,realistic_rating,984040,US_Cities_List/nat_hilo.png,,51,US_Cities_List/nat_hilo.png,NAT,3,,,,,,,,,,,,,,,
null,,confidence_buffer,984143,confidence_buffer,,null,,,,,,,,,,,,,,,,,,
1542.4000000059605,,pt2_unique_rating,985689,US_Cities_List/nat_hilo.png,,52,,,4,,,,,,,,,,,,,,,
null,,confidence_buffer,985791,confidence_buffer,,null,,,,,,,,,,,,,,,,,,
1476.699999988079,,pt2_memorable_rating,987271,US_Cities_List/nat_hilo.png,,51,,,3,,,,,,,,,,,,,,,
null,,confidence_buffer,987374,confidence_buffer,,null,,,,,,,,,,,,,,,,,,
2205.0999999940395,,recognition_phase,989582,US_Cities_List/nat_hilo.png,,52,,,,,,new,1,1,,,,,,,,,,
null,,confidence_buffer,989685,confidence_buffer,,null,,,,,,,,,,,,,,,,,,
null,,thebreak,990188,break,,null,,,,,,,,,,,,,,,,,,
6250.5,,realistic_rating,996441,US_Cities_List/nat_westpalmbeach.png,,50,US_Cities_List/nat_westpalmbeach.png,NAT,2,,,,,,,,,,,,,,,
null,,confidence_buffer,996544,confidence_buffer,,null,,,,,,,,,,,,,,,,,,
2017.7999999821186,,pt2_unique_rating,998565,US_Cities_List/nat_westpalmbeach.png,,52,,,4,,,,,,,,,,,,,,,
null,,confidence_buffer,998668,confidence_buffer,,null,,,,,,,,,,,,,,,,,,
1421.2000000178814,,pt2_memorable_rating,1000091,US_Cities_List/nat_westpalmbeach.png,,51,,,3,,,,,,,,,,,,,,,
null,,confidence_buffer,1000195,confidence_buffer,,null,,,,,,,,,,,,,,,,,,
3082.9000000059605,,recognition_phase,1003281,US_Cities_List/nat_westpalmbeach.png,,52,,,,,,new,1,1,,,,,,,,,,
null,,confidence_buffer,1003384,confidence_buffer,,null,,,,,,,,,,,,,,,,,,
null,,thebreak,1003887,break,,null,,,,,,,,,,,,,,,,,,
5564.5,,realistic_rating,1009454,Fictional_Cities_List/img_manmade_06.png,,51,Fictional_Cities_List/img_manmade_06.png,MM,3,,,,,,,,,,,,,,,
null,,confidence_buffer,1009558,confidence_buffer,,null,,,,,,,,,,,,,,,,,,
1818.800000011921,,pt2_unique_rating,1011379,Fictional_Cities_List/img_manmade_06.png,,51,,,3,,,,,,,,,,,,,,,
null,,confidence_buffer,1011482,confidence_buffer,,null,,,,,,,,,,,,,,,,,,
1683.5999999940395,,pt2_memorable_rating,1013168,Fictional_Cities_List/img_manmade_06.png,,50,,,2,,,,,,,,,,,,,,,
null,,confidence_buffer,1013271,confidence_buffer,,null,,,,,,,,,,,,,,,,,,
2094.7999999821186,,recognition_phase,1015369,Fictional_Cities_List/img_manmade_06.png,,49,,,,,,old,1,1,,,,,,,,,,
null,,confidence_buffer,1015471,confidence_buffer,,null,,,,,,,,,,,,,,,,,,
null,,thebreak,1015974,break,,null,,,,,,,,,,,,,,,,,,
4783.4000000059605,,realistic_rating,1020760,Fictional_Cities_List/img_manmade_02.png,,53,Fictional_Cities_List/img_manmade_02.png,MM,5,,,,,,,,,,,,,,,
null,,confidence_buffer,1020863,confidence_buffer,,null,,,,,,,,,,,,,,,,,,
1585.300000011921,,pt2_unique_rating,1022451,Fictional_Cities_List/img_manmade_02.png,,52,,,4,,,,,,,,,,,,,,,
null,,confidence_buffer,1022554,confidence_buffer,,null,,,,,,,,,,,,,,,,,,
2294.2999999821186,,pt2_memorable_rating,1024850,Fictional_Cities_List/img_manmade_02.png,,52,,,4,,,,,,,,,,,,,,,
null,,confidence_buffer,1024953,confidence_buffer,,null,,,,,,,,,,,,,,,,,,
1387.1000000238419,,recognition_phase,1026344,Fictional_Cities_List/img_manmade_02.png,,49,,,,,,old,1,1,,,,,,,,,,
null,,confidence_buffer,1026447,confidence_buffer,,null,,,,,,,,,,,,,,,,,,
null,,thebreak,1026950,break,,null,,,,,,,,,,,,,,,,,,
4378.199999988079,,realistic_rating,1031330,US_Cities_List/nat_abilene.png,,53,US_Cities_List/nat_abilene.png,NAT,5,,,,,,,,,,,,,,,
null,,confidence_buffer,1031434,confidence_buffer,,null,,,,,,,,,,,,,,,,,,
1789.0999999940395,,pt2_unique_rating,1033225,US_Cities_List/nat_abilene.png,,52,,,4,,,,,,,,,,,,,,,
null,,confidence_buffer,1033329,confidence_buffer,,null,,,,,,,,,,,,,,,,,,
1086.7999999821186,,pt2_memorable_rating,1034419,US_Cities_List/nat_abilene.png,,52,,,4,,,,,,,,,,,,,,,
null,,confidence_buffer,1034521,confidence_buffer,,null,,,,,,,,,,,,,,,,,,
2145.7999999821186,,recognition_phase,1036670,US_Cities_List/nat_abilene.png,,49,,,,,,old,1,1,,,,,,,,,,
null,,confidence_buffer,1036773,confidence_buffer,,null,,,,,,,,,,,,,,,,,,
null,,thebreak,1037276,break,,null,,,,,,,,,,,,,,,,,,
4804.4000000059605,,realistic_rating,1042083,Fictional_Cities_List/img_manmade_01.png,,52,Fictional_Cities_List/img_manmade_01.png,MM,4,,,,,,,,,,,,,,,
null,,confidence_buffer,1042194,confidence_buffer,,null,,,,,,,,,,,,,,,,,,
1317.0999999940395,,pt2_unique_rating,1043514,Fictional_Cities_List/img_manmade_01.png,,51,,,3,,,,,,,,,,,,,,,
null,,confidence_buffer,1043616,confidence_buffer,,null,,,,,,,,,,,,,,,,,,
2151.100000023842,,pt2_memorable_rating,1045770,Fictional_Cities_List/img_manmade_01.png,,50,,,2,,,,,,,,,,,,,,,
null,,confidence_buffer,1045875,confidence_buffer,,null,,,,,,,,,,,,,,,,,,
1794.0999999940395,,probe_rating,1047672,probe_rating,,53,,,,5,1,,,,,,,,,,,,,
null,,confidence_buffer,1047775,confidence_buffer,,null,,,,,,,,,,,,,,,,,,
1521.7999999821186,,recognition_phase,1049299,Fictional_Cities_List/img_manmade_01.png,,49,,,,,,old,1,1,,,,,,,,,,
null,,confidence_buffer,1049404,confidence_buffer,,null,,,,,,,,,,,,,,,,,,
null,,thebreak,1049907,break,,null,,,,,,,,,,,,,,,,,,
9993.799999982119,,realistic_rating,1059902,Fictional_Cities_List/img_manmade_03.png,,49,Fictional_Cities_List/img_manmade_03.png,MM,1,,,,,,,,,,,,,,,
null,,confidence_buffer,1060003,confidence_buffer,,null,,,,,,,,,,,,,,,,,,
2131.2000000178814,,pt2_unique_rating,1062136,Fictional_Cities_List/img_manmade_03.png,,51,,,3,,,,,,,,,,,,,,,
null,,confidence_buffer,1062239,confidence_buffer,,null,,,,,,,,,,,,,,,,,,
1026.9000000059605,,pt2_memorable_rating,1063269,Fictional_Cities_List/img_manmade_03.png,,50,,,2,,,,,,,,,,,,,,,
null,,confidence_buffer,1063373,confidence_buffer,,null,,,,,,,,,,,,,,,,,,
2036.7000000178814,,recognition_phase,1065413,Fictional_Cities_List/img_manmade_03.png,,49,,,,,,old,1,1,,,,,,,,,,
null,,confidence_buffer,1065516,confidence_buffer,,null,,,,,,,,,,,,,,,,,,
null,,thebreak,1066020,break,,null,,,,,,,,,,,,,,,,,,
5017.799999982119,,realistic_rating,1071040,US_Cities_List/nat_okoboji.png,,50,US_Cities_List/nat_okoboji.png,NAT,2,,,,,,,,,,,,,,,
null,,confidence_buffer,1071144,confidence_buffer,,null,,,,,,,,,,,,,,,,,,
1059.2000000178814,,pt2_unique_rating,1072205,US_Cities_List/nat_okoboji.png,,51,,,3,,,,,,,,,,,,,,,
null,,confidence_buffer,1072309,confidence_buffer,,null,,,,,,,,,,,,,,,,,,
1282.9000000059605,,pt2_memorable_rating,1073594,US_Cities_List/nat_okoboji.png,,50,,,2,,,,,,,,,,,,,,,
null,,confidence_buffer,1073698,confidence_buffer,,null,,,,,,,,,,,,,,,,,,
2890.5,,recognition_phase,1076591,US_Cities_List/nat_okoboji.png,,50,,,,,,old,1,1,,,,,,,,,,
null,,confidence_buffer,1076694,confidence_buffer,,null,,,,,,,,,,,,,,,,,,
null,,thebreak,1077197,break,,null,,,,,,,,,,,,,,,,,,
4032.5,,realistic_rating,1081232,US_Cities_List/mm_okoboji.png,,52,US_Cities_List/mm_okoboji.png,MM,4,,,,,,,,,,,,,,,
null,,confidence_buffer,1081335,confidence_buffer,,null,,,,,,,,,,,,,,,,,,
1505.4000000059605,,pt2_unique_rating,1082843,US_Cities_List/mm_okoboji.png,,52,,,4,,,,,,,,,,,,,,,
null,,confidence_buffer,1082947,confidence_buffer,,null,,,,,,,,,,,,,,,,,,
1176.300000011921,,pt2_memorable_rating,1084126,US_Cities_List/mm_okoboji.png,,51,,,3,,,,,,,,,,,,,,,
null,,confidence_buffer,1084229,confidence_buffer,,null,,,,,,,,,,,,,,,,,,
2069,,recognition_phase,1086303,US_Cities_List/mm_okoboji.png,,49,,,,,,old,1,1,,,,,,,,,,
null,,confidence_buffer,1086407,confidence_buffer,,null,,,,,,,,,,,,,,,,,,
null,,thebreak,1086910,break,,null,,,,,,,,,,,,,,,,,,
5073.700000017881,,realistic_rating,1091987,Fictional_Cities_List/img_natural_09.png,,51,Fictional_Cities_List/img_natural_09.png,NAT,3,,,,,,,,,,,,,,,
null,,confidence_buffer,1092090,confidence_buffer,,null,,,,,,,,,,,,,,,,,,
2687.5,,pt2_unique_rating,1094781,Fictional_Cities_List/img_natural_09.png,,51,,,3,,,,,,,,,,,,,,,
null,,confidence_buffer,1094884,confidence_buffer,,null,,,,,,,,,,,,,,,,,,
2260.899999976158,,pt2_memorable_rating,1097147,Fictional_Cities_List/img_natural_09.png,,50,,,2,,,,,,,,,,,,,,,
null,,confidence_buffer,1097251,confidence_buffer,,null,,,,,,,,,,,,,,,,,,
1948.7000000178814,,recognition_phase,1099203,Fictional_Cities_List/img_natural_09.png,,49,,,,,,old,1,1,,,,,,,,,,
null,,confidence_buffer,1099306,confidence_buffer,,null,,,,,,,,,,,,,,,,,,
null,,thebreak,1099808,break,,null,,,,,,,,,,,,,,,,,,
4360.5999999940395,,realistic_rating,1104170,Fictional_Cities_List/img_manmade_12.png,,52,Fictional_Cities_List/img_manmade_12.png,MM,4,,,,,,,,,,,,,,,
null,,confidence_buffer,1104274,confidence_buffer,,null,,,,,,,,,,,,,,,,,,
1426.800000011921,,pt2_unique_rating,1105703,Fictional_Cities_List/img_manmade_12.png,,52,,,4,,,,,,,,,,,,,,,
null,,confidence_buffer,1105807,confidence_buffer,,null,,,,,,,,,,,,,,,,,,
1404.300000011921,,pt2_memorable_rating,1107214,Fictional_Cities_List/img_manmade_12.png,,51,,,3,,,,,,,,,,,,,,,
null,,confidence_buffer,1107318,confidence_buffer,,null,,,,,,,,,,,,,,,,,,
2473.4000000059605,,recognition_phase,1109794,Fictional_Cities_List/img_manmade_12.png,,52,,,,,,new,1,1,,,,,,,,,,
null,,confidence_buffer,1109897,confidence_buffer,,null,,,,,,,,,,,,,,,,,,
null,,thebreak,1110401,break,,null,,,,,,,,,,,,,,,,,,
4034.5,,realistic_rating,1114438,US_Cities_List/nat_healdsburg.png,,52,US_Cities_List/nat_healdsburg.png,NAT,4,,,,,,,,,,,,,,,
null,,confidence_buffer,1114541,confidence_buffer,,null,,,,,,,,,,,,,,,,,,
803.1999999880791,,pt2_unique_rating,1115347,US_Cities_List/nat_healdsburg.png,,51,,,3,,,,,,,,,,,,,,,
null,,confidence_buffer,1115450,confidence_buffer,,null,,,,,,,,,,,,,,,,,,
2616.699999988079,,pt2_memorable_rating,1118069,US_Cities_List/nat_healdsburg.png,,50,,,2,,,,,,,,,,,,,,,
null,,confidence_buffer,1118173,confidence_buffer,,null,,,,,,,,,,,,,,,,,,
1988.0999999940395,,recognition_phase,1120164,US_Cities_List/nat_healdsburg.png,,51,,,,,,new,1,1,,,,,,,,,,
null,,confidence_buffer,1120269,confidence_buffer,,null,,,,,,,,,,,,,,,,,,
null,,thebreak,1120777,break,,null,,,,,,,,,,,,,,,,,,
4604,,realistic_rating,1125383,US_Cities_List/nat_hotsprings.png,,50,US_Cities_List/nat_hotsprings.png,NAT,2,,,,,,,,,,,,,,,
null,,confidence_buffer,1125496,confidence_buffer,,null,,,,,,,,,,,,,,,,,,
1588.2000000178814,,pt2_unique_rating,1127087,US_Cities_List/nat_hotsprings.png,,51,,,3,,,,,,,,,,,,,,,
null,,confidence_buffer,1127191,confidence_buffer,,null,,,,,,,,,,,,,,,,,,
2173.199999988079,,pt2_memorable_rating,1129366,US_Cities_List/nat_hotsprings.png,,50,,,2,,,,,,,,,,,,,,,
null,,confidence_buffer,1129470,confidence_buffer,,null,,,,,,,,,,,,,,,,,,
3503.2000000178814,,recognition_phase,1132976,US_Cities_List/nat_hotsprings.png,,51,,,,,,new,1,1,,,,,,,,,,
null,,confidence_buffer,1133080,confidence_buffer,,null,,,,,,,,,,,,,,,,,,
null,,thebreak,1133582,break,,null,,,,,,,,,,,,,,,,,,
8560.5,,realistic_rating,1142145,US_Cities_List/mm_cornwall.png,,51,US_Cities_List/mm_cornwall.png,MM,3,,,,,,,,,,,,,,,
null,,confidence_buffer,1142249,confidence_buffer,,null,,,,,,,,,,,,,,,,,,
3650.7999999821186,,pt2_unique_rating,1145903,US_Cities_List/mm_cornwall.png,,51,,,3,,,,,,,,,,,,,,,
null,,confidence_buffer,1146006,confidence_buffer,,null,,,,,,,,,,,,,,,,,,
860.1999999880791,,pt2_memorable_rating,1146870,US_Cities_List/mm_cornwall.png,,50,,,2,,,,,,,,,,,,,,,
null,,confidence_buffer,1146973,confidence_buffer,,null,,,,,,,,,,,,,,,,,,
2773.9000000059605,,recognition_phase,1149750,US_Cities_List/mm_cornwall.png,,52,,,,,,new,1,1,,,,,,,,,,
null,,confidence_buffer,1149854,confidence_buffer,,null,,,,,,,,,,,,,,,,,,
null,,thebreak,1150356,break,,null,,,,,,,,,,,,,,,,,,
3765.2999999821186,,realistic_rating,1154124,Fictional_Cities_List/img_manmade_07.png,,53,Fictional_Cities_List/img_manmade_07.png,MM,5,,,,,,,,,,,,,,,
null,,confidence_buffer,1154228,confidence_buffer,,null,,,,,,,,,,,,,,,,,,
6033.0999999940395,,pt2_unique_rating,1160264,Fictional_Cities_List/img_manmade_07.png,,52,,,4,,,,,,,,,,,,,,,
null,,confidence_buffer,1160367,confidence_buffer,,null,,,,,,,,,,,,,,,,,,
1443.5999999940395,,pt2_memorable_rating,1161814,Fictional_Cities_List/img_manmade_07.png,,52,,,4,,,,,,,,,,,,,,,
null,,confidence_buffer,1161917,confidence_buffer,,null,,,,,,,,,,,,,,,,,,
1868.1000000238419,,recognition_phase,1163789,Fictional_Cities_List/img_manmade_07.png,,49,,,,,,old,1,1,,,,,,,,,,
null,,confidence_buffer,1163892,confidence_buffer,,null,,,,,,,,,,,,,,,,,,
null,,thebreak,1164396,break,,null,,,,,,,,,,,,,,,,,,
4064.0999999940395,,realistic_rating,1168462,US_Cities_List/nat_coeurdalene.png,,51,US_Cities_List/nat_coeurdalene.png,NAT,3,,,,,,,,,,,,,,,
null,,confidence_buffer,1168566,confidence_buffer,,null,,,,,,,,,,,,,,,,,,
1986.0999999940395,,pt2_unique_rating,1170555,US_Cities_List/nat_coeurdalene.png,,52,,,4,,,,,,,,,,,,,,,
null,,confidence_buffer,1170658,confidence_buffer,,null,,,,,,,,,,,,,,,,,,
1072.5,,pt2_memorable_rating,1171733,US_Cities_List/nat_coeurdalene.png,,51,,,3,,,,,,,,,,,,,,,
null,,confidence_buffer,1171838,confidence_buffer,,null,,,,,,,,,,,,,,,,,,
3066.2000000178814,,recognition_phase,1174907,US_Cities_List/nat_coeurdalene.png,,49,,,,,,old,1,1,,,,,,,,,,
null,,confidence_buffer,1175011,confidence_buffer,,null,,,,,,,,,,,,,,,,,,
null,,thebreak,1175513,break,,null,,,,,,,,,,,,,,,,,,
6440.9000000059605,,realistic_rating,1181957,Fictional_Cities_List/img_natural_11.png,,52,Fictional_Cities_List/img_natural_11.png,NAT,4,,,,,,,,,,,,,,,
null,,confidence_buffer,1182061,confidence_buffer,,null,,,,,,,,,,,,,,,,,,
1058.4000000059605,,pt2_unique_rating,1183122,Fictional_Cities_List/img_natural_11.png,,51,,,3,,,,,,,,,,,,,,,
null,,confidence_buffer,1183226,confidence_buffer,,null,,,,,,,,,,,,,,,,,,
1179.800000011921,,pt2_memorable_rating,1184408,Fictional_Cities_List/img_natural_11.png,,52,,,4,,,,,,,,,,,,,,,
null,,confidence_buffer,1184512,confidence_buffer,,null,,,,,,,,,,,,,,,,,,
5934.700000017881,,recognition_phase,1190450,Fictional_Cities_List/img_natural_11.png,,52,,,,,,new,1,1,,,,,,,,,,
null,,confidence_buffer,1190554,confidence_buffer,,null,,,,,,,,,,,,,,,,,,
null,,thebreak,1191057,break,,null,,,,,,,,,,,,,,,,,,
9941.700000017881,,realistic_rating,1201001,US_Cities_List/nat_bisbee.png,,50,US_Cities_List/nat_bisbee.png,NAT,2,,,,,,,,,,,,,,,
null,,confidence_buffer,1201105,confidence_buffer,,null,,,,,,,,,,,,,,,,,,
1124,,pt2_unique_rating,1202231,US_Cities_List/nat_bisbee.png,,51,,,3,,,,,,,,,,,,,,,
null,,confidence_buffer,1202335,confidence_buffer,,null,,,,,,,,,,,,,,,,,,
2718.5999999940395,,pt2_memorable_rating,1205056,US_Cities_List/nat_bisbee.png,,51,,,3,,,,,,,,,,,,,,,
null,,confidence_buffer,1205161,confidence_buffer,,null,,,,,,,,,,,,,,,,,,
3920,,recognition_phase,1209084,US_Cities_List/nat_bisbee.png,,50,,,,,,old,1,1,,,,,,,,,,
null,,confidence_buffer,1209187,confidence_buffer,,null,,,,,,,,,,,,,,,,,,
null,,thebreak,1209690,break,,null,,,,,,,,,,,,,,,,,,
9809.90000000596,,realistic_rating,1219502,Fictional_Cities_List/img_natural_04.png,,50,Fictional_Cities_List/img_natural_04.png,NAT,2,,,,,,,,,,,,,,,
null,,confidence_buffer,1219606,confidence_buffer,,null,,,,,,,,,,,,,,,,,,
2100,,pt2_unique_rating,1221709,Fictional_Cities_List/img_natural_04.png,,51,,,3,,,,,,,,,,,,,,,
null,,confidence_buffer,1221811,confidence_buffer,,null,,,,,,,,,,,,,,,,,,
2010.5999999940395,,pt2_memorable_rating,1223825,Fictional_Cities_List/img_natural_04.png,,50,,,2,,,,,,,,,,,,,,,
null,,confidence_buffer,1223928,confidence_buffer,,null,,,,,,,,,,,,,,,,,,
3433.300000011921,,recognition_phase,1227365,Fictional_Cities_List/img_natural_04.png,,50,,,,,,old,1,1,,,,,,,,,,
null,,confidence_buffer,1227468,confidence_buffer,,null,,,,,,,,,,,,,,,,,,
null,,thebreak,1227971,break,,null,,,,,,,,,,,,,,,,,,
6095.699999988079,,realistic_rating,1234070,US_Cities_List/mm_boulder.png,,52,US_Cities_List/mm_boulder.png,MM,4,,,,,,,,,,,,,,,
null,,confidence_buffer,1234174,confidence_buffer,,null,,,,,,,,,,,,,,,,,,
1802.0999999940395,,pt2_unique_rating,1235978,US_Cities_List/mm_boulder.png,,52,,,4,,,,,,,,,,,,,,,
null,,confidence_buffer,1236082,confidence_buffer,,null,,,,,,,,,,,,,,,,,,
922.5999999940395,,pt2_memorable_rating,1237007,US_Cities_List/mm_boulder.png,,51,,,3,,,,,,,,,,,,,,,
null,,confidence_buffer,1237110,confidence_buffer,,null,,,,,,,,,,,,,,,,,,
2111.199999988079,,recognition_phase,1239224,US_Cities_List/mm_boulder.png,,49,,,,,,old,1,1,,,,,,,,,,
null,,confidence_buffer,1239328,confidence_buffer,,null,,,,,,,,,,,,,,,,,,
null,,thebreak,1239831,break,,null,,,,,,,,,,,,,,,,,,
4325.4000000059605,,realistic_rating,1244159,US_Cities_List/nat_carmel.png,,52,US_Cities_List/nat_carmel.png,NAT,4,,,,,,,,,,,,,,,
null,,confidence_buffer,1244262,confidence_buffer,,null,,,,,,,,,,,,,,,,,,
3573.9000000059605,,probe_rating,1247839,probe_rating,,50,,,,2,1,,,,,,,,,,,,,
null,,confidence_buffer,1247943,confidence_buffer,,null,,,,,,,,,,,,,,,,,,
2506.7999999821186,,pt2_unique_rating,1250453,US_Cities_List/nat_carmel.png,,52,,,4,,,,,,,,,,,,,,,
null,,confidence_buffer,1250556,confidence_buffer,,null,,,,,,,,,,,,,,,,,,
1817,,pt2_memorable_rating,1252375,US_Cities_List/nat_carmel.png,,52,,,4,,,,,,,,,,,,,,,
null,,confidence_buffer,1252478,confidence_buffer,,null,,,,,,,,,,,,,,,,,,
3006.699999988079,,recognition_phase,1255488,US_Cities_List/nat_carmel.png,,52,,,,,,new,1,1,,,,,,,,,,
null,,confidence_buffer,1255591,confidence_buffer,,null,,,,,,,,,,,,,,,,,,
null,,thebreak,1256093,break,,null,,,,,,,,,,,,,,,,,,
3862.699999988079,,realistic_rating,1259958,US_Cities_List/mm_abilene.png,,53,US_Cities_List/mm_abilene.png,MM,5,,,,,,,,,,,,,,,
null,,confidence_buffer,1260062,confidence_buffer,,null,,,,,,,,,,,,,,,,,,
1745.5,,pt2_unique_rating,1261810,US_Cities_List/mm_abilene.png,,52,,,4,,,,,,,,,,,,,,,
null,,confidence_buffer,1261913,confidence_buffer,,null,,,,,,,,,,,,,,,,,,
1599.7999999821186,,pt2_memorable_rating,1263516,US_Cities_List/mm_abilene.png,,52,,,4,,,,,,,,,,,,,,,
null,,confidence_buffer,1263619,confidence_buffer,,null,,,,,,,,,,,,,,,,,,
1310.699999988079,,recognition_phase,1264933,US_Cities_List/mm_abilene.png,,49,,,,,,old,1,1,,,,,,,,,,
null,,confidence_buffer,1265036,confidence_buffer,,null,,,,,,,,,,,,,,,,,,
null,,thebreak,1265539,break,,null,,,,,,,,,,,,,,,,,,
5760.299999982119,,realistic_rating,1271302,Fictional_Cities_List/img_natural_02.png,,50,Fictional_Cities_List/img_natural_02.png,NAT,2,,,,,,,,,,,,,,,
null,,confidence_buffer,1271406,confidence_buffer,,null,,,,,,,,,,,,,,,,,,
1573.800000011921,,probe_rating,1272982,probe_rating,,50,,,,2,1,,,,,,,,,,,,,
null,,confidence_buffer,1273085,confidence_buffer,,null,,,,,,,,,,,,,,,,,,
4968.5,,pt2_unique_rating,1278056,Fictional_Cities_List/img_natural_02.png,,51,,,3,,,,,,,,,,,,,,,
null,,confidence_buffer,1278160,confidence_buffer,,null,,,,,,,,,,,,,,,,,,
2057.7999999821186,,pt2_memorable_rating,1280220,Fictional_Cities_List/img_natural_02.png,,50,,,2,,,,,,,,,,,,,,,
null,,confidence_buffer,1280324,confidence_buffer,,null,,,,,,,,,,,,,,,,,,
2180.5999999940395,,recognition_phase,1282507,Fictional_Cities_List/img_natural_02.png,,49,,,,,,old,1,1,,,,,,,,,,
null,,confidence_buffer,1282612,confidence_buffer,,null,,,,,,,,,,,,,,,,,,
null,,thebreak,1283115,break,,null,,,,,,,,,,,,,,,,,,
7998.9000000059605,,realistic_rating,1291116,Fictional_Cities_List/img_natural_12.png,,50,Fictional_Cities_List/img_natural_12.png,NAT,2,,,,,,,,,,,,,,,
null,,confidence_buffer,1291220,confidence_buffer,,null,,,,,,,,,,,,,,,,,,
1959,,pt2_unique_rating,1293181,Fictional_Cities_List/img_natural_12.png,,51,,,3,,,,,,,,,,,,,,,
null,,confidence_buffer,1293284,confidence_buffer,,null,,,,,,,,,,,,,,,,,,
968.5,,pt2_memorable_rating,1294255,Fictional_Cities_List/img_natural_12.png,,51,,,3,,,,,,,,,,,,,,,
null,,confidence_buffer,1294359,confidence_buffer,,null,,,,,,,,,,,,,,,,,,
1886.9000000059605,,probe_rating,1296249,probe_rating,,52,,,,4,1,,,,,,,,,,,,,
null,,confidence_buffer,1296353,confidence_buffer,,null,,,,,,,,,,,,,,,,,,
1805.0999999940395,,recognition_phase,1298162,Fictional_Cities_List/img_natural_12.png,,49,,,,,,old,1,1,,,,,,,,,,
null,,confidence_buffer,1298265,confidence_buffer,,null,,,,,,,,,,,,,,,,,,
null,,thebreak,1298768,break,,null,,,,,,,,,,,,,,,,,,
6687.9000000059605,,realistic_rating,1305459,Fictional_Cities_List/img_manmade_09.png,,53,Fictional_Cities_List/img_manmade_09.png,MM,5,,,,,,,,,,,,,,,
null,,confidence_buffer,1305563,confidence_buffer,,null,,,,,,,,,,,,,,,,,,
1232,,pt2_unique_rating,1306797,Fictional_Cities_List/img_manmade_09.png,,52,,,4,,,,,,,,,,,,,,,
null,,confidence_buffer,1306900,confidence_buffer,,null,,,,,,,,,,,,,,,,,,
1052.2000000178814,,pt2_memorable_rating,1307955,Fictional_Cities_List/img_manmade_09.png,,51,,,3,,,,,,,,,,,,,,,
null,,confidence_buffer,1308058,confidence_buffer,,null,,,,,,,,,,,,,,,,,,
2369.9000000059605,,recognition_phase,1310431,Fictional_Cities_List/img_manmade_09.png,,50,,,,,,old,1,1,,,,,,,,,,
null,,confidence_buffer,1310535,confidence_buffer,,null,,,,,,,,,,,,,,,,,,
null,,thebreak,1311037,break,,null,,,,,,,,,,,,,,,,,,
4530.4000000059605,,realistic_rating,1315570,US_Cities_List/mm_sitka.png,,52,US_Cities_List/mm_sitka.png,MM,4,,,,,,,,,,,,,,,
null,,confidence_buffer,1315673,confidence_buffer,,null,,,,,,,,,,,,,,,,,,
1220.300000011921,,pt2_unique_rating,1316896,US_Cities_List/mm_sitka.png,,51,,,3,,,,,,,,,,,,,,,
null,,confidence_buffer,1317000,confidence_buffer,,null,,,,,,,,,,,,,,,,,,
1048.9000000059605,,pt2_memorable_rating,1318051,US_Cities_List/mm_sitka.png,,51,,,3,,,,,,,,,,,,,,,
null,,confidence_buffer,1318154,confidence_buffer,,null,,,,,,,,,,,,,,,,,,
1460.5,,recognition_phase,1319618,US_Cities_List/mm_sitka.png,,49,,,,,,old,1,1,,,,,,,,,,
null,,confidence_buffer,1319722,confidence_buffer,,null,,,,,,,,,,,,,,,,,,
null,,thebreak,1320225,break,,null,,,,,,,,,,,,,,,,,,
9988.5,,realistic_rating,1330216,Fictional_Cities_List/img_natural_10.png,,49,Fictional_Cities_List/img_natural_10.png,NAT,1,,,,,,,,,,,,,,,
null,,confidence_buffer,1330319,confidence_buffer,,null,,,,,,,,,,,,,,,,,,
3186.100000023842,,pt2_unique_rating,1333508,Fictional_Cities_List/img_natural_10.png,,50,,,2,,,,,,,,,,,,,,,
null,,confidence_buffer,1333611,confidence_buffer,,null,,,,,,,,,,,,,,,,,,
2107.100000023842,,probe_rating,1335721,probe_rating,,53,,,,5,1,,,,,,,,,,,,,
null,,confidence_buffer,1335826,confidence_buffer,,null,,,,,,,,,,,,,,,,,,
1925.4000000059605,,pt2_memorable_rating,1337754,Fictional_Cities_List/img_natural_10.png,,50,,,2,,,,,,,,,,,,,,,
null,,confidence_buffer,1337857,confidence_buffer,,null,,,,,,,,,,,,,,,,,,
2436.800000011921,,recognition_phase,1340296,Fictional_Cities_List/img_natural_10.png,,52,,,,,,new,1,1,,,,,,,,,,
null,,confidence_buffer,1340400,confidence_buffer,,null,,,,,,,,,,,,,,,,,,
null,,thebreak,1340903,break,,null,,,,,,,,,,,,,,,,,,
1805.4000000059605,,realistic_rating,1342711,Fictional_Cities_List/img_manmade_15.png,,49,Fictional_Cities_List/img_manmade_15.png,MM,1,,,,,,,,,,,,,,,
null,,confidence_buffer,1342815,confidence_buffer,,null,,,,,,,,,,,,,,,,,,
6145.899999976158,,pt2_unique_rating,1348963,Fictional_Cities_List/img_manmade_15.png,,50,,,2,,,,,,,,,,,,,,,
null,,confidence_buffer,1349067,confidence_buffer,,null,,,,,,,,,,,,,,,,,,
1813.699999988079,,pt2_memorable_rating,1350884,Fictional_Cities_List/img_manmade_15.png,,51,,,3,,,,,,,,,,,,,,,
null,,confidence_buffer,1350988,confidence_buffer,,null,,,,,,,,,,,,,,,,,,
5242,,recognition_phase,1356233,Fictional_Cities_List/img_manmade_15.png,,52,,,,,,new,1,1,,,,,,,,,,
null,,confidence_buffer,1356337,confidence_buffer,,null,,,,,,,,,,,,,,,,,,
null,,thebreak,1356839,break,,null,,,,,,,,,,,,,,,,,,
6499.699999988079,,realistic_rating,1363342,US_Cities_List/mm_delawarecity.png,,52,US_Cities_List/mm_delawarecity.png,MM,4,,,,,,,,,,,,,,,
null,,confidence_buffer,1363446,confidence_buffer,,null,,,,,,,,,,,,,,,,,,
2239.4000000059605,,pt2_unique_rating,1365688,US_Cities_List/mm_delawarecity.png,,52,,,4,,,,,,,,,,,,,,,
null,,confidence_buffer,1365791,confidence_buffer,,null,,,,,,,,,,,,,,,,,,
1068,,pt2_memorable_rating,1366861,US_Cities_List/mm_delawarecity.png,,51,,,3,,,,,,,,,,,,,,,
null,,confidence_buffer,1366964,confidence_buffer,,null,,,,,,,,,,,,,,,,,,
3298.9000000059605,,recognition_phase,1370266,US_Cities_List/mm_delawarecity.png,,52,,,,,,new,1,1,,,,,,,,,,
null,,confidence_buffer,1370370,confidence_buffer,,null,,,,,,,,,,,,,,,,,,
null,,thebreak,1370873,break,,null,,,,,,,,,,,,,,,,,,
8792.199999988079,,realistic_rating,1379668,Fictional_Cities_List/img_manmade_05.png,,50,Fictional_Cities_List/img_manmade_05.png,MM,2,,,,,,,,,,,,,,,
null,,confidence_buffer,1379771,confidence_buffer,,null,,,,,,,,,,,,,,,,,,
1625.7000000178814,,pt2_unique_rating,1381399,Fictional_Cities_List/img_manmade_05.png,,52,,,4,,,,,,,,,,,,,,,
null,,confidence_buffer,1381503,confidence_buffer,,null,,,,,,,,,,,,,,,,,,
1330,,pt2_memorable_rating,1382836,Fictional_Cities_List/img_manmade_05.png,,51,,,3,,,,,,,,,,,,,,,
null,,confidence_buffer,1382939,confidence_buffer,,null,,,,,,,,,,,,,,,,,,
2552,,recognition_phase,1385494,Fictional_Cities_List/img_manmade_05.png,,52,,,,,,new,1,1,,,,,,,,,,
null,,confidence_buffer,1385598,confidence_buffer,,null,,,,,,,,,,,,,,,,,,
null,,thebreak,1386100,break,,null,,,,,,,,,,,,,,,,,,
5051,,realistic_rating,1391154,US_Cities_List/mm_carmel.png,,51,US_Cities_List/mm_carmel.png,MM,3,,,,,,,,,,,,,,,
null,,confidence_buffer,1391258,confidence_buffer,,null,,,,,,,,,,,,,,,,,,
1382.9000000059605,,pt2_unique_rating,1392644,US_Cities_List/mm_carmel.png,,52,,,4,,,,,,,,,,,,,,,
null,,confidence_buffer,1392748,confidence_buffer,,null,,,,,,,,,,,,,,,,,,
1572.300000011921,,pt2_memorable_rating,1394323,US_Cities_List/mm_carmel.png,,51,,,3,,,,,,,,,,,,,,,
null,,confidence_buffer,1394426,confidence_buffer,,null,,,,,,,,,,,,,,,,,,
2060.5999999940395,,recognition_phase,1396490,US_Cities_List/mm_carmel.png,,52,,,,,,new,1,1,,,,,,,,,,
null,,confidence_buffer,1396592,confidence_buffer,,null,,,,,,,,,,,,,,,,,,
null,,thebreak,1397094,break,,null,,,,,,,,,,,,,,,,,,
5663.200000017881,,realistic_rating,1402760,Fictional_Cities_List/img_manmade_13.png,,50,Fictional_Cities_List/img_manmade_13.png,MM,2,,,,,,,,,,,,,,,
null,,confidence_buffer,1402863,confidence_buffer,,null,,,,,,,,,,,,,,,,,,
1068.2999999821186,,pt2_unique_rating,1403934,Fictional_Cities_List/img_manmade_13.png,,51,,,3,,,,,,,,,,,,,,,
null,,confidence_buffer,1404038,confidence_buffer,,null,,,,,,,,,,,,,,,,,,
2598.4000000059605,,pt2_memorable_rating,1406639,Fictional_Cities_List/img_manmade_13.png,,52,,,4,,,,,,,,,,,,,,,
null,,confidence_buffer,1406750,confidence_buffer,,null,,,,,,,,,,,,,,,,,,
5398.5,,recognition_phase,1412151,Fictional_Cities_List/img_manmade_13.png,,52,,,,,,new,1,1,,,,,,,,,,
null,,confidence_buffer,1412255,confidence_buffer,,null,,,,,,,,,,,,,,,,,,
null,,thebreak,1412758,break,,null,,,,,,,,,,,,,,,,,,
5669.5999999940395,,realistic_rating,1418430,Fictional_Cities_List/img_natural_01.png,,51,Fictional_Cities_List/img_natural_01.png,NAT,3,,,,,,,,,,,,,,,
null,,confidence_buffer,1418534,confidence_buffer,,null,,,,,,,,,,,,,,,,,,
2304.300000011921,,pt2_unique_rating,1420841,Fictional_Cities_List/img_natural_01.png,,51,,,3,,,,,,,,,,,,,,,
null,,confidence_buffer,1420944,confidence_buffer,,null,,,,,,,,,,,,,,,,,,
2121.0999999940395,,pt2_memorable_rating,1423068,Fictional_Cities_List/img_natural_01.png,,51,,,3,,,,,,,,,,,,,,,
null,,confidence_buffer,1423181,confidence_buffer,,null,,,,,,,,,,,,,,,,,,
2918.9000000059605,,recognition_phase,1426103,Fictional_Cities_List/img_natural_01.png,,50,,,,,,old,1,1,,,,,,,,,,
null,,confidence_buffer,1426207,confidence_buffer,,null,,,,,,,,,,,,,,,,,,
null,,thebreak,1426710,break,,null,,,,,,,,,,,,,,,,,,
2518.9000000059605,,realistic_rating,1429231,US_Cities_List/mm_peoria.png,,52,US_Cities_List/mm_peoria.png,MM,4,,,,,,,,,,,,,,,
null,,confidence_buffer,1429334,confidence_buffer,,null,,,,,,,,,,,,,,,,,,
2035.2999999821186,,pt2_unique_rating,1431372,US_Cities_List/mm_peoria.png,,52,,,4,,,,,,,,,,,,,,,
null,,confidence_buffer,1431476,confidence_buffer,,null,,,,,,,,,,,,,,,,,,
840.9000000059605,,pt2_memorable_rating,1432320,US_Cities_List/mm_peoria.png,,52,,,4,,,,,,,,,,,,,,,
null,,confidence_buffer,1432422,confidence_buffer,,null,,,,,,,,,,,,,,,,,,
1850.0999999940395,,recognition_phase,1434275,US_Cities_List/mm_peoria.png,,49,,,,,,old,1,1,,,,,,,,,,
null,,confidence_buffer,1434379,confidence_buffer,,null,,,,,,,,,,,,,,,,,,
null,,thebreak,1434882,break,,null,,,,,,,,,,,,,,,,,,
7791.399999976158,,realistic_rating,1442675,Fictional_Cities_List/img_manmade_08.png,,50,Fictional_Cities_List/img_manmade_08.png,MM,2,,,,,,,,,,,,,,,
null,,confidence_buffer,1442778,confidence_buffer,,null,,,,,,,,,,,,,,,,,,
2694.9000000059605,,pt2_unique_rating,1445476,Fictional_Cities_List/img_manmade_08.png,,50,,,2,,,,,,,,,,,,,,,
null,,confidence_buffer,1445579,confidence_buffer,,null,,,,,,,,,,,,,,,,,,
928.2000000178814,,pt2_memorable_rating,1446510,Fictional_Cities_List/img_manmade_08.png,,50,,,2,,,,,,,,,,,,,,,
null,,confidence_buffer,1446614,confidence_buffer,,null,,,,,,,,,,,,,,,,,,
2987,,recognition_phase,1449604,Fictional_Cities_List/img_manmade_08.png,,51,,,,,,new,1,1,,,,,,,,,,
null,,confidence_buffer,1449707,confidence_buffer,,null,,,,,,,,,,,,,,,,,,
null,,thebreak,1450210,break,,null,,,,,,,,,,,,,,,,,,
,,survey,1891486,survey-questions,,,,,,,,,,,none,high,No I concentrated on the task and turned of my phone screen and the television. ,The level of brightness and color intensity in some pictures and the natural features seemed unrealistic and I also checked  for available shadows of the features in the image to determine the quality and properties of the images. ,I checked if I have seen the images in real life, in pictures, magazines, on the internet or in movies and You tube or any other social media.,I rated it based on how easy it is to memorize the image features and remember it. ,I rated the image uniqueness based on special features and if it is quite uncommon and if it is unique creative. ,The features in images if they are true in real life such as shadows, the formation of the natural rivers, the architecture of the houses and much more. ,No, this is my first time participating in this study.,It was enjoyable. It was worth the time participating in the study. 
