rt,responses,trial_type,time_elapsed,stimulus,cities,city_images,button_pressed,response,key_press,stimulus_left,stimulus_right,accuracy,cumulative_accuracy,stimulus_down_left,stimulus_down_mid,stimulus_down_right,stimulus_correct,stimulus_short,stimulus_far,weighted_accuracy,missedtrial,condition,specific_pairs,imgL_ID,imgR_ID,linedress,linedressed,image_position,unknowncity,testedstates,currentstate,otherstate,problems,smooth,distraction,strategies,easier,similar,comments
8387,{worker_id:66e4c4358de330a06b4d33f1},id_enter,8389,intro,Shreveport; New Hope; Hanover; Racine; Carmel; Cornwall; Huntsville; West Palm Beach; Hot Springs; Gatlinburg; Peoria; Boulder; Leesburg,US_Cities_List/nat_shreveport.png; US_Cities_List/nat_newhope.png; US_Cities_List/mm_hanover.png; US_Cities_List/nat_racine.png; US_Cities_List/nat_carmel.png; US_Cities_List/nat_cornwall.png; US_Cities_List/mm_huntsville.png; US_Cities_List/mm_westpalmbeach.png; US_Cities_List/nat_hotsprings.png; US_Cities_List/mm_gatlinburg.png; US_Cities_List/nat_peoria.png; US_Cities_List/nat_boulder.png; US_Cities_List/mm_leesburg.png,,,,,,,,,,,,,,,,,,,,,,,,,,,,,,,,,
9498,,fullscreen,17890,make_fullscreen,,,0,,,,,,,,,,,,,,,,,,,,,,,,,,,,,,,,
8145,,intro_1,26039,instruct,,,0,,,,,,,,,,,,,,,,,,,,,,,,,,,,,,,,
10434,,intro_2,36473,instruct,,,1,Next,,,,,,,,,,,,,,,,,,,,,,,,,,,,,,,
10094,,intro_3,46570,instruct,,,1,Next,,,,,,,,,,,,,,,,,,,,,,,,,,,,,,,
11420,,intro_4,57992,instruct,,,1,Next,,,,,,,,,,,,,,,,,,,,,,,,,,,,,,,
5460,,intro_5,63454,instruct,,,1,Next,,,,,,,,,,,,,,,,,,,,,,,,,,,,,,,
21007,,intro_6,84464,instruct,,,1,Next,,,,,,,,,,,,,,,,,,,,,,,,,,,,,,,
null,,prac_atten_color_black,84874,black_plus_sign,,,,,null,,,,,,,,,,,,,,,,,,,,,,,,,,,,,,
null,,prac_atten_color,85868,prac_stop_color,,,,,null,,,,,,,,,,,,,,,,,,,,,,,,,,,,,,
104,,prac_atten_color_black,87870,black_plus_sign,,,,,49,,,,,,,,,,,,,,,,,,,,,,,,,,,,,,
null,,prac_atten_color_black,88280,black_plus_sign,,,,,null,,,,,,,,,,,,,,,,,,,,,,,,,,,,,,
826,,prac_atten_color,89198,prac_stop_color,,,,,50,,,,,,,,,,,,,,,,,,,,,,,,,,,,,,
null,,prac_atten_color_black,91199,black_plus_sign,,,,,null,,,,,,,,,,,,,,,,,,,,,,,,,,,,,,
null,,prac_atten_color_black,91727,black_plus_sign,,,,,null,,,,,,,,,,,,,,,,,,,,,,,,,,,,,,
null,,prac_atten_color,92366,prac_stop_color,,,,,null,,,,,,,,,,,,,,,,,,,,,,,,,,,,,,
102,,prac_atten_color_black,94368,black_plus_sign,,,,,50,,,,,,,,,,,,,,,,,,,,,,,,,,,,,,
null,,prac_atten_color_black,95133,black_plus_sign,,,,,null,,,,,,,,,,,,,,,,,,,,,,,,,,,,,,
661,,prac_atten_color,96072,prac_stop_color,,,,,49,,,,,,,,,,,,,,,,,,,,,,,,,,,,,,
null,,prac_atten_color_black,98074,black_plus_sign,,,,,null,,,,,,,,,,,,,,,,,,,,,,,,,,,,,,
null,,prac_atten_color_black,98539,black_plus_sign,,,,,null,,,,,,,,,,,,,,,,,,,,,,,,,,,,,,
null,,prac_atten_color,98978,prac_stop_color,,,,,null,,,,,,,,,,,,,,,,,,,,,,,,,,,,,,
144,,prac_atten_color_black,100978,black_plus_sign,,,,,50,,,,,,,,,,,,,,,,,,,,,,,,,,,,,,
null,,prac_atten_color_black,101945,black_plus_sign,,,,,null,,,,,,,,,,,,,,,,,,,,,,,,,,,,,,
730,,prac_atten_color,102980,prac_stop_color,,,,,50,,,,,,,,,,,,,,,,,,,,,,,,,,,,,,
null,,prac_atten_color_black,104986,black_plus_sign,,,,,null,,,,,,,,,,,,,,,,,,,,,,,,,,,,,,
null,,prac_atten_color_black,105410,black_plus_sign,,,,,null,,,,,,,,,,,,,,,,,,,,,,,,,,,,,,
607,,prac_atten_color,106086,prac_stop_color,,,,,49,,,,,,,,,,,,,,,,,,,,,,,,,,,,,,
null,,prac_atten_color_black,108088,black_plus_sign,,,,,null,,,,,,,,,,,,,,,,,,,,,,,,,,,,,,
null,,prac_atten_color_black,108816,black_plus_sign,,,,,null,,,,,,,,,,,,,,,,,,,,,,,,,,,,,,
586,,prac_atten_color,109424,prac_stop_color,,,,,49,,,,,,,,,,,,,,,,,,,,,,,,,,,,,,
299,,prac_atten_color_black,111425,black_plus_sign,,,,,50,,,,,,,,,,,,,,,,,,,,,,,,,,,,,,
null,,prac_atten_color_black,112221,black_plus_sign,,,,,null,,,,,,,,,,,,,,,,,,,,,,,,,,,,,,
null,,prac_atten_color,112722,prac_stop_color,,,,,null,,,,,,,,,,,,,,,,,,,,,,,,,,,,,,
361,,prac_atten_color_black,114724,black_plus_sign,,,,,49,,,,,,,,,,,,,,,,,,,,,,,,,,,,,,
null,,prac_atten_color_black,115627,black_plus_sign,,,,,null,,,,,,,,,,,,,,,,,,,,,,,,,,,,,,
607,,prac_atten_color,116261,prac_stop_color,,,,,49,,,,,,,,,,,,,,,,,,,,,,,,,,,,,,
null,,prac_atten_color_black,118460,black_plus_sign,,,,,null,,,,,,,,,,,,,,,,,,,,,,,,,,,,,,
9276,,attentioncheck_feedback,127738,cross_check_feedback,,,0,,,,,,,,,,,,,,,,,,,,,,,,,,,,,,,,
9944,,last_instruct,137684,instruct,,,,,32,,,,,,,,,,,,,,,,,,,,,,,,,,,,,,
null,,learn_phase(without_color),139946,black_plus_sign,,,,,null,US_Cities_List/mm_westpalmbeach.png,US_Cities_List/nat_hotsprings.png,,,,,,,,,,,,,,,,,,,,,,,,,,,,
null,,black_cross(without_color),140940,blue,,,,,null,US_Cities_List/mm_westpalmbeach.png,US_Cities_List/nat_hotsprings.png,,,,,,,,,,,,,,,,,,,,,,,,,,,,
null,,rt_plussign_withcolor,141441,blue,,,,,null,US_Cities_List/mm_westpalmbeach.png,US_Cities_List/nat_hotsprings.png,,,,,,,,,,,,,,,,,,,,,,,,,,,,
1379,,rt_thecrossant_black,142451,black_plus_sign,,,,,49,,,1,1,,,,,,,,,,,,,,,,,,,,,,,,,,
null,,color_black,142553,black_plus_sign,,,,,null,,,,,,,,,,,,,,,,,,,,,,,,,,,,,,
null,,learn_phase(without_color),145077,black_plus_sign,,,,,null,US_Cities_List/nat_newhope.png,US_Cities_List/nat_racine.png,,,,,,,,,,,,,,,,,,,,,,,,,,,,
null,,black_cross(without_color),146149,blue,,,,,null,US_Cities_List/nat_newhope.png,US_Cities_List/nat_racine.png,,,,,,,,,,,,,,,,,,,,,,,,,,,,
null,,rt_plussign_withcolor,146649,blue,,,,,null,US_Cities_List/nat_newhope.png,US_Cities_List/nat_racine.png,,,,,,,,,,,,,,,,,,,,,,,,,,,,
1313,,rt_thecrossant_black,147582,black_plus_sign,,,,,49,,,1,1,,,,,,,,,,,,,,,,,,,,,,,,,,
null,,color_black,147685,black_plus_sign,,,,,null,,,,,,,,,,,,,,,,,,,,,,,,,,,,,,
null,,learn_phase(without_color),150204,black_plus_sign,,,,,null,US_Cities_List/mm_huntsville.png,US_Cities_List/mm_leesburg.png,,,,,,,,,,,,,,,,,,,,,,,,,,,,
null,,black_cross(without_color),151128,green,,,,,null,US_Cities_List/mm_huntsville.png,US_Cities_List/mm_leesburg.png,,,,,,,,,,,,,,,,,,,,,,,,,,,,
491,,rt_plussign_withcolor,151629,green,,,,,50,US_Cities_List/mm_huntsville.png,US_Cities_List/mm_leesburg.png,,,,,,,,,,,,,,,,,,,,,,,,,,,,
null,,rt_thecrossant_black,152720,black_plus_sign,,,,,null,,,1,1,,,,,,,,,,,,,,,,,,,,,,,,,,
null,,color_black,152823,black_plus_sign,,,,,null,,,,,,,,,,,,,,,,,,,,,,,,,,,,,,
null,,learn_phase(without_color),155344,black_plus_sign,,,,,null,US_Cities_List/mm_hanover.png,US_Cities_List/nat_peoria.png,,,,,,,,,,,,,,,,,,,,,,,,,,,,
null,,black_cross(without_color),155965,green,,,,,null,US_Cities_List/mm_hanover.png,US_Cities_List/nat_peoria.png,,,,,,,,,,,,,,,,,,,,,,,,,,,,
453,,rt_plussign_withcolor,156467,green,,,,,50,US_Cities_List/mm_hanover.png,US_Cities_List/nat_peoria.png,,,,,,,,,,,,,,,,,,,,,,,,,,,,
null,,rt_thecrossant_black,157849,black_plus_sign,,,,,null,,,1,1,,,,,,,,,,,,,,,,,,,,,,,,,,
null,,color_black,157951,black_plus_sign,,,,,null,,,,,,,,,,,,,,,,,,,,,,,,,,,,,,
null,,learn_phase(without_color),160486,black_plus_sign,,,,,null,US_Cities_List/nat_newhope.png,US_Cities_List/nat_racine.png,,,,,,,,,,,,,,,,,,,,,,,,,,,,
null,,black_cross(without_color),161069,green,,,,,null,US_Cities_List/nat_newhope.png,US_Cities_List/nat_racine.png,,,,,,,,,,,,,,,,,,,,,,,,,,,,
494,,rt_plussign_withcolor,161569,green,,,,,50,US_Cities_List/nat_newhope.png,US_Cities_List/nat_racine.png,,,,,,,,,,,,,,,,,,,,,,,,,,,,
null,,rt_thecrossant_black,162991,black_plus_sign,,,,,null,,,1,1,,,,,,,,,,,,,,,,,,,,,,,,,,
null,,color_black,163094,black_plus_sign,,,,,null,,,,,,,,,,,,,,,,,,,,,,,,,,,,,,
null,,learn_phase(without_color),165622,black_plus_sign,,,,,null,US_Cities_List/nat_cornwall.png,US_Cities_List/nat_hotsprings.png,,,,,,,,,,,,,,,,,,,,,,,,,,,,
null,,black_cross(without_color),166333,green,,,,,null,US_Cities_List/nat_cornwall.png,US_Cities_List/nat_hotsprings.png,,,,,,,,,,,,,,,,,,,,,,,,,,,,
null,,rt_plussign_withcolor,166834,green,,,,,null,US_Cities_List/nat_cornwall.png,US_Cities_List/nat_hotsprings.png,,,,,,,,,,,,,,,,,,,,,,,,,,,,
928,,rt_thecrossant_black,168128,black_plus_sign,,,,,50,,,1,1,,,,,,,,,,,,,,,,,,,,,,,,,,
null,,color_black,168229,black_plus_sign,,,,,null,,,,,,,,,,,,,,,,,,,,,,,,,,,,,,
null,,learn_phase(without_color),170760,black_plus_sign,,,,,null,US_Cities_List/mm_hanover.png,US_Cities_List/nat_peoria.png,,,,,,,,,,,,,,,,,,,,,,,,,,,,
null,,black_cross(without_color),171785,blue,,,,,null,US_Cities_List/mm_hanover.png,US_Cities_List/nat_peoria.png,,,,,,,,,,,,,,,,,,,,,,,,,,,,
null,,rt_plussign_withcolor,172286,blue,,,,,null,US_Cities_List/mm_hanover.png,US_Cities_List/nat_peoria.png,,,,,,,,,,,,,,,,,,,,,,,,,,,,
980,,rt_thecrossant_black,173266,black_plus_sign,,,,,49,,,1,1,,,,,,,,,,,,,,,,,,,,,,,,,,
null,,color_black,173368,black_plus_sign,,,,,null,,,,,,,,,,,,,,,,,,,,,,,,,,,,,,
null,,learn_phase(without_color),175897,black_plus_sign,,,,,null,US_Cities_List/mm_huntsville.png,US_Cities_List/nat_hotsprings.png,,,,,,,,,,,,,,,,,,,,,,,,,,,,
null,,black_cross(without_color),176922,green,,,,,null,US_Cities_List/mm_huntsville.png,US_Cities_List/nat_hotsprings.png,,,,,,,,,,,,,,,,,,,,,,,,,,,,
498,,rt_plussign_withcolor,177423,green,,,,,50,US_Cities_List/mm_huntsville.png,US_Cities_List/nat_hotsprings.png,,,,,,,,,,,,,,,,,,,,,,,,,,,,
null,,rt_thecrossant_black,178402,black_plus_sign,,,,,null,,,1,1,,,,,,,,,,,,,,,,,,,,,,,,,,
null,,color_black,178502,black_plus_sign,,,,,null,,,,,,,,,,,,,,,,,,,,,,,,,,,,,,
null,,learn_phase(without_color),181033,black_plus_sign,,,,,null,US_Cities_List/nat_racine.png,US_Cities_List/nat_boulder.png,,,,,,,,,,,,,,,,,,,,,,,,,,,,
null,,black_cross(without_color),181545,green,,,,,null,US_Cities_List/nat_racine.png,US_Cities_List/nat_boulder.png,,,,,,,,,,,,,,,,,,,,,,,,,,,,
null,,rt_plussign_withcolor,182046,green,,,,,null,US_Cities_List/nat_racine.png,US_Cities_List/nat_boulder.png,,,,,,,,,,,,,,,,,,,,,,,,,,,,
1295,,rt_thecrossant_black,183539,black_plus_sign,,,,,50,,,1,1,,,,,,,,,,,,,,,,,,,,,,,,,,
null,,color_black,183641,black_plus_sign,,,,,null,,,,,,,,,,,,,,,,,,,,,,,,,,,,,,
null,,learn_phase(without_color),186170,black_plus_sign,,,,,null,US_Cities_List/nat_racine.png,US_Cities_List/nat_carmel.png,,,,,,,,,,,,,,,,,,,,,,,,,,,,
null,,black_cross(without_color),187244,green,,,,,null,US_Cities_List/nat_racine.png,US_Cities_List/nat_carmel.png,,,,,,,,,,,,,,,,,,,,,,,,,,,,
416,,rt_plussign_withcolor,187745,green,,,,,50,US_Cities_List/nat_racine.png,US_Cities_List/nat_carmel.png,,,,,,,,,,,,,,,,,,,,,,,,,,,,
null,,rt_thecrossant_black,188676,black_plus_sign,,,,,null,,,1,1,,,,,,,,,,,,,,,,,,,,,,,,,,
null,,color_black,188778,black_plus_sign,,,,,null,,,,,,,,,,,,,,,,,,,,,,,,,,,,,,
null,,learn_phase(without_color),191311,black_plus_sign,,,,,null,US_Cities_List/nat_racine.png,US_Cities_List/nat_boulder.png,,,,,,,,,,,,,,,,,,,,,,,,,,,,
null,,black_cross(without_color),192160,blue,,,,,null,US_Cities_List/nat_racine.png,US_Cities_List/nat_boulder.png,,,,,,,,,,,,,,,,,,,,,,,,,,,,
null,,rt_plussign_withcolor,192661,blue,,,,,null,US_Cities_List/nat_racine.png,US_Cities_List/nat_boulder.png,,,,,,,,,,,,,,,,,,,,,,,,,,,,
1321,,rt_thecrossant_black,193817,black_plus_sign,,,,,49,,,1,1,,,,,,,,,,,,,,,,,,,,,,,,,,
null,,color_black,193920,black_plus_sign,,,,,null,,,,,,,,,,,,,,,,,,,,,,,,,,,,,,
null,,learn_phase(without_color),196456,black_plus_sign,,,,,null,US_Cities_List/mm_westpalmbeach.png,US_Cities_List/nat_hotsprings.png,,,,,,,,,,,,,,,,,,,,,,,,,,,,
null,,black_cross(without_color),197481,blue,,,,,null,US_Cities_List/mm_westpalmbeach.png,US_Cities_List/nat_hotsprings.png,,,,,,,,,,,,,,,,,,,,,,,,,,,,
null,,rt_plussign_withcolor,197982,blue,,,,,null,US_Cities_List/mm_westpalmbeach.png,US_Cities_List/nat_hotsprings.png,,,,,,,,,,,,,,,,,,,,,,,,,,,,
1054,,rt_thecrossant_black,198964,black_plus_sign,,,,,50,,,0,0.9166666666666666,,,,,,,,,,,,,,,,,,,,,,,,,,
null,,color_black,199065,black_plus_sign,,,,,null,,,,,,,,,,,,,,,,,,,,,,,,,,,,,,
null,,learn_phase(without_color),201601,black_plus_sign,,,,,null,US_Cities_List/nat_newhope.png,US_Cities_List/nat_racine.png,,,,,,,,,,,,,,,,,,,,,,,,,,,,
null,,black_cross(without_color),202528,blue,,,,,null,US_Cities_List/nat_newhope.png,US_Cities_List/nat_racine.png,,,,,,,,,,,,,,,,,,,,,,,,,,,,
null,,rt_plussign_withcolor,203041,blue,,,,,null,US_Cities_List/nat_newhope.png,US_Cities_List/nat_racine.png,,,,,,,,,,,,,,,,,,,,,,,,,,,,
1379,,rt_thecrossant_black,204118,black_plus_sign,,,,,49,,,1,0.9230769230769231,,,,,,,,,,,,,,,,,,,,,,,,,,
null,,color_black,204221,black_plus_sign,,,,,null,,,,,,,,,,,,,,,,,,,,,,,,,,,,,,
null,,learn_phase(without_color),207044,black_plus_sign,,,,,null,US_Cities_List/mm_huntsville.png,US_Cities_List/mm_westpalmbeach.png,,,,,,,,,,,,,,,,,,,,,,,,,,,,
null,,black_cross(without_color),208012,blue,,,,,null,US_Cities_List/mm_huntsville.png,US_Cities_List/mm_westpalmbeach.png,,,,,,,,,,,,,,,,,,,,,,,,,,,,
null,,rt_plussign_withcolor,208540,blue,,,,,null,US_Cities_List/mm_huntsville.png,US_Cities_List/mm_westpalmbeach.png,,,,,,,,,,,,,,,,,,,,,,,,,,,,
1136,,rt_thecrossant_black,209577,black_plus_sign,,,,,50,,,0,0.8571428571428571,,,,,,,,,,,,,,,,,,,,,,,,,,
null,,color_black,209678,black_plus_sign,,,,,null,,,,,,,,,,,,,,,,,,,,,,,,,,,,,,
null,,learn_phase(without_color),212209,black_plus_sign,,,,,null,US_Cities_List/nat_peoria.png,US_Cities_List/nat_boulder.png,,,,,,,,,,,,,,,,,,,,,,,,,,,,
null,,black_cross(without_color),212937,green,,,,,null,US_Cities_List/nat_peoria.png,US_Cities_List/nat_boulder.png,,,,,,,,,,,,,,,,,,,,,,,,,,,,
null,,rt_plussign_withcolor,213438,green,,,,,null,US_Cities_List/nat_peoria.png,US_Cities_List/nat_boulder.png,,,,,,,,,,,,,,,,,,,,,,,,,,,,
1213,,rt_thecrossant_black,214713,black_plus_sign,,,,,50,,,1,0.8666666666666667,,,,,,,,,,,,,,,,,,,,,,,,,,
null,,color_black,214816,black_plus_sign,,,,,null,,,,,,,,,,,,,,,,,,,,,,,,,,,,,,
null,,learn_phase(without_color),217346,black_plus_sign,,,,,null,US_Cities_List/nat_cornwall.png,US_Cities_List/nat_hotsprings.png,,,,,,,,,,,,,,,,,,,,,,,,,,,,
null,,black_cross(without_color),218365,green,,,,,null,US_Cities_List/nat_cornwall.png,US_Cities_List/nat_hotsprings.png,,,,,,,,,,,,,,,,,,,,,,,,,,,,
null,,rt_plussign_withcolor,218866,green,,,,,null,US_Cities_List/nat_cornwall.png,US_Cities_List/nat_hotsprings.png,,,,,,,,,,,,,,,,,,,,,,,,,,,,
897,,rt_thecrossant_black,219851,black_plus_sign,,,,,49,,,0,0.8125,,,,,,,,,,,,,,,,,,,,,,,,,,
null,,color_black,219952,black_plus_sign,,,,,null,,,,,,,,,,,,,,,,,,,,,,,,,,,,,,
null,,learn_phase(without_color),222489,black_plus_sign,,,,,null,US_Cities_List/mm_westpalmbeach.png,US_Cities_List/nat_hotsprings.png,,,,,,,,,,,,,,,,,,,,,,,,,,,,
null,,black_cross(without_color),223071,green,,,,,null,US_Cities_List/mm_westpalmbeach.png,US_Cities_List/nat_hotsprings.png,,,,,,,,,,,,,,,,,,,,,,,,,,,,
null,,rt_plussign_withcolor,223573,green,,,,,null,US_Cities_List/mm_westpalmbeach.png,US_Cities_List/nat_hotsprings.png,,,,,,,,,,,,,,,,,,,,,,,,,,,,
1156,,rt_thecrossant_black,224994,black_plus_sign,,,,,50,,,1,0.8235294117647058,,,,,,,,,,,,,,,,,,,,,,,,,,
null,,color_black,225097,black_plus_sign,,,,,null,,,,,,,,,,,,,,,,,,,,,,,,,,,,,,
null,,learn_phase(without_color),227629,black_plus_sign,,,,,null,US_Cities_List/mm_huntsville.png,US_Cities_List/mm_westpalmbeach.png,,,,,,,,,,,,,,,,,,,,,,,,,,,,
null,,black_cross(without_color),228433,blue,,,,,null,US_Cities_List/mm_huntsville.png,US_Cities_List/mm_westpalmbeach.png,,,,,,,,,,,,,,,,,,,,,,,,,,,,
null,,rt_plussign_withcolor,228934,blue,,,,,null,US_Cities_List/mm_huntsville.png,US_Cities_List/mm_westpalmbeach.png,,,,,,,,,,,,,,,,,,,,,,,,,,,,
870,,rt_thecrossant_black,230134,black_plus_sign,,,,,49,,,1,0.8333333333333334,,,,,,,,,,,,,,,,,,,,,,,,,,
null,,color_black,230236,black_plus_sign,,,,,null,,,,,,,,,,,,,,,,,,,,,,,,,,,,,,
null,,learn_phase(without_color),232763,black_plus_sign,,,,,null,US_Cities_List/nat_newhope.png,US_Cities_List/mm_hanover.png,,,,,,,,,,,,,,,,,,,,,,,,,,,,
null,,black_cross(without_color),233666,green,,,,,null,US_Cities_List/nat_newhope.png,US_Cities_List/mm_hanover.png,,,,,,,,,,,,,,,,,,,,,,,,,,,,
null,,rt_plussign_withcolor,234166,green,,,,,null,US_Cities_List/nat_newhope.png,US_Cities_List/mm_hanover.png,,,,,,,,,,,,,,,,,,,,,,,,,,,,
1036,,rt_thecrossant_black,235268,black_plus_sign,,,,,50,,,1,0.8421052631578947,,,,,,,,,,,,,,,,,,,,,,,,,,
null,,color_black,235370,black_plus_sign,,,,,null,,,,,,,,,,,,,,,,,,,,,,,,,,,,,,
null,,learn_phase(without_color),237901,black_plus_sign,,,,,null,US_Cities_List/nat_racine.png,US_Cities_List/nat_boulder.png,,,,,,,,,,,,,,,,,,,,,,,,,,,,
null,,black_cross(without_color),238711,blue,,,,,null,US_Cities_List/nat_racine.png,US_Cities_List/nat_boulder.png,,,,,,,,,,,,,,,,,,,,,,,,,,,,
null,,rt_plussign_withcolor,239212,blue,,,,,null,US_Cities_List/nat_racine.png,US_Cities_List/nat_boulder.png,,,,,,,,,,,,,,,,,,,,,,,,,,,,
1229,,rt_thecrossant_black,240409,black_plus_sign,,,,,49,,,1,0.85,,,,,,,,,,,,,,,,,,,,,,,,,,
null,,color_black,240511,black_plus_sign,,,,,null,,,,,,,,,,,,,,,,,,,,,,,,,,,,,,
null,,learn_phase(without_color),243047,black_plus_sign,,,,,null,US_Cities_List/nat_newhope.png,US_Cities_List/nat_racine.png,,,,,,,,,,,,,,,,,,,,,,,,,,,,
null,,black_cross(without_color),243766,blue,,,,,null,US_Cities_List/nat_newhope.png,US_Cities_List/nat_racine.png,,,,,,,,,,,,,,,,,,,,,,,,,,,,
null,,rt_plussign_withcolor,244267,blue,,,,,null,US_Cities_List/nat_newhope.png,US_Cities_List/nat_racine.png,,,,,,,,,,,,,,,,,,,,,,,,,,,,
1274,,rt_thecrossant_black,245554,black_plus_sign,,,,,49,,,1,0.8571428571428571,,,,,,,,,,,,,,,,,,,,,,,,,,
null,,color_black,245656,black_plus_sign,,,,,null,,,,,,,,,,,,,,,,,,,,,,,,,,,,,,
null,,learn_phase(without_color),248185,black_plus_sign,,,,,null,US_Cities_List/nat_shreveport.png,US_Cities_List/nat_newhope.png,,,,,,,,,,,,,,,,,,,,,,,,,,,,
null,,black_cross(without_color),248830,blue,,,,,null,US_Cities_List/nat_shreveport.png,US_Cities_List/nat_newhope.png,,,,,,,,,,,,,,,,,,,,,,,,,,,,
null,,rt_plussign_withcolor,249331,blue,,,,,null,US_Cities_List/nat_shreveport.png,US_Cities_List/nat_newhope.png,,,,,,,,,,,,,,,,,,,,,,,,,,,,
990,,rt_thecrossant_black,250690,black_plus_sign,,,,,49,,,1,0.8636363636363636,,,,,,,,,,,,,,,,,,,,,,,,,,
null,,color_black,250793,black_plus_sign,,,,,null,,,,,,,,,,,,,,,,,,,,,,,,,,,,,,
null,,learn_phase(without_color),253329,black_plus_sign,,,,,null,US_Cities_List/nat_cornwall.png,US_Cities_List/nat_hotsprings.png,,,,,,,,,,,,,,,,,,,,,,,,,,,,
null,,black_cross(without_color),254048,green,,,,,null,US_Cities_List/nat_cornwall.png,US_Cities_List/nat_hotsprings.png,,,,,,,,,,,,,,,,,,,,,,,,,,,,
null,,rt_plussign_withcolor,254548,green,,,,,null,US_Cities_List/nat_cornwall.png,US_Cities_List/nat_hotsprings.png,,,,,,,,,,,,,,,,,,,,,,,,,,,,
744,,rt_thecrossant_black,255835,black_plus_sign,,,,,50,,,1,0.8695652173913043,,,,,,,,,,,,,,,,,,,,,,,,,,
null,,color_black,255938,black_plus_sign,,,,,null,,,,,,,,,,,,,,,,,,,,,,,,,,,,,,
null,,learn_phase(without_color),258464,black_plus_sign,,,,,null,US_Cities_List/mm_huntsville.png,US_Cities_List/nat_hotsprings.png,,,,,,,,,,,,,,,,,,,,,,,,,,,,
null,,black_cross(without_color),259514,blue,,,,,null,US_Cities_List/mm_huntsville.png,US_Cities_List/nat_hotsprings.png,,,,,,,,,,,,,,,,,,,,,,,,,,,,
null,,rt_plussign_withcolor,260015,blue,,,,,null,US_Cities_List/mm_huntsville.png,US_Cities_List/nat_hotsprings.png,,,,,,,,,,,,,,,,,,,,,,,,,,,,
981,,rt_thecrossant_black,260970,black_plus_sign,,,,,49,,,1,0.875,,,,,,,,,,,,,,,,,,,,,,,,,,
null,,color_black,261072,black_plus_sign,,,,,null,,,,,,,,,,,,,,,,,,,,,,,,,,,,,,
null,,learn_phase(without_color),263602,black_plus_sign,,,,,null,US_Cities_List/nat_hotsprings.png,US_Cities_List/nat_peoria.png,,,,,,,,,,,,,,,,,,,,,,,,,,,,
null,,black_cross(without_color),264120,green,,,,,null,US_Cities_List/nat_hotsprings.png,US_Cities_List/nat_peoria.png,,,,,,,,,,,,,,,,,,,,,,,,,,,,
null,,rt_plussign_withcolor,264621,green,,,,,null,US_Cities_List/nat_hotsprings.png,US_Cities_List/nat_peoria.png,,,,,,,,,,,,,,,,,,,,,,,,,,,,
1488,,rt_thecrossant_black,266107,black_plus_sign,,,,,50,,,1,0.88,,,,,,,,,,,,,,,,,,,,,,,,,,
null,,color_black,266209,black_plus_sign,,,,,null,,,,,,,,,,,,,,,,,,,,,,,,,,,,,,
null,,learn_phase(without_color),268735,black_plus_sign,,,,,null,US_Cities_List/nat_racine.png,US_Cities_List/nat_carmel.png,,,,,,,,,,,,,,,,,,,,,,,,,,,,
null,,black_cross(without_color),269277,blue,,,,,null,US_Cities_List/nat_racine.png,US_Cities_List/nat_carmel.png,,,,,,,,,,,,,,,,,,,,,,,,,,,,
null,,rt_plussign_withcolor,269778,blue,,,,,null,US_Cities_List/nat_racine.png,US_Cities_List/nat_carmel.png,,,,,,,,,,,,,,,,,,,,,,,,,,,,
970,,rt_thecrossant_black,271242,black_plus_sign,,,,,49,,,1,0.8846153846153846,,,,,,,,,,,,,,,,,,,,,,,,,,
null,,color_black,271344,black_plus_sign,,,,,null,,,,,,,,,,,,,,,,,,,,,,,,,,,,,,
null,,learn_phase(without_color),273869,black_plus_sign,,,,,null,US_Cities_List/mm_hanover.png,US_Cities_List/nat_peoria.png,,,,,,,,,,,,,,,,,,,,,,,,,,,,
null,,black_cross(without_color),274306,green,,,,,null,US_Cities_List/mm_hanover.png,US_Cities_List/nat_peoria.png,,,,,,,,,,,,,,,,,,,,,,,,,,,,
null,,rt_plussign_withcolor,274807,green,,,,,null,US_Cities_List/mm_hanover.png,US_Cities_List/nat_peoria.png,,,,,,,,,,,,,,,,,,,,,,,,,,,,
923,,rt_thecrossant_black,276374,black_plus_sign,,,,,50,,,1,0.8888888888888888,,,,,,,,,,,,,,,,,,,,,,,,,,
null,,color_black,276477,black_plus_sign,,,,,null,,,,,,,,,,,,,,,,,,,,,,,,,,,,,,
null,,learn_phase(without_color),279007,black_plus_sign,,,,,null,US_Cities_List/nat_hotsprings.png,US_Cities_List/nat_peoria.png,,,,,,,,,,,,,,,,,,,,,,,,,,,,
null,,black_cross(without_color),279987,green,,,,,null,US_Cities_List/nat_hotsprings.png,US_Cities_List/nat_peoria.png,,,,,,,,,,,,,,,,,,,,,,,,,,,,
null,,rt_plussign_withcolor,280488,green,,,,,null,US_Cities_List/nat_hotsprings.png,US_Cities_List/nat_peoria.png,,,,,,,,,,,,,,,,,,,,,,,,,,,,
721,,rt_thecrossant_black,281513,black_plus_sign,,,,,50,,,1,0.8928571428571429,,,,,,,,,,,,,,,,,,,,,,,,,,
null,,color_black,281615,black_plus_sign,,,,,null,,,,,,,,,,,,,,,,,,,,,,,,,,,,,,
null,,learn_phase(without_color),284144,black_plus_sign,,,,,null,US_Cities_List/nat_peoria.png,US_Cities_List/nat_boulder.png,,,,,,,,,,,,,,,,,,,,,,,,,,,,
null,,black_cross(without_color),284905,green,,,,,null,US_Cities_List/nat_peoria.png,US_Cities_List/nat_boulder.png,,,,,,,,,,,,,,,,,,,,,,,,,,,,
null,,rt_plussign_withcolor,285407,green,,,,,null,US_Cities_List/nat_peoria.png,US_Cities_List/nat_boulder.png,,,,,,,,,,,,,,,,,,,,,,,,,,,,
1137,,rt_thecrossant_black,286649,black_plus_sign,,,,,50,,,1,0.896551724137931,,,,,,,,,,,,,,,,,,,,,,,,,,
null,,color_black,286752,black_plus_sign,,,,,null,,,,,,,,,,,,,,,,,,,,,,,,,,,,,,
null,,learn_phase(without_color),289283,black_plus_sign,,,,,null,US_Cities_List/mm_hanover.png,US_Cities_List/nat_cornwall.png,,,,,,,,,,,,,,,,,,,,,,,,,,,,
null,,black_cross(without_color),289757,green,,,,,null,US_Cities_List/mm_hanover.png,US_Cities_List/nat_cornwall.png,,,,,,,,,,,,,,,,,,,,,,,,,,,,
null,,rt_plussign_withcolor,290257,green,,,,,null,US_Cities_List/mm_hanover.png,US_Cities_List/nat_cornwall.png,,,,,,,,,,,,,,,,,,,,,,,,,,,,
982,,rt_thecrossant_black,291789,black_plus_sign,,,,,50,,,1,0.9,,,,,,,,,,,,,,,,,,,,,,,,,,
null,,color_black,291890,black_plus_sign,,,,,null,,,,,,,,,,,,,,,,,,,,,,,,,,,,,,
null,,learn_phase(without_color),294426,black_plus_sign,,,,,null,US_Cities_List/nat_racine.png,US_Cities_List/nat_boulder.png,,,,,,,,,,,,,,,,,,,,,,,,,,,,
null,,black_cross(without_color),295023,green,,,,,null,US_Cities_List/nat_racine.png,US_Cities_List/nat_boulder.png,,,,,,,,,,,,,,,,,,,,,,,,,,,,
null,,rt_plussign_withcolor,295525,green,,,,,null,US_Cities_List/nat_racine.png,US_Cities_List/nat_boulder.png,,,,,,,,,,,,,,,,,,,,,,,,,,,,
698,,rt_thecrossant_black,296931,black_plus_sign,,,,,50,,,1,0.9032258064516129,,,,,,,,,,,,,,,,,,,,,,,,,,
null,,color_black,297034,black_plus_sign,,,,,null,,,,,,,,,,,,,,,,,,,,,,,,,,,,,,
null,,learn_phase(without_color),299570,black_plus_sign,,,,,null,US_Cities_List/nat_newhope.png,US_Cities_List/nat_racine.png,,,,,,,,,,,,,,,,,,,,,,,,,,,,
null,,black_cross(without_color),300569,green,,,,,null,US_Cities_List/nat_newhope.png,US_Cities_List/nat_racine.png,,,,,,,,,,,,,,,,,,,,,,,,,,,,
null,,rt_plussign_withcolor,301069,green,,,,,null,US_Cities_List/nat_newhope.png,US_Cities_List/nat_racine.png,,,,,,,,,,,,,,,,,,,,,,,,,,,,
709,,rt_thecrossant_black,302076,black_plus_sign,,,,,50,,,1,0.90625,,,,,,,,,,,,,,,,,,,,,,,,,,
null,,color_black,302177,black_plus_sign,,,,,null,,,,,,,,,,,,,,,,,,,,,,,,,,,,,,
null,,learn_phase(without_color),304711,black_plus_sign,,,,,null,US_Cities_List/nat_racine.png,US_Cities_List/nat_boulder.png,,,,,,,,,,,,,,,,,,,,,,,,,,,,
null,,black_cross(without_color),305809,green,,,,,null,US_Cities_List/nat_racine.png,US_Cities_List/nat_boulder.png,,,,,,,,,,,,,,,,,,,,,,,,,,,,
null,,rt_plussign_withcolor,306310,green,,,,,null,US_Cities_List/nat_racine.png,US_Cities_List/nat_boulder.png,,,,,,,,,,,,,,,,,,,,,,,,,,,,
1133,,rt_thecrossant_black,307216,black_plus_sign,,,,,50,,,1,0.9090909090909091,,,,,,,,,,,,,,,,,,,,,,,,,,
null,,color_black,307318,black_plus_sign,,,,,null,,,,,,,,,,,,,,,,,,,,,,,,,,,,,,
null,,learn_phase(without_color),309850,black_plus_sign,,,,,null,US_Cities_List/nat_hotsprings.png,US_Cities_List/nat_peoria.png,,,,,,,,,,,,,,,,,,,,,,,,,,,,
null,,black_cross(without_color),310610,green,,,,,null,US_Cities_List/nat_hotsprings.png,US_Cities_List/nat_peoria.png,,,,,,,,,,,,,,,,,,,,,,,,,,,,
null,,rt_plussign_withcolor,311111,green,,,,,null,US_Cities_List/nat_hotsprings.png,US_Cities_List/nat_peoria.png,,,,,,,,,,,,,,,,,,,,,,,,,,,,
1304,,rt_thecrossant_black,312357,black_plus_sign,,,,,50,,,1,0.9117647058823529,,,,,,,,,,,,,,,,,,,,,,,,,,
null,,color_black,312459,black_plus_sign,,,,,null,,,,,,,,,,,,,,,,,,,,,,,,,,,,,,
null,,learn_phase(without_color),314988,black_plus_sign,,,,,null,US_Cities_List/nat_cornwall.png,US_Cities_List/mm_huntsville.png,,,,,,,,,,,,,,,,,,,,,,,,,,,,
null,,black_cross(without_color),315853,blue,,,,,null,US_Cities_List/nat_cornwall.png,US_Cities_List/mm_huntsville.png,,,,,,,,,,,,,,,,,,,,,,,,,,,,
null,,rt_plussign_withcolor,316354,blue,,,,,null,US_Cities_List/nat_cornwall.png,US_Cities_List/mm_huntsville.png,,,,,,,,,,,,,,,,,,,,,,,,,,,,
1131,,rt_thecrossant_black,317494,black_plus_sign,,,,,49,,,1,0.9142857142857143,,,,,,,,,,,,,,,,,,,,,,,,,,
null,,color_black,317597,black_plus_sign,,,,,null,,,,,,,,,,,,,,,,,,,,,,,,,,,,,,
null,,learn_phase(without_color),320130,black_plus_sign,,,,,null,US_Cities_List/mm_hanover.png,US_Cities_List/nat_cornwall.png,,,,,,,,,,,,,,,,,,,,,,,,,,,,
null,,black_cross(without_color),321144,blue,,,,,null,US_Cities_List/mm_hanover.png,US_Cities_List/nat_cornwall.png,,,,,,,,,,,,,,,,,,,,,,,,,,,,
null,,rt_plussign_withcolor,321645,blue,,,,,null,US_Cities_List/mm_hanover.png,US_Cities_List/nat_cornwall.png,,,,,,,,,,,,,,,,,,,,,,,,,,,,
1120,,rt_thecrossant_black,322636,black_plus_sign,,,,,49,,,1,0.9166666666666666,,,,,,,,,,,,,,,,,,,,,,,,,,
null,,color_black,322739,black_plus_sign,,,,,null,,,,,,,,,,,,,,,,,,,,,,,,,,,,,,
null,,learn_phase(without_color),325264,black_plus_sign,,,,,null,US_Cities_List/mm_westpalmbeach.png,US_Cities_List/mm_gatlinburg.png,,,,,,,,,,,,,,,,,,,,,,,,,,,,
null,,black_cross(without_color),326364,green,,,,,null,US_Cities_List/mm_westpalmbeach.png,US_Cities_List/mm_gatlinburg.png,,,,,,,,,,,,,,,,,,,,,,,,,,,,
464,,rt_plussign_withcolor,326865,green,,,,,50,US_Cities_List/mm_westpalmbeach.png,US_Cities_List/mm_gatlinburg.png,,,,,,,,,,,,,,,,,,,,,,,,,,,,
null,,rt_thecrossant_black,327770,black_plus_sign,,,,,null,,,1,0.918918918918919,,,,,,,,,,,,,,,,,,,,,,,,,,
null,,color_black,327873,black_plus_sign,,,,,null,,,,,,,,,,,,,,,,,,,,,,,,,,,,,,
null,,learn_phase(without_color),330400,black_plus_sign,,,,,null,US_Cities_List/nat_cornwall.png,US_Cities_List/mm_huntsville.png,,,,,,,,,,,,,,,,,,,,,,,,,,,,
null,,black_cross(without_color),331036,blue,,,,,null,US_Cities_List/nat_cornwall.png,US_Cities_List/mm_huntsville.png,,,,,,,,,,,,,,,,,,,,,,,,,,,,
null,,rt_plussign_withcolor,331537,blue,,,,,null,US_Cities_List/nat_cornwall.png,US_Cities_List/mm_huntsville.png,,,,,,,,,,,,,,,,,,,,,,,,,,,,
1520,,rt_thecrossant_black,332906,black_plus_sign,,,,,49,,,1,0.9210526315789473,,,,,,,,,,,,,,,,,,,,,,,,,,
null,,color_black,333008,black_plus_sign,,,,,null,,,,,,,,,,,,,,,,,,,,,,,,,,,,,,
null,,learn_phase(without_color),335542,black_plus_sign,,,,,null,US_Cities_List/mm_westpalmbeach.png,US_Cities_List/mm_gatlinburg.png,,,,,,,,,,,,,,,,,,,,,,,,,,,,
null,,black_cross(without_color),336155,green,,,,,null,US_Cities_List/mm_westpalmbeach.png,US_Cities_List/mm_gatlinburg.png,,,,,,,,,,,,,,,,,,,,,,,,,,,,
null,,rt_plussign_withcolor,336656,green,,,,,null,US_Cities_List/mm_westpalmbeach.png,US_Cities_List/mm_gatlinburg.png,,,,,,,,,,,,,,,,,,,,,,,,,,,,
833,,rt_thecrossant_black,338049,black_plus_sign,,,,,49,,,0,0.8974358974358975,,,,,,,,,,,,,,,,,,,,,,,,,,
null,,color_black,338150,black_plus_sign,,,,,null,,,,,,,,,,,,,,,,,,,,,,,,,,,,,,
null,,learn_phase(without_color),340682,black_plus_sign,,,,,null,US_Cities_List/nat_newhope.png,US_Cities_List/mm_hanover.png,,,,,,,,,,,,,,,,,,,,,,,,,,,,
null,,black_cross(without_color),341712,green,,,,,null,US_Cities_List/nat_newhope.png,US_Cities_List/mm_hanover.png,,,,,,,,,,,,,,,,,,,,,,,,,,,,
null,,rt_plussign_withcolor,342213,green,,,,,null,US_Cities_List/nat_newhope.png,US_Cities_List/mm_hanover.png,,,,,,,,,,,,,,,,,,,,,,,,,,,,
820,,rt_thecrossant_black,343188,black_plus_sign,,,,,50,,,1,0.9,,,,,,,,,,,,,,,,,,,,,,,,,,
null,,color_black,343290,black_plus_sign,,,,,null,,,,,,,,,,,,,,,,,,,,,,,,,,,,,,
null,,learn_phase(without_color),345813,black_plus_sign,,,,,null,US_Cities_List/mm_huntsville.png,US_Cities_List/mm_leesburg.png,,,,,,,,,,,,,,,,,,,,,,,,,,,,
null,,black_cross(without_color),346551,blue,,,,,null,US_Cities_List/mm_huntsville.png,US_Cities_List/mm_leesburg.png,,,,,,,,,,,,,,,,,,,,,,,,,,,,
null,,rt_plussign_withcolor,347052,blue,,,,,null,US_Cities_List/mm_huntsville.png,US_Cities_List/mm_leesburg.png,,,,,,,,,,,,,,,,,,,,,,,,,,,,
1319,,rt_thecrossant_black,348317,black_plus_sign,,,,,49,,,1,0.9024390243902439,,,,,,,,,,,,,,,,,,,,,,,,,,
null,,color_black,348420,black_plus_sign,,,,,null,,,,,,,,,,,,,,,,,,,,,,,,,,,,,,
null,,learn_phase(without_color),350949,black_plus_sign,,,,,null,US_Cities_List/nat_cornwall.png,US_Cities_List/mm_huntsville.png,,,,,,,,,,,,,,,,,,,,,,,,,,,,
null,,black_cross(without_color),351769,green,,,,,null,US_Cities_List/nat_cornwall.png,US_Cities_List/mm_huntsville.png,,,,,,,,,,,,,,,,,,,,,,,,,,,,
null,,rt_plussign_withcolor,352270,green,,,,,null,US_Cities_List/nat_cornwall.png,US_Cities_List/mm_huntsville.png,,,,,,,,,,,,,,,,,,,,,,,,,,,,
1033,,rt_thecrossant_black,353455,black_plus_sign,,,,,50,,,1,0.9047619047619048,,,,,,,,,,,,,,,,,,,,,,,,,,
null,,color_black,353557,black_plus_sign,,,,,null,,,,,,,,,,,,,,,,,,,,,,,,,,,,,,
null,,learn_phase(without_color),356087,black_plus_sign,,,,,null,US_Cities_List/nat_newhope.png,US_Cities_List/nat_racine.png,,,,,,,,,,,,,,,,,,,,,,,,,,,,
null,,black_cross(without_color),356963,blue,,,,,null,US_Cities_List/nat_newhope.png,US_Cities_List/nat_racine.png,,,,,,,,,,,,,,,,,,,,,,,,,,,,
null,,rt_plussign_withcolor,357464,blue,,,,,null,US_Cities_List/nat_newhope.png,US_Cities_List/nat_racine.png,,,,,,,,,,,,,,,,,,,,,,,,,,,,
1138,,rt_thecrossant_black,358592,black_plus_sign,,,,,49,,,1,0.9069767441860465,,,,,,,,,,,,,,,,,,,,,,,,,,
null,,color_black,358694,black_plus_sign,,,,,null,,,,,,,,,,,,,,,,,,,,,,,,,,,,,,
null,,learn_phase(without_color),361220,black_plus_sign,,,,,null,US_Cities_List/nat_cornwall.png,US_Cities_List/mm_huntsville.png,,,,,,,,,,,,,,,,,,,,,,,,,,,,
null,,black_cross(without_color),362296,green,,,,,null,US_Cities_List/nat_cornwall.png,US_Cities_List/mm_huntsville.png,,,,,,,,,,,,,,,,,,,,,,,,,,,,
null,,rt_plussign_withcolor,362798,green,,,,,null,US_Cities_List/nat_cornwall.png,US_Cities_List/mm_huntsville.png,,,,,,,,,,,,,,,,,,,,,,,,,,,,
1027,,rt_thecrossant_black,363726,black_plus_sign,,,,,50,,,1,0.9090909090909091,,,,,,,,,,,,,,,,,,,,,,,,,,
null,,color_black,363828,black_plus_sign,,,,,null,,,,,,,,,,,,,,,,,,,,,,,,,,,,,,
null,,learn_phase(without_color),366349,black_plus_sign,,,,,null,US_Cities_List/nat_peoria.png,US_Cities_List/nat_boulder.png,,,,,,,,,,,,,,,,,,,,,,,,,,,,
null,,black_cross(without_color),366831,blue,,,,,null,US_Cities_List/nat_peoria.png,US_Cities_List/nat_boulder.png,,,,,,,,,,,,,,,,,,,,,,,,,,,,
null,,rt_plussign_withcolor,367332,blue,,,,,null,US_Cities_List/nat_peoria.png,US_Cities_List/nat_boulder.png,,,,,,,,,,,,,,,,,,,,,,,,,,,,
1589,,rt_thecrossant_black,368856,black_plus_sign,,,,,49,,,1,0.9111111111111111,,,,,,,,,,,,,,,,,,,,,,,,,,
null,,color_black,368957,black_plus_sign,,,,,null,,,,,,,,,,,,,,,,,,,,,,,,,,,,,,
null,,learn_phase(without_color),371485,black_plus_sign,,,,,null,US_Cities_List/nat_shreveport.png,US_Cities_List/nat_newhope.png,,,,,,,,,,,,,,,,,,,,,,,,,,,,
null,,black_cross(without_color),372569,green,,,,,null,US_Cities_List/nat_shreveport.png,US_Cities_List/nat_newhope.png,,,,,,,,,,,,,,,,,,,,,,,,,,,,
null,,rt_plussign_withcolor,373073,green,,,,,null,US_Cities_List/nat_shreveport.png,US_Cities_List/nat_newhope.png,,,,,,,,,,,,,,,,,,,,,,,,,,,,
822,,rt_thecrossant_black,373993,black_plus_sign,,,,,50,,,1,0.9130434782608695,,,,,,,,,,,,,,,,,,,,,,,,,,
null,,color_black,374097,black_plus_sign,,,,,null,,,,,,,,,,,,,,,,,,,,,,,,,,,,,,
null,,learn_phase(without_color),376627,black_plus_sign,,,,,null,US_Cities_List/mm_huntsville.png,US_Cities_List/mm_leesburg.png,,,,,,,,,,,,,,,,,,,,,,,,,,,,
null,,black_cross(without_color),377482,green,,,,,null,US_Cities_List/mm_huntsville.png,US_Cities_List/mm_leesburg.png,,,,,,,,,,,,,,,,,,,,,,,,,,,,
null,,rt_plussign_withcolor,377983,green,,,,,null,US_Cities_List/mm_huntsville.png,US_Cities_List/mm_leesburg.png,,,,,,,,,,,,,,,,,,,,,,,,,,,,
1289,,rt_thecrossant_black,379133,black_plus_sign,,,,,50,,,1,0.9148936170212766,,,,,,,,,,,,,,,,,,,,,,,,,,
null,,color_black,379236,black_plus_sign,,,,,null,,,,,,,,,,,,,,,,,,,,,,,,,,,,,,
null,,learn_phase(without_color),381766,black_plus_sign,,,,,null,US_Cities_List/mm_hanover.png,US_Cities_List/nat_cornwall.png,,,,,,,,,,,,,,,,,,,,,,,,,,,,
null,,black_cross(without_color),382359,green,,,,,null,US_Cities_List/mm_hanover.png,US_Cities_List/nat_cornwall.png,,,,,,,,,,,,,,,,,,,,,,,,,,,,
null,,rt_plussign_withcolor,382862,green,,,,,null,US_Cities_List/mm_hanover.png,US_Cities_List/nat_cornwall.png,,,,,,,,,,,,,,,,,,,,,,,,,,,,
1078,,rt_thecrossant_black,384271,black_plus_sign,,,,,50,,,1,0.9166666666666666,,,,,,,,,,,,,,,,,,,,,,,,,,
null,,color_black,384373,black_plus_sign,,,,,null,,,,,,,,,,,,,,,,,,,,,,,,,,,,,,
null,,learn_phase(without_color),386905,black_plus_sign,,,,,null,US_Cities_List/mm_huntsville.png,US_Cities_List/mm_westpalmbeach.png,,,,,,,,,,,,,,,,,,,,,,,,,,,,
null,,black_cross(without_color),387325,green,,,,,null,US_Cities_List/mm_huntsville.png,US_Cities_List/mm_westpalmbeach.png,,,,,,,,,,,,,,,,,,,,,,,,,,,,
null,,rt_plussign_withcolor,387826,green,,,,,null,US_Cities_List/mm_huntsville.png,US_Cities_List/mm_westpalmbeach.png,,,,,,,,,,,,,,,,,,,,,,,,,,,,
765,,rt_thecrossant_black,389412,black_plus_sign,,,,,50,,,1,0.9183673469387755,,,,,,,,,,,,,,,,,,,,,,,,,,
null,,color_black,389516,black_plus_sign,,,,,null,,,,,,,,,,,,,,,,,,,,,,,,,,,,,,
null,,learn_phase(without_color),392043,black_plus_sign,,,,,null,US_Cities_List/mm_huntsville.png,US_Cities_List/mm_leesburg.png,,,,,,,,,,,,,,,,,,,,,,,,,,,,
null,,black_cross(without_color),392496,blue,,,,,null,US_Cities_List/mm_huntsville.png,US_Cities_List/mm_leesburg.png,,,,,,,,,,,,,,,,,,,,,,,,,,,,
null,,rt_plussign_withcolor,392997,blue,,,,,null,US_Cities_List/mm_huntsville.png,US_Cities_List/mm_leesburg.png,,,,,,,,,,,,,,,,,,,,,,,,,,,,
619,,rt_thecrossant_black,394548,black_plus_sign,,,,,49,,,1,0.92,,,,,,,,,,,,,,,,,,,,,,,,,,
null,,color_black,394651,black_plus_sign,,,,,null,,,,,,,,,,,,,,,,,,,,,,,,,,,,,,
null,,learn_phase(without_color),397178,black_plus_sign,,,,,null,US_Cities_List/nat_newhope.png,US_Cities_List/mm_hanover.png,,,,,,,,,,,,,,,,,,,,,,,,,,,,
null,,black_cross(without_color),398190,blue,,,,,null,US_Cities_List/nat_newhope.png,US_Cities_List/mm_hanover.png,,,,,,,,,,,,,,,,,,,,,,,,,,,,
null,,rt_plussign_withcolor,398691,blue,,,,,null,US_Cities_List/nat_newhope.png,US_Cities_List/mm_hanover.png,,,,,,,,,,,,,,,,,,,,,,,,,,,,
872,,rt_thecrossant_black,399685,black_plus_sign,,,,,49,,,1,0.9215686274509803,,,,,,,,,,,,,,,,,,,,,,,,,,
null,,color_black,399788,black_plus_sign,,,,,null,,,,,,,,,,,,,,,,,,,,,,,,,,,,,,
null,,learn_phase(without_color),402313,black_plus_sign,,,,,null,US_Cities_List/nat_racine.png,US_Cities_List/nat_boulder.png,,,,,,,,,,,,,,,,,,,,,,,,,,,,
null,,black_cross(without_color),403283,green,,,,,null,US_Cities_List/nat_racine.png,US_Cities_List/nat_boulder.png,,,,,,,,,,,,,,,,,,,,,,,,,,,,
null,,rt_plussign_withcolor,403785,green,,,,,null,US_Cities_List/nat_racine.png,US_Cities_List/nat_boulder.png,,,,,,,,,,,,,,,,,,,,,,,,,,,,
1264,,rt_thecrossant_black,404819,black_plus_sign,,,,,50,,,1,0.9230769230769231,,,,,,,,,,,,,,,,,,,,,,,,,,
null,,color_black,404922,black_plus_sign,,,,,null,,,,,,,,,,,,,,,,,,,,,,,,,,,,,,
null,,learn_phase(without_color),407449,black_plus_sign,,,,,null,US_Cities_List/nat_peoria.png,US_Cities_List/nat_boulder.png,,,,,,,,,,,,,,,,,,,,,,,,,,,,
null,,black_cross(without_color),408400,green,,,,,null,US_Cities_List/nat_peoria.png,US_Cities_List/nat_boulder.png,,,,,,,,,,,,,,,,,,,,,,,,,,,,
461,,rt_plussign_withcolor,408901,green,,,,,50,US_Cities_List/nat_peoria.png,US_Cities_List/nat_boulder.png,,,,,,,,,,,,,,,,,,,,,,,,,,,,
null,,rt_thecrossant_black,409956,black_plus_sign,,,,,null,,,1,0.9245283018867925,,,,,,,,,,,,,,,,,,,,,,,,,,
null,,color_black,410057,black_plus_sign,,,,,null,,,,,,,,,,,,,,,,,,,,,,,,,,,,,,
null,,learn_phase(without_color),412585,black_plus_sign,,,,,null,US_Cities_List/nat_hotsprings.png,US_Cities_List/nat_peoria.png,,,,,,,,,,,,,,,,,,,,,,,,,,,,
null,,black_cross(without_color),413669,blue,,,,,null,US_Cities_List/nat_hotsprings.png,US_Cities_List/nat_peoria.png,,,,,,,,,,,,,,,,,,,,,,,,,,,,
null,,rt_plussign_withcolor,414170,blue,,,,,null,US_Cities_List/nat_hotsprings.png,US_Cities_List/nat_peoria.png,,,,,,,,,,,,,,,,,,,,,,,,,,,,
1090,,rt_thecrossant_black,415091,black_plus_sign,,,,,49,,,1,0.9259259259259259,,,,,,,,,,,,,,,,,,,,,,,,,,
null,,color_black,415193,black_plus_sign,,,,,null,,,,,,,,,,,,,,,,,,,,,,,,,,,,,,
null,,learn_phase(without_color),417726,black_plus_sign,,,,,null,US_Cities_List/nat_cornwall.png,US_Cities_List/nat_hotsprings.png,,,,,,,,,,,,,,,,,,,,,,,,,,,,
null,,black_cross(without_color),418560,blue,,,,,null,US_Cities_List/nat_cornwall.png,US_Cities_List/nat_hotsprings.png,,,,,,,,,,,,,,,,,,,,,,,,,,,,
null,,rt_plussign_withcolor,419061,blue,,,,,null,US_Cities_List/nat_cornwall.png,US_Cities_List/nat_hotsprings.png,,,,,,,,,,,,,,,,,,,,,,,,,,,,
1532,,rt_thecrossant_black,420231,black_plus_sign,,,,,50,,,0,0.9090909090909091,,,,,,,,,,,,,,,,,,,,,,,,,,
null,,color_black,420333,black_plus_sign,,,,,null,,,,,,,,,,,,,,,,,,,,,,,,,,,,,,
null,,learn_phase(without_color),422865,black_plus_sign,,,,,null,US_Cities_List/nat_cornwall.png,US_Cities_List/mm_huntsville.png,,,,,,,,,,,,,,,,,,,,,,,,,,,,
null,,black_cross(without_color),423905,blue,,,,,null,US_Cities_List/nat_cornwall.png,US_Cities_List/mm_huntsville.png,,,,,,,,,,,,,,,,,,,,,,,,,,,,
null,,rt_plussign_withcolor,424406,blue,,,,,null,US_Cities_List/nat_cornwall.png,US_Cities_List/mm_huntsville.png,,,,,,,,,,,,,,,,,,,,,,,,,,,,
1147,,rt_thecrossant_black,425426,black_plus_sign,,,,,49,,,1,0.9107142857142857,,,,,,,,,,,,,,,,,,,,,,,,,,
null,,color_black,425528,black_plus_sign,,,,,null,,,,,,,,,,,,,,,,,,,,,,,,,,,,,,
null,,learn_phase(without_color),428062,black_plus_sign,,,,,null,US_Cities_List/mm_westpalmbeach.png,US_Cities_List/nat_hotsprings.png,,,,,,,,,,,,,,,,,,,,,,,,,,,,
null,,black_cross(without_color),429086,blue,,,,,null,US_Cities_List/mm_westpalmbeach.png,US_Cities_List/nat_hotsprings.png,,,,,,,,,,,,,,,,,,,,,,,,,,,,
null,,rt_plussign_withcolor,429587,blue,,,,,null,US_Cities_List/mm_westpalmbeach.png,US_Cities_List/nat_hotsprings.png,,,,,,,,,,,,,,,,,,,,,,,,,,,,
1468,,rt_thecrossant_black,430568,black_plus_sign,,,,,49,,,1,0.9122807017543859,,,,,,,,,,,,,,,,,,,,,,,,,,
null,,color_black,430671,black_plus_sign,,,,,null,,,,,,,,,,,,,,,,,,,,,,,,,,,,,,
null,,learn_phase(without_color),433201,black_plus_sign,,,,,null,US_Cities_List/mm_hanover.png,US_Cities_List/nat_cornwall.png,,,,,,,,,,,,,,,,,,,,,,,,,,,,
null,,black_cross(without_color),434303,green,,,,,null,US_Cities_List/mm_hanover.png,US_Cities_List/nat_cornwall.png,,,,,,,,,,,,,,,,,,,,,,,,,,,,
null,,rt_plussign_withcolor,434804,green,,,,,null,US_Cities_List/mm_hanover.png,US_Cities_List/nat_cornwall.png,,,,,,,,,,,,,,,,,,,,,,,,,,,,
1139,,rt_thecrossant_black,435706,black_plus_sign,,,,,50,,,1,0.9137931034482759,,,,,,,,,,,,,,,,,,,,,,,,,,
null,,color_black,435808,black_plus_sign,,,,,null,,,,,,,,,,,,,,,,,,,,,,,,,,,,,,
null,,learn_phase(without_color),438339,black_plus_sign,,,,,null,US_Cities_List/nat_newhope.png,US_Cities_List/mm_hanover.png,,,,,,,,,,,,,,,,,,,,,,,,,,,,
null,,black_cross(without_color),439440,green,,,,,null,US_Cities_List/nat_newhope.png,US_Cities_List/mm_hanover.png,,,,,,,,,,,,,,,,,,,,,,,,,,,,
null,,rt_plussign_withcolor,439941,green,,,,,null,US_Cities_List/nat_newhope.png,US_Cities_List/mm_hanover.png,,,,,,,,,,,,,,,,,,,,,,,,,,,,
1533,,rt_thecrossant_black,440844,black_plus_sign,,,,,50,,,1,0.9152542372881356,,,,,,,,,,,,,,,,,,,,,,,,,,
null,,color_black,440947,black_plus_sign,,,,,null,,,,,,,,,,,,,,,,,,,,,,,,,,,,,,
null,,learn_phase(without_color),443480,black_plus_sign,,,,,null,US_Cities_List/mm_hanover.png,US_Cities_List/nat_peoria.png,,,,,,,,,,,,,,,,,,,,,,,,,,,,
null,,black_cross(without_color),443983,green,,,,,null,US_Cities_List/mm_hanover.png,US_Cities_List/nat_peoria.png,,,,,,,,,,,,,,,,,,,,,,,,,,,,
null,,rt_plussign_withcolor,444484,green,,,,,null,US_Cities_List/mm_hanover.png,US_Cities_List/nat_peoria.png,,,,,,,,,,,,,,,,,,,,,,,,,,,,
1422,,rt_thecrossant_black,445986,black_plus_sign,,,,,50,,,1,0.9166666666666666,,,,,,,,,,,,,,,,,,,,,,,,,,
null,,color_black,446089,black_plus_sign,,,,,null,,,,,,,,,,,,,,,,,,,,,,,,,,,,,,
null,,learn_phase(without_color),448619,black_plus_sign,,,,,null,US_Cities_List/mm_hanover.png,US_Cities_List/nat_cornwall.png,,,,,,,,,,,,,,,,,,,,,,,,,,,,
null,,black_cross(without_color),449047,green,,,,,null,US_Cities_List/mm_hanover.png,US_Cities_List/nat_cornwall.png,,,,,,,,,,,,,,,,,,,,,,,,,,,,
null,,rt_plussign_withcolor,449548,green,,,,,null,US_Cities_List/mm_hanover.png,US_Cities_List/nat_cornwall.png,,,,,,,,,,,,,,,,,,,,,,,,,,,,
704,,rt_thecrossant_black,451125,black_plus_sign,,,,,50,,,1,0.9180327868852459,,,,,,,,,,,,,,,,,,,,,,,,,,
null,,color_black,451227,black_plus_sign,,,,,null,,,,,,,,,,,,,,,,,,,,,,,,,,,,,,
null,,learn_phase(without_color),453757,black_plus_sign,,,,,null,US_Cities_List/nat_hotsprings.png,US_Cities_List/nat_peoria.png,,,,,,,,,,,,,,,,,,,,,,,,,,,,
null,,black_cross(without_color),454782,blue,,,,,null,US_Cities_List/nat_hotsprings.png,US_Cities_List/nat_peoria.png,,,,,,,,,,,,,,,,,,,,,,,,,,,,
null,,rt_plussign_withcolor,455283,blue,,,,,null,US_Cities_List/nat_hotsprings.png,US_Cities_List/nat_peoria.png,,,,,,,,,,,,,,,,,,,,,,,,,,,,
575,,rt_thecrossant_black,456263,black_plus_sign,,,,,49,,,1,0.9193548387096774,,,,,,,,,,,,,,,,,,,,,,,,,,
null,,color_black,456366,black_plus_sign,,,,,null,,,,,,,,,,,,,,,,,,,,,,,,,,,,,,
null,,learn_phase(without_color),458893,black_plus_sign,,,,,null,US_Cities_List/nat_racine.png,US_Cities_List/nat_carmel.png,,,,,,,,,,,,,,,,,,,,,,,,,,,,
null,,black_cross(without_color),459810,blue,,,,,null,US_Cities_List/nat_racine.png,US_Cities_List/nat_carmel.png,,,,,,,,,,,,,,,,,,,,,,,,,,,,
null,,rt_plussign_withcolor,460311,blue,,,,,null,US_Cities_List/nat_racine.png,US_Cities_List/nat_carmel.png,,,,,,,,,,,,,,,,,,,,,,,,,,,,
1462,,rt_thecrossant_black,461400,black_plus_sign,,,,,49,,,1,0.9206349206349206,,,,,,,,,,,,,,,,,,,,,,,,,,
null,,color_black,461501,black_plus_sign,,,,,null,,,,,,,,,,,,,,,,,,,,,,,,,,,,,,
null,,learn_phase(without_color),464034,black_plus_sign,,,,,null,US_Cities_List/nat_shreveport.png,US_Cities_List/nat_newhope.png,,,,,,,,,,,,,,,,,,,,,,,,,,,,
null,,black_cross(without_color),464687,blue,,,,,null,US_Cities_List/nat_shreveport.png,US_Cities_List/nat_newhope.png,,,,,,,,,,,,,,,,,,,,,,,,,,,,
null,,rt_plussign_withcolor,465188,blue,,,,,null,US_Cities_List/nat_shreveport.png,US_Cities_List/nat_newhope.png,,,,,,,,,,,,,,,,,,,,,,,,,,,,
1262,,rt_thecrossant_black,466539,black_plus_sign,,,,,49,,,1,0.921875,,,,,,,,,,,,,,,,,,,,,,,,,,
null,,color_black,466641,black_plus_sign,,,,,null,,,,,,,,,,,,,,,,,,,,,,,,,,,,,,
null,,learn_phase(without_color),469166,black_plus_sign,,,,,null,US_Cities_List/nat_cornwall.png,US_Cities_List/mm_huntsville.png,,,,,,,,,,,,,,,,,,,,,,,,,,,,
null,,black_cross(without_color),469896,green,,,,,null,US_Cities_List/nat_cornwall.png,US_Cities_List/mm_huntsville.png,,,,,,,,,,,,,,,,,,,,,,,,,,,,
null,,rt_plussign_withcolor,470397,green,,,,,null,US_Cities_List/nat_cornwall.png,US_Cities_List/mm_huntsville.png,,,,,,,,,,,,,,,,,,,,,,,,,,,,
758,,rt_thecrossant_black,471672,black_plus_sign,,,,,50,,,1,0.9230769230769231,,,,,,,,,,,,,,,,,,,,,,,,,,
null,,color_black,471775,black_plus_sign,,,,,null,,,,,,,,,,,,,,,,,,,,,,,,,,,,,,
null,,learn_phase(without_color),474306,black_plus_sign,,,,,null,US_Cities_List/mm_hanover.png,US_Cities_List/nat_cornwall.png,,,,,,,,,,,,,,,,,,,,,,,,,,,,
null,,black_cross(without_color),475081,blue,,,,,null,US_Cities_List/mm_hanover.png,US_Cities_List/nat_cornwall.png,,,,,,,,,,,,,,,,,,,,,,,,,,,,
null,,rt_plussign_withcolor,475582,blue,,,,,null,US_Cities_List/mm_hanover.png,US_Cities_List/nat_cornwall.png,,,,,,,,,,,,,,,,,,,,,,,,,,,,
1010,,rt_thecrossant_black,476810,black_plus_sign,,,,,49,,,1,0.9242424242424242,,,,,,,,,,,,,,,,,,,,,,,,,,
null,,color_black,476912,black_plus_sign,,,,,null,,,,,,,,,,,,,,,,,,,,,,,,,,,,,,
null,,learn_phase(without_color),479443,black_plus_sign,,,,,null,US_Cities_List/nat_peoria.png,US_Cities_List/nat_boulder.png,,,,,,,,,,,,,,,,,,,,,,,,,,,,
null,,black_cross(without_color),480395,green,,,,,null,US_Cities_List/nat_peoria.png,US_Cities_List/nat_boulder.png,,,,,,,,,,,,,,,,,,,,,,,,,,,,
null,,rt_plussign_withcolor,480939,green,,,,,null,US_Cities_List/nat_peoria.png,US_Cities_List/nat_boulder.png,,,,,,,,,,,,,,,,,,,,,,,,,,,,
1065,,rt_thecrossant_black,481991,black_plus_sign,,,,,50,,,1,0.9253731343283582,,,,,,,,,,,,,,,,,,,,,,,,,,
null,,color_black,482093,black_plus_sign,,,,,null,,,,,,,,,,,,,,,,,,,,,,,,,,,,,,
null,,learn_phase(without_color),484625,black_plus_sign,,,,,null,US_Cities_List/mm_huntsville.png,US_Cities_List/mm_westpalmbeach.png,,,,,,,,,,,,,,,,,,,,,,,,,,,,
null,,black_cross(without_color),485539,blue,,,,,null,US_Cities_List/mm_huntsville.png,US_Cities_List/mm_westpalmbeach.png,,,,,,,,,,,,,,,,,,,,,,,,,,,,
null,,rt_plussign_withcolor,486042,blue,,,,,null,US_Cities_List/mm_huntsville.png,US_Cities_List/mm_westpalmbeach.png,,,,,,,,,,,,,,,,,,,,,,,,,,,,
1444,,rt_thecrossant_black,487133,black_plus_sign,,,,,49,,,1,0.9264705882352942,,,,,,,,,,,,,,,,,,,,,,,,,,
null,,color_black,487235,black_plus_sign,,,,,null,,,,,,,,,,,,,,,,,,,,,,,,,,,,,,
null,,learn_phase(without_color),489764,black_plus_sign,,,,,null,US_Cities_List/mm_huntsville.png,US_Cities_List/nat_hotsprings.png,,,,,,,,,,,,,,,,,,,,,,,,,,,,
null,,black_cross(without_color),490233,green,,,,,null,US_Cities_List/mm_huntsville.png,US_Cities_List/nat_hotsprings.png,,,,,,,,,,,,,,,,,,,,,,,,,,,,
null,,rt_plussign_withcolor,490734,green,,,,,null,US_Cities_List/mm_huntsville.png,US_Cities_List/nat_hotsprings.png,,,,,,,,,,,,,,,,,,,,,,,,,,,,
1282,,rt_thecrossant_black,492270,black_plus_sign,,,,,50,,,1,0.927536231884058,,,,,,,,,,,,,,,,,,,,,,,,,,
null,,color_black,492373,black_plus_sign,,,,,null,,,,,,,,,,,,,,,,,,,,,,,,,,,,,,
null,,learn_phase(without_color),494905,black_plus_sign,,,,,null,US_Cities_List/mm_westpalmbeach.png,US_Cities_List/mm_gatlinburg.png,,,,,,,,,,,,,,,,,,,,,,,,,,,,
null,,black_cross(without_color),495494,blue,,,,,null,US_Cities_List/mm_westpalmbeach.png,US_Cities_List/mm_gatlinburg.png,,,,,,,,,,,,,,,,,,,,,,,,,,,,
null,,rt_plussign_withcolor,495996,blue,,,,,null,US_Cities_List/mm_westpalmbeach.png,US_Cities_List/mm_gatlinburg.png,,,,,,,,,,,,,,,,,,,,,,,,,,,,
640,,rt_thecrossant_black,497410,black_plus_sign,,,,,49,,,1,0.9285714285714286,,,,,,,,,,,,,,,,,,,,,,,,,,
null,,color_black,497512,black_plus_sign,,,,,null,,,,,,,,,,,,,,,,,,,,,,,,,,,,,,
null,,learn_phase(without_color),500045,black_plus_sign,,,,,null,US_Cities_List/mm_huntsville.png,US_Cities_List/mm_westpalmbeach.png,,,,,,,,,,,,,,,,,,,,,,,,,,,,
null,,black_cross(without_color),500628,blue,,,,,null,US_Cities_List/mm_huntsville.png,US_Cities_List/mm_westpalmbeach.png,,,,,,,,,,,,,,,,,,,,,,,,,,,,
null,,rt_plussign_withcolor,501129,blue,,,,,null,US_Cities_List/mm_huntsville.png,US_Cities_List/mm_westpalmbeach.png,,,,,,,,,,,,,,,,,,,,,,,,,,,,
961,,rt_thecrossant_black,502550,black_plus_sign,,,,,49,,,1,0.9295774647887324,,,,,,,,,,,,,,,,,,,,,,,,,,
null,,color_black,502652,black_plus_sign,,,,,null,,,,,,,,,,,,,,,,,,,,,,,,,,,,,,
null,,learn_phase(without_color),505185,black_plus_sign,,,,,null,US_Cities_List/nat_newhope.png,US_Cities_List/mm_hanover.png,,,,,,,,,,,,,,,,,,,,,,,,,,,,
null,,black_cross(without_color),505696,green,,,,,null,US_Cities_List/nat_newhope.png,US_Cities_List/mm_hanover.png,,,,,,,,,,,,,,,,,,,,,,,,,,,,
null,,rt_plussign_withcolor,506196,green,,,,,null,US_Cities_List/nat_newhope.png,US_Cities_List/mm_hanover.png,,,,,,,,,,,,,,,,,,,,,,,,,,,,
1040,,rt_thecrossant_black,507691,black_plus_sign,,,,,50,,,1,0.9305555555555556,,,,,,,,,,,,,,,,,,,,,,,,,,
null,,color_black,507793,black_plus_sign,,,,,null,,,,,,,,,,,,,,,,,,,,,,,,,,,,,,
null,,learn_phase(without_color),510320,black_plus_sign,,,,,null,US_Cities_List/mm_huntsville.png,US_Cities_List/mm_leesburg.png,,,,,,,,,,,,,,,,,,,,,,,,,,,,
null,,black_cross(without_color),511115,green,,,,,null,US_Cities_List/mm_huntsville.png,US_Cities_List/mm_leesburg.png,,,,,,,,,,,,,,,,,,,,,,,,,,,,
490,,rt_plussign_withcolor,511616,green,,,,,50,US_Cities_List/mm_huntsville.png,US_Cities_List/mm_leesburg.png,,,,,,,,,,,,,,,,,,,,,,,,,,,,
null,,rt_thecrossant_black,512827,black_plus_sign,,,,,null,,,1,0.9315068493150684,,,,,,,,,,,,,,,,,,,,,,,,,,
null,,color_black,512930,black_plus_sign,,,,,null,,,,,,,,,,,,,,,,,,,,,,,,,,,,,,
null,,learn_phase(without_color),515465,black_plus_sign,,,,,null,US_Cities_List/mm_huntsville.png,US_Cities_List/mm_westpalmbeach.png,,,,,,,,,,,,,,,,,,,,,,,,,,,,
null,,black_cross(without_color),516504,green,,,,,null,US_Cities_List/mm_huntsville.png,US_Cities_List/mm_westpalmbeach.png,,,,,,,,,,,,,,,,,,,,,,,,,,,,
null,,rt_plussign_withcolor,517005,green,,,,,null,US_Cities_List/mm_huntsville.png,US_Cities_List/mm_westpalmbeach.png,,,,,,,,,,,,,,,,,,,,,,,,,,,,
1129,,rt_thecrossant_black,517972,black_plus_sign,,,,,50,,,1,0.9324324324324325,,,,,,,,,,,,,,,,,,,,,,,,,,
null,,color_black,518074,black_plus_sign,,,,,null,,,,,,,,,,,,,,,,,,,,,,,,,,,,,,
null,,learn_phase(without_color),520608,black_plus_sign,,,,,null,US_Cities_List/nat_racine.png,US_Cities_List/nat_carmel.png,,,,,,,,,,,,,,,,,,,,,,,,,,,,
null,,black_cross(without_color),521085,green,,,,,null,US_Cities_List/nat_racine.png,US_Cities_List/nat_carmel.png,,,,,,,,,,,,,,,,,,,,,,,,,,,,
null,,rt_plussign_withcolor,521587,green,,,,,null,US_Cities_List/nat_racine.png,US_Cities_List/nat_carmel.png,,,,,,,,,,,,,,,,,,,,,,,,,,,,
1185,,rt_thecrossant_black,523113,black_plus_sign,,,,,50,,,1,0.9333333333333333,,,,,,,,,,,,,,,,,,,,,,,,,,
null,,color_black,523217,black_plus_sign,,,,,null,,,,,,,,,,,,,,,,,,,,,,,,,,,,,,
null,,learn_phase(without_color),525745,black_plus_sign,,,,,null,US_Cities_List/mm_hanover.png,US_Cities_List/nat_peoria.png,,,,,,,,,,,,,,,,,,,,,,,,,,,,
null,,black_cross(without_color),526189,green,,,,,null,US_Cities_List/mm_hanover.png,US_Cities_List/nat_peoria.png,,,,,,,,,,,,,,,,,,,,,,,,,,,,
null,,rt_plussign_withcolor,526691,green,,,,,null,US_Cities_List/mm_hanover.png,US_Cities_List/nat_peoria.png,,,,,,,,,,,,,,,,,,,,,,,,,,,,
824,,rt_thecrossant_black,528251,black_plus_sign,,,,,50,,,1,0.9342105263157895,,,,,,,,,,,,,,,,,,,,,,,,,,
null,,color_black,528353,black_plus_sign,,,,,null,,,,,,,,,,,,,,,,,,,,,,,,,,,,,,
null,,learn_phase(without_color),530885,black_plus_sign,,,,,null,US_Cities_List/nat_peoria.png,US_Cities_List/nat_boulder.png,,,,,,,,,,,,,,,,,,,,,,,,,,,,
null,,black_cross(without_color),531802,green,,,,,null,US_Cities_List/nat_peoria.png,US_Cities_List/nat_boulder.png,,,,,,,,,,,,,,,,,,,,,,,,,,,,
null,,rt_plussign_withcolor,532304,green,,,,,null,US_Cities_List/nat_peoria.png,US_Cities_List/nat_boulder.png,,,,,,,,,,,,,,,,,,,,,,,,,,,,
562,,rt_thecrossant_black,533393,black_plus_sign,,,,,50,,,1,0.935064935064935,,,,,,,,,,,,,,,,,,,,,,,,,,
null,,color_black,533495,black_plus_sign,,,,,null,,,,,,,,,,,,,,,,,,,,,,,,,,,,,,
null,,learn_phase(without_color),536022,black_plus_sign,,,,,null,US_Cities_List/nat_cornwall.png,US_Cities_List/mm_huntsville.png,,,,,,,,,,,,,,,,,,,,,,,,,,,,
null,,black_cross(without_color),536671,blue,,,,,null,US_Cities_List/nat_cornwall.png,US_Cities_List/mm_huntsville.png,,,,,,,,,,,,,,,,,,,,,,,,,,,,
null,,rt_plussign_withcolor,537171,blue,,,,,null,US_Cities_List/nat_cornwall.png,US_Cities_List/mm_huntsville.png,,,,,,,,,,,,,,,,,,,,,,,,,,,,
1214,,rt_thecrossant_black,538527,black_plus_sign,,,,,49,,,1,0.9358974358974359,,,,,,,,,,,,,,,,,,,,,,,,,,
null,,color_black,538628,black_plus_sign,,,,,null,,,,,,,,,,,,,,,,,,,,,,,,,,,,,,
null,,learn_phase(without_color),541163,black_plus_sign,,,,,null,US_Cities_List/nat_racine.png,US_Cities_List/nat_boulder.png,,,,,,,,,,,,,,,,,,,,,,,,,,,,
null,,black_cross(without_color),541896,blue,,,,,null,US_Cities_List/nat_racine.png,US_Cities_List/nat_boulder.png,,,,,,,,,,,,,,,,,,,,,,,,,,,,
null,,rt_plussign_withcolor,542398,blue,,,,,null,US_Cities_List/nat_racine.png,US_Cities_List/nat_boulder.png,,,,,,,,,,,,,,,,,,,,,,,,,,,,
977,,rt_thecrossant_black,543669,black_plus_sign,,,,,49,,,1,0.9367088607594937,,,,,,,,,,,,,,,,,,,,,,,,,,
null,,color_black,543771,black_plus_sign,,,,,null,,,,,,,,,,,,,,,,,,,,,,,,,,,,,,
null,,learn_phase(without_color),546300,black_plus_sign,,,,,null,US_Cities_List/mm_westpalmbeach.png,US_Cities_List/mm_gatlinburg.png,,,,,,,,,,,,,,,,,,,,,,,,,,,,
null,,black_cross(without_color),547326,green,,,,,null,US_Cities_List/mm_westpalmbeach.png,US_Cities_List/mm_gatlinburg.png,,,,,,,,,,,,,,,,,,,,,,,,,,,,
null,,rt_plussign_withcolor,547827,green,,,,,null,US_Cities_List/mm_westpalmbeach.png,US_Cities_List/mm_gatlinburg.png,,,,,,,,,,,,,,,,,,,,,,,,,,,,
1000,,rt_thecrossant_black,548807,black_plus_sign,,,,,50,,,1,0.9375,,,,,,,,,,,,,,,,,,,,,,,,,,
null,,color_black,548908,black_plus_sign,,,,,null,,,,,,,,,,,,,,,,,,,,,,,,,,,,,,
null,,learn_phase(without_color),551431,black_plus_sign,,,,,null,US_Cities_List/mm_huntsville.png,US_Cities_List/nat_hotsprings.png,,,,,,,,,,,,,,,,,,,,,,,,,,,,
null,,black_cross(without_color),552313,blue,,,,,null,US_Cities_List/mm_huntsville.png,US_Cities_List/nat_hotsprings.png,,,,,,,,,,,,,,,,,,,,,,,,,,,,
null,,rt_plussign_withcolor,552814,blue,,,,,null,US_Cities_List/mm_huntsville.png,US_Cities_List/nat_hotsprings.png,,,,,,,,,,,,,,,,,,,,,,,,,,,,
1408,,rt_thecrossant_black,553935,black_plus_sign,,,,,49,,,1,0.9382716049382716,,,,,,,,,,,,,,,,,,,,,,,,,,
null,,color_black,554038,black_plus_sign,,,,,null,,,,,,,,,,,,,,,,,,,,,,,,,,,,,,
null,,learn_phase(without_color),556566,black_plus_sign,,,,,null,US_Cities_List/nat_newhope.png,US_Cities_List/mm_hanover.png,,,,,,,,,,,,,,,,,,,,,,,,,,,,
null,,black_cross(without_color),557319,green,,,,,null,US_Cities_List/nat_newhope.png,US_Cities_List/mm_hanover.png,,,,,,,,,,,,,,,,,,,,,,,,,,,,
null,,rt_plussign_withcolor,557820,green,,,,,null,US_Cities_List/nat_newhope.png,US_Cities_List/mm_hanover.png,,,,,,,,,,,,,,,,,,,,,,,,,,,,
981,,rt_thecrossant_black,559071,black_plus_sign,,,,,50,,,1,0.9390243902439024,,,,,,,,,,,,,,,,,,,,,,,,,,
null,,color_black,559172,black_plus_sign,,,,,null,,,,,,,,,,,,,,,,,,,,,,,,,,,,,,
null,,learn_phase(without_color),561708,black_plus_sign,,,,,null,US_Cities_List/mm_westpalmbeach.png,US_Cities_List/nat_hotsprings.png,,,,,,,,,,,,,,,,,,,,,,,,,,,,
null,,black_cross(without_color),562508,blue,,,,,null,US_Cities_List/mm_westpalmbeach.png,US_Cities_List/nat_hotsprings.png,,,,,,,,,,,,,,,,,,,,,,,,,,,,
null,,rt_plussign_withcolor,563009,blue,,,,,null,US_Cities_List/mm_westpalmbeach.png,US_Cities_List/nat_hotsprings.png,,,,,,,,,,,,,,,,,,,,,,,,,,,,
1137,,rt_thecrossant_black,564214,black_plus_sign,,,,,49,,,1,0.9397590361445783,,,,,,,,,,,,,,,,,,,,,,,,,,
null,,color_black,564316,black_plus_sign,,,,,null,,,,,,,,,,,,,,,,,,,,,,,,,,,,,,
null,,learn_phase(without_color),566848,black_plus_sign,,,,,null,US_Cities_List/nat_shreveport.png,US_Cities_List/nat_newhope.png,,,,,,,,,,,,,,,,,,,,,,,,,,,,
null,,black_cross(without_color),567864,green,,,,,null,US_Cities_List/nat_shreveport.png,US_Cities_List/nat_newhope.png,,,,,,,,,,,,,,,,,,,,,,,,,,,,
477,,rt_plussign_withcolor,568365,green,,,,,50,US_Cities_List/nat_shreveport.png,US_Cities_List/nat_newhope.png,,,,,,,,,,,,,,,,,,,,,,,,,,,,
null,,rt_thecrossant_black,569354,black_plus_sign,,,,,null,,,1,0.9404761904761905,,,,,,,,,,,,,,,,,,,,,,,,,,
null,,color_black,569456,black_plus_sign,,,,,null,,,,,,,,,,,,,,,,,,,,,,,,,,,,,,
null,,learn_phase(without_color),571989,black_plus_sign,,,,,null,US_Cities_List/nat_newhope.png,US_Cities_List/mm_hanover.png,,,,,,,,,,,,,,,,,,,,,,,,,,,,
null,,black_cross(without_color),572423,blue,,,,,null,US_Cities_List/nat_newhope.png,US_Cities_List/mm_hanover.png,,,,,,,,,,,,,,,,,,,,,,,,,,,,
null,,rt_plussign_withcolor,572925,blue,,,,,null,US_Cities_List/nat_newhope.png,US_Cities_List/mm_hanover.png,,,,,,,,,,,,,,,,,,,,,,,,,,,,
1371,,rt_thecrossant_black,574540,black_plus_sign,,,,,49,,,1,0.9411764705882353,,,,,,,,,,,,,,,,,,,,,,,,,,
null,,color_black,574644,black_plus_sign,,,,,null,,,,,,,,,,,,,,,,,,,,,,,,,,,,,,
null,,learn_phase(without_color),577180,black_plus_sign,,,,,null,US_Cities_List/nat_shreveport.png,US_Cities_List/nat_newhope.png,,,,,,,,,,,,,,,,,,,,,,,,,,,,
null,,black_cross(without_color),578269,green,,,,,null,US_Cities_List/nat_shreveport.png,US_Cities_List/nat_newhope.png,,,,,,,,,,,,,,,,,,,,,,,,,,,,
null,,rt_plussign_withcolor,578771,green,,,,,null,US_Cities_List/nat_shreveport.png,US_Cities_List/nat_newhope.png,,,,,,,,,,,,,,,,,,,,,,,,,,,,
589,,rt_thecrossant_black,579686,black_plus_sign,,,,,50,,,1,0.9418604651162791,,,,,,,,,,,,,,,,,,,,,,,,,,
null,,color_black,579788,black_plus_sign,,,,,null,,,,,,,,,,,,,,,,,,,,,,,,,,,,,,
null,,learn_phase(without_color),582320,black_plus_sign,,,,,null,US_Cities_List/mm_huntsville.png,US_Cities_List/mm_westpalmbeach.png,,,,,,,,,,,,,,,,,,,,,,,,,,,,
null,,black_cross(without_color),582888,blue,,,,,null,US_Cities_List/mm_huntsville.png,US_Cities_List/mm_westpalmbeach.png,,,,,,,,,,,,,,,,,,,,,,,,,,,,
null,,rt_plussign_withcolor,583390,blue,,,,,null,US_Cities_List/mm_huntsville.png,US_Cities_List/mm_westpalmbeach.png,,,,,,,,,,,,,,,,,,,,,,,,,,,,
1538,,rt_thecrossant_black,584825,black_plus_sign,,,,,49,,,1,0.9425287356321839,,,,,,,,,,,,,,,,,,,,,,,,,,
null,,color_black,584928,black_plus_sign,,,,,null,,,,,,,,,,,,,,,,,,,,,,,,,,,,,,
null,,learn_phase(without_color),587458,black_plus_sign,,,,,null,US_Cities_List/mm_hanover.png,US_Cities_List/nat_peoria.png,,,,,,,,,,,,,,,,,,,,,,,,,,,,
null,,black_cross(without_color),588411,green,,,,,null,US_Cities_List/mm_hanover.png,US_Cities_List/nat_peoria.png,,,,,,,,,,,,,,,,,,,,,,,,,,,,
null,,rt_plussign_withcolor,588912,green,,,,,null,US_Cities_List/mm_hanover.png,US_Cities_List/nat_peoria.png,,,,,,,,,,,,,,,,,,,,,,,,,,,,
910,,rt_thecrossant_black,589965,black_plus_sign,,,,,50,,,1,0.9431818181818182,,,,,,,,,,,,,,,,,,,,,,,,,,
null,,color_black,590067,black_plus_sign,,,,,null,,,,,,,,,,,,,,,,,,,,,,,,,,,,,,
null,,learn_phase(without_color),592596,black_plus_sign,,,,,null,US_Cities_List/mm_huntsville.png,US_Cities_List/nat_hotsprings.png,,,,,,,,,,,,,,,,,,,,,,,,,,,,
null,,black_cross(without_color),593263,blue,,,,,null,US_Cities_List/mm_huntsville.png,US_Cities_List/nat_hotsprings.png,,,,,,,,,,,,,,,,,,,,,,,,,,,,
null,,rt_plussign_withcolor,593764,blue,,,,,null,US_Cities_List/mm_huntsville.png,US_Cities_List/nat_hotsprings.png,,,,,,,,,,,,,,,,,,,,,,,,,,,,
1281,,rt_thecrossant_black,595100,black_plus_sign,,,,,49,,,1,0.9438202247191011,,,,,,,,,,,,,,,,,,,,,,,,,,
null,,color_black,595203,black_plus_sign,,,,,null,,,,,,,,,,,,,,,,,,,,,,,,,,,,,,
null,,learn_phase(without_color),597736,black_plus_sign,,,,,null,US_Cities_List/nat_shreveport.png,US_Cities_List/nat_newhope.png,,,,,,,,,,,,,,,,,,,,,,,,,,,,
null,,black_cross(without_color),598143,blue,,,,,null,US_Cities_List/nat_shreveport.png,US_Cities_List/nat_newhope.png,,,,,,,,,,,,,,,,,,,,,,,,,,,,
null,,rt_plussign_withcolor,598644,blue,,,,,null,US_Cities_List/nat_shreveport.png,US_Cities_List/nat_newhope.png,,,,,,,,,,,,,,,,,,,,,,,,,,,,
1229,,rt_thecrossant_black,600241,black_plus_sign,,,,,49,,,1,0.9444444444444444,,,,,,,,,,,,,,,,,,,,,,,,,,
null,,color_black,600344,black_plus_sign,,,,,null,,,,,,,,,,,,,,,,,,,,,,,,,,,,,,
null,,learn_phase(without_color),602873,black_plus_sign,,,,,null,US_Cities_List/nat_cornwall.png,US_Cities_List/nat_hotsprings.png,,,,,,,,,,,,,,,,,,,,,,,,,,,,
null,,black_cross(without_color),603899,blue,,,,,null,US_Cities_List/nat_cornwall.png,US_Cities_List/nat_hotsprings.png,,,,,,,,,,,,,,,,,,,,,,,,,,,,
null,,rt_plussign_withcolor,604400,blue,,,,,null,US_Cities_List/nat_cornwall.png,US_Cities_List/nat_hotsprings.png,,,,,,,,,,,,,,,,,,,,,,,,,,,,
621,,rt_thecrossant_black,605379,black_plus_sign,,,,,49,,,1,0.945054945054945,,,,,,,,,,,,,,,,,,,,,,,,,,
null,,color_black,605480,black_plus_sign,,,,,null,,,,,,,,,,,,,,,,,,,,,,,,,,,,,,
null,,learn_phase(without_color),608010,black_plus_sign,,,,,null,US_Cities_List/mm_hanover.png,US_Cities_List/nat_cornwall.png,,,,,,,,,,,,,,,,,,,,,,,,,,,,
null,,black_cross(without_color),608465,blue,,,,,null,US_Cities_List/mm_hanover.png,US_Cities_List/nat_cornwall.png,,,,,,,,,,,,,,,,,,,,,,,,,,,,
null,,rt_plussign_withcolor,608966,blue,,,,,null,US_Cities_List/mm_hanover.png,US_Cities_List/nat_cornwall.png,,,,,,,,,,,,,,,,,,,,,,,,,,,,
1202,,rt_thecrossant_black,610517,black_plus_sign,,,,,49,,,1,0.9456521739130435,,,,,,,,,,,,,,,,,,,,,,,,,,
null,,color_black,610618,black_plus_sign,,,,,null,,,,,,,,,,,,,,,,,,,,,,,,,,,,,,
null,,learn_phase(without_color),613155,black_plus_sign,,,,,null,US_Cities_List/mm_westpalmbeach.png,US_Cities_List/nat_hotsprings.png,,,,,,,,,,,,,,,,,,,,,,,,,,,,
null,,black_cross(without_color),613909,blue,,,,,null,US_Cities_List/mm_westpalmbeach.png,US_Cities_List/nat_hotsprings.png,,,,,,,,,,,,,,,,,,,,,,,,,,,,
null,,rt_plussign_withcolor,614410,blue,,,,,null,US_Cities_List/mm_westpalmbeach.png,US_Cities_List/nat_hotsprings.png,,,,,,,,,,,,,,,,,,,,,,,,,,,,
634,,rt_thecrossant_black,615660,black_plus_sign,,,,,49,,,1,0.946236559139785,,,,,,,,,,,,,,,,,,,,,,,,,,
null,,color_black,615763,black_plus_sign,,,,,null,,,,,,,,,,,,,,,,,,,,,,,,,,,,,,
null,,learn_phase(without_color),618295,black_plus_sign,,,,,null,US_Cities_List/nat_cornwall.png,US_Cities_List/nat_hotsprings.png,,,,,,,,,,,,,,,,,,,,,,,,,,,,
null,,black_cross(without_color),619201,green,,,,,null,US_Cities_List/nat_cornwall.png,US_Cities_List/nat_hotsprings.png,,,,,,,,,,,,,,,,,,,,,,,,,,,,
469,,rt_plussign_withcolor,619702,green,,,,,50,US_Cities_List/nat_cornwall.png,US_Cities_List/nat_hotsprings.png,,,,,,,,,,,,,,,,,,,,,,,,,,,,
null,,rt_thecrossant_black,620802,black_plus_sign,,,,,null,,,1,0.9468085106382979,,,,,,,,,,,,,,,,,,,,,,,,,,
null,,color_black,620903,black_plus_sign,,,,,null,,,,,,,,,,,,,,,,,,,,,,,,,,,,,,
null,,learn_phase(without_color),623428,black_plus_sign,,,,,null,US_Cities_List/nat_racine.png,US_Cities_List/nat_carmel.png,,,,,,,,,,,,,,,,,,,,,,,,,,,,
null,,black_cross(without_color),624333,green,,,,,null,US_Cities_List/nat_racine.png,US_Cities_List/nat_carmel.png,,,,,,,,,,,,,,,,,,,,,,,,,,,,
473,,rt_plussign_withcolor,624835,green,,,,,50,US_Cities_List/nat_racine.png,US_Cities_List/nat_carmel.png,,,,,,,,,,,,,,,,,,,,,,,,,,,,
null,,rt_thecrossant_black,625933,black_plus_sign,,,,,null,,,1,0.9473684210526315,,,,,,,,,,,,,,,,,,,,,,,,,,
null,,color_black,626036,black_plus_sign,,,,,null,,,,,,,,,,,,,,,,,,,,,,,,,,,,,,
null,,learn_phase(without_color),628571,black_plus_sign,,,,,null,US_Cities_List/nat_shreveport.png,US_Cities_List/nat_newhope.png,,,,,,,,,,,,,,,,,,,,,,,,,,,,
null,,black_cross(without_color),629247,blue,,,,,null,US_Cities_List/nat_shreveport.png,US_Cities_List/nat_newhope.png,,,,,,,,,,,,,,,,,,,,,,,,,,,,
null,,rt_plussign_withcolor,629748,blue,,,,,null,US_Cities_List/nat_shreveport.png,US_Cities_List/nat_newhope.png,,,,,,,,,,,,,,,,,,,,,,,,,,,,
1196,,rt_thecrossant_black,631076,black_plus_sign,,,,,49,,,1,0.9479166666666666,,,,,,,,,,,,,,,,,,,,,,,,,,
null,,color_black,631178,black_plus_sign,,,,,null,,,,,,,,,,,,,,,,,,,,,,,,,,,,,,
null,,learn_phase(without_color),633711,black_plus_sign,,,,,null,US_Cities_List/nat_cornwall.png,US_Cities_List/nat_hotsprings.png,,,,,,,,,,,,,,,,,,,,,,,,,,,,
null,,black_cross(without_color),634164,green,,,,,null,US_Cities_List/nat_cornwall.png,US_Cities_List/nat_hotsprings.png,,,,,,,,,,,,,,,,,,,,,,,,,,,,
null,,rt_plussign_withcolor,634666,green,,,,,null,US_Cities_List/nat_cornwall.png,US_Cities_List/nat_hotsprings.png,,,,,,,,,,,,,,,,,,,,,,,,,,,,
882,,rt_thecrossant_black,636217,black_plus_sign,,,,,50,,,1,0.9484536082474226,,,,,,,,,,,,,,,,,,,,,,,,,,
null,,color_black,636319,black_plus_sign,,,,,null,,,,,,,,,,,,,,,,,,,,,,,,,,,,,,
null,,learn_phase(without_color),638852,black_plus_sign,,,,,null,US_Cities_List/nat_racine.png,US_Cities_List/nat_carmel.png,,,,,,,,,,,,,,,,,,,,,,,,,,,,
null,,black_cross(without_color),639705,green,,,,,null,US_Cities_List/nat_racine.png,US_Cities_List/nat_carmel.png,,,,,,,,,,,,,,,,,,,,,,,,,,,,
null,,rt_plussign_withcolor,640206,green,,,,,null,US_Cities_List/nat_racine.png,US_Cities_List/nat_carmel.png,,,,,,,,,,,,,,,,,,,,,,,,,,,,
607,,rt_thecrossant_black,641358,black_plus_sign,,,,,50,,,1,0.9489795918367347,,,,,,,,,,,,,,,,,,,,,,,,,,
null,,color_black,641461,black_plus_sign,,,,,null,,,,,,,,,,,,,,,,,,,,,,,,,,,,,,
null,,learn_phase(without_color),643995,black_plus_sign,,,,,null,US_Cities_List/mm_westpalmbeach.png,US_Cities_List/mm_gatlinburg.png,,,,,,,,,,,,,,,,,,,,,,,,,,,,
null,,black_cross(without_color),644745,green,,,,,null,US_Cities_List/mm_westpalmbeach.png,US_Cities_List/mm_gatlinburg.png,,,,,,,,,,,,,,,,,,,,,,,,,,,,
null,,rt_plussign_withcolor,645247,green,,,,,null,US_Cities_List/mm_westpalmbeach.png,US_Cities_List/mm_gatlinburg.png,,,,,,,,,,,,,,,,,,,,,,,,,,,,
1086,,rt_thecrossant_black,646501,black_plus_sign,,,,,49,,,0,0.9393939393939394,,,,,,,,,,,,,,,,,,,,,,,,,,
null,,color_black,646604,black_plus_sign,,,,,null,,,,,,,,,,,,,,,,,,,,,,,,,,,,,,
null,,learn_phase(without_color),649134,black_plus_sign,,,,,null,US_Cities_List/mm_huntsville.png,US_Cities_List/nat_hotsprings.png,,,,,,,,,,,,,,,,,,,,,,,,,,,,
null,,black_cross(without_color),650205,blue,,,,,null,US_Cities_List/mm_huntsville.png,US_Cities_List/nat_hotsprings.png,,,,,,,,,,,,,,,,,,,,,,,,,,,,
null,,rt_plussign_withcolor,650706,blue,,,,,null,US_Cities_List/mm_huntsville.png,US_Cities_List/nat_hotsprings.png,,,,,,,,,,,,,,,,,,,,,,,,,,,,
946,,rt_thecrossant_black,651638,black_plus_sign,,,,,49,,,1,0.94,,,,,,,,,,,,,,,,,,,,,,,,,,
null,,color_black,651742,black_plus_sign,,,,,null,,,,,,,,,,,,,,,,,,,,,,,,,,,,,,
null,,learn_phase(without_color),654267,black_plus_sign,,,,,null,US_Cities_List/nat_peoria.png,US_Cities_List/nat_boulder.png,,,,,,,,,,,,,,,,,,,,,,,,,,,,
null,,black_cross(without_color),654704,blue,,,,,null,US_Cities_List/nat_peoria.png,US_Cities_List/nat_boulder.png,,,,,,,,,,,,,,,,,,,,,,,,,,,,
null,,rt_plussign_withcolor,655206,blue,,,,,null,US_Cities_List/nat_peoria.png,US_Cities_List/nat_boulder.png,,,,,,,,,,,,,,,,,,,,,,,,,,,,
1544,,rt_thecrossant_black,656773,black_plus_sign,,,,,49,,,1,0.9405940594059405,,,,,,,,,,,,,,,,,,,,,,,,,,
null,,color_black,656875,black_plus_sign,,,,,null,,,,,,,,,,,,,,,,,,,,,,,,,,,,,,
null,,learn_phase(without_color),659408,black_plus_sign,,,,,null,US_Cities_List/nat_newhope.png,US_Cities_List/nat_racine.png,,,,,,,,,,,,,,,,,,,,,,,,,,,,
null,,black_cross(without_color),660248,blue,,,,,null,US_Cities_List/nat_newhope.png,US_Cities_List/nat_racine.png,,,,,,,,,,,,,,,,,,,,,,,,,,,,
null,,rt_plussign_withcolor,660749,blue,,,,,null,US_Cities_List/nat_newhope.png,US_Cities_List/nat_racine.png,,,,,,,,,,,,,,,,,,,,,,,,,,,,
695,,rt_thecrossant_black,661914,black_plus_sign,,,,,49,,,1,0.9411764705882353,,,,,,,,,,,,,,,,,,,,,,,,,,
null,,color_black,662016,black_plus_sign,,,,,null,,,,,,,,,,,,,,,,,,,,,,,,,,,,,,
null,,learn_phase(without_color),664547,black_plus_sign,,,,,null,US_Cities_List/nat_peoria.png,US_Cities_List/nat_boulder.png,,,,,,,,,,,,,,,,,,,,,,,,,,,,
null,,black_cross(without_color),665601,green,,,,,null,US_Cities_List/nat_peoria.png,US_Cities_List/nat_boulder.png,,,,,,,,,,,,,,,,,,,,,,,,,,,,
null,,rt_plussign_withcolor,666103,green,,,,,null,US_Cities_List/nat_peoria.png,US_Cities_List/nat_boulder.png,,,,,,,,,,,,,,,,,,,,,,,,,,,,
968,,rt_thecrossant_black,667052,black_plus_sign,,,,,50,,,1,0.941747572815534,,,,,,,,,,,,,,,,,,,,,,,,,,
null,,color_black,667155,black_plus_sign,,,,,null,,,,,,,,,,,,,,,,,,,,,,,,,,,,,,
null,,learn_phase(without_color),669688,black_plus_sign,,,,,null,US_Cities_List/nat_hotsprings.png,US_Cities_List/nat_peoria.png,,,,,,,,,,,,,,,,,,,,,,,,,,,,
null,,black_cross(without_color),670609,blue,,,,,null,US_Cities_List/nat_hotsprings.png,US_Cities_List/nat_peoria.png,,,,,,,,,,,,,,,,,,,,,,,,,,,,
null,,rt_plussign_withcolor,671111,blue,,,,,null,US_Cities_List/nat_hotsprings.png,US_Cities_List/nat_peoria.png,,,,,,,,,,,,,,,,,,,,,,,,,,,,
1295,,rt_thecrossant_black,672194,black_plus_sign,,,,,49,,,1,0.9423076923076923,,,,,,,,,,,,,,,,,,,,,,,,,,
null,,color_black,672296,black_plus_sign,,,,,null,,,,,,,,,,,,,,,,,,,,,,,,,,,,,,
null,,learn_phase(without_color),674833,black_plus_sign,,,,,null,US_Cities_List/nat_newhope.png,US_Cities_List/nat_racine.png,,,,,,,,,,,,,,,,,,,,,,,,,,,,
null,,black_cross(without_color),675935,blue,,,,,null,US_Cities_List/nat_newhope.png,US_Cities_List/nat_racine.png,,,,,,,,,,,,,,,,,,,,,,,,,,,,
null,,rt_plussign_withcolor,676435,blue,,,,,null,US_Cities_List/nat_newhope.png,US_Cities_List/nat_racine.png,,,,,,,,,,,,,,,,,,,,,,,,,,,,
1228,,rt_thecrossant_black,677339,black_plus_sign,,,,,49,,,1,0.9428571428571428,,,,,,,,,,,,,,,,,,,,,,,,,,
null,,color_black,677442,black_plus_sign,,,,,null,,,,,,,,,,,,,,,,,,,,,,,,,,,,,,
null,,learn_phase(without_color),679971,black_plus_sign,,,,,null,US_Cities_List/nat_hotsprings.png,US_Cities_List/nat_peoria.png,,,,,,,,,,,,,,,,,,,,,,,,,,,,
null,,black_cross(without_color),680480,blue,,,,,null,US_Cities_List/nat_hotsprings.png,US_Cities_List/nat_peoria.png,,,,,,,,,,,,,,,,,,,,,,,,,,,,
null,,rt_plussign_withcolor,680982,blue,,,,,null,US_Cities_List/nat_hotsprings.png,US_Cities_List/nat_peoria.png,,,,,,,,,,,,,,,,,,,,,,,,,,,,
1445,,rt_thecrossant_black,682476,black_plus_sign,,,,,49,,,1,0.9433962264150944,,,,,,,,,,,,,,,,,,,,,,,,,,
null,,color_black,682578,black_plus_sign,,,,,null,,,,,,,,,,,,,,,,,,,,,,,,,,,,,,
null,,learn_phase(without_color),685114,black_plus_sign,,,,,null,US_Cities_List/mm_westpalmbeach.png,US_Cities_List/mm_gatlinburg.png,,,,,,,,,,,,,,,,,,,,,,,,,,,,
null,,black_cross(without_color),685627,green,,,,,null,US_Cities_List/mm_westpalmbeach.png,US_Cities_List/mm_gatlinburg.png,,,,,,,,,,,,,,,,,,,,,,,,,,,,
null,,rt_plussign_withcolor,686129,green,,,,,null,US_Cities_List/mm_westpalmbeach.png,US_Cities_List/mm_gatlinburg.png,,,,,,,,,,,,,,,,,,,,,,,,,,,,
788,,rt_thecrossant_black,687620,black_plus_sign,,,,,50,,,1,0.9439252336448598,,,,,,,,,,,,,,,,,,,,,,,,,,
null,,color_black,687722,black_plus_sign,,,,,null,,,,,,,,,,,,,,,,,,,,,,,,,,,,,,
null,,learn_phase(without_color),690256,black_plus_sign,,,,,null,US_Cities_List/nat_shreveport.png,US_Cities_List/nat_newhope.png,,,,,,,,,,,,,,,,,,,,,,,,,,,,
null,,black_cross(without_color),691200,blue,,,,,null,US_Cities_List/nat_shreveport.png,US_Cities_List/nat_newhope.png,,,,,,,,,,,,,,,,,,,,,,,,,,,,
null,,rt_plussign_withcolor,691701,blue,,,,,null,US_Cities_List/nat_shreveport.png,US_Cities_List/nat_newhope.png,,,,,,,,,,,,,,,,,,,,,,,,,,,,
867,,rt_thecrossant_black,692762,black_plus_sign,,,,,49,,,1,0.9444444444444444,,,,,,,,,,,,,,,,,,,,,,,,,,
null,,color_black,692864,black_plus_sign,,,,,null,,,,,,,,,,,,,,,,,,,,,,,,,,,,,,
null,,learn_phase(without_color),695666,black_plus_sign,,,,,null,US_Cities_List/nat_racine.png,US_Cities_List/nat_boulder.png,,,,,,,,,,,,,,,,,,,,,,,,,,,,
null,,black_cross(without_color),696455,green,,,,,null,US_Cities_List/nat_racine.png,US_Cities_List/nat_boulder.png,,,,,,,,,,,,,,,,,,,,,,,,,,,,
null,,rt_plussign_withcolor,696955,green,,,,,null,US_Cities_List/nat_racine.png,US_Cities_List/nat_boulder.png,,,,,,,,,,,,,,,,,,,,,,,,,,,,
1107,,rt_thecrossant_black,698172,black_plus_sign,,,,,50,,,1,0.944954128440367,,,,,,,,,,,,,,,,,,,,,,,,,,
null,,color_black,698275,black_plus_sign,,,,,null,,,,,,,,,,,,,,,,,,,,,,,,,,,,,,
null,,learn_phase(without_color),700810,black_plus_sign,,,,,null,US_Cities_List/mm_westpalmbeach.png,US_Cities_List/mm_gatlinburg.png,,,,,,,,,,,,,,,,,,,,,,,,,,,,
null,,black_cross(without_color),701680,blue,,,,,null,US_Cities_List/mm_westpalmbeach.png,US_Cities_List/mm_gatlinburg.png,,,,,,,,,,,,,,,,,,,,,,,,,,,,
null,,rt_plussign_withcolor,702181,blue,,,,,null,US_Cities_List/mm_westpalmbeach.png,US_Cities_List/mm_gatlinburg.png,,,,,,,,,,,,,,,,,,,,,,,,,,,,
1038,,rt_thecrossant_black,703315,black_plus_sign,,,,,49,,,1,0.9454545454545454,,,,,,,,,,,,,,,,,,,,,,,,,,
null,,color_black,703416,black_plus_sign,,,,,null,,,,,,,,,,,,,,,,,,,,,,,,,,,,,,
null,,learn_phase(without_color),705949,black_plus_sign,,,,,null,US_Cities_List/mm_huntsville.png,US_Cities_List/mm_westpalmbeach.png,,,,,,,,,,,,,,,,,,,,,,,,,,,,
null,,black_cross(without_color),706766,blue,,,,,null,US_Cities_List/mm_huntsville.png,US_Cities_List/mm_westpalmbeach.png,,,,,,,,,,,,,,,,,,,,,,,,,,,,
511,,rt_plussign_withcolor,707317,blue,,,,,49,US_Cities_List/mm_huntsville.png,US_Cities_List/mm_westpalmbeach.png,,,,,,,,,,,,,,,,,,,,,,,,,,,,
null,,rt_thecrossant_black,708505,black_plus_sign,,,,,null,,,1,0.9459459459459459,,,,,,,,,,,,,,,,,,,,,,,,,,
null,,color_black,708607,black_plus_sign,,,,,null,,,,,,,,,,,,,,,,,,,,,,,,,,,,,,
null,,learn_phase(without_color),711145,black_plus_sign,,,,,null,US_Cities_List/mm_westpalmbeach.png,US_Cities_List/nat_hotsprings.png,,,,,,,,,,,,,,,,,,,,,,,,,,,,
null,,black_cross(without_color),712009,blue,,,,,null,US_Cities_List/mm_westpalmbeach.png,US_Cities_List/nat_hotsprings.png,,,,,,,,,,,,,,,,,,,,,,,,,,,,
null,,rt_plussign_withcolor,712510,blue,,,,,null,US_Cities_List/mm_westpalmbeach.png,US_Cities_List/nat_hotsprings.png,,,,,,,,,,,,,,,,,,,,,,,,,,,,
1106,,rt_thecrossant_black,713651,black_plus_sign,,,,,49,,,1,0.9464285714285714,,,,,,,,,,,,,,,,,,,,,,,,,,
null,,color_black,713753,black_plus_sign,,,,,null,,,,,,,,,,,,,,,,,,,,,,,,,,,,,,
null,,learn_phase(without_color),716285,black_plus_sign,,,,,null,US_Cities_List/mm_hanover.png,US_Cities_List/nat_peoria.png,,,,,,,,,,,,,,,,,,,,,,,,,,,,
null,,black_cross(without_color),717126,blue,,,,,null,US_Cities_List/mm_hanover.png,US_Cities_List/nat_peoria.png,,,,,,,,,,,,,,,,,,,,,,,,,,,,
null,,rt_plussign_withcolor,717626,blue,,,,,null,US_Cities_List/mm_hanover.png,US_Cities_List/nat_peoria.png,,,,,,,,,,,,,,,,,,,,,,,,,,,,
1109,,rt_thecrossant_black,718792,black_plus_sign,,,,,49,,,1,0.9469026548672567,,,,,,,,,,,,,,,,,,,,,,,,,,
null,,color_black,718894,black_plus_sign,,,,,null,,,,,,,,,,,,,,,,,,,,,,,,,,,,,,
null,,learn_phase(without_color),721423,black_plus_sign,,,,,null,US_Cities_List/nat_cornwall.png,US_Cities_List/mm_huntsville.png,,,,,,,,,,,,,,,,,,,,,,,,,,,,
null,,black_cross(without_color),722306,green,,,,,null,US_Cities_List/nat_cornwall.png,US_Cities_List/mm_huntsville.png,,,,,,,,,,,,,,,,,,,,,,,,,,,,
476,,rt_plussign_withcolor,722808,green,,,,,50,US_Cities_List/nat_cornwall.png,US_Cities_List/mm_huntsville.png,,,,,,,,,,,,,,,,,,,,,,,,,,,,
null,,rt_thecrossant_black,723929,black_plus_sign,,,,,null,,,1,0.9473684210526315,,,,,,,,,,,,,,,,,,,,,,,,,,
null,,color_black,724032,black_plus_sign,,,,,null,,,,,,,,,,,,,,,,,,,,,,,,,,,,,,
null,,learn_phase(without_color),726565,black_plus_sign,,,,,null,US_Cities_List/nat_racine.png,US_Cities_List/nat_carmel.png,,,,,,,,,,,,,,,,,,,,,,,,,,,,
null,,black_cross(without_color),727605,blue,,,,,null,US_Cities_List/nat_racine.png,US_Cities_List/nat_carmel.png,,,,,,,,,,,,,,,,,,,,,,,,,,,,
null,,rt_plussign_withcolor,728106,blue,,,,,null,US_Cities_List/nat_racine.png,US_Cities_List/nat_carmel.png,,,,,,,,,,,,,,,,,,,,,,,,,,,,
1183,,rt_thecrossant_black,729073,black_plus_sign,,,,,49,,,1,0.9478260869565217,,,,,,,,,,,,,,,,,,,,,,,,,,
null,,color_black,729175,black_plus_sign,,,,,null,,,,,,,,,,,,,,,,,,,,,,,,,,,,,,
null,,learn_phase(without_color),731703,black_plus_sign,,,,,null,US_Cities_List/mm_huntsville.png,US_Cities_List/nat_hotsprings.png,,,,,,,,,,,,,,,,,,,,,,,,,,,,
null,,black_cross(without_color),732171,green,,,,,null,US_Cities_List/mm_huntsville.png,US_Cities_List/nat_hotsprings.png,,,,,,,,,,,,,,,,,,,,,,,,,,,,
null,,rt_plussign_withcolor,732673,green,,,,,null,US_Cities_List/mm_huntsville.png,US_Cities_List/nat_hotsprings.png,,,,,,,,,,,,,,,,,,,,,,,,,,,,
1421,,rt_thecrossant_black,734209,black_plus_sign,,,,,50,,,1,0.9482758620689655,,,,,,,,,,,,,,,,,,,,,,,,,,
null,,color_black,734311,black_plus_sign,,,,,null,,,,,,,,,,,,,,,,,,,,,,,,,,,,,,
null,,learn_phase(without_color),736851,black_plus_sign,,,,,null,US_Cities_List/nat_newhope.png,US_Cities_List/mm_hanover.png,,,,,,,,,,,,,,,,,,,,,,,,,,,,
null,,black_cross(without_color),737435,blue,,,,,null,US_Cities_List/nat_newhope.png,US_Cities_List/mm_hanover.png,,,,,,,,,,,,,,,,,,,,,,,,,,,,
null,,rt_plussign_withcolor,737935,blue,,,,,null,US_Cities_List/nat_newhope.png,US_Cities_List/mm_hanover.png,,,,,,,,,,,,,,,,,,,,,,,,,,,,
644,,rt_thecrossant_black,739356,black_plus_sign,,,,,49,,,1,0.9487179487179487,,,,,,,,,,,,,,,,,,,,,,,,,,
null,,color_black,739458,black_plus_sign,,,,,null,,,,,,,,,,,,,,,,,,,,,,,,,,,,,,
null,,learn_phase(without_color),741980,black_plus_sign,,,,,null,US_Cities_List/mm_huntsville.png,US_Cities_List/mm_leesburg.png,,,,,,,,,,,,,,,,,,,,,,,,,,,,
null,,black_cross(without_color),743074,blue,,,,,null,US_Cities_List/mm_huntsville.png,US_Cities_List/mm_leesburg.png,,,,,,,,,,,,,,,,,,,,,,,,,,,,
null,,rt_plussign_withcolor,743575,blue,,,,,null,US_Cities_List/mm_huntsville.png,US_Cities_List/mm_leesburg.png,,,,,,,,,,,,,,,,,,,,,,,,,,,,
783,,rt_thecrossant_black,744487,black_plus_sign,,,,,49,,,1,0.9491525423728814,,,,,,,,,,,,,,,,,,,,,,,,,,
null,,color_black,744590,black_plus_sign,,,,,null,,,,,,,,,,,,,,,,,,,,,,,,,,,,,,
null,,learn_phase(without_color),747124,black_plus_sign,,,,,null,US_Cities_List/nat_hotsprings.png,US_Cities_List/nat_peoria.png,,,,,,,,,,,,,,,,,,,,,,,,,,,,
null,,black_cross(without_color),747677,blue,,,,,null,US_Cities_List/nat_hotsprings.png,US_Cities_List/nat_peoria.png,,,,,,,,,,,,,,,,,,,,,,,,,,,,
null,,rt_plussign_withcolor,748180,blue,,,,,null,US_Cities_List/nat_hotsprings.png,US_Cities_List/nat_peoria.png,,,,,,,,,,,,,,,,,,,,,,,,,,,,
1242,,rt_thecrossant_black,749630,black_plus_sign,,,,,49,,,1,0.9495798319327731,,,,,,,,,,,,,,,,,,,,,,,,,,
null,,color_black,749733,black_plus_sign,,,,,null,,,,,,,,,,,,,,,,,,,,,,,,,,,,,,
null,,learn_phase(without_color),752271,black_plus_sign,,,,,null,US_Cities_List/nat_cornwall.png,US_Cities_List/nat_hotsprings.png,,,,,,,,,,,,,,,,,,,,,,,,,,,,
null,,black_cross(without_color),752975,green,,,,,null,US_Cities_List/nat_cornwall.png,US_Cities_List/nat_hotsprings.png,,,,,,,,,,,,,,,,,,,,,,,,,,,,
480,,rt_plussign_withcolor,753476,green,,,,,50,US_Cities_List/nat_cornwall.png,US_Cities_List/nat_hotsprings.png,,,,,,,,,,,,,,,,,,,,,,,,,,,,
null,,rt_thecrossant_black,754776,black_plus_sign,,,,,null,,,1,0.95,,,,,,,,,,,,,,,,,,,,,,,,,,
null,,color_black,754879,black_plus_sign,,,,,null,,,,,,,,,,,,,,,,,,,,,,,,,,,,,,
null,,learn_phase(without_color),757405,black_plus_sign,,,,,null,US_Cities_List/mm_huntsville.png,US_Cities_List/mm_leesburg.png,,,,,,,,,,,,,,,,,,,,,,,,,,,,
null,,black_cross(without_color),758054,blue,,,,,null,US_Cities_List/mm_huntsville.png,US_Cities_List/mm_leesburg.png,,,,,,,,,,,,,,,,,,,,,,,,,,,,
null,,rt_plussign_withcolor,758556,blue,,,,,null,US_Cities_List/mm_huntsville.png,US_Cities_List/mm_leesburg.png,,,,,,,,,,,,,,,,,,,,,,,,,,,,
852,,rt_thecrossant_black,759910,black_plus_sign,,,,,49,,,1,0.9504132231404959,,,,,,,,,,,,,,,,,,,,,,,,,,
null,,color_black,760012,black_plus_sign,,,,,null,,,,,,,,,,,,,,,,,,,,,,,,,,,,,,
null,,learn_phase(without_color),762546,black_plus_sign,,,,,null,US_Cities_List/nat_racine.png,US_Cities_List/nat_carmel.png,,,,,,,,,,,,,,,,,,,,,,,,,,,,
null,,black_cross(without_color),762966,blue,,,,,null,US_Cities_List/nat_racine.png,US_Cities_List/nat_carmel.png,,,,,,,,,,,,,,,,,,,,,,,,,,,,
null,,rt_plussign_withcolor,763467,blue,,,,,null,US_Cities_List/nat_racine.png,US_Cities_List/nat_carmel.png,,,,,,,,,,,,,,,,,,,,,,,,,,,,
935,,rt_thecrossant_black,765053,black_plus_sign,,,,,49,,,1,0.9508196721311475,,,,,,,,,,,,,,,,,,,,,,,,,,
null,,color_black,765155,black_plus_sign,,,,,null,,,,,,,,,,,,,,,,,,,,,,,,,,,,,,
null,,learn_phase(without_color),767891,black_plus_sign,,,,,null,US_Cities_List/mm_westpalmbeach.png,US_Cities_List/nat_hotsprings.png,,,,,,,,,,,,,,,,,,,,,,,,,,,,
null,,black_cross(without_color),768547,green,,,,,null,US_Cities_List/mm_westpalmbeach.png,US_Cities_List/nat_hotsprings.png,,,,,,,,,,,,,,,,,,,,,,,,,,,,
null,,rt_plussign_withcolor,769048,green,,,,,null,US_Cities_List/mm_westpalmbeach.png,US_Cities_List/nat_hotsprings.png,,,,,,,,,,,,,,,,,,,,,,,,,,,,
651,,rt_thecrossant_black,770396,black_plus_sign,,,,,50,,,1,0.9512195121951219,,,,,,,,,,,,,,,,,,,,,,,,,,
null,,color_black,770500,black_plus_sign,,,,,null,,,,,,,,,,,,,,,,,,,,,,,,,,,,,,
null,,learn_phase(without_color),773028,black_plus_sign,,,,,null,US_Cities_List/mm_huntsville.png,US_Cities_List/mm_leesburg.png,,,,,,,,,,,,,,,,,,,,,,,,,,,,
null,,black_cross(without_color),774018,green,,,,,null,US_Cities_List/mm_huntsville.png,US_Cities_List/mm_leesburg.png,,,,,,,,,,,,,,,,,,,,,,,,,,,,
501,,rt_plussign_withcolor,774551,green,,,,,50,US_Cities_List/mm_huntsville.png,US_Cities_List/mm_leesburg.png,,,,,,,,,,,,,,,,,,,,,,,,,,,,
null,,rt_thecrossant_black,775565,black_plus_sign,,,,,null,,,1,0.9516129032258065,,,,,,,,,,,,,,,,,,,,,,,,,,
null,,color_black,775667,black_plus_sign,,,,,null,,,,,,,,,,,,,,,,,,,,,,,,,,,,,,
null,,learn_phase(without_color),778200,black_plus_sign,,,,,null,US_Cities_List/mm_huntsville.png,US_Cities_List/nat_hotsprings.png,,,,,,,,,,,,,,,,,,,,,,,,,,,,
null,,black_cross(without_color),778844,green,,,,,null,US_Cities_List/mm_huntsville.png,US_Cities_List/nat_hotsprings.png,,,,,,,,,,,,,,,,,,,,,,,,,,,,
null,,rt_plussign_withcolor,779346,green,,,,,null,US_Cities_List/mm_huntsville.png,US_Cities_List/nat_hotsprings.png,,,,,,,,,,,,,,,,,,,,,,,,,,,,
1148,,rt_thecrossant_black,780705,black_plus_sign,,,,,50,,,1,0.952,,,,,,,,,,,,,,,,,,,,,,,,,,
null,,color_black,780807,black_plus_sign,,,,,null,,,,,,,,,,,,,,,,,,,,,,,,,,,,,,
null,,learn_phase(without_color),783339,black_plus_sign,,,,,null,US_Cities_List/mm_hanover.png,US_Cities_List/nat_cornwall.png,,,,,,,,,,,,,,,,,,,,,,,,,,,,
null,,black_cross(without_color),784225,blue,,,,,null,US_Cities_List/mm_hanover.png,US_Cities_List/nat_cornwall.png,,,,,,,,,,,,,,,,,,,,,,,,,,,,
null,,rt_plussign_withcolor,784726,blue,,,,,null,US_Cities_List/mm_hanover.png,US_Cities_List/nat_cornwall.png,,,,,,,,,,,,,,,,,,,,,,,,,,,,
991,,rt_thecrossant_black,785845,black_plus_sign,,,,,49,,,1,0.9523809523809523,,,,,,,,,,,,,,,,,,,,,,,,,,
null,,color_black,785947,black_plus_sign,,,,,null,,,,,,,,,,,,,,,,,,,,,,,,,,,,,,
null,,learn_phase(without_color),788484,black_plus_sign,,,,,null,US_Cities_List/mm_westpalmbeach.png,US_Cities_List/mm_gatlinburg.png,,,,,,,,,,,,,,,,,,,,,,,,,,,,
null,,black_cross(without_color),788908,green,,,,,null,US_Cities_List/mm_westpalmbeach.png,US_Cities_List/mm_gatlinburg.png,,,,,,,,,,,,,,,,,,,,,,,,,,,,
null,,rt_plussign_withcolor,789409,green,,,,,null,US_Cities_List/mm_westpalmbeach.png,US_Cities_List/mm_gatlinburg.png,,,,,,,,,,,,,,,,,,,,,,,,,,,,
1187,,rt_thecrossant_black,790990,black_plus_sign,,,,,50,,,1,0.952755905511811,,,,,,,,,,,,,,,,,,,,,,,,,,
null,,color_black,791092,black_plus_sign,,,,,null,,,,,,,,,,,,,,,,,,,,,,,,,,,,,,
null,,learn_phase(without_color),793624,black_plus_sign,,,,,null,US_Cities_List/mm_hanover.png,US_Cities_List/nat_peoria.png,,,,,,,,,,,,,,,,,,,,,,,,,,,,
null,,black_cross(without_color),794351,blue,,,,,null,US_Cities_List/mm_hanover.png,US_Cities_List/nat_peoria.png,,,,,,,,,,,,,,,,,,,,,,,,,,,,
null,,rt_plussign_withcolor,794852,blue,,,,,null,US_Cities_List/mm_hanover.png,US_Cities_List/nat_peoria.png,,,,,,,,,,,,,,,,,,,,,,,,,,,,
594,,rt_thecrossant_black,796130,black_plus_sign,,,,,49,,,1,0.953125,,,,,,,,,,,,,,,,,,,,,,,,,,
null,,color_black,796232,black_plus_sign,,,,,null,,,,,,,,,,,,,,,,,,,,,,,,,,,,,,
9350,,intro_1,805584,instruct,,,0,,,,,,,,,,,,,,,,,,,,,,,,,,,,,,,,
10418,,intro_2,816004,instruct,,,1,Next,,,,,,,,,,,,,,,,,,,,,,,,,,,,,,,
null,,directmemory_phase,822567,../static/images/US_Cities_List/nat_boulder.png,,,,,null,,,0,0,../static/images/US_Cities_List/nat_shreveport.png,../static/images/US_Cities_List/nat_hotsprings.png,../static/images/US_Cities_List/nat_peoria.png,../static/images/US_Cities_List/nat_peoria.png,../static/images/US_Cities_List/nat_hotsprings.png,../static/images/US_Cities_List/nat_shreveport.png,0,,,,,,,,,,,,,,,,,,,
null,,html-keyboard-response,823571,<p></p>,,,,,null,,,,,,,,,,,,,,,,,,,,,,,,,,,,,,
2579,,directmemory_phase,826217,../static/images/US_Cities_List/nat_hotsprings.png,,,,,50,,,0,0,../static/images/US_Cities_List/nat_cornwall.png,../static/images/US_Cities_List/nat_racine.png,../static/images/US_Cities_List/mm_leesburg.png,../static/images/US_Cities_List/nat_cornwall.png,../static/images/US_Cities_List/mm_leesburg.png,../static/images/US_Cities_List/nat_racine.png,0.5,closer,,,,,,,,,,,,,,,,,,
null,,html-keyboard-response,827280,<p></p>,,,,,null,,,,,,,,,,,,,,,,,,,,,,,,,,,,,,
3202,,directmemory_phase,830543,../static/images/US_Cities_List/nat_peoria.png,,,,,51,,,1,0.3333333333333333,../static/images/US_Cities_List/mm_gatlinburg.png,../static/images/US_Cities_List/nat_newhope.png,../static/images/US_Cities_List/mm_hanover.png,../static/images/US_Cities_List/mm_hanover.png,../static/images/US_Cities_List/nat_newhope.png,../static/images/US_Cities_List/mm_gatlinburg.png,1,,,,,,,,,,,,,,,,,,,
null,,html-keyboard-response,831546,<p></p>,,,,,null,,,,,,,,,,,,,,,,,,,,,,,,,,,,,,
2912,,directmemory_phase,834520,../static/images/US_Cities_List/nat_newhope.png,,,,,51,,,0,0.25,../static/images/US_Cities_List/nat_carmel.png,../static/images/US_Cities_List/nat_racine.png,../static/images/US_Cities_List/mm_huntsville.png,../static/images/US_Cities_List/nat_racine.png,../static/images/US_Cities_List/nat_carmel.png,../static/images/US_Cities_List/mm_huntsville.png,0.5,closer,,,,,,,,,,,,,,,,,,
null,,html-keyboard-response,835523,<p></p>,,,,,null,,,,,,,,,,,,,,,,,,,,,,,,,,,,,,
2957,,directmemory_phase,838544,../static/images/US_Cities_List/mm_westpalmbeach.png,,,,,49,,,0,0.2,../static/images/US_Cities_List/nat_boulder.png,../static/images/US_Cities_List/nat_cornwall.png,../static/images/US_Cities_List/nat_hotsprings.png,../static/images/US_Cities_List/nat_hotsprings.png,../static/images/US_Cities_List/nat_cornwall.png,../static/images/US_Cities_List/nat_boulder.png,0.5,closer,,,,,,,,,,,,,,,,,,
null,,html-keyboard-response,839547,<p></p>,,,,,null,,,,,,,,,,,,,,,,,,,,,,,,,,,,,,
2136,,directmemory_phase,841744,../static/images/US_Cities_List/nat_carmel.png,,,,,49,,,0,0.16666666666666666,../static/images/US_Cities_List/nat_peoria.png,../static/images/US_Cities_List/nat_newhope.png,../static/images/US_Cities_List/nat_racine.png,../static/images/US_Cities_List/nat_racine.png,../static/images/US_Cities_List/nat_newhope.png,../static/images/US_Cities_List/nat_peoria.png,0.5,closer,,,,,,,,,,,,,,,,,,
null,,html-keyboard-response,842746,<p></p>,,,,,null,,,,,,,,,,,,,,,,,,,,,,,,,,,,,,
3238,,directmemory_phase,846039,../static/images/US_Cities_List/mm_huntsville.png,,,,,50,,,0,0.14285714285714285,../static/images/US_Cities_List/nat_newhope.png,../static/images/US_Cities_List/mm_gatlinburg.png,../static/images/US_Cities_List/nat_cornwall.png,../static/images/US_Cities_List/nat_cornwall.png,../static/images/US_Cities_List/mm_gatlinburg.png,../static/images/US_Cities_List/nat_newhope.png,0.5,closer,,,,,,,,,,,,,,,,,,
null,,html-keyboard-response,847042,<p></p>,,,,,null,,,,,,,,,,,,,,,,,,,,,,,,,,,,,,
2668,,directmemory_phase,849776,../static/images/US_Cities_List/mm_westpalmbeach.png,,,,,51,,,1,0.25,../static/images/US_Cities_List/nat_newhope.png,../static/images/US_Cities_List/nat_cornwall.png,../static/images/US_Cities_List/mm_gatlinburg.png,../static/images/US_Cities_List/mm_gatlinburg.png,../static/images/US_Cities_List/nat_cornwall.png,../static/images/US_Cities_List/nat_newhope.png,1,,,,,,,,,,,,,,,,,,,
null,,html-keyboard-response,850778,<p></p>,,,,,null,,,,,,,,,,,,,,,,,,,,,,,,,,,,,,
2493,,directmemory_phase,853328,../static/images/US_Cities_List/nat_hotsprings.png,,,,,51,,,0,0.2222222222222222,../static/images/US_Cities_List/mm_huntsville.png,../static/images/US_Cities_List/nat_racine.png,../static/images/US_Cities_List/mm_hanover.png,../static/images/US_Cities_List/mm_huntsville.png,../static/images/US_Cities_List/mm_hanover.png,../static/images/US_Cities_List/nat_racine.png,0.5,closer,,,,,,,,,,,,,,,,,,
null,,html-keyboard-response,854331,<p></p>,,,,,null,,,,,,,,,,,,,,,,,,,,,,,,,,,,,,
1970,,directmemory_phase,856360,../static/images/US_Cities_List/nat_cornwall.png,,,,,50,,,0,0.2,../static/images/US_Cities_List/mm_hanover.png,../static/images/US_Cities_List/nat_carmel.png,../static/images/US_Cities_List/nat_newhope.png,../static/images/US_Cities_List/mm_hanover.png,../static/images/US_Cities_List/nat_newhope.png,../static/images/US_Cities_List/nat_carmel.png,0.5,closer,,,,,,,,,,,,,,,,,,
null,,html-keyboard-response,857378,<p></p>,,,,,null,,,,,,,,,,,,,,,,,,,,,,,,,,,,,,
2324,,directmemory_phase,859760,../static/images/US_Cities_List/nat_shreveport.png,,,,,50,,,1,0.2727272727272727,../static/images/US_Cities_List/mm_hanover.png,../static/images/US_Cities_List/nat_newhope.png,../static/images/US_Cities_List/nat_peoria.png,../static/images/US_Cities_List/nat_newhope.png,../static/images/US_Cities_List/mm_hanover.png,../static/images/US_Cities_List/nat_peoria.png,1,,,,,,,,,,,,,,,,,,,
null,,html-keyboard-response,860779,<p></p>,,,,,null,,,,,,,,,,,,,,,,,,,,,,,,,,,,,,
2211,,directmemory_phase,863040,../static/images/US_Cities_List/nat_cornwall.png,,,,,49,,,1,0.3333333333333333,../static/images/US_Cities_List/mm_huntsville.png,../static/images/US_Cities_List/mm_gatlinburg.png,../static/images/US_Cities_List/nat_peoria.png,../static/images/US_Cities_List/mm_huntsville.png,../static/images/US_Cities_List/nat_peoria.png,../static/images/US_Cities_List/mm_gatlinburg.png,1,,,,,,,,,,,,,,,,,,,
null,,html-keyboard-response,864043,<p></p>,,,,,null,,,,,,,,,,,,,,,,,,,,,,,,,,,,,,
1861,,directmemory_phase,865968,../static/images/US_Cities_List/nat_newhope.png,,,,,50,,,0,0.3076923076923077,../static/images/US_Cities_List/mm_hanover.png,../static/images/US_Cities_List/mm_westpalmbeach.png,../static/images/US_Cities_List/nat_cornwall.png,../static/images/US_Cities_List/mm_hanover.png,../static/images/US_Cities_List/nat_cornwall.png,../static/images/US_Cities_List/mm_westpalmbeach.png,0.5,closer,,,,,,,,,,,,,,,,,,
null,,html-keyboard-response,866972,<p></p>,,,,,null,,,,,,,,,,,,,,,,,,,,,,,,,,,,,,
2067,,directmemory_phase,869103,../static/images/US_Cities_List/nat_peoria.png,,,,,51,,,0,0.2857142857142857,../static/images/US_Cities_List/mm_westpalmbeach.png,../static/images/US_Cities_List/nat_boulder.png,../static/images/US_Cities_List/nat_shreveport.png,../static/images/US_Cities_List/nat_boulder.png,../static/images/US_Cities_List/mm_westpalmbeach.png,../static/images/US_Cities_List/nat_shreveport.png,0.5,closer,,,,,,,,,,,,,,,,,,
null,,html-keyboard-response,870106,<p></p>,,,,,null,,,,,,,,,,,,,,,,,,,,,,,,,,,,,,
2252,,directmemory_phase,872418,../static/images/US_Cities_List/mm_gatlinburg.png,,,,,49,,,0,0.26666666666666666,../static/images/US_Cities_List/nat_boulder.png,../static/images/US_Cities_List/mm_huntsville.png,../static/images/US_Cities_List/mm_westpalmbeach.png,../static/images/US_Cities_List/mm_westpalmbeach.png,../static/images/US_Cities_List/mm_huntsville.png,../static/images/US_Cities_List/nat_boulder.png,0.5,closer,,,,,,,,,,,,,,,,,,
null,,html-keyboard-response,873421,<p></p>,,,,,null,,,,,,,,,,,,,,,,,,,,,,,,,,,,,,
2350,,directmemory_phase,875824,../static/images/US_Cities_List/mm_huntsville.png,,,,,50,,,0,0.25,../static/images/US_Cities_List/mm_leesburg.png,../static/images/US_Cities_List/nat_newhope.png,../static/images/US_Cities_List/nat_peoria.png,../static/images/US_Cities_List/mm_leesburg.png,../static/images/US_Cities_List/nat_peoria.png,../static/images/US_Cities_List/nat_newhope.png,0.5,closer,,,,,,,,,,,,,,,,,,
null,,html-keyboard-response,876826,<p></p>,,,,,null,,,,,,,,,,,,,,,,,,,,,,,,,,,,,,
2041,,directmemory_phase,878928,../static/images/US_Cities_List/nat_racine.png,,,,,51,,,1,0.29411764705882354,../static/images/US_Cities_List/nat_hotsprings.png,../static/images/US_Cities_List/nat_peoria.png,../static/images/US_Cities_List/nat_boulder.png,../static/images/US_Cities_List/nat_boulder.png,../static/images/US_Cities_List/nat_peoria.png,../static/images/US_Cities_List/nat_hotsprings.png,1,,,,,,,,,,,,,,,,,,,
null,,html-keyboard-response,879930,<p></p>,,,,,null,,,,,,,,,,,,,,,,,,,,,,,,,,,,,,
2421,,directmemory_phase,882408,../static/images/US_Cities_List/mm_hanover.png,,,,,49,,,0,0.2777777777777778,../static/images/US_Cities_List/mm_leesburg.png,../static/images/US_Cities_List/mm_huntsville.png,../static/images/US_Cities_List/nat_newhope.png,../static/images/US_Cities_List/nat_newhope.png,../static/images/US_Cities_List/mm_huntsville.png,../static/images/US_Cities_List/mm_leesburg.png,0.5,closer,,,,,,,,,,,,,,,,,,
null,,html-keyboard-response,883411,<p></p>,,,,,null,,,,,,,,,,,,,,,,,,,,,,,,,,,,,,
1676,,directmemory_phase,885144,../static/images/US_Cities_List/mm_huntsville.png,,,,,50,,,0,0.2631578947368421,../static/images/US_Cities_List/nat_hotsprings.png,../static/images/US_Cities_List/nat_newhope.png,../static/images/US_Cities_List/mm_hanover.png,../static/images/US_Cities_List/nat_hotsprings.png,../static/images/US_Cities_List/mm_hanover.png,../static/images/US_Cities_List/nat_newhope.png,0.5,closer,,,,,,,,,,,,,,,,,,
null,,html-keyboard-response,886149,<p></p>,,,,,null,,,,,,,,,,,,,,,,,,,,,,,,,,,,,,
2018,,directmemory_phase,888224,../static/images/US_Cities_List/mm_hanover.png,,,,,50,,,0,0.25,../static/images/US_Cities_List/mm_leesburg.png,../static/images/US_Cities_List/nat_hotsprings.png,../static/images/US_Cities_List/nat_cornwall.png,../static/images/US_Cities_List/nat_cornwall.png,../static/images/US_Cities_List/nat_hotsprings.png,../static/images/US_Cities_List/mm_leesburg.png,0.5,closer,,,,,,,,,,,,,,,,,,
null,,html-keyboard-response,889227,<p></p>,,,,,null,,,,,,,,,,,,,,,,,,,,,,,,,,,,,,
2480,,directmemory_phase,891768,../static/images/US_Cities_List/mm_westpalmbeach.png,,,,,51,,,0,0.23809523809523808,../static/images/US_Cities_List/mm_huntsville.png,../static/images/US_Cities_List/nat_boulder.png,../static/images/US_Cities_List/nat_peoria.png,../static/images/US_Cities_List/mm_huntsville.png,../static/images/US_Cities_List/nat_peoria.png,../static/images/US_Cities_List/nat_boulder.png,0.5,closer,,,,,,,,,,,,,,,,,,
null,,html-keyboard-response,892772,<p></p>,,,,,null,,,,,,,,,,,,,,,,,,,,,,,,,,,,,,
2337,,directmemory_phase,895169,../static/images/US_Cities_List/nat_hotsprings.png,,,,,49,,,0,0.22727272727272727,../static/images/US_Cities_List/nat_racine.png,../static/images/US_Cities_List/mm_hanover.png,../static/images/US_Cities_List/nat_peoria.png,../static/images/US_Cities_List/nat_peoria.png,../static/images/US_Cities_List/mm_hanover.png,../static/images/US_Cities_List/nat_racine.png,0.5,closer,,,,,,,,,,,,,,,,,,
null,,html-keyboard-response,896172,<p></p>,,,,,null,,,,,,,,,,,,,,,,,,,,,,,,,,,,,,
2236,,directmemory_phase,898464,../static/images/US_Cities_List/mm_leesburg.png,,,,,50,,,0,0.21739130434782608,../static/images/US_Cities_List/mm_huntsville.png,../static/images/US_Cities_List/nat_boulder.png,../static/images/US_Cities_List/nat_hotsprings.png,../static/images/US_Cities_List/mm_huntsville.png,../static/images/US_Cities_List/nat_hotsprings.png,../static/images/US_Cities_List/nat_boulder.png,0.5,closer,,,,,,,,,,,,,,,,,,
null,,html-keyboard-response,899467,<p></p>,,,,,null,,,,,,,,,,,,,,,,,,,,,,,,,,,,,,
1560,,directmemory_phase,901088,../static/images/US_Cities_List/nat_cornwall.png,,,,,49,,,0,0.20833333333333334,../static/images/US_Cities_List/nat_shreveport.png,../static/images/US_Cities_List/nat_peoria.png,../static/images/US_Cities_List/nat_hotsprings.png,../static/images/US_Cities_List/nat_hotsprings.png,../static/images/US_Cities_List/nat_peoria.png,../static/images/US_Cities_List/nat_shreveport.png,0.5,closer,,,,,,,,,,,,,,,,,,
null,,html-keyboard-response,902090,<p></p>,,,,,null,,,,,,,,,,,,,,,,,,,,,,,,,,,,,,
1705,,directmemory_phase,903857,../static/images/US_Cities_List/mm_hanover.png,,,,,49,,,0,0.2,../static/images/US_Cities_List/nat_racine.png,../static/images/US_Cities_List/nat_peoria.png,../static/images/US_Cities_List/nat_carmel.png,../static/images/US_Cities_List/nat_peoria.png,../static/images/US_Cities_List/nat_racine.png,../static/images/US_Cities_List/nat_carmel.png,0.5,closer,,,,,,,,,,,,,,,,,,
null,,html-keyboard-response,904860,<p></p>,,,,,null,,,,,,,,,,,,,,,,,,,,,,,,,,,,,,
2385,,directmemory_phase,907306,../static/images/US_Cities_List/nat_boulder.png,,,,,51,,,0,0.19230769230769232,../static/images/US_Cities_List/nat_racine.png,../static/images/US_Cities_List/mm_gatlinburg.png,../static/images/US_Cities_List/nat_hotsprings.png,../static/images/US_Cities_List/nat_racine.png,../static/images/US_Cities_List/nat_hotsprings.png,../static/images/US_Cities_List/mm_gatlinburg.png,0.5,closer,,,,,,,,,,,,,,,,,,
null,,html-keyboard-response,908308,<p></p>,,,,,null,,,,,,,,,,,,,,,,,,,,,,,,,,,,,,
2352,,directmemory_phase,910720,../static/images/US_Cities_List/nat_peoria.png,,,,,51,,,1,0.2222222222222222,../static/images/US_Cities_List/nat_carmel.png,../static/images/US_Cities_List/nat_cornwall.png,../static/images/US_Cities_List/nat_hotsprings.png,../static/images/US_Cities_List/nat_hotsprings.png,../static/images/US_Cities_List/nat_cornwall.png,../static/images/US_Cities_List/nat_carmel.png,1,,,,,,,,,,,,,,,,,,,
null,,html-keyboard-response,911723,<p></p>,,,,,null,,,,,,,,,,,,,,,,,,,,,,,,,,,,,,
1851,,directmemory_phase,913641,../static/images/US_Cities_List/nat_racine.png,,,,,50,,,0,0.21428571428571427,../static/images/US_Cities_List/mm_westpalmbeach.png,../static/images/US_Cities_List/nat_shreveport.png,../static/images/US_Cities_List/nat_carmel.png,../static/images/US_Cities_List/nat_carmel.png,../static/images/US_Cities_List/nat_shreveport.png,../static/images/US_Cities_List/mm_westpalmbeach.png,0.5,closer,,,,,,,,,,,,,,,,,,
null,,html-keyboard-response,914645,<p></p>,,,,,null,,,,,,,,,,,,,,,,,,,,,,,,,,,,,,
