rt,responses,trial_type,time_elapsed,stimulus,cities,city_images,button_pressed,response,key_press,stimulus_left,stimulus_right,cumulative_accuracy,accuracy,stimulus_down_left,stimulus_down_mid,stimulus_down_right,stimulus_correct,stimulus_short,stimulus_far,weighted_accuracy,missedtrial,condition,specific_pairs,imgL_ID,imgR_ID,linedress,linedressed,image_position,unknowncity,testedstates,currentstate,otherstate,problems,smooth,distraction,strategies,easier,similar,comments
20423.60000014305,{worker_id:67dff4b10f363a1974679065},id_enter,20432,intro,Hanover; Racine; Hot Springs; New Hope; Leesburg; Boulder; West Palm Beach; Cornwall; Carmel; Huntsville; Shreveport; Peoria; Gatlinburg,US_Cities_List/mm_hanover.png; US_Cities_List/mm_racine.png; US_Cities_List/mm_hotsprings.png; US_Cities_List/nat_newhope.png; US_Cities_List/mm_leesburg.png; US_Cities_List/nat_boulder.png; US_Cities_List/nat_westpalmbeach.png; US_Cities_List/nat_cornwall.png; US_Cities_List/mm_carmel.png; US_Cities_List/nat_huntsville.png; US_Cities_List/nat_shreveport.png; US_Cities_List/nat_peoria.png; US_Cities_List/nat_gatlinburg.png,,,,,,,,,,,,,,,,,,,,,,,,,,,,,,,,,
35687.59999990463,,fullscreen,56139,make_fullscreen,,,0,,,,,,,,,,,,,,,,,,,,,,,,,,,,,,,,
33878.5,,intro_1,90020,instruct,,,0,,,,,,,,,,,,,,,,,,,,,,,,,,,,,,,,
32489,,intro_2,122512,instruct,,,1,Next,,,,,,,,,,,,,,,,,,,,,,,,,,,,,,,
38703.200000047684,,intro_3,161218,instruct,,,1,Next,,,,,,,,,,,,,,,,,,,,,,,,,,,,,,,
23143.400000095367,,intro_4,184364,instruct,,,1,Next,,,,,,,,,,,,,,,,,,,,,,,,,,,,,,,
11833.300000190735,,intro_5,196199,instruct,,,1,Next,,,,,,,,,,,,,,,,,,,,,,,,,,,,,,,
66587.90000009537,,intro_6,262790,instruct,,,1,Next,,,,,,,,,,,,,,,,,,,,,,,,,,,,,,,
null,,prac_atten_color_black,263214,black_plus_sign,,,,,null,,,,,,,,,,,,,,,,,,,,,,,,,,,,,,
625.8999998569489,,prac_atten_color,264201,prac_stop_color,,,,,49,,,,,,,,,,,,,,,,,,,,,,,,,,,,,,
625.2000000476837,,prac_atten_color_black,266204,black_plus_sign,,,,,50,,,,,,,,,,,,,,,,,,,,,,,,,,,,,,
null,,prac_atten_color_black,266628,black_plus_sign,,,,,null,,,,,,,,,,,,,,,,,,,,,,,,,,,,,,
777.2000000476837,,prac_atten_color,267561,prac_stop_color,,,,,50,,,,,,,,,,,,,,,,,,,,,,,,,,,,,,
null,,prac_atten_color_black,269566,black_plus_sign,,,,,null,,,,,,,,,,,,,,,,,,,,,,,,,,,,,,
null,,prac_atten_color_black,270041,black_plus_sign,,,,,null,,,,,,,,,,,,,,,,,,,,,,,,,,,,,,
null,,prac_atten_color,270619,prac_stop_color,,,,,null,,,,,,,,,,,,,,,,,,,,,,,,,,,,,,
333,,prac_atten_color_black,272621,black_plus_sign,,,,,49,,,,,,,,,,,,,,,,,,,,,,,,,,,,,,
10209.700000047684,,attentioncheck_help,282834,instruct,,,,,32,,,,,,,,,,,,,,,,,,,,,,,,,,,,,,
null,,prac_atten_color_black,283666,black_plus_sign,,,,,null,,,,,,,,,,,,,,,,,,,,,,,,,,,,,,
672.4000000953674,,prac_atten_color,284701,prac_stop_color,,,,,49,,,,,,,,,,,,,,,,,,,,,,,,,,,,,,
null,,prac_atten_color_black,286703,black_plus_sign,,,,,null,,,,,,,,,,,,,,,,,,,,,,,,,,,,,,
null,,prac_atten_color_black,287076,black_plus_sign,,,,,null,,,,,,,,,,,,,,,,,,,,,,,,,,,,,,
null,,prac_atten_color,287582,prac_stop_color,,,,,null,,,,,,,,,,,,,,,,,,,,,,,,,,,,,,
212.5,,prac_atten_color_black,289584,black_plus_sign,,,,,50,,,,,,,,,,,,,,,,,,,,,,,,,,,,,,
null,,prac_atten_color_black,290484,black_plus_sign,,,,,null,,,,,,,,,,,,,,,,,,,,,,,,,,,,,,
null,,prac_atten_color,290918,prac_stop_color,,,,,null,,,,,,,,,,,,,,,,,,,,,,,,,,,,,,
176,,prac_atten_color_black,292921,black_plus_sign,,,,,50,,,,,,,,,,,,,,,,,,,,,,,,,,,,,,
null,,prac_atten_color_black,293894,black_plus_sign,,,,,null,,,,,,,,,,,,,,,,,,,,,,,,,,,,,,
null,,prac_atten_color,294302,prac_stop_color,,,,,null,,,,,,,,,,,,,,,,,,,,,,,,,,,,,,
196.10000014305115,,prac_atten_color_black,296305,black_plus_sign,,,,,49,,,,,,,,,,,,,,,,,,,,,,,,,,,,,,
null,,prac_atten_color_black,297303,black_plus_sign,,,,,null,,,,,,,,,,,,,,,,,,,,,,,,,,,,,,
675.7000000476837,,prac_atten_color,298186,prac_stop_color,,,,,50,,,,,,,,,,,,,,,,,,,,,,,,,,,,,,
null,,prac_atten_color_black,300188,black_plus_sign,,,,,null,,,,,,,,,,,,,,,,,,,,,,,,,,,,,,
null,,prac_atten_color_black,300709,black_plus_sign,,,,,null,,,,,,,,,,,,,,,,,,,,,,,,,,,,,,
573.2999999523163,,prac_atten_color,301335,prac_stop_color,,,,,49,,,,,,,,,,,,,,,,,,,,,,,,,,,,,,
null,,prac_atten_color_black,303337,black_plus_sign,,,,,null,,,,,,,,,,,,,,,,,,,,,,,,,,,,,,
null,,prac_atten_color_black,304117,black_plus_sign,,,,,null,,,,,,,,,,,,,,,,,,,,,,,,,,,,,,
486.2000000476837,,prac_atten_color,305133,prac_stop_color,,,,,49,,,,,,,,,,,,,,,,,,,,,,,,,,,,,,
null,,prac_atten_color_black,307136,black_plus_sign,,,,,null,,,,,,,,,,,,,,,,,,,,,,,,,,,,,,
13792.100000143051,,attentioncheck_feedback,320935,cross_check_feedback,,,0,,,,,,,,,,,,,,,,,,,,,,,,,,,,,,,,
25491.700000047684,,last_instruct,346429,instruct,,,,,32,,,,,,,,,,,,,,,,,,,,,,,,,,,,,,
null,,learn_phase(without_color),348458,black_plus_sign,,,,,null,US_Cities_List/nat_boulder.png,US_Cities_List/nat_westpalmbeach.png,,,,,,,,,,,,,,,,,,,,,,,,,,,,
null,,black_cross(without_color),349442,green,,,,,null,US_Cities_List/nat_boulder.png,US_Cities_List/nat_westpalmbeach.png,,,,,,,,,,,,,,,,,,,,,,,,,,,,
null,,rt_plussign_withcolor,349944,green,,,,,null,US_Cities_List/nat_boulder.png,US_Cities_List/nat_westpalmbeach.png,,,,,,,,,,,,,,,,,,,,,,,,,,,,
null,,rt_thecrossant_black,350968,black_plus_sign,,,,,null,,,NaN,,,,,,,,,,,,,,,,,,,,,,,,,,,
null,,color_black,351071,black_plus_sign,,,,,null,,,,,,,,,,,,,,,,,,,,,,,,,,,,,,
null,,learn_phase(without_color),353604,black_plus_sign,,,,,null,US_Cities_List/nat_newhope.png,US_Cities_List/mm_leesburg.png,,,,,,,,,,,,,,,,,,,,,,,,,,,,
null,,black_cross(without_color),354061,green,,,,,null,US_Cities_List/nat_newhope.png,US_Cities_List/mm_leesburg.png,,,,,,,,,,,,,,,,,,,,,,,,,,,,
null,,rt_plussign_withcolor,354564,green,,,,,null,US_Cities_List/nat_newhope.png,US_Cities_List/mm_leesburg.png,,,,,,,,,,,,,,,,,,,,,,,,,,,,
null,,rt_thecrossant_black,356113,black_plus_sign,,,,,null,,,NaN,,,,,,,,,,,,,,,,,,,,,,,,,,,
null,,warning_page,359116,warning,,,,,null,,,,,,,,,,,,,,,,,,,,,,,,,,,,,,
null,,color_black,359218,black_plus_sign,,,,,null,,,,,,,,,,,,,,,,,,,,,,,,,,,,,,
null,,learn_phase(without_color),361767,black_plus_sign,,,,,null,US_Cities_List/mm_racine.png,US_Cities_List/mm_hotsprings.png,,,,,,,,,,,,,,,,,,,,,,,,,,,,
null,,black_cross(without_color),362426,blue,,,,,null,US_Cities_List/mm_racine.png,US_Cities_List/mm_hotsprings.png,,,,,,,,,,,,,,,,,,,,,,,,,,,,
null,,rt_plussign_withcolor,362928,blue,,,,,null,US_Cities_List/mm_racine.png,US_Cities_List/mm_hotsprings.png,,,,,,,,,,,,,,,,,,,,,,,,,,,,
853,,rt_thecrossant_black,364275,black_plus_sign,,,,,49,,,1,1,,,,,,,,,,,,,,,,,,,,,,,,,,
null,,color_black,364379,black_plus_sign,,,,,null,,,,,,,,,,,,,,,,,,,,,,,,,,,,,,
null,,learn_phase(without_color),366927,black_plus_sign,,,,,null,US_Cities_List/nat_boulder.png,US_Cities_List/mm_carmel.png,,,,,,,,,,,,,,,,,,,,,,,,,,,,
null,,black_cross(without_color),367764,blue,,,,,null,US_Cities_List/nat_boulder.png,US_Cities_List/mm_carmel.png,,,,,,,,,,,,,,,,,,,,,,,,,,,,
null,,rt_plussign_withcolor,368265,blue,,,,,null,US_Cities_List/nat_boulder.png,US_Cities_List/mm_carmel.png,,,,,,,,,,,,,,,,,,,,,,,,,,,,
1199.4000000953674,,rt_thecrossant_black,369436,black_plus_sign,,,,,49,,,1,1,,,,,,,,,,,,,,,,,,,,,,,,,,
null,,color_black,369539,black_plus_sign,,,,,null,,,,,,,,,,,,,,,,,,,,,,,,,,,,,,
null,,learn_phase(without_color),372072,black_plus_sign,,,,,null,US_Cities_List/mm_racine.png,US_Cities_List/mm_hotsprings.png,,,,,,,,,,,,,,,,,,,,,,,,,,,,
null,,black_cross(without_color),373086,green,,,,,null,US_Cities_List/mm_racine.png,US_Cities_List/mm_hotsprings.png,,,,,,,,,,,,,,,,,,,,,,,,,,,,
null,,rt_plussign_withcolor,373590,green,,,,,null,US_Cities_List/mm_racine.png,US_Cities_List/mm_hotsprings.png,,,,,,,,,,,,,,,,,,,,,,,,,,,,
1410.2000000476837,,rt_thecrossant_black,374580,black_plus_sign,,,,,50,,,1,1,,,,,,,,,,,,,,,,,,,,,,,,,,
null,,color_black,374683,black_plus_sign,,,,,null,,,,,,,,,,,,,,,,,,,,,,,,,,,,,,
null,,learn_phase(without_color),377226,black_plus_sign,,,,,null,US_Cities_List/nat_boulder.png,US_Cities_List/mm_carmel.png,,,,,,,,,,,,,,,,,,,,,,,,,,,,
null,,black_cross(without_color),378125,green,,,,,null,US_Cities_List/nat_boulder.png,US_Cities_List/mm_carmel.png,,,,,,,,,,,,,,,,,,,,,,,,,,,,
null,,rt_plussign_withcolor,378627,green,,,,,null,US_Cities_List/nat_boulder.png,US_Cities_List/mm_carmel.png,,,,,,,,,,,,,,,,,,,,,,,,,,,,
1574.5999999046326,,rt_thecrossant_black,379734,black_plus_sign,,,,,50,,,1,1,,,,,,,,,,,,,,,,,,,,,,,,,,
null,,color_black,379837,black_plus_sign,,,,,null,,,,,,,,,,,,,,,,,,,,,,,,,,,,,,
null,,learn_phase(without_color),382375,black_plus_sign,,,,,null,US_Cities_List/mm_hotsprings.png,US_Cities_List/nat_shreveport.png,,,,,,,,,,,,,,,,,,,,,,,,,,,,
null,,black_cross(without_color),383292,green,,,,,null,US_Cities_List/mm_hotsprings.png,US_Cities_List/nat_shreveport.png,,,,,,,,,,,,,,,,,,,,,,,,,,,,
null,,rt_plussign_withcolor,383794,green,,,,,null,US_Cities_List/mm_hotsprings.png,US_Cities_List/nat_shreveport.png,,,,,,,,,,,,,,,,,,,,,,,,,,,,
1414.3000001907349,,rt_thecrossant_black,384883,black_plus_sign,,,,,50,,,1,1,,,,,,,,,,,,,,,,,,,,,,,,,,
null,,color_black,384986,black_plus_sign,,,,,null,,,,,,,,,,,,,,,,,,,,,,,,,,,,,,
null,,learn_phase(without_color),387523,black_plus_sign,,,,,null,US_Cities_List/nat_newhope.png,US_Cities_List/mm_leesburg.png,,,,,,,,,,,,,,,,,,,,,,,,,,,,
null,,black_cross(without_color),388494,blue,,,,,null,US_Cities_List/nat_newhope.png,US_Cities_List/mm_leesburg.png,,,,,,,,,,,,,,,,,,,,,,,,,,,,
null,,rt_plussign_withcolor,388996,blue,,,,,null,US_Cities_List/nat_newhope.png,US_Cities_List/mm_leesburg.png,,,,,,,,,,,,,,,,,,,,,,,,,,,,
1474.9000000953674,,rt_thecrossant_black,390033,black_plus_sign,,,,,49,,,1,1,,,,,,,,,,,,,,,,,,,,,,,,,,
null,,color_black,390135,black_plus_sign,,,,,null,,,,,,,,,,,,,,,,,,,,,,,,,,,,,,
null,,learn_phase(without_color),392699,black_plus_sign,,,,,null,US_Cities_List/nat_newhope.png,US_Cities_List/nat_peoria.png,,,,,,,,,,,,,,,,,,,,,,,,,,,,
null,,black_cross(without_color),393150,blue,,,,,null,US_Cities_List/nat_newhope.png,US_Cities_List/nat_peoria.png,,,,,,,,,,,,,,,,,,,,,,,,,,,,
null,,rt_plussign_withcolor,393651,blue,,,,,null,US_Cities_List/nat_newhope.png,US_Cities_List/nat_peoria.png,,,,,,,,,,,,,,,,,,,,,,,,,,,,
1516.5999999046326,,rt_thecrossant_black,395207,black_plus_sign,,,,,49,,,1,1,,,,,,,,,,,,,,,,,,,,,,,,,,
null,,color_black,395310,black_plus_sign,,,,,null,,,,,,,,,,,,,,,,,,,,,,,,,,,,,,
null,,learn_phase(without_color),397855,black_plus_sign,,,,,null,US_Cities_List/mm_hotsprings.png,US_Cities_List/nat_shreveport.png,,,,,,,,,,,,,,,,,,,,,,,,,,,,
null,,black_cross(without_color),398665,blue,,,,,null,US_Cities_List/mm_hotsprings.png,US_Cities_List/nat_shreveport.png,,,,,,,,,,,,,,,,,,,,,,,,,,,,
null,,rt_plussign_withcolor,399167,blue,,,,,null,US_Cities_List/mm_hotsprings.png,US_Cities_List/nat_shreveport.png,,,,,,,,,,,,,,,,,,,,,,,,,,,,
1002.2999999523163,,rt_thecrossant_black,400363,black_plus_sign,,,,,49,,,1,1,,,,,,,,,,,,,,,,,,,,,,,,,,
null,,color_black,400467,black_plus_sign,,,,,null,,,,,,,,,,,,,,,,,,,,,,,,,,,,,,
null,,learn_phase(without_color),403022,black_plus_sign,,,,,null,US_Cities_List/mm_carmel.png,US_Cities_List/nat_shreveport.png,,,,,,,,,,,,,,,,,,,,,,,,,,,,
null,,black_cross(without_color),403450,green,,,,,null,US_Cities_List/mm_carmel.png,US_Cities_List/nat_shreveport.png,,,,,,,,,,,,,,,,,,,,,,,,,,,,
null,,rt_plussign_withcolor,403952,green,,,,,null,US_Cities_List/mm_carmel.png,US_Cities_List/nat_shreveport.png,,,,,,,,,,,,,,,,,,,,,,,,,,,,
1223.4000000953674,,rt_thecrossant_black,405540,black_plus_sign,,,,,50,,,1,1,,,,,,,,,,,,,,,,,,,,,,,,,,
null,,color_black,405644,black_plus_sign,,,,,null,,,,,,,,,,,,,,,,,,,,,,,,,,,,,,
null,,learn_phase(without_color),408174,black_plus_sign,,,,,null,US_Cities_List/nat_cornwall.png,US_Cities_List/nat_huntsville.png,,,,,,,,,,,,,,,,,,,,,,,,,,,,
null,,black_cross(without_color),409116,green,,,,,null,US_Cities_List/nat_cornwall.png,US_Cities_List/nat_huntsville.png,,,,,,,,,,,,,,,,,,,,,,,,,,,,
null,,rt_plussign_withcolor,409619,green,,,,,null,US_Cities_List/nat_cornwall.png,US_Cities_List/nat_huntsville.png,,,,,,,,,,,,,,,,,,,,,,,,,,,,
937.5,,rt_thecrossant_black,410682,black_plus_sign,,,,,50,,,1,1,,,,,,,,,,,,,,,,,,,,,,,,,,
null,,color_black,410786,black_plus_sign,,,,,null,,,,,,,,,,,,,,,,,,,,,,,,,,,,,,
null,,learn_phase(without_color),413351,black_plus_sign,,,,,null,US_Cities_List/nat_cornwall.png,US_Cities_List/mm_carmel.png,,,,,,,,,,,,,,,,,,,,,,,,,,,,
null,,black_cross(without_color),413935,green,,,,,null,US_Cities_List/nat_cornwall.png,US_Cities_List/mm_carmel.png,,,,,,,,,,,,,,,,,,,,,,,,,,,,
null,,rt_plussign_withcolor,414438,green,,,,,null,US_Cities_List/nat_cornwall.png,US_Cities_List/mm_carmel.png,,,,,,,,,,,,,,,,,,,,,,,,,,,,
1909,,rt_thecrossant_black,415860,black_plus_sign,,,,,50,,,1,1,,,,,,,,,,,,,,,,,,,,,,,,,,
null,,color_black,415962,black_plus_sign,,,,,null,,,,,,,,,,,,,,,,,,,,,,,,,,,,,,
null,,learn_phase(without_color),418508,black_plus_sign,,,,,null,US_Cities_List/nat_shreveport.png,US_Cities_List/nat_peoria.png,,,,,,,,,,,,,,,,,,,,,,,,,,,,
null,,black_cross(without_color),419535,blue,,,,,null,US_Cities_List/nat_shreveport.png,US_Cities_List/nat_peoria.png,,,,,,,,,,,,,,,,,,,,,,,,,,,,
null,,rt_plussign_withcolor,420037,blue,,,,,null,US_Cities_List/nat_shreveport.png,US_Cities_List/nat_peoria.png,,,,,,,,,,,,,,,,,,,,,,,,,,,,
1089.3000001907349,,rt_thecrossant_black,421016,black_plus_sign,,,,,49,,,1,1,,,,,,,,,,,,,,,,,,,,,,,,,,
null,,color_black,421119,black_plus_sign,,,,,null,,,,,,,,,,,,,,,,,,,,,,,,,,,,,,
null,,learn_phase(without_color),423660,black_plus_sign,,,,,null,US_Cities_List/nat_westpalmbeach.png,US_Cities_List/mm_carmel.png,,,,,,,,,,,,,,,,,,,,,,,,,,,,
null,,black_cross(without_color),424420,blue,,,,,null,US_Cities_List/nat_westpalmbeach.png,US_Cities_List/mm_carmel.png,,,,,,,,,,,,,,,,,,,,,,,,,,,,
null,,rt_plussign_withcolor,424922,blue,,,,,null,US_Cities_List/nat_westpalmbeach.png,US_Cities_List/mm_carmel.png,,,,,,,,,,,,,,,,,,,,,,,,,,,,
1536.8999998569489,,rt_thecrossant_black,426170,black_plus_sign,,,,,49,,,1,1,,,,,,,,,,,,,,,,,,,,,,,,,,
null,,color_black,426273,black_plus_sign,,,,,null,,,,,,,,,,,,,,,,,,,,,,,,,,,,,,
null,,learn_phase(without_color),428822,black_plus_sign,,,,,null,US_Cities_List/nat_westpalmbeach.png,US_Cities_List/nat_gatlinburg.png,,,,,,,,,,,,,,,,,,,,,,,,,,,,
null,,black_cross(without_color),429734,green,,,,,null,US_Cities_List/nat_westpalmbeach.png,US_Cities_List/nat_gatlinburg.png,,,,,,,,,,,,,,,,,,,,,,,,,,,,
null,,rt_plussign_withcolor,430237,green,,,,,null,US_Cities_List/nat_westpalmbeach.png,US_Cities_List/nat_gatlinburg.png,,,,,,,,,,,,,,,,,,,,,,,,,,,,
960.7000000476837,,rt_thecrossant_black,431331,black_plus_sign,,,,,50,,,1,1,,,,,,,,,,,,,,,,,,,,,,,,,,
null,,color_black,431434,black_plus_sign,,,,,null,,,,,,,,,,,,,,,,,,,,,,,,,,,,,,
null,,learn_phase(without_color),433984,black_plus_sign,,,,,null,US_Cities_List/nat_newhope.png,US_Cities_List/mm_leesburg.png,,,,,,,,,,,,,,,,,,,,,,,,,,,,
null,,black_cross(without_color),434909,blue,,,,,null,US_Cities_List/nat_newhope.png,US_Cities_List/mm_leesburg.png,,,,,,,,,,,,,,,,,,,,,,,,,,,,
null,,rt_plussign_withcolor,435412,blue,,,,,null,US_Cities_List/nat_newhope.png,US_Cities_List/mm_leesburg.png,,,,,,,,,,,,,,,,,,,,,,,,,,,,
1492.6999998092651,,rt_thecrossant_black,436494,black_plus_sign,,,,,49,,,1,1,,,,,,,,,,,,,,,,,,,,,,,,,,
null,,color_black,436597,black_plus_sign,,,,,null,,,,,,,,,,,,,,,,,,,,,,,,,,,,,,
null,,learn_phase(without_color),439142,black_plus_sign,,,,,null,US_Cities_List/nat_cornwall.png,US_Cities_List/nat_huntsville.png,,,,,,,,,,,,,,,,,,,,,,,,,,,,
null,,black_cross(without_color),439635,blue,,,,,null,US_Cities_List/nat_cornwall.png,US_Cities_List/nat_huntsville.png,,,,,,,,,,,,,,,,,,,,,,,,,,,,
null,,rt_plussign_withcolor,440137,blue,,,,,null,US_Cities_List/nat_cornwall.png,US_Cities_List/nat_huntsville.png,,,,,,,,,,,,,,,,,,,,,,,,,,,,
2137.199999809265,,rt_thecrossant_black,441652,black_plus_sign,,,,,49,,,1,1,,,,,,,,,,,,,,,,,,,,,,,,,,
null,,color_black,441759,black_plus_sign,,,,,null,,,,,,,,,,,,,,,,,,,,,,,,,,,,,,
null,,learn_phase(without_color),444313,black_plus_sign,,,,,null,US_Cities_List/nat_boulder.png,US_Cities_List/mm_carmel.png,,,,,,,,,,,,,,,,,,,,,,,,,,,,
null,,black_cross(without_color),444717,green,,,,,null,US_Cities_List/nat_boulder.png,US_Cities_List/mm_carmel.png,,,,,,,,,,,,,,,,,,,,,,,,,,,,
null,,rt_plussign_withcolor,445219,green,,,,,null,US_Cities_List/nat_boulder.png,US_Cities_List/mm_carmel.png,,,,,,,,,,,,,,,,,,,,,,,,,,,,
1148.7999999523163,,rt_thecrossant_black,446821,black_plus_sign,,,,,50,,,1,1,,,,,,,,,,,,,,,,,,,,,,,,,,
null,,color_black,446924,black_plus_sign,,,,,null,,,,,,,,,,,,,,,,,,,,,,,,,,,,,,
null,,learn_phase(without_color),449466,black_plus_sign,,,,,null,US_Cities_List/nat_shreveport.png,US_Cities_List/nat_peoria.png,,,,,,,,,,,,,,,,,,,,,,,,,,,,
null,,black_cross(without_color),450388,green,,,,,null,US_Cities_List/nat_shreveport.png,US_Cities_List/nat_peoria.png,,,,,,,,,,,,,,,,,,,,,,,,,,,,
null,,rt_plussign_withcolor,450890,green,,,,,null,US_Cities_List/nat_shreveport.png,US_Cities_List/nat_peoria.png,,,,,,,,,,,,,,,,,,,,,,,,,,,,
647.9000000953674,,rt_thecrossant_black,451974,black_plus_sign,,,,,50,,,1,1,,,,,,,,,,,,,,,,,,,,,,,,,,
null,,color_black,452076,black_plus_sign,,,,,null,,,,,,,,,,,,,,,,,,,,,,,,,,,,,,
null,,learn_phase(without_color),454631,black_plus_sign,,,,,null,US_Cities_List/nat_westpalmbeach.png,US_Cities_List/nat_cornwall.png,,,,,,,,,,,,,,,,,,,,,,,,,,,,
null,,black_cross(without_color),455676,blue,,,,,null,US_Cities_List/nat_westpalmbeach.png,US_Cities_List/nat_cornwall.png,,,,,,,,,,,,,,,,,,,,,,,,,,,,
null,,rt_plussign_withcolor,456179,blue,,,,,null,US_Cities_List/nat_westpalmbeach.png,US_Cities_List/nat_cornwall.png,,,,,,,,,,,,,,,,,,,,,,,,,,,,
1092.2000000476837,,rt_thecrossant_black,457141,black_plus_sign,,,,,49,,,1,1,,,,,,,,,,,,,,,,,,,,,,,,,,
null,,color_black,457245,black_plus_sign,,,,,null,,,,,,,,,,,,,,,,,,,,,,,,,,,,,,
null,,learn_phase(without_color),459775,black_plus_sign,,,,,null,US_Cities_List/mm_hanover.png,US_Cities_List/mm_racine.png,,,,,,,,,,,,,,,,,,,,,,,,,,,,
null,,black_cross(without_color),460841,green,,,,,null,US_Cities_List/mm_hanover.png,US_Cities_List/mm_racine.png,,,,,,,,,,,,,,,,,,,,,,,,,,,,
null,,rt_plussign_withcolor,461343,green,,,,,null,US_Cities_List/mm_hanover.png,US_Cities_List/mm_racine.png,,,,,,,,,,,,,,,,,,,,,,,,,,,,
1148.9000000953674,,rt_thecrossant_black,462283,black_plus_sign,,,,,50,,,1,1,,,,,,,,,,,,,,,,,,,,,,,,,,
null,,color_black,462386,black_plus_sign,,,,,null,,,,,,,,,,,,,,,,,,,,,,,,,,,,,,
null,,learn_phase(without_color),464947,black_plus_sign,,,,,null,US_Cities_List/nat_cornwall.png,US_Cities_List/mm_carmel.png,,,,,,,,,,,,,,,,,,,,,,,,,,,,
null,,black_cross(without_color),465728,blue,,,,,null,US_Cities_List/nat_cornwall.png,US_Cities_List/mm_carmel.png,,,,,,,,,,,,,,,,,,,,,,,,,,,,
null,,rt_plussign_withcolor,466232,blue,,,,,null,US_Cities_List/nat_cornwall.png,US_Cities_List/mm_carmel.png,,,,,,,,,,,,,,,,,,,,,,,,,,,,
1552.5,,rt_thecrossant_black,467456,black_plus_sign,,,,,49,,,1,1,,,,,,,,,,,,,,,,,,,,,,,,,,
null,,color_black,467560,black_plus_sign,,,,,null,,,,,,,,,,,,,,,,,,,,,,,,,,,,,,
null,,learn_phase(without_color),470114,black_plus_sign,,,,,null,US_Cities_List/mm_racine.png,US_Cities_List/nat_newhope.png,,,,,,,,,,,,,,,,,,,,,,,,,,,,
null,,black_cross(without_color),470913,blue,,,,,null,US_Cities_List/mm_racine.png,US_Cities_List/nat_newhope.png,,,,,,,,,,,,,,,,,,,,,,,,,,,,
null,,rt_plussign_withcolor,471416,blue,,,,,null,US_Cities_List/mm_racine.png,US_Cities_List/nat_newhope.png,,,,,,,,,,,,,,,,,,,,,,,,,,,,
985.1000001430511,,rt_thecrossant_black,472625,black_plus_sign,,,,,49,,,1,1,,,,,,,,,,,,,,,,,,,,,,,,,,
null,,color_black,472729,black_plus_sign,,,,,null,,,,,,,,,,,,,,,,,,,,,,,,,,,,,,
null,,learn_phase(without_color),475284,black_plus_sign,,,,,null,US_Cities_List/mm_carmel.png,US_Cities_List/nat_shreveport.png,,,,,,,,,,,,,,,,,,,,,,,,,,,,
null,,black_cross(without_color),476132,blue,,,,,null,US_Cities_List/mm_carmel.png,US_Cities_List/nat_shreveport.png,,,,,,,,,,,,,,,,,,,,,,,,,,,,
null,,rt_plussign_withcolor,476635,blue,,,,,null,US_Cities_List/mm_carmel.png,US_Cities_List/nat_shreveport.png,,,,,,,,,,,,,,,,,,,,,,,,,,,,
939,,rt_thecrossant_black,477794,black_plus_sign,,,,,49,,,1,1,,,,,,,,,,,,,,,,,,,,,,,,,,
null,,color_black,477897,black_plus_sign,,,,,null,,,,,,,,,,,,,,,,,,,,,,,,,,,,,,
null,,learn_phase(without_color),480448,black_plus_sign,,,,,null,US_Cities_List/nat_cornwall.png,US_Cities_List/mm_carmel.png,,,,,,,,,,,,,,,,,,,,,,,,,,,,
null,,black_cross(without_color),481090,green,,,,,null,US_Cities_List/nat_cornwall.png,US_Cities_List/mm_carmel.png,,,,,,,,,,,,,,,,,,,,,,,,,,,,
null,,rt_plussign_withcolor,481592,green,,,,,null,US_Cities_List/nat_cornwall.png,US_Cities_List/mm_carmel.png,,,,,,,,,,,,,,,,,,,,,,,,,,,,
1311.5999999046326,,rt_thecrossant_black,482957,black_plus_sign,,,,,50,,,1,1,,,,,,,,,,,,,,,,,,,,,,,,,,
null,,color_black,483060,black_plus_sign,,,,,null,,,,,,,,,,,,,,,,,,,,,,,,,,,,,,
null,,learn_phase(without_color),485601,black_plus_sign,,,,,null,US_Cities_List/mm_hanover.png,US_Cities_List/mm_racine.png,,,,,,,,,,,,,,,,,,,,,,,,,,,,
null,,black_cross(without_color),486286,green,,,,,null,US_Cities_List/mm_hanover.png,US_Cities_List/mm_racine.png,,,,,,,,,,,,,,,,,,,,,,,,,,,,
null,,rt_plussign_withcolor,486788,green,,,,,null,US_Cities_List/mm_hanover.png,US_Cities_List/mm_racine.png,,,,,,,,,,,,,,,,,,,,,,,,,,,,
970.8000001907349,,rt_thecrossant_black,488109,black_plus_sign,,,,,50,,,1,1,,,,,,,,,,,,,,,,,,,,,,,,,,
null,,color_black,488212,black_plus_sign,,,,,null,,,,,,,,,,,,,,,,,,,,,,,,,,,,,,
null,,learn_phase(without_color),490752,black_plus_sign,,,,,null,US_Cities_List/nat_cornwall.png,US_Cities_List/nat_huntsville.png,,,,,,,,,,,,,,,,,,,,,,,,,,,,
null,,black_cross(without_color),491447,green,,,,,null,US_Cities_List/nat_cornwall.png,US_Cities_List/nat_huntsville.png,,,,,,,,,,,,,,,,,,,,,,,,,,,,
null,,rt_plussign_withcolor,491950,green,,,,,null,US_Cities_List/nat_cornwall.png,US_Cities_List/nat_huntsville.png,,,,,,,,,,,,,,,,,,,,,,,,,,,,
1456.2000000476837,,rt_thecrossant_black,493261,black_plus_sign,,,,,50,,,1,1,,,,,,,,,,,,,,,,,,,,,,,,,,
null,,color_black,493363,black_plus_sign,,,,,null,,,,,,,,,,,,,,,,,,,,,,,,,,,,,,
null,,learn_phase(without_color),495890,black_plus_sign,,,,,null,US_Cities_List/mm_hotsprings.png,US_Cities_List/nat_boulder.png,,,,,,,,,,,,,,,,,,,,,,,,,,,,
null,,black_cross(without_color),496396,green,,,,,null,US_Cities_List/mm_hotsprings.png,US_Cities_List/nat_boulder.png,,,,,,,,,,,,,,,,,,,,,,,,,,,,
null,,rt_plussign_withcolor,496899,green,,,,,null,US_Cities_List/mm_hotsprings.png,US_Cities_List/nat_boulder.png,,,,,,,,,,,,,,,,,,,,,,,,,,,,
1234.2999999523163,,rt_thecrossant_black,498399,black_plus_sign,,,,,50,,,1,1,,,,,,,,,,,,,,,,,,,,,,,,,,
null,,color_black,498502,black_plus_sign,,,,,null,,,,,,,,,,,,,,,,,,,,,,,,,,,,,,
null,,learn_phase(without_color),501062,black_plus_sign,,,,,null,US_Cities_List/mm_racine.png,US_Cities_List/mm_hotsprings.png,,,,,,,,,,,,,,,,,,,,,,,,,,,,
null,,black_cross(without_color),501734,green,,,,,null,US_Cities_List/mm_racine.png,US_Cities_List/mm_hotsprings.png,,,,,,,,,,,,,,,,,,,,,,,,,,,,
null,,rt_plussign_withcolor,502236,green,,,,,null,US_Cities_List/mm_racine.png,US_Cities_List/mm_hotsprings.png,,,,,,,,,,,,,,,,,,,,,,,,,,,,
1060.5,,rt_thecrossant_black,503570,black_plus_sign,,,,,50,,,1,1,,,,,,,,,,,,,,,,,,,,,,,,,,
null,,color_black,503673,black_plus_sign,,,,,null,,,,,,,,,,,,,,,,,,,,,,,,,,,,,,
null,,learn_phase(without_color),506220,black_plus_sign,,,,,null,US_Cities_List/nat_newhope.png,US_Cities_List/mm_leesburg.png,,,,,,,,,,,,,,,,,,,,,,,,,,,,
null,,black_cross(without_color),506871,blue,,,,,null,US_Cities_List/nat_newhope.png,US_Cities_List/mm_leesburg.png,,,,,,,,,,,,,,,,,,,,,,,,,,,,
null,,rt_plussign_withcolor,507375,blue,,,,,null,US_Cities_List/nat_newhope.png,US_Cities_List/mm_leesburg.png,,,,,,,,,,,,,,,,,,,,,,,,,,,,
922,,rt_thecrossant_black,508731,black_plus_sign,,,,,49,,,1,1,,,,,,,,,,,,,,,,,,,,,,,,,,
null,,color_black,508833,black_plus_sign,,,,,null,,,,,,,,,,,,,,,,,,,,,,,,,,,,,,
null,,learn_phase(without_color),511371,black_plus_sign,,,,,null,US_Cities_List/mm_hotsprings.png,US_Cities_List/nat_boulder.png,,,,,,,,,,,,,,,,,,,,,,,,,,,,
null,,black_cross(without_color),511838,blue,,,,,null,US_Cities_List/mm_hotsprings.png,US_Cities_List/nat_boulder.png,,,,,,,,,,,,,,,,,,,,,,,,,,,,
null,,rt_plussign_withcolor,512341,blue,,,,,null,US_Cities_List/mm_hotsprings.png,US_Cities_List/nat_boulder.png,,,,,,,,,,,,,,,,,,,,,,,,,,,,
1003.6999998092651,,rt_thecrossant_black,513880,black_plus_sign,,,,,49,,,1,1,,,,,,,,,,,,,,,,,,,,,,,,,,
null,,color_black,513984,black_plus_sign,,,,,null,,,,,,,,,,,,,,,,,,,,,,,,,,,,,,
null,,learn_phase(without_color),516541,black_plus_sign,,,,,null,US_Cities_List/mm_hotsprings.png,US_Cities_List/nat_shreveport.png,,,,,,,,,,,,,,,,,,,,,,,,,,,,
null,,black_cross(without_color),517078,blue,,,,,null,US_Cities_List/mm_hotsprings.png,US_Cities_List/nat_shreveport.png,,,,,,,,,,,,,,,,,,,,,,,,,,,,
null,,rt_plussign_withcolor,517580,blue,,,,,null,US_Cities_List/mm_hotsprings.png,US_Cities_List/nat_shreveport.png,,,,,,,,,,,,,,,,,,,,,,,,,,,,
919.6999998092651,,rt_thecrossant_black,519049,black_plus_sign,,,,,49,,,1,1,,,,,,,,,,,,,,,,,,,,,,,,,,
null,,color_black,519153,black_plus_sign,,,,,null,,,,,,,,,,,,,,,,,,,,,,,,,,,,,,
null,,learn_phase(without_color),521705,black_plus_sign,,,,,null,US_Cities_List/mm_carmel.png,US_Cities_List/nat_shreveport.png,,,,,,,,,,,,,,,,,,,,,,,,,,,,
null,,black_cross(without_color),522176,blue,,,,,null,US_Cities_List/mm_carmel.png,US_Cities_List/nat_shreveport.png,,,,,,,,,,,,,,,,,,,,,,,,,,,,
null,,rt_plussign_withcolor,522677,blue,,,,,null,US_Cities_List/mm_carmel.png,US_Cities_List/nat_shreveport.png,,,,,,,,,,,,,,,,,,,,,,,,,,,,
944,,rt_thecrossant_black,524212,black_plus_sign,,,,,49,,,1,1,,,,,,,,,,,,,,,,,,,,,,,,,,
null,,color_black,524316,black_plus_sign,,,,,null,,,,,,,,,,,,,,,,,,,,,,,,,,,,,,
null,,learn_phase(without_color),526863,black_plus_sign,,,,,null,US_Cities_List/nat_westpalmbeach.png,US_Cities_List/nat_cornwall.png,,,,,,,,,,,,,,,,,,,,,,,,,,,,
null,,black_cross(without_color),527816,blue,,,,,null,US_Cities_List/nat_westpalmbeach.png,US_Cities_List/nat_cornwall.png,,,,,,,,,,,,,,,,,,,,,,,,,,,,
null,,rt_plussign_withcolor,528318,blue,,,,,null,US_Cities_List/nat_westpalmbeach.png,US_Cities_List/nat_cornwall.png,,,,,,,,,,,,,,,,,,,,,,,,,,,,
659.5,,rt_thecrossant_black,529373,black_plus_sign,,,,,49,,,1,1,,,,,,,,,,,,,,,,,,,,,,,,,,
null,,color_black,529476,black_plus_sign,,,,,null,,,,,,,,,,,,,,,,,,,,,,,,,,,,,,
null,,learn_phase(without_color),532024,black_plus_sign,,,,,null,US_Cities_List/mm_racine.png,US_Cities_List/nat_newhope.png,,,,,,,,,,,,,,,,,,,,,,,,,,,,
null,,black_cross(without_color),532632,green,,,,,null,US_Cities_List/mm_racine.png,US_Cities_List/nat_newhope.png,,,,,,,,,,,,,,,,,,,,,,,,,,,,
null,,rt_plussign_withcolor,533135,green,,,,,null,US_Cities_List/mm_racine.png,US_Cities_List/nat_newhope.png,,,,,,,,,,,,,,,,,,,,,,,,,,,,
1396,,rt_thecrossant_black,534534,black_plus_sign,,,,,50,,,1,1,,,,,,,,,,,,,,,,,,,,,,,,,,
null,,color_black,534648,black_plus_sign,,,,,null,,,,,,,,,,,,,,,,,,,,,,,,,,,,,,
null,,learn_phase(without_color),537208,black_plus_sign,,,,,null,US_Cities_List/nat_newhope.png,US_Cities_List/nat_peoria.png,,,,,,,,,,,,,,,,,,,,,,,,,,,,
null,,black_cross(without_color),538265,blue,,,,,null,US_Cities_List/nat_newhope.png,US_Cities_List/nat_peoria.png,,,,,,,,,,,,,,,,,,,,,,,,,,,,
null,,rt_plussign_withcolor,538767,blue,,,,,null,US_Cities_List/nat_newhope.png,US_Cities_List/nat_peoria.png,,,,,,,,,,,,,,,,,,,,,,,,,,,,
807.8999998569489,,rt_thecrossant_black,539715,black_plus_sign,,,,,49,,,1,1,,,,,,,,,,,,,,,,,,,,,,,,,,
null,,color_black,539818,black_plus_sign,,,,,null,,,,,,,,,,,,,,,,,,,,,,,,,,,,,,
null,,learn_phase(without_color),542345,black_plus_sign,,,,,null,US_Cities_List/nat_boulder.png,US_Cities_List/mm_carmel.png,,,,,,,,,,,,,,,,,,,,,,,,,,,,
null,,black_cross(without_color),543179,blue,,,,,null,US_Cities_List/nat_boulder.png,US_Cities_List/mm_carmel.png,,,,,,,,,,,,,,,,,,,,,,,,,,,,
null,,rt_plussign_withcolor,543681,blue,,,,,null,US_Cities_List/nat_boulder.png,US_Cities_List/mm_carmel.png,,,,,,,,,,,,,,,,,,,,,,,,,,,,
1427.7000000476837,,rt_thecrossant_black,544852,black_plus_sign,,,,,49,,,1,1,,,,,,,,,,,,,,,,,,,,,,,,,,
null,,color_black,544954,black_plus_sign,,,,,null,,,,,,,,,,,,,,,,,,,,,,,,,,,,,,
null,,learn_phase(without_color),547487,black_plus_sign,,,,,null,US_Cities_List/nat_westpalmbeach.png,US_Cities_List/mm_carmel.png,,,,,,,,,,,,,,,,,,,,,,,,,,,,
null,,black_cross(without_color),548505,green,,,,,null,US_Cities_List/nat_westpalmbeach.png,US_Cities_List/mm_carmel.png,,,,,,,,,,,,,,,,,,,,,,,,,,,,
null,,rt_plussign_withcolor,549008,green,,,,,null,US_Cities_List/nat_westpalmbeach.png,US_Cities_List/mm_carmel.png,,,,,,,,,,,,,,,,,,,,,,,,,,,,
1077.4000000953674,,rt_thecrossant_black,549998,black_plus_sign,,,,,50,,,1,1,,,,,,,,,,,,,,,,,,,,,,,,,,
null,,color_black,550101,black_plus_sign,,,,,null,,,,,,,,,,,,,,,,,,,,,,,,,,,,,,
null,,learn_phase(without_color),552634,black_plus_sign,,,,,null,US_Cities_List/nat_cornwall.png,US_Cities_List/nat_huntsville.png,,,,,,,,,,,,,,,,,,,,,,,,,,,,
null,,black_cross(without_color),553245,green,,,,,null,US_Cities_List/nat_cornwall.png,US_Cities_List/nat_huntsville.png,,,,,,,,,,,,,,,,,,,,,,,,,,,,
null,,rt_plussign_withcolor,553747,green,,,,,null,US_Cities_List/nat_cornwall.png,US_Cities_List/nat_huntsville.png,,,,,,,,,,,,,,,,,,,,,,,,,,,,
1355.6000001430511,,rt_thecrossant_black,555143,black_plus_sign,,,,,50,,,1,1,,,,,,,,,,,,,,,,,,,,,,,,,,
null,,color_black,555246,black_plus_sign,,,,,null,,,,,,,,,,,,,,,,,,,,,,,,,,,,,,
null,,learn_phase(without_color),557815,black_plus_sign,,,,,null,US_Cities_List/nat_westpalmbeach.png,US_Cities_List/nat_gatlinburg.png,,,,,,,,,,,,,,,,,,,,,,,,,,,,
null,,black_cross(without_color),558297,green,,,,,null,US_Cities_List/nat_westpalmbeach.png,US_Cities_List/nat_gatlinburg.png,,,,,,,,,,,,,,,,,,,,,,,,,,,,
null,,rt_plussign_withcolor,558799,green,,,,,null,US_Cities_List/nat_westpalmbeach.png,US_Cities_List/nat_gatlinburg.png,,,,,,,,,,,,,,,,,,,,,,,,,,,,
1141.0999999046326,,rt_thecrossant_black,560324,black_plus_sign,,,,,50,,,1,1,,,,,,,,,,,,,,,,,,,,,,,,,,
null,,color_black,560427,black_plus_sign,,,,,null,,,,,,,,,,,,,,,,,,,,,,,,,,,,,,
null,,learn_phase(without_color),562990,black_plus_sign,,,,,null,US_Cities_List/nat_newhope.png,US_Cities_List/nat_peoria.png,,,,,,,,,,,,,,,,,,,,,,,,,,,,
null,,black_cross(without_color),563642,green,,,,,null,US_Cities_List/nat_newhope.png,US_Cities_List/nat_peoria.png,,,,,,,,,,,,,,,,,,,,,,,,,,,,
null,,rt_plussign_withcolor,564146,green,,,,,null,US_Cities_List/nat_newhope.png,US_Cities_List/nat_peoria.png,,,,,,,,,,,,,,,,,,,,,,,,,,,,
675.0999999046326,,rt_thecrossant_black,565501,black_plus_sign,,,,,50,,,1,1,,,,,,,,,,,,,,,,,,,,,,,,,,
null,,color_black,565605,black_plus_sign,,,,,null,,,,,,,,,,,,,,,,,,,,,,,,,,,,,,
null,,learn_phase(without_color),568171,black_plus_sign,,,,,null,US_Cities_List/nat_westpalmbeach.png,US_Cities_List/nat_cornwall.png,,,,,,,,,,,,,,,,,,,,,,,,,,,,
null,,black_cross(without_color),569133,blue,,,,,null,US_Cities_List/nat_westpalmbeach.png,US_Cities_List/nat_cornwall.png,,,,,,,,,,,,,,,,,,,,,,,,,,,,
null,,rt_plussign_withcolor,569634,blue,,,,,null,US_Cities_List/nat_westpalmbeach.png,US_Cities_List/nat_cornwall.png,,,,,,,,,,,,,,,,,,,,,,,,,,,,
786.7999999523163,,rt_thecrossant_black,570679,black_plus_sign,,,,,49,,,1,1,,,,,,,,,,,,,,,,,,,,,,,,,,
null,,color_black,570782,black_plus_sign,,,,,null,,,,,,,,,,,,,,,,,,,,,,,,,,,,,,
null,,learn_phase(without_color),573352,black_plus_sign,,,,,null,US_Cities_List/nat_westpalmbeach.png,US_Cities_List/mm_carmel.png,,,,,,,,,,,,,,,,,,,,,,,,,,,,
null,,black_cross(without_color),573821,blue,,,,,null,US_Cities_List/nat_westpalmbeach.png,US_Cities_List/mm_carmel.png,,,,,,,,,,,,,,,,,,,,,,,,,,,,
null,,rt_plussign_withcolor,574323,blue,,,,,null,US_Cities_List/nat_westpalmbeach.png,US_Cities_List/mm_carmel.png,,,,,,,,,,,,,,,,,,,,,,,,,,,,
1247.5999999046326,,rt_thecrossant_black,575862,black_plus_sign,,,,,49,,,1,1,,,,,,,,,,,,,,,,,,,,,,,,,,
null,,color_black,575965,black_plus_sign,,,,,null,,,,,,,,,,,,,,,,,,,,,,,,,,,,,,
null,,learn_phase(without_color),578521,black_plus_sign,,,,,null,US_Cities_List/nat_westpalmbeach.png,US_Cities_List/nat_cornwall.png,,,,,,,,,,,,,,,,,,,,,,,,,,,,
null,,black_cross(without_color),579157,blue,,,,,null,US_Cities_List/nat_westpalmbeach.png,US_Cities_List/nat_cornwall.png,,,,,,,,,,,,,,,,,,,,,,,,,,,,
null,,rt_plussign_withcolor,579659,blue,,,,,null,US_Cities_List/nat_westpalmbeach.png,US_Cities_List/nat_cornwall.png,,,,,,,,,,,,,,,,,,,,,,,,,,,,
615.2000000476837,,rt_thecrossant_black,581030,black_plus_sign,,,,,49,,,1,1,,,,,,,,,,,,,,,,,,,,,,,,,,
null,,color_black,581133,black_plus_sign,,,,,null,,,,,,,,,,,,,,,,,,,,,,,,,,,,,,
null,,learn_phase(without_color),583694,black_plus_sign,,,,,null,US_Cities_List/mm_hotsprings.png,US_Cities_List/nat_boulder.png,,,,,,,,,,,,,,,,,,,,,,,,,,,,
null,,black_cross(without_color),584336,blue,,,,,null,US_Cities_List/mm_hotsprings.png,US_Cities_List/nat_boulder.png,,,,,,,,,,,,,,,,,,,,,,,,,,,,
null,,rt_plussign_withcolor,584839,blue,,,,,null,US_Cities_List/mm_hotsprings.png,US_Cities_List/nat_boulder.png,,,,,,,,,,,,,,,,,,,,,,,,,,,,
902.7999999523163,,rt_thecrossant_black,586203,black_plus_sign,,,,,49,,,1,1,,,,,,,,,,,,,,,,,,,,,,,,,,
null,,color_black,586307,black_plus_sign,,,,,null,,,,,,,,,,,,,,,,,,,,,,,,,,,,,,
null,,learn_phase(without_color),588871,black_plus_sign,,,,,null,US_Cities_List/nat_cornwall.png,US_Cities_List/mm_carmel.png,,,,,,,,,,,,,,,,,,,,,,,,,,,,
null,,black_cross(without_color),589964,green,,,,,null,US_Cities_List/nat_cornwall.png,US_Cities_List/mm_carmel.png,,,,,,,,,,,,,,,,,,,,,,,,,,,,
null,,rt_plussign_withcolor,590466,green,,,,,null,US_Cities_List/nat_cornwall.png,US_Cities_List/mm_carmel.png,,,,,,,,,,,,,,,,,,,,,,,,,,,,
1061.7000000476837,,rt_thecrossant_black,591380,black_plus_sign,,,,,50,,,1,1,,,,,,,,,,,,,,,,,,,,,,,,,,
null,,color_black,591485,black_plus_sign,,,,,null,,,,,,,,,,,,,,,,,,,,,,,,,,,,,,
null,,learn_phase(without_color),594018,black_plus_sign,,,,,null,US_Cities_List/nat_newhope.png,US_Cities_List/mm_leesburg.png,,,,,,,,,,,,,,,,,,,,,,,,,,,,
null,,black_cross(without_color),595007,blue,,,,,null,US_Cities_List/nat_newhope.png,US_Cities_List/mm_leesburg.png,,,,,,,,,,,,,,,,,,,,,,,,,,,,
null,,rt_plussign_withcolor,595510,blue,,,,,null,US_Cities_List/nat_newhope.png,US_Cities_List/mm_leesburg.png,,,,,,,,,,,,,,,,,,,,,,,,,,,,
1285,,rt_thecrossant_black,596528,black_plus_sign,,,,,49,,,1,1,,,,,,,,,,,,,,,,,,,,,,,,,,
null,,color_black,596631,black_plus_sign,,,,,null,,,,,,,,,,,,,,,,,,,,,,,,,,,,,,
null,,learn_phase(without_color),599190,black_plus_sign,,,,,null,US_Cities_List/nat_newhope.png,US_Cities_List/nat_peoria.png,,,,,,,,,,,,,,,,,,,,,,,,,,,,
null,,black_cross(without_color),599935,green,,,,,null,US_Cities_List/nat_newhope.png,US_Cities_List/nat_peoria.png,,,,,,,,,,,,,,,,,,,,,,,,,,,,
null,,rt_plussign_withcolor,600438,green,,,,,null,US_Cities_List/nat_newhope.png,US_Cities_List/nat_peoria.png,,,,,,,,,,,,,,,,,,,,,,,,,,,,
1602.1999998092651,,rt_thecrossant_black,601699,black_plus_sign,,,,,50,,,1,1,,,,,,,,,,,,,,,,,,,,,,,,,,
null,,color_black,601801,black_plus_sign,,,,,null,,,,,,,,,,,,,,,,,,,,,,,,,,,,,,
null,,learn_phase(without_color),604361,black_plus_sign,,,,,null,US_Cities_List/mm_carmel.png,US_Cities_List/nat_shreveport.png,,,,,,,,,,,,,,,,,,,,,,,,,,,,
null,,black_cross(without_color),604808,green,,,,,null,US_Cities_List/mm_carmel.png,US_Cities_List/nat_shreveport.png,,,,,,,,,,,,,,,,,,,,,,,,,,,,
null,,rt_plussign_withcolor,605311,green,,,,,null,US_Cities_List/mm_carmel.png,US_Cities_List/nat_shreveport.png,,,,,,,,,,,,,,,,,,,,,,,,,,,,
1070.6999998092651,,rt_thecrossant_black,606872,black_plus_sign,,,,,50,,,1,1,,,,,,,,,,,,,,,,,,,,,,,,,,
null,,color_black,606975,black_plus_sign,,,,,null,,,,,,,,,,,,,,,,,,,,,,,,,,,,,,
null,,learn_phase(without_color),609531,black_plus_sign,,,,,null,US_Cities_List/nat_cornwall.png,US_Cities_List/nat_huntsville.png,,,,,,,,,,,,,,,,,,,,,,,,,,,,
null,,black_cross(without_color),610128,blue,,,,,null,US_Cities_List/nat_cornwall.png,US_Cities_List/nat_huntsville.png,,,,,,,,,,,,,,,,,,,,,,,,,,,,
null,,rt_plussign_withcolor,610631,blue,,,,,null,US_Cities_List/nat_cornwall.png,US_Cities_List/nat_huntsville.png,,,,,,,,,,,,,,,,,,,,,,,,,,,,
739.9000000953674,,rt_thecrossant_black,612041,black_plus_sign,,,,,49,,,1,1,,,,,,,,,,,,,,,,,,,,,,,,,,
null,,color_black,612145,black_plus_sign,,,,,null,,,,,,,,,,,,,,,,,,,,,,,,,,,,,,
null,,learn_phase(without_color),614689,black_plus_sign,,,,,null,US_Cities_List/mm_hanover.png,US_Cities_List/mm_racine.png,,,,,,,,,,,,,,,,,,,,,,,,,,,,
null,,black_cross(without_color),615365,blue,,,,,null,US_Cities_List/mm_hanover.png,US_Cities_List/mm_racine.png,,,,,,,,,,,,,,,,,,,,,,,,,,,,
null,,rt_plussign_withcolor,615868,blue,,,,,null,US_Cities_List/mm_hanover.png,US_Cities_List/mm_racine.png,,,,,,,,,,,,,,,,,,,,,,,,,,,,
996.9000000953674,,rt_thecrossant_black,617200,black_plus_sign,,,,,49,,,1,1,,,,,,,,,,,,,,,,,,,,,,,,,,
null,,color_black,617303,black_plus_sign,,,,,null,,,,,,,,,,,,,,,,,,,,,,,,,,,,,,
null,,learn_phase(without_color),619845,black_plus_sign,,,,,null,US_Cities_List/nat_westpalmbeach.png,US_Cities_List/mm_carmel.png,,,,,,,,,,,,,,,,,,,,,,,,,,,,
null,,black_cross(without_color),620678,blue,,,,,null,US_Cities_List/nat_westpalmbeach.png,US_Cities_List/mm_carmel.png,,,,,,,,,,,,,,,,,,,,,,,,,,,,
null,,rt_plussign_withcolor,621181,blue,,,,,null,US_Cities_List/nat_westpalmbeach.png,US_Cities_List/mm_carmel.png,,,,,,,,,,,,,,,,,,,,,,,,,,,,
1283.2000000476837,,rt_thecrossant_black,622357,black_plus_sign,,,,,49,,,1,1,,,,,,,,,,,,,,,,,,,,,,,,,,
null,,color_black,622460,black_plus_sign,,,,,null,,,,,,,,,,,,,,,,,,,,,,,,,,,,,,
null,,learn_phase(without_color),625015,black_plus_sign,,,,,null,US_Cities_List/mm_racine.png,US_Cities_List/mm_hotsprings.png,,,,,,,,,,,,,,,,,,,,,,,,,,,,
null,,black_cross(without_color),625774,blue,,,,,null,US_Cities_List/mm_racine.png,US_Cities_List/mm_hotsprings.png,,,,,,,,,,,,,,,,,,,,,,,,,,,,
null,,rt_plussign_withcolor,626277,blue,,,,,null,US_Cities_List/mm_racine.png,US_Cities_List/mm_hotsprings.png,,,,,,,,,,,,,,,,,,,,,,,,,,,,
982.2999999523163,,rt_thecrossant_black,627524,black_plus_sign,,,,,49,,,1,1,,,,,,,,,,,,,,,,,,,,,,,,,,
null,,color_black,627628,black_plus_sign,,,,,null,,,,,,,,,,,,,,,,,,,,,,,,,,,,,,
null,,learn_phase(without_color),630187,black_plus_sign,,,,,null,US_Cities_List/nat_cornwall.png,US_Cities_List/nat_huntsville.png,,,,,,,,,,,,,,,,,,,,,,,,,,,,
null,,black_cross(without_color),631152,blue,,,,,null,US_Cities_List/nat_cornwall.png,US_Cities_List/nat_huntsville.png,,,,,,,,,,,,,,,,,,,,,,,,,,,,
null,,rt_plussign_withcolor,631655,blue,,,,,null,US_Cities_List/nat_cornwall.png,US_Cities_List/nat_huntsville.png,,,,,,,,,,,,,,,,,,,,,,,,,,,,
1064,,rt_thecrossant_black,632696,black_plus_sign,,,,,49,,,1,1,,,,,,,,,,,,,,,,,,,,,,,,,,
null,,color_black,632799,black_plus_sign,,,,,null,,,,,,,,,,,,,,,,,,,,,,,,,,,,,,
null,,learn_phase(without_color),635329,black_plus_sign,,,,,null,US_Cities_List/mm_hanover.png,US_Cities_List/mm_racine.png,,,,,,,,,,,,,,,,,,,,,,,,,,,,
null,,black_cross(without_color),636106,blue,,,,,null,US_Cities_List/mm_hanover.png,US_Cities_List/mm_racine.png,,,,,,,,,,,,,,,,,,,,,,,,,,,,
null,,rt_plussign_withcolor,636609,blue,,,,,null,US_Cities_List/mm_hanover.png,US_Cities_List/mm_racine.png,,,,,,,,,,,,,,,,,,,,,,,,,,,,
1201,,rt_thecrossant_black,637839,black_plus_sign,,,,,49,,,1,1,,,,,,,,,,,,,,,,,,,,,,,,,,
null,,color_black,637942,black_plus_sign,,,,,null,,,,,,,,,,,,,,,,,,,,,,,,,,,,,,
null,,learn_phase(without_color),640497,black_plus_sign,,,,,null,US_Cities_List/nat_cornwall.png,US_Cities_List/mm_carmel.png,,,,,,,,,,,,,,,,,,,,,,,,,,,,
null,,black_cross(without_color),641074,blue,,,,,null,US_Cities_List/nat_cornwall.png,US_Cities_List/mm_carmel.png,,,,,,,,,,,,,,,,,,,,,,,,,,,,
null,,rt_plussign_withcolor,641577,blue,,,,,null,US_Cities_List/nat_cornwall.png,US_Cities_List/mm_carmel.png,,,,,,,,,,,,,,,,,,,,,,,,,,,,
1210.5999999046326,,rt_thecrossant_black,643007,black_plus_sign,,,,,49,,,1,1,,,,,,,,,,,,,,,,,,,,,,,,,,
null,,color_black,643111,black_plus_sign,,,,,null,,,,,,,,,,,,,,,,,,,,,,,,,,,,,,
null,,learn_phase(without_color),645669,black_plus_sign,,,,,null,US_Cities_List/nat_westpalmbeach.png,US_Cities_List/nat_cornwall.png,,,,,,,,,,,,,,,,,,,,,,,,,,,,
null,,black_cross(without_color),646575,green,,,,,null,US_Cities_List/nat_westpalmbeach.png,US_Cities_List/nat_cornwall.png,,,,,,,,,,,,,,,,,,,,,,,,,,,,
null,,rt_plussign_withcolor,647078,green,,,,,null,US_Cities_List/nat_westpalmbeach.png,US_Cities_List/nat_cornwall.png,,,,,,,,,,,,,,,,,,,,,,,,,,,,
833.5,,rt_thecrossant_black,648178,black_plus_sign,,,,,50,,,1,1,,,,,,,,,,,,,,,,,,,,,,,,,,
null,,color_black,648281,black_plus_sign,,,,,null,,,,,,,,,,,,,,,,,,,,,,,,,,,,,,
null,,learn_phase(without_color),650843,black_plus_sign,,,,,null,US_Cities_List/nat_boulder.png,US_Cities_List/mm_carmel.png,,,,,,,,,,,,,,,,,,,,,,,,,,,,
null,,black_cross(without_color),651485,blue,,,,,null,US_Cities_List/nat_boulder.png,US_Cities_List/mm_carmel.png,,,,,,,,,,,,,,,,,,,,,,,,,,,,
null,,rt_plussign_withcolor,651987,blue,,,,,null,US_Cities_List/nat_boulder.png,US_Cities_List/mm_carmel.png,,,,,,,,,,,,,,,,,,,,,,,,,,,,
1101.0999999046326,,rt_thecrossant_black,653352,black_plus_sign,,,,,49,,,1,1,,,,,,,,,,,,,,,,,,,,,,,,,,
null,,color_black,653456,black_plus_sign,,,,,null,,,,,,,,,,,,,,,,,,,,,,,,,,,,,,
null,,learn_phase(without_color),656008,black_plus_sign,,,,,null,US_Cities_List/nat_westpalmbeach.png,US_Cities_List/nat_gatlinburg.png,,,,,,,,,,,,,,,,,,,,,,,,,,,,
null,,black_cross(without_color),656605,green,,,,,null,US_Cities_List/nat_westpalmbeach.png,US_Cities_List/nat_gatlinburg.png,,,,,,,,,,,,,,,,,,,,,,,,,,,,
null,,rt_plussign_withcolor,657107,green,,,,,null,US_Cities_List/nat_westpalmbeach.png,US_Cities_List/nat_gatlinburg.png,,,,,,,,,,,,,,,,,,,,,,,,,,,,
1114.5,,rt_thecrossant_black,658517,black_plus_sign,,,,,50,,,1,1,,,,,,,,,,,,,,,,,,,,,,,,,,
null,,color_black,658621,black_plus_sign,,,,,null,,,,,,,,,,,,,,,,,,,,,,,,,,,,,,
null,,learn_phase(without_color),661171,black_plus_sign,,,,,null,US_Cities_List/nat_newhope.png,US_Cities_List/nat_peoria.png,,,,,,,,,,,,,,,,,,,,,,,,,,,,
null,,black_cross(without_color),661907,green,,,,,null,US_Cities_List/nat_newhope.png,US_Cities_List/nat_peoria.png,,,,,,,,,,,,,,,,,,,,,,,,,,,,
null,,rt_plussign_withcolor,662409,green,,,,,null,US_Cities_List/nat_newhope.png,US_Cities_List/nat_peoria.png,,,,,,,,,,,,,,,,,,,,,,,,,,,,
982,,rt_thecrossant_black,663681,black_plus_sign,,,,,50,,,1,1,,,,,,,,,,,,,,,,,,,,,,,,,,
null,,color_black,663784,black_plus_sign,,,,,null,,,,,,,,,,,,,,,,,,,,,,,,,,,,,,
null,,learn_phase(without_color),666347,black_plus_sign,,,,,null,US_Cities_List/mm_racine.png,US_Cities_List/mm_hotsprings.png,,,,,,,,,,,,,,,,,,,,,,,,,,,,
null,,black_cross(without_color),667292,green,,,,,null,US_Cities_List/mm_racine.png,US_Cities_List/mm_hotsprings.png,,,,,,,,,,,,,,,,,,,,,,,,,,,,
null,,rt_plussign_withcolor,667794,green,,,,,null,US_Cities_List/mm_racine.png,US_Cities_List/mm_hotsprings.png,,,,,,,,,,,,,,,,,,,,,,,,,,,,
961.5999999046326,,rt_thecrossant_black,668857,black_plus_sign,,,,,50,,,1,1,,,,,,,,,,,,,,,,,,,,,,,,,,
null,,color_black,668961,black_plus_sign,,,,,null,,,,,,,,,,,,,,,,,,,,,,,,,,,,,,
null,,learn_phase(without_color),671490,black_plus_sign,,,,,null,US_Cities_List/mm_carmel.png,US_Cities_List/nat_shreveport.png,,,,,,,,,,,,,,,,,,,,,,,,,,,,
null,,black_cross(without_color),671926,green,,,,,null,US_Cities_List/mm_carmel.png,US_Cities_List/nat_shreveport.png,,,,,,,,,,,,,,,,,,,,,,,,,,,,
null,,rt_plussign_withcolor,672428,green,,,,,null,US_Cities_List/mm_carmel.png,US_Cities_List/nat_shreveport.png,,,,,,,,,,,,,,,,,,,,,,,,,,,,
1442.7999999523163,,rt_thecrossant_black,673999,black_plus_sign,,,,,50,,,1,1,,,,,,,,,,,,,,,,,,,,,,,,,,
null,,color_black,674102,black_plus_sign,,,,,null,,,,,,,,,,,,,,,,,,,,,,,,,,,,,,
null,,learn_phase(without_color),676661,black_plus_sign,,,,,null,US_Cities_List/mm_hotsprings.png,US_Cities_List/nat_shreveport.png,,,,,,,,,,,,,,,,,,,,,,,,,,,,
null,,black_cross(without_color),677471,green,,,,,null,US_Cities_List/mm_hotsprings.png,US_Cities_List/nat_shreveport.png,,,,,,,,,,,,,,,,,,,,,,,,,,,,
null,,rt_plussign_withcolor,677973,green,,,,,null,US_Cities_List/mm_hotsprings.png,US_Cities_List/nat_shreveport.png,,,,,,,,,,,,,,,,,,,,,,,,,,,,
900.8999998569489,,rt_thecrossant_black,679170,black_plus_sign,,,,,50,,,1,1,,,,,,,,,,,,,,,,,,,,,,,,,,
null,,color_black,679274,black_plus_sign,,,,,null,,,,,,,,,,,,,,,,,,,,,,,,,,,,,,
null,,learn_phase(without_color),681825,black_plus_sign,,,,,null,US_Cities_List/mm_hotsprings.png,US_Cities_List/nat_boulder.png,,,,,,,,,,,,,,,,,,,,,,,,,,,,
null,,black_cross(without_color),682451,blue,,,,,null,US_Cities_List/mm_hotsprings.png,US_Cities_List/nat_boulder.png,,,,,,,,,,,,,,,,,,,,,,,,,,,,
null,,rt_plussign_withcolor,682953,blue,,,,,null,US_Cities_List/mm_hotsprings.png,US_Cities_List/nat_boulder.png,,,,,,,,,,,,,,,,,,,,,,,,,,,,
976.8000001907349,,rt_thecrossant_black,684335,black_plus_sign,,,,,49,,,1,1,,,,,,,,,,,,,,,,,,,,,,,,,,
null,,color_black,684440,black_plus_sign,,,,,null,,,,,,,,,,,,,,,,,,,,,,,,,,,,,,
null,,learn_phase(without_color),686982,black_plus_sign,,,,,null,US_Cities_List/nat_westpalmbeach.png,US_Cities_List/nat_gatlinburg.png,,,,,,,,,,,,,,,,,,,,,,,,,,,,
null,,black_cross(without_color),687492,blue,,,,,null,US_Cities_List/nat_westpalmbeach.png,US_Cities_List/nat_gatlinburg.png,,,,,,,,,,,,,,,,,,,,,,,,,,,,
null,,rt_plussign_withcolor,687995,blue,,,,,null,US_Cities_List/nat_westpalmbeach.png,US_Cities_List/nat_gatlinburg.png,,,,,,,,,,,,,,,,,,,,,,,,,,,,
1514.6000001430511,,rt_thecrossant_black,689493,black_plus_sign,,,,,49,,,1,1,,,,,,,,,,,,,,,,,,,,,,,,,,
null,,color_black,689596,black_plus_sign,,,,,null,,,,,,,,,,,,,,,,,,,,,,,,,,,,,,
null,,learn_phase(without_color),692122,black_plus_sign,,,,,null,US_Cities_List/nat_newhope.png,US_Cities_List/nat_peoria.png,,,,,,,,,,,,,,,,,,,,,,,,,,,,
null,,black_cross(without_color),692781,blue,,,,,null,US_Cities_List/nat_newhope.png,US_Cities_List/nat_peoria.png,,,,,,,,,,,,,,,,,,,,,,,,,,,,
null,,rt_plussign_withcolor,693283,blue,,,,,null,US_Cities_List/nat_newhope.png,US_Cities_List/nat_peoria.png,,,,,,,,,,,,,,,,,,,,,,,,,,,,
879.5,,rt_thecrossant_black,694631,black_plus_sign,,,,,49,,,1,1,,,,,,,,,,,,,,,,,,,,,,,,,,
null,,color_black,694735,black_plus_sign,,,,,null,,,,,,,,,,,,,,,,,,,,,,,,,,,,,,
null,,learn_phase(without_color),697285,black_plus_sign,,,,,null,US_Cities_List/nat_westpalmbeach.png,US_Cities_List/mm_carmel.png,,,,,,,,,,,,,,,,,,,,,,,,,,,,
null,,black_cross(without_color),697873,green,,,,,null,US_Cities_List/nat_westpalmbeach.png,US_Cities_List/mm_carmel.png,,,,,,,,,,,,,,,,,,,,,,,,,,,,
null,,rt_plussign_withcolor,698376,green,,,,,null,US_Cities_List/nat_westpalmbeach.png,US_Cities_List/mm_carmel.png,,,,,,,,,,,,,,,,,,,,,,,,,,,,
843.7999999523163,,rt_thecrossant_black,699794,black_plus_sign,,,,,50,,,1,1,,,,,,,,,,,,,,,,,,,,,,,,,,
null,,color_black,699898,black_plus_sign,,,,,null,,,,,,,,,,,,,,,,,,,,,,,,,,,,,,
null,,learn_phase(without_color),702443,black_plus_sign,,,,,null,US_Cities_List/nat_shreveport.png,US_Cities_List/nat_peoria.png,,,,,,,,,,,,,,,,,,,,,,,,,,,,
null,,black_cross(without_color),703459,blue,,,,,null,US_Cities_List/nat_shreveport.png,US_Cities_List/nat_peoria.png,,,,,,,,,,,,,,,,,,,,,,,,,,,,
null,,rt_plussign_withcolor,703962,blue,,,,,null,US_Cities_List/nat_shreveport.png,US_Cities_List/nat_peoria.png,,,,,,,,,,,,,,,,,,,,,,,,,,,,
792,,rt_thecrossant_black,704951,black_plus_sign,,,,,49,,,1,1,,,,,,,,,,,,,,,,,,,,,,,,,,
null,,color_black,705055,black_plus_sign,,,,,null,,,,,,,,,,,,,,,,,,,,,,,,,,,,,,
null,,learn_phase(without_color),707602,black_plus_sign,,,,,null,US_Cities_List/nat_westpalmbeach.png,US_Cities_List/nat_cornwall.png,,,,,,,,,,,,,,,,,,,,,,,,,,,,
null,,black_cross(without_color),708563,green,,,,,null,US_Cities_List/nat_westpalmbeach.png,US_Cities_List/nat_cornwall.png,,,,,,,,,,,,,,,,,,,,,,,,,,,,
null,,rt_plussign_withcolor,709066,green,,,,,null,US_Cities_List/nat_westpalmbeach.png,US_Cities_List/nat_cornwall.png,,,,,,,,,,,,,,,,,,,,,,,,,,,,
1249.7999999523163,,rt_thecrossant_black,710113,black_plus_sign,,,,,50,,,1,1,,,,,,,,,,,,,,,,,,,,,,,,,,
null,,color_black,710217,black_plus_sign,,,,,null,,,,,,,,,,,,,,,,,,,,,,,,,,,,,,
null,,learn_phase(without_color),712761,black_plus_sign,,,,,null,US_Cities_List/nat_westpalmbeach.png,US_Cities_List/mm_carmel.png,,,,,,,,,,,,,,,,,,,,,,,,,,,,
null,,black_cross(without_color),713447,blue,,,,,null,US_Cities_List/nat_westpalmbeach.png,US_Cities_List/mm_carmel.png,,,,,,,,,,,,,,,,,,,,,,,,,,,,
null,,rt_plussign_withcolor,713950,blue,,,,,null,US_Cities_List/nat_westpalmbeach.png,US_Cities_List/mm_carmel.png,,,,,,,,,,,,,,,,,,,,,,,,,,,,
1095.5,,rt_thecrossant_black,715270,black_plus_sign,,,,,49,,,1,1,,,,,,,,,,,,,,,,,,,,,,,,,,
null,,color_black,715373,black_plus_sign,,,,,null,,,,,,,,,,,,,,,,,,,,,,,,,,,,,,
null,,learn_phase(without_color),717924,black_plus_sign,,,,,null,US_Cities_List/nat_shreveport.png,US_Cities_List/nat_peoria.png,,,,,,,,,,,,,,,,,,,,,,,,,,,,
null,,black_cross(without_color),718707,blue,,,,,null,US_Cities_List/nat_shreveport.png,US_Cities_List/nat_peoria.png,,,,,,,,,,,,,,,,,,,,,,,,,,,,
null,,rt_plussign_withcolor,719210,blue,,,,,null,US_Cities_List/nat_shreveport.png,US_Cities_List/nat_peoria.png,,,,,,,,,,,,,,,,,,,,,,,,,,,,
1429,,rt_thecrossant_black,720434,black_plus_sign,,,,,49,,,1,1,,,,,,,,,,,,,,,,,,,,,,,,,,
null,,color_black,720537,black_plus_sign,,,,,null,,,,,,,,,,,,,,,,,,,,,,,,,,,,,,
null,,learn_phase(without_color),723114,black_plus_sign,,,,,null,US_Cities_List/nat_cornwall.png,US_Cities_List/mm_carmel.png,,,,,,,,,,,,,,,,,,,,,,,,,,,,
null,,black_cross(without_color),723929,blue,,,,,null,US_Cities_List/nat_cornwall.png,US_Cities_List/mm_carmel.png,,,,,,,,,,,,,,,,,,,,,,,,,,,,
null,,rt_plussign_withcolor,724432,blue,,,,,null,US_Cities_List/nat_cornwall.png,US_Cities_List/mm_carmel.png,,,,,,,,,,,,,,,,,,,,,,,,,,,,
1158.5,,rt_thecrossant_black,725626,black_plus_sign,,,,,49,,,1,1,,,,,,,,,,,,,,,,,,,,,,,,,,
null,,color_black,725729,black_plus_sign,,,,,null,,,,,,,,,,,,,,,,,,,,,,,,,,,,,,
null,,learn_phase(without_color),728276,black_plus_sign,,,,,null,US_Cities_List/nat_boulder.png,US_Cities_List/nat_westpalmbeach.png,,,,,,,,,,,,,,,,,,,,,,,,,,,,
null,,black_cross(without_color),729301,blue,,,,,null,US_Cities_List/nat_boulder.png,US_Cities_List/nat_westpalmbeach.png,,,,,,,,,,,,,,,,,,,,,,,,,,,,
null,,rt_plussign_withcolor,729803,blue,,,,,null,US_Cities_List/nat_boulder.png,US_Cities_List/nat_westpalmbeach.png,,,,,,,,,,,,,,,,,,,,,,,,,,,,
1036.2000000476837,,rt_thecrossant_black,730786,black_plus_sign,,,,,49,,,1,1,,,,,,,,,,,,,,,,,,,,,,,,,,
null,,color_black,730890,black_plus_sign,,,,,null,,,,,,,,,,,,,,,,,,,,,,,,,,,,,,
null,,learn_phase(without_color),733445,black_plus_sign,,,,,null,US_Cities_List/mm_racine.png,US_Cities_List/mm_hotsprings.png,,,,,,,,,,,,,,,,,,,,,,,,,,,,
null,,black_cross(without_color),734241,green,,,,,null,US_Cities_List/mm_racine.png,US_Cities_List/mm_hotsprings.png,,,,,,,,,,,,,,,,,,,,,,,,,,,,
null,,rt_plussign_withcolor,734744,green,,,,,null,US_Cities_List/mm_racine.png,US_Cities_List/mm_hotsprings.png,,,,,,,,,,,,,,,,,,,,,,,,,,,,
null,,rt_thecrossant_black,735953,black_plus_sign,,,,,null,,,1,,,,,,,,,,,,,,,,,,,,,,,,,,,
null,,color_black,736056,black_plus_sign,,,,,null,,,,,,,,,,,,,,,,,,,,,,,,,,,,,,
null,,learn_phase(without_color),738611,black_plus_sign,,,,,null,US_Cities_List/nat_newhope.png,US_Cities_List/nat_peoria.png,,,,,,,,,,,,,,,,,,,,,,,,,,,,
null,,black_cross(without_color),739519,blue,,,,,null,US_Cities_List/nat_newhope.png,US_Cities_List/nat_peoria.png,,,,,,,,,,,,,,,,,,,,,,,,,,,,
null,,rt_plussign_withcolor,740022,blue,,,,,null,US_Cities_List/nat_newhope.png,US_Cities_List/nat_peoria.png,,,,,,,,,,,,,,,,,,,,,,,,,,,,
943.8999998569489,,rt_thecrossant_black,741121,black_plus_sign,,,,,49,,,1,1,,,,,,,,,,,,,,,,,,,,,,,,,,
null,,color_black,741225,black_plus_sign,,,,,null,,,,,,,,,,,,,,,,,,,,,,,,,,,,,,
null,,learn_phase(without_color),743779,black_plus_sign,,,,,null,US_Cities_List/mm_hotsprings.png,US_Cities_List/nat_shreveport.png,,,,,,,,,,,,,,,,,,,,,,,,,,,,
null,,black_cross(without_color),744677,green,,,,,null,US_Cities_List/mm_hotsprings.png,US_Cities_List/nat_shreveport.png,,,,,,,,,,,,,,,,,,,,,,,,,,,,
null,,rt_plussign_withcolor,745180,green,,,,,null,US_Cities_List/mm_hotsprings.png,US_Cities_List/nat_shreveport.png,,,,,,,,,,,,,,,,,,,,,,,,,,,,
1117.0999999046326,,rt_thecrossant_black,746289,black_plus_sign,,,,,50,,,1,1,,,,,,,,,,,,,,,,,,,,,,,,,,
null,,color_black,746398,black_plus_sign,,,,,null,,,,,,,,,,,,,,,,,,,,,,,,,,,,,,
null,,learn_phase(without_color),748970,black_plus_sign,,,,,null,US_Cities_List/mm_racine.png,US_Cities_List/mm_hotsprings.png,,,,,,,,,,,,,,,,,,,,,,,,,,,,
null,,black_cross(without_color),749925,blue,,,,,null,US_Cities_List/mm_racine.png,US_Cities_List/mm_hotsprings.png,,,,,,,,,,,,,,,,,,,,,,,,,,,,
null,,rt_plussign_withcolor,750428,blue,,,,,null,US_Cities_List/mm_racine.png,US_Cities_List/mm_hotsprings.png,,,,,,,,,,,,,,,,,,,,,,,,,,,,
1065.6000001430511,,rt_thecrossant_black,751480,black_plus_sign,,,,,49,,,1,1,,,,,,,,,,,,,,,,,,,,,,,,,,
null,,color_black,751584,black_plus_sign,,,,,null,,,,,,,,,,,,,,,,,,,,,,,,,,,,,,
null,,learn_phase(without_color),754134,black_plus_sign,,,,,null,US_Cities_List/nat_newhope.png,US_Cities_List/nat_peoria.png,,,,,,,,,,,,,,,,,,,,,,,,,,,,
null,,black_cross(without_color),754984,green,,,,,null,US_Cities_List/nat_newhope.png,US_Cities_List/nat_peoria.png,,,,,,,,,,,,,,,,,,,,,,,,,,,,
null,,rt_plussign_withcolor,755486,green,,,,,null,US_Cities_List/nat_newhope.png,US_Cities_List/nat_peoria.png,,,,,,,,,,,,,,,,,,,,,,,,,,,,
1342.0999999046326,,rt_thecrossant_black,756644,black_plus_sign,,,,,50,,,1,1,,,,,,,,,,,,,,,,,,,,,,,,,,
null,,color_black,756747,black_plus_sign,,,,,null,,,,,,,,,,,,,,,,,,,,,,,,,,,,,,
null,,learn_phase(without_color),759304,black_plus_sign,,,,,null,US_Cities_List/nat_westpalmbeach.png,US_Cities_List/nat_gatlinburg.png,,,,,,,,,,,,,,,,,,,,,,,,,,,,
null,,black_cross(without_color),760162,green,,,,,null,US_Cities_List/nat_westpalmbeach.png,US_Cities_List/nat_gatlinburg.png,,,,,,,,,,,,,,,,,,,,,,,,,,,,
null,,rt_plussign_withcolor,760664,green,,,,,null,US_Cities_List/nat_westpalmbeach.png,US_Cities_List/nat_gatlinburg.png,,,,,,,,,,,,,,,,,,,,,,,,,,,,
1093.5,,rt_thecrossant_black,761813,black_plus_sign,,,,,50,,,1,1,,,,,,,,,,,,,,,,,,,,,,,,,,
null,,color_black,761917,black_plus_sign,,,,,null,,,,,,,,,,,,,,,,,,,,,,,,,,,,,,
null,,learn_phase(without_color),764468,black_plus_sign,,,,,null,US_Cities_List/nat_newhope.png,US_Cities_List/mm_leesburg.png,,,,,,,,,,,,,,,,,,,,,,,,,,,,
null,,black_cross(without_color),764930,blue,,,,,null,US_Cities_List/nat_newhope.png,US_Cities_List/mm_leesburg.png,,,,,,,,,,,,,,,,,,,,,,,,,,,,
null,,rt_plussign_withcolor,765433,blue,,,,,null,US_Cities_List/nat_newhope.png,US_Cities_List/mm_leesburg.png,,,,,,,,,,,,,,,,,,,,,,,,,,,,
1703.4000000953674,,rt_thecrossant_black,766978,black_plus_sign,,,,,49,,,1,1,,,,,,,,,,,,,,,,,,,,,,,,,,
null,,color_black,767081,black_plus_sign,,,,,null,,,,,,,,,,,,,,,,,,,,,,,,,,,,,,
null,,learn_phase(without_color),769637,black_plus_sign,,,,,null,US_Cities_List/mm_hotsprings.png,US_Cities_List/nat_shreveport.png,,,,,,,,,,,,,,,,,,,,,,,,,,,,
null,,black_cross(without_color),770336,green,,,,,null,US_Cities_List/mm_hotsprings.png,US_Cities_List/nat_shreveport.png,,,,,,,,,,,,,,,,,,,,,,,,,,,,
null,,rt_plussign_withcolor,770839,green,,,,,null,US_Cities_List/mm_hotsprings.png,US_Cities_List/nat_shreveport.png,,,,,,,,,,,,,,,,,,,,,,,,,,,,
838.7000000476837,,rt_thecrossant_black,772147,black_plus_sign,,,,,50,,,1,1,,,,,,,,,,,,,,,,,,,,,,,,,,
null,,color_black,772251,black_plus_sign,,,,,null,,,,,,,,,,,,,,,,,,,,,,,,,,,,,,
null,,learn_phase(without_color),774804,black_plus_sign,,,,,null,US_Cities_List/nat_westpalmbeach.png,US_Cities_List/nat_gatlinburg.png,,,,,,,,,,,,,,,,,,,,,,,,,,,,
null,,black_cross(without_color),775679,green,,,,,null,US_Cities_List/nat_westpalmbeach.png,US_Cities_List/nat_gatlinburg.png,,,,,,,,,,,,,,,,,,,,,,,,,,,,
null,,rt_plussign_withcolor,776183,green,,,,,null,US_Cities_List/nat_westpalmbeach.png,US_Cities_List/nat_gatlinburg.png,,,,,,,,,,,,,,,,,,,,,,,,,,,,
1376.2000000476837,,rt_thecrossant_black,777312,black_plus_sign,,,,,50,,,1,1,,,,,,,,,,,,,,,,,,,,,,,,,,
null,,color_black,777416,black_plus_sign,,,,,null,,,,,,,,,,,,,,,,,,,,,,,,,,,,,,
null,,learn_phase(without_color),779972,black_plus_sign,,,,,null,US_Cities_List/nat_newhope.png,US_Cities_List/mm_leesburg.png,,,,,,,,,,,,,,,,,,,,,,,,,,,,
null,,black_cross(without_color),780868,blue,,,,,null,US_Cities_List/nat_newhope.png,US_Cities_List/mm_leesburg.png,,,,,,,,,,,,,,,,,,,,,,,,,,,,
null,,rt_plussign_withcolor,781370,blue,,,,,null,US_Cities_List/nat_newhope.png,US_Cities_List/mm_leesburg.png,,,,,,,,,,,,,,,,,,,,,,,,,,,,
1445.6999998092651,,rt_thecrossant_black,782483,black_plus_sign,,,,,49,,,1,1,,,,,,,,,,,,,,,,,,,,,,,,,,
null,,color_black,782587,black_plus_sign,,,,,null,,,,,,,,,,,,,,,,,,,,,,,,,,,,,,
null,,learn_phase(without_color),785116,black_plus_sign,,,,,null,US_Cities_List/nat_cornwall.png,US_Cities_List/mm_carmel.png,,,,,,,,,,,,,,,,,,,,,,,,,,,,
null,,black_cross(without_color),785611,green,,,,,null,US_Cities_List/nat_cornwall.png,US_Cities_List/mm_carmel.png,,,,,,,,,,,,,,,,,,,,,,,,,,,,
null,,rt_plussign_withcolor,786114,green,,,,,null,US_Cities_List/nat_cornwall.png,US_Cities_List/mm_carmel.png,,,,,,,,,,,,,,,,,,,,,,,,,,,,
1683.5999999046326,,rt_thecrossant_black,787627,black_plus_sign,,,,,50,,,1,1,,,,,,,,,,,,,,,,,,,,,,,,,,
null,,color_black,787731,black_plus_sign,,,,,null,,,,,,,,,,,,,,,,,,,,,,,,,,,,,,
null,,learn_phase(without_color),790256,black_plus_sign,,,,,null,US_Cities_List/mm_hanover.png,US_Cities_List/mm_racine.png,,,,,,,,,,,,,,,,,,,,,,,,,,,,
null,,black_cross(without_color),790916,blue,,,,,null,US_Cities_List/mm_hanover.png,US_Cities_List/mm_racine.png,,,,,,,,,,,,,,,,,,,,,,,,,,,,
null,,rt_plussign_withcolor,791419,blue,,,,,null,US_Cities_List/mm_hanover.png,US_Cities_List/mm_racine.png,,,,,,,,,,,,,,,,,,,,,,,,,,,,
807.5,,rt_thecrossant_black,792764,black_plus_sign,,,,,49,,,1,1,,,,,,,,,,,,,,,,,,,,,,,,,,
null,,color_black,792881,black_plus_sign,,,,,null,,,,,,,,,,,,,,,,,,,,,,,,,,,,,,
null,,learn_phase(without_color),795439,black_plus_sign,,,,,null,US_Cities_List/nat_westpalmbeach.png,US_Cities_List/nat_gatlinburg.png,,,,,,,,,,,,,,,,,,,,,,,,,,,,
null,,black_cross(without_color),796231,blue,,,,,null,US_Cities_List/nat_westpalmbeach.png,US_Cities_List/nat_gatlinburg.png,,,,,,,,,,,,,,,,,,,,,,,,,,,,
null,,rt_plussign_withcolor,796734,blue,,,,,null,US_Cities_List/nat_westpalmbeach.png,US_Cities_List/nat_gatlinburg.png,,,,,,,,,,,,,,,,,,,,,,,,,,,,
1634.4000000953674,,rt_thecrossant_black,797948,black_plus_sign,,,,,49,,,1,1,,,,,,,,,,,,,,,,,,,,,,,,,,
null,,color_black,798053,black_plus_sign,,,,,null,,,,,,,,,,,,,,,,,,,,,,,,,,,,,,
null,,learn_phase(without_color),800608,black_plus_sign,,,,,null,US_Cities_List/nat_boulder.png,US_Cities_List/nat_westpalmbeach.png,,,,,,,,,,,,,,,,,,,,,,,,,,,,
null,,black_cross(without_color),801488,blue,,,,,null,US_Cities_List/nat_boulder.png,US_Cities_List/nat_westpalmbeach.png,,,,,,,,,,,,,,,,,,,,,,,,,,,,
null,,rt_plussign_withcolor,801990,blue,,,,,null,US_Cities_List/nat_boulder.png,US_Cities_List/nat_westpalmbeach.png,,,,,,,,,,,,,,,,,,,,,,,,,,,,
1211.3999998569489,,rt_thecrossant_black,803115,black_plus_sign,,,,,49,,,1,1,,,,,,,,,,,,,,,,,,,,,,,,,,
null,,color_black,803219,black_plus_sign,,,,,null,,,,,,,,,,,,,,,,,,,,,,,,,,,,,,
null,,learn_phase(without_color),805770,black_plus_sign,,,,,null,US_Cities_List/nat_shreveport.png,US_Cities_List/nat_peoria.png,,,,,,,,,,,,,,,,,,,,,,,,,,,,
null,,black_cross(without_color),806324,green,,,,,null,US_Cities_List/nat_shreveport.png,US_Cities_List/nat_peoria.png,,,,,,,,,,,,,,,,,,,,,,,,,,,,
null,,rt_plussign_withcolor,806826,green,,,,,null,US_Cities_List/nat_shreveport.png,US_Cities_List/nat_peoria.png,,,,,,,,,,,,,,,,,,,,,,,,,,,,
1059.8999998569489,,rt_thecrossant_black,808279,black_plus_sign,,,,,50,,,1,1,,,,,,,,,,,,,,,,,,,,,,,,,,
null,,color_black,808384,black_plus_sign,,,,,null,,,,,,,,,,,,,,,,,,,,,,,,,,,,,,
null,,learn_phase(without_color),810928,black_plus_sign,,,,,null,US_Cities_List/mm_racine.png,US_Cities_List/nat_newhope.png,,,,,,,,,,,,,,,,,,,,,,,,,,,,
null,,black_cross(without_color),811629,green,,,,,null,US_Cities_List/mm_racine.png,US_Cities_List/nat_newhope.png,,,,,,,,,,,,,,,,,,,,,,,,,,,,
null,,rt_plussign_withcolor,812138,green,,,,,null,US_Cities_List/mm_racine.png,US_Cities_List/nat_newhope.png,,,,,,,,,,,,,,,,,,,,,,,,,,,,
950.7999999523163,,rt_thecrossant_black,813445,black_plus_sign,,,,,50,,,1,1,,,,,,,,,,,,,,,,,,,,,,,,,,
null,,color_black,813548,black_plus_sign,,,,,null,,,,,,,,,,,,,,,,,,,,,,,,,,,,,,
null,,learn_phase(without_color),816086,black_plus_sign,,,,,null,US_Cities_List/nat_boulder.png,US_Cities_List/nat_westpalmbeach.png,,,,,,,,,,,,,,,,,,,,,,,,,,,,
null,,black_cross(without_color),816768,green,,,,,null,US_Cities_List/nat_boulder.png,US_Cities_List/nat_westpalmbeach.png,,,,,,,,,,,,,,,,,,,,,,,,,,,,
null,,rt_plussign_withcolor,817271,green,,,,,null,US_Cities_List/nat_boulder.png,US_Cities_List/nat_westpalmbeach.png,,,,,,,,,,,,,,,,,,,,,,,,,,,,
1156.1999998092651,,rt_thecrossant_black,818596,black_plus_sign,,,,,50,,,1,1,,,,,,,,,,,,,,,,,,,,,,,,,,
null,,color_black,818698,black_plus_sign,,,,,null,,,,,,,,,,,,,,,,,,,,,,,,,,,,,,
null,,learn_phase(without_color),821247,black_plus_sign,,,,,null,US_Cities_List/nat_shreveport.png,US_Cities_List/nat_peoria.png,,,,,,,,,,,,,,,,,,,,,,,,,,,,
null,,black_cross(without_color),821678,green,,,,,null,US_Cities_List/nat_shreveport.png,US_Cities_List/nat_peoria.png,,,,,,,,,,,,,,,,,,,,,,,,,,,,
null,,rt_plussign_withcolor,822182,green,,,,,null,US_Cities_List/nat_shreveport.png,US_Cities_List/nat_peoria.png,,,,,,,,,,,,,,,,,,,,,,,,,,,,
970.6000001430511,,rt_thecrossant_black,823758,black_plus_sign,,,,,50,,,1,1,,,,,,,,,,,,,,,,,,,,,,,,,,
null,,color_black,823861,black_plus_sign,,,,,null,,,,,,,,,,,,,,,,,,,,,,,,,,,,,,
null,,learn_phase(without_color),826422,black_plus_sign,,,,,null,US_Cities_List/mm_carmel.png,US_Cities_List/nat_shreveport.png,,,,,,,,,,,,,,,,,,,,,,,,,,,,
null,,black_cross(without_color),827148,green,,,,,null,US_Cities_List/mm_carmel.png,US_Cities_List/nat_shreveport.png,,,,,,,,,,,,,,,,,,,,,,,,,,,,
null,,rt_plussign_withcolor,827651,green,,,,,null,US_Cities_List/mm_carmel.png,US_Cities_List/nat_shreveport.png,,,,,,,,,,,,,,,,,,,,,,,,,,,,
773.7000000476837,,rt_thecrossant_black,828932,black_plus_sign,,,,,50,,,1,1,,,,,,,,,,,,,,,,,,,,,,,,,,
null,,color_black,829035,black_plus_sign,,,,,null,,,,,,,,,,,,,,,,,,,,,,,,,,,,,,
null,,learn_phase(without_color),831603,black_plus_sign,,,,,null,US_Cities_List/mm_hotsprings.png,US_Cities_List/nat_shreveport.png,,,,,,,,,,,,,,,,,,,,,,,,,,,,
null,,black_cross(without_color),832131,green,,,,,null,US_Cities_List/mm_hotsprings.png,US_Cities_List/nat_shreveport.png,,,,,,,,,,,,,,,,,,,,,,,,,,,,
null,,rt_plussign_withcolor,832634,green,,,,,null,US_Cities_List/mm_hotsprings.png,US_Cities_List/nat_shreveport.png,,,,,,,,,,,,,,,,,,,,,,,,,,,,
1131.9000000953674,,rt_thecrossant_black,834111,black_plus_sign,,,,,50,,,1,1,,,,,,,,,,,,,,,,,,,,,,,,,,
null,,color_black,834215,black_plus_sign,,,,,null,,,,,,,,,,,,,,,,,,,,,,,,,,,,,,
null,,learn_phase(without_color),836772,black_plus_sign,,,,,null,US_Cities_List/mm_racine.png,US_Cities_List/nat_newhope.png,,,,,,,,,,,,,,,,,,,,,,,,,,,,
null,,black_cross(without_color),837363,green,,,,,null,US_Cities_List/mm_racine.png,US_Cities_List/nat_newhope.png,,,,,,,,,,,,,,,,,,,,,,,,,,,,
null,,rt_plussign_withcolor,837866,green,,,,,null,US_Cities_List/mm_racine.png,US_Cities_List/nat_newhope.png,,,,,,,,,,,,,,,,,,,,,,,,,,,,
682.5999999046326,,rt_thecrossant_black,839281,black_plus_sign,,,,,50,,,1,1,,,,,,,,,,,,,,,,,,,,,,,,,,
null,,color_black,839386,black_plus_sign,,,,,null,,,,,,,,,,,,,,,,,,,,,,,,,,,,,,
null,,learn_phase(without_color),841944,black_plus_sign,,,,,null,US_Cities_List/nat_shreveport.png,US_Cities_List/nat_peoria.png,,,,,,,,,,,,,,,,,,,,,,,,,,,,
null,,black_cross(without_color),842663,blue,,,,,null,US_Cities_List/nat_shreveport.png,US_Cities_List/nat_peoria.png,,,,,,,,,,,,,,,,,,,,,,,,,,,,
null,,rt_plussign_withcolor,843166,blue,,,,,null,US_Cities_List/nat_shreveport.png,US_Cities_List/nat_peoria.png,,,,,,,,,,,,,,,,,,,,,,,,,,,,
1418.5999999046326,,rt_thecrossant_black,844453,black_plus_sign,,,,,49,,,1,1,,,,,,,,,,,,,,,,,,,,,,,,,,
null,,color_black,844556,black_plus_sign,,,,,null,,,,,,,,,,,,,,,,,,,,,,,,,,,,,,
null,,learn_phase(without_color),847081,black_plus_sign,,,,,null,US_Cities_List/nat_boulder.png,US_Cities_List/nat_westpalmbeach.png,,,,,,,,,,,,,,,,,,,,,,,,,,,,
null,,black_cross(without_color),848003,green,,,,,null,US_Cities_List/nat_boulder.png,US_Cities_List/nat_westpalmbeach.png,,,,,,,,,,,,,,,,,,,,,,,,,,,,
null,,rt_plussign_withcolor,848507,green,,,,,null,US_Cities_List/nat_boulder.png,US_Cities_List/nat_westpalmbeach.png,,,,,,,,,,,,,,,,,,,,,,,,,,,,
1098.6999998092651,,rt_thecrossant_black,849591,black_plus_sign,,,,,50,,,1,1,,,,,,,,,,,,,,,,,,,,,,,,,,
null,,color_black,849695,black_plus_sign,,,,,null,,,,,,,,,,,,,,,,,,,,,,,,,,,,,,
null,,learn_phase(without_color),852224,black_plus_sign,,,,,null,US_Cities_List/nat_cornwall.png,US_Cities_List/mm_carmel.png,,,,,,,,,,,,,,,,,,,,,,,,,,,,
null,,black_cross(without_color),852638,green,,,,,null,US_Cities_List/nat_cornwall.png,US_Cities_List/mm_carmel.png,,,,,,,,,,,,,,,,,,,,,,,,,,,,
null,,rt_plussign_withcolor,853140,green,,,,,null,US_Cities_List/nat_cornwall.png,US_Cities_List/mm_carmel.png,,,,,,,,,,,,,,,,,,,,,,,,,,,,
1492.7999999523163,,rt_thecrossant_black,854733,black_plus_sign,,,,,50,,,1,1,,,,,,,,,,,,,,,,,,,,,,,,,,
null,,color_black,854837,black_plus_sign,,,,,null,,,,,,,,,,,,,,,,,,,,,,,,,,,,,,
null,,learn_phase(without_color),857390,black_plus_sign,,,,,null,US_Cities_List/nat_boulder.png,US_Cities_List/nat_westpalmbeach.png,,,,,,,,,,,,,,,,,,,,,,,,,,,,
null,,black_cross(without_color),858070,green,,,,,null,US_Cities_List/nat_boulder.png,US_Cities_List/nat_westpalmbeach.png,,,,,,,,,,,,,,,,,,,,,,,,,,,,
null,,rt_plussign_withcolor,858573,green,,,,,null,US_Cities_List/nat_boulder.png,US_Cities_List/nat_westpalmbeach.png,,,,,,,,,,,,,,,,,,,,,,,,,,,,
698.0999999046326,,rt_thecrossant_black,859901,black_plus_sign,,,,,50,,,1,1,,,,,,,,,,,,,,,,,,,,,,,,,,
null,,color_black,860003,black_plus_sign,,,,,null,,,,,,,,,,,,,,,,,,,,,,,,,,,,,,
null,,learn_phase(without_color),862531,black_plus_sign,,,,,null,US_Cities_List/nat_westpalmbeach.png,US_Cities_List/nat_gatlinburg.png,,,,,,,,,,,,,,,,,,,,,,,,,,,,
null,,black_cross(without_color),863634,blue,,,,,null,US_Cities_List/nat_westpalmbeach.png,US_Cities_List/nat_gatlinburg.png,,,,,,,,,,,,,,,,,,,,,,,,,,,,
null,,rt_plussign_withcolor,864136,blue,,,,,null,US_Cities_List/nat_westpalmbeach.png,US_Cities_List/nat_gatlinburg.png,,,,,,,,,,,,,,,,,,,,,,,,,,,,
861.4000000953674,,rt_thecrossant_black,865038,black_plus_sign,,,,,49,,,1,1,,,,,,,,,,,,,,,,,,,,,,,,,,
null,,color_black,865143,black_plus_sign,,,,,null,,,,,,,,,,,,,,,,,,,,,,,,,,,,,,
null,,learn_phase(without_color),867677,black_plus_sign,,,,,null,US_Cities_List/mm_racine.png,US_Cities_List/nat_newhope.png,,,,,,,,,,,,,,,,,,,,,,,,,,,,
null,,black_cross(without_color),868245,blue,,,,,null,US_Cities_List/mm_racine.png,US_Cities_List/nat_newhope.png,,,,,,,,,,,,,,,,,,,,,,,,,,,,
null,,rt_plussign_withcolor,868747,blue,,,,,null,US_Cities_List/mm_racine.png,US_Cities_List/nat_newhope.png,,,,,,,,,,,,,,,,,,,,,,,,,,,,
1404,,rt_thecrossant_black,870185,black_plus_sign,,,,,49,,,1,1,,,,,,,,,,,,,,,,,,,,,,,,,,
null,,color_black,870290,black_plus_sign,,,,,null,,,,,,,,,,,,,,,,,,,,,,,,,,,,,,
null,,learn_phase(without_color),872821,black_plus_sign,,,,,null,US_Cities_List/mm_hotsprings.png,US_Cities_List/nat_boulder.png,,,,,,,,,,,,,,,,,,,,,,,,,,,,
null,,black_cross(without_color),873632,blue,,,,,null,US_Cities_List/mm_hotsprings.png,US_Cities_List/nat_boulder.png,,,,,,,,,,,,,,,,,,,,,,,,,,,,
null,,rt_plussign_withcolor,874134,blue,,,,,null,US_Cities_List/mm_hotsprings.png,US_Cities_List/nat_boulder.png,,,,,,,,,,,,,,,,,,,,,,,,,,,,
1271,,rt_thecrossant_black,875345,black_plus_sign,,,,,49,,,1,1,,,,,,,,,,,,,,,,,,,,,,,,,,
null,,color_black,875448,black_plus_sign,,,,,null,,,,,,,,,,,,,,,,,,,,,,,,,,,,,,
null,,learn_phase(without_color),877990,black_plus_sign,,,,,null,US_Cities_List/nat_boulder.png,US_Cities_List/mm_carmel.png,,,,,,,,,,,,,,,,,,,,,,,,,,,,
null,,black_cross(without_color),878994,blue,,,,,null,US_Cities_List/nat_boulder.png,US_Cities_List/mm_carmel.png,,,,,,,,,,,,,,,,,,,,,,,,,,,,
null,,rt_plussign_withcolor,879497,blue,,,,,null,US_Cities_List/nat_boulder.png,US_Cities_List/mm_carmel.png,,,,,,,,,,,,,,,,,,,,,,,,,,,,
1378,,rt_thecrossant_black,880502,black_plus_sign,,,,,49,,,1,1,,,,,,,,,,,,,,,,,,,,,,,,,,
null,,color_black,880606,black_plus_sign,,,,,null,,,,,,,,,,,,,,,,,,,,,,,,,,,,,,
null,,learn_phase(without_color),883155,black_plus_sign,,,,,null,US_Cities_List/mm_racine.png,US_Cities_List/nat_newhope.png,,,,,,,,,,,,,,,,,,,,,,,,,,,,
null,,black_cross(without_color),884184,green,,,,,null,US_Cities_List/mm_racine.png,US_Cities_List/nat_newhope.png,,,,,,,,,,,,,,,,,,,,,,,,,,,,
null,,rt_plussign_withcolor,884687,green,,,,,null,US_Cities_List/mm_racine.png,US_Cities_List/nat_newhope.png,,,,,,,,,,,,,,,,,,,,,,,,,,,,
1231.7999999523163,,rt_thecrossant_black,885664,black_plus_sign,,,,,50,,,1,1,,,,,,,,,,,,,,,,,,,,,,,,,,
null,,color_black,885768,black_plus_sign,,,,,null,,,,,,,,,,,,,,,,,,,,,,,,,,,,,,
null,,learn_phase(without_color),888332,black_plus_sign,,,,,null,US_Cities_List/mm_hotsprings.png,US_Cities_List/nat_shreveport.png,,,,,,,,,,,,,,,,,,,,,,,,,,,,
null,,black_cross(without_color),888977,green,,,,,null,US_Cities_List/mm_hotsprings.png,US_Cities_List/nat_shreveport.png,,,,,,,,,,,,,,,,,,,,,,,,,,,,
null,,rt_plussign_withcolor,889490,green,,,,,null,US_Cities_List/mm_hotsprings.png,US_Cities_List/nat_shreveport.png,,,,,,,,,,,,,,,,,,,,,,,,,,,,
1324.5,,rt_thecrossant_black,890852,black_plus_sign,,,,,50,,,1,1,,,,,,,,,,,,,,,,,,,,,,,,,,
null,,color_black,890955,black_plus_sign,,,,,null,,,,,,,,,,,,,,,,,,,,,,,,,,,,,,
null,,learn_phase(without_color),893498,black_plus_sign,,,,,null,US_Cities_List/nat_westpalmbeach.png,US_Cities_List/mm_carmel.png,,,,,,,,,,,,,,,,,,,,,,,,,,,,
null,,black_cross(without_color),894382,blue,,,,,null,US_Cities_List/nat_westpalmbeach.png,US_Cities_List/mm_carmel.png,,,,,,,,,,,,,,,,,,,,,,,,,,,,
null,,rt_plussign_withcolor,894885,blue,,,,,null,US_Cities_List/nat_westpalmbeach.png,US_Cities_List/mm_carmel.png,,,,,,,,,,,,,,,,,,,,,,,,,,,,
855.7000000476837,,rt_thecrossant_black,896008,black_plus_sign,,,,,49,,,1,1,,,,,,,,,,,,,,,,,,,,,,,,,,
null,,color_black,896112,black_plus_sign,,,,,null,,,,,,,,,,,,,,,,,,,,,,,,,,,,,,
null,,learn_phase(without_color),898672,black_plus_sign,,,,,null,US_Cities_List/mm_racine.png,US_Cities_List/nat_newhope.png,,,,,,,,,,,,,,,,,,,,,,,,,,,,
null,,black_cross(without_color),899143,green,,,,,null,US_Cities_List/mm_racine.png,US_Cities_List/nat_newhope.png,,,,,,,,,,,,,,,,,,,,,,,,,,,,
null,,rt_plussign_withcolor,899647,green,,,,,null,US_Cities_List/mm_racine.png,US_Cities_List/nat_newhope.png,,,,,,,,,,,,,,,,,,,,,,,,,,,,
1086.2999999523163,,rt_thecrossant_black,901184,black_plus_sign,,,,,50,,,1,1,,,,,,,,,,,,,,,,,,,,,,,,,,
null,,color_black,901287,black_plus_sign,,,,,null,,,,,,,,,,,,,,,,,,,,,,,,,,,,,,
null,,learn_phase(without_color),903847,black_plus_sign,,,,,null,US_Cities_List/mm_hotsprings.png,US_Cities_List/nat_boulder.png,,,,,,,,,,,,,,,,,,,,,,,,,,,,
null,,black_cross(without_color),904424,green,,,,,null,US_Cities_List/mm_hotsprings.png,US_Cities_List/nat_boulder.png,,,,,,,,,,,,,,,,,,,,,,,,,,,,
null,,rt_plussign_withcolor,904928,green,,,,,null,US_Cities_List/mm_hotsprings.png,US_Cities_List/nat_boulder.png,,,,,,,,,,,,,,,,,,,,,,,,,,,,
679.3999998569489,,rt_thecrossant_black,906357,black_plus_sign,,,,,50,,,1,1,,,,,,,,,,,,,,,,,,,,,,,,,,
null,,color_black,906461,black_plus_sign,,,,,null,,,,,,,,,,,,,,,,,,,,,,,,,,,,,,
null,,learn_phase(without_color),909004,black_plus_sign,,,,,null,US_Cities_List/nat_westpalmbeach.png,US_Cities_List/nat_cornwall.png,,,,,,,,,,,,,,,,,,,,,,,,,,,,
null,,black_cross(without_color),909707,blue,,,,,null,US_Cities_List/nat_westpalmbeach.png,US_Cities_List/nat_cornwall.png,,,,,,,,,,,,,,,,,,,,,,,,,,,,
471.7999999523163,,rt_plussign_withcolor,910210,blue,,,,,49,US_Cities_List/nat_westpalmbeach.png,US_Cities_List/nat_cornwall.png,,,,,,,,,,,,,,,,,,,,,,,,,,,,
null,,rt_thecrossant_black,911514,black_plus_sign,,,,,null,,,1,1,,,,,,,,,,,,,,,,,,,,,,,,,,
null,,color_black,911618,black_plus_sign,,,,,null,,,,,,,,,,,,,,,,,,,,,,,,,,,,,,
null,,learn_phase(without_color),914154,black_plus_sign,,,,,null,US_Cities_List/mm_racine.png,US_Cities_List/nat_newhope.png,,,,,,,,,,,,,,,,,,,,,,,,,,,,
null,,black_cross(without_color),914993,green,,,,,null,US_Cities_List/mm_racine.png,US_Cities_List/nat_newhope.png,,,,,,,,,,,,,,,,,,,,,,,,,,,,
489.7999999523163,,rt_plussign_withcolor,915495,green,,,,,50,US_Cities_List/mm_racine.png,US_Cities_List/nat_newhope.png,,,,,,,,,,,,,,,,,,,,,,,,,,,,
null,,rt_thecrossant_black,916660,black_plus_sign,,,,,null,,,1,1,,,,,,,,,,,,,,,,,,,,,,,,,,
null,,color_black,916765,black_plus_sign,,,,,null,,,,,,,,,,,,,,,,,,,,,,,,,,,,,,
null,,learn_phase(without_color),919312,black_plus_sign,,,,,null,US_Cities_List/mm_hanover.png,US_Cities_List/mm_racine.png,,,,,,,,,,,,,,,,,,,,,,,,,,,,
null,,black_cross(without_color),919913,green,,,,,null,US_Cities_List/mm_hanover.png,US_Cities_List/mm_racine.png,,,,,,,,,,,,,,,,,,,,,,,,,,,,
null,,rt_plussign_withcolor,920417,green,,,,,null,US_Cities_List/mm_hanover.png,US_Cities_List/mm_racine.png,,,,,,,,,,,,,,,,,,,,,,,,,,,,
1156.5999999046326,,rt_thecrossant_black,921822,black_plus_sign,,,,,50,,,1,1,,,,,,,,,,,,,,,,,,,,,,,,,,
null,,color_black,921925,black_plus_sign,,,,,null,,,,,,,,,,,,,,,,,,,,,,,,,,,,,,
null,,learn_phase(without_color),924460,black_plus_sign,,,,,null,US_Cities_List/mm_hotsprings.png,US_Cities_List/nat_boulder.png,,,,,,,,,,,,,,,,,,,,,,,,,,,,
null,,black_cross(without_color),925328,blue,,,,,null,US_Cities_List/mm_hotsprings.png,US_Cities_List/nat_boulder.png,,,,,,,,,,,,,,,,,,,,,,,,,,,,
501.10000014305115,,rt_plussign_withcolor,925833,blue,,,,,49,US_Cities_List/mm_hotsprings.png,US_Cities_List/nat_boulder.png,,,,,,,,,,,,,,,,,,,,,,,,,,,,
null,,rt_thecrossant_black,926972,black_plus_sign,,,,,null,,,1,1,,,,,,,,,,,,,,,,,,,,,,,,,,
null,,color_black,927076,black_plus_sign,,,,,null,,,,,,,,,,,,,,,,,,,,,,,,,,,,,,
null,,learn_phase(without_color),929627,black_plus_sign,,,,,null,US_Cities_List/nat_newhope.png,US_Cities_List/mm_leesburg.png,,,,,,,,,,,,,,,,,,,,,,,,,,,,
null,,black_cross(without_color),930622,blue,,,,,null,US_Cities_List/nat_newhope.png,US_Cities_List/mm_leesburg.png,,,,,,,,,,,,,,,,,,,,,,,,,,,,
null,,rt_plussign_withcolor,931124,blue,,,,,null,US_Cities_List/nat_newhope.png,US_Cities_List/mm_leesburg.png,,,,,,,,,,,,,,,,,,,,,,,,,,,,
1081.1000001430511,,rt_thecrossant_black,932137,black_plus_sign,,,,,49,,,1,1,,,,,,,,,,,,,,,,,,,,,,,,,,
null,,color_black,932241,black_plus_sign,,,,,null,,,,,,,,,,,,,,,,,,,,,,,,,,,,,,
null,,learn_phase(without_color),934798,black_plus_sign,,,,,null,US_Cities_List/mm_hanover.png,US_Cities_List/mm_racine.png,,,,,,,,,,,,,,,,,,,,,,,,,,,,
null,,black_cross(without_color),935461,blue,,,,,null,US_Cities_List/mm_hanover.png,US_Cities_List/mm_racine.png,,,,,,,,,,,,,,,,,,,,,,,,,,,,
null,,rt_plussign_withcolor,935964,blue,,,,,null,US_Cities_List/mm_hanover.png,US_Cities_List/mm_racine.png,,,,,,,,,,,,,,,,,,,,,,,,,,,,
1338.5,,rt_thecrossant_black,937307,black_plus_sign,,,,,49,,,1,1,,,,,,,,,,,,,,,,,,,,,,,,,,
null,,color_black,937411,black_plus_sign,,,,,null,,,,,,,,,,,,,,,,,,,,,,,,,,,,,,
null,,learn_phase(without_color),939946,black_plus_sign,,,,,null,US_Cities_List/nat_westpalmbeach.png,US_Cities_List/mm_carmel.png,,,,,,,,,,,,,,,,,,,,,,,,,,,,
null,,black_cross(without_color),940494,green,,,,,null,US_Cities_List/nat_westpalmbeach.png,US_Cities_List/mm_carmel.png,,,,,,,,,,,,,,,,,,,,,,,,,,,,
null,,rt_plussign_withcolor,940997,green,,,,,null,US_Cities_List/nat_westpalmbeach.png,US_Cities_List/mm_carmel.png,,,,,,,,,,,,,,,,,,,,,,,,,,,,
881.5999999046326,,rt_thecrossant_black,942456,black_plus_sign,,,,,50,,,1,1,,,,,,,,,,,,,,,,,,,,,,,,,,
null,,color_black,942561,black_plus_sign,,,,,null,,,,,,,,,,,,,,,,,,,,,,,,,,,,,,
null,,learn_phase(without_color),945120,black_plus_sign,,,,,null,US_Cities_List/nat_cornwall.png,US_Cities_List/nat_huntsville.png,,,,,,,,,,,,,,,,,,,,,,,,,,,,
null,,black_cross(without_color),945631,green,,,,,null,US_Cities_List/nat_cornwall.png,US_Cities_List/nat_huntsville.png,,,,,,,,,,,,,,,,,,,,,,,,,,,,
null,,rt_plussign_withcolor,946135,green,,,,,null,US_Cities_List/nat_cornwall.png,US_Cities_List/nat_huntsville.png,,,,,,,,,,,,,,,,,,,,,,,,,,,,
694,,rt_thecrossant_black,947638,black_plus_sign,,,,,50,,,1,1,,,,,,,,,,,,,,,,,,,,,,,,,,
null,,color_black,947741,black_plus_sign,,,,,null,,,,,,,,,,,,,,,,,,,,,,,,,,,,,,
null,,learn_phase(without_color),950288,black_plus_sign,,,,,null,US_Cities_List/mm_hanover.png,US_Cities_List/mm_racine.png,,,,,,,,,,,,,,,,,,,,,,,,,,,,
null,,black_cross(without_color),951360,green,,,,,null,US_Cities_List/mm_hanover.png,US_Cities_List/mm_racine.png,,,,,,,,,,,,,,,,,,,,,,,,,,,,
null,,rt_plussign_withcolor,951862,green,,,,,null,US_Cities_List/mm_hanover.png,US_Cities_List/mm_racine.png,,,,,,,,,,,,,,,,,,,,,,,,,,,,
830.2000000476837,,rt_thecrossant_black,952797,black_plus_sign,,,,,50,,,1,1,,,,,,,,,,,,,,,,,,,,,,,,,,
null,,color_black,952899,black_plus_sign,,,,,null,,,,,,,,,,,,,,,,,,,,,,,,,,,,,,
null,,learn_phase(without_color),955427,black_plus_sign,,,,,null,US_Cities_List/nat_shreveport.png,US_Cities_List/nat_peoria.png,,,,,,,,,,,,,,,,,,,,,,,,,,,,
null,,black_cross(without_color),956176,blue,,,,,null,US_Cities_List/nat_shreveport.png,US_Cities_List/nat_peoria.png,,,,,,,,,,,,,,,,,,,,,,,,,,,,
null,,rt_plussign_withcolor,956678,blue,,,,,null,US_Cities_List/nat_shreveport.png,US_Cities_List/nat_peoria.png,,,,,,,,,,,,,,,,,,,,,,,,,,,,
1373.9000000953674,,rt_thecrossant_black,957936,black_plus_sign,,,,,49,,,1,1,,,,,,,,,,,,,,,,,,,,,,,,,,
null,,color_black,958040,black_plus_sign,,,,,null,,,,,,,,,,,,,,,,,,,,,,,,,,,,,,
null,,learn_phase(without_color),960605,black_plus_sign,,,,,null,US_Cities_List/mm_carmel.png,US_Cities_List/nat_shreveport.png,,,,,,,,,,,,,,,,,,,,,,,,,,,,
null,,black_cross(without_color),961109,blue,,,,,null,US_Cities_List/mm_carmel.png,US_Cities_List/nat_shreveport.png,,,,,,,,,,,,,,,,,,,,,,,,,,,,
null,,rt_plussign_withcolor,961611,blue,,,,,null,US_Cities_List/mm_carmel.png,US_Cities_List/nat_shreveport.png,,,,,,,,,,,,,,,,,,,,,,,,,,,,
976.0999999046326,,rt_thecrossant_black,963115,black_plus_sign,,,,,49,,,1,1,,,,,,,,,,,,,,,,,,,,,,,,,,
null,,color_black,963220,black_plus_sign,,,,,null,,,,,,,,,,,,,,,,,,,,,,,,,,,,,,
null,,learn_phase(without_color),965746,black_plus_sign,,,,,null,US_Cities_List/nat_boulder.png,US_Cities_List/nat_westpalmbeach.png,,,,,,,,,,,,,,,,,,,,,,,,,,,,
null,,black_cross(without_color),966574,blue,,,,,null,US_Cities_List/nat_boulder.png,US_Cities_List/nat_westpalmbeach.png,,,,,,,,,,,,,,,,,,,,,,,,,,,,
null,,rt_plussign_withcolor,967078,blue,,,,,null,US_Cities_List/nat_boulder.png,US_Cities_List/nat_westpalmbeach.png,,,,,,,,,,,,,,,,,,,,,,,,,,,,
643,,rt_thecrossant_black,968259,black_plus_sign,,,,,50,,,0.9914529914529915,0,,,,,,,,,,,,,,,,,,,,,,,,,,
null,,color_black,968363,black_plus_sign,,,,,null,,,,,,,,,,,,,,,,,,,,,,,,,,,,,,
null,,learn_phase(without_color),970904,black_plus_sign,,,,,null,US_Cities_List/nat_boulder.png,US_Cities_List/mm_carmel.png,,,,,,,,,,,,,,,,,,,,,,,,,,,,
null,,black_cross(without_color),971788,green,,,,,null,US_Cities_List/nat_boulder.png,US_Cities_List/mm_carmel.png,,,,,,,,,,,,,,,,,,,,,,,,,,,,
null,,rt_plussign_withcolor,972291,green,,,,,null,US_Cities_List/nat_boulder.png,US_Cities_List/mm_carmel.png,,,,,,,,,,,,,,,,,,,,,,,,,,,,
1580.7999999523163,,rt_thecrossant_black,973413,black_plus_sign,,,,,50,,,0.9915254237288136,1,,,,,,,,,,,,,,,,,,,,,,,,,,
null,,color_black,973516,black_plus_sign,,,,,null,,,,,,,,,,,,,,,,,,,,,,,,,,,,,,
null,,learn_phase(without_color),976057,black_plus_sign,,,,,null,US_Cities_List/mm_hotsprings.png,US_Cities_List/nat_boulder.png,,,,,,,,,,,,,,,,,,,,,,,,,,,,
null,,black_cross(without_color),977012,green,,,,,null,US_Cities_List/mm_hotsprings.png,US_Cities_List/nat_boulder.png,,,,,,,,,,,,,,,,,,,,,,,,,,,,
null,,rt_plussign_withcolor,977515,green,,,,,null,US_Cities_List/mm_hotsprings.png,US_Cities_List/nat_boulder.png,,,,,,,,,,,,,,,,,,,,,,,,,,,,
1586.2000000476837,,rt_thecrossant_black,978567,black_plus_sign,,,,,49,,,0.9831932773109243,0,,,,,,,,,,,,,,,,,,,,,,,,,,
null,,color_black,978670,black_plus_sign,,,,,null,,,,,,,,,,,,,,,,,,,,,,,,,,,,,,
null,,learn_phase(without_color),981229,black_plus_sign,,,,,null,US_Cities_List/nat_boulder.png,US_Cities_List/nat_westpalmbeach.png,,,,,,,,,,,,,,,,,,,,,,,,,,,,
null,,black_cross(without_color),982146,blue,,,,,null,US_Cities_List/nat_boulder.png,US_Cities_List/nat_westpalmbeach.png,,,,,,,,,,,,,,,,,,,,,,,,,,,,
null,,rt_plussign_withcolor,982649,blue,,,,,null,US_Cities_List/nat_boulder.png,US_Cities_List/nat_westpalmbeach.png,,,,,,,,,,,,,,,,,,,,,,,,,,,,
1499.5999999046326,,rt_thecrossant_black,983739,black_plus_sign,,,,,49,,,0.9833333333333333,1,,,,,,,,,,,,,,,,,,,,,,,,,,
null,,color_black,983842,black_plus_sign,,,,,null,,,,,,,,,,,,,,,,,,,,,,,,,,,,,,
null,,learn_phase(without_color),986373,black_plus_sign,,,,,null,US_Cities_List/mm_racine.png,US_Cities_List/mm_hotsprings.png,,,,,,,,,,,,,,,,,,,,,,,,,,,,
null,,black_cross(without_color),986785,blue,,,,,null,US_Cities_List/mm_racine.png,US_Cities_List/mm_hotsprings.png,,,,,,,,,,,,,,,,,,,,,,,,,,,,
null,,rt_plussign_withcolor,987288,blue,,,,,null,US_Cities_List/mm_racine.png,US_Cities_List/mm_hotsprings.png,,,,,,,,,,,,,,,,,,,,,,,,,,,,
1653.7999999523163,,rt_thecrossant_black,988883,black_plus_sign,,,,,49,,,0.9834710743801653,1,,,,,,,,,,,,,,,,,,,,,,,,,,
null,,color_black,988988,black_plus_sign,,,,,null,,,,,,,,,,,,,,,,,,,,,,,,,,,,,,
null,,learn_phase(without_color),991547,black_plus_sign,,,,,null,US_Cities_List/nat_westpalmbeach.png,US_Cities_List/nat_cornwall.png,,,,,,,,,,,,,,,,,,,,,,,,,,,,
null,,black_cross(without_color),992272,green,,,,,null,US_Cities_List/nat_westpalmbeach.png,US_Cities_List/nat_cornwall.png,,,,,,,,,,,,,,,,,,,,,,,,,,,,
null,,rt_plussign_withcolor,992775,green,,,,,null,US_Cities_List/nat_westpalmbeach.png,US_Cities_List/nat_cornwall.png,,,,,,,,,,,,,,,,,,,,,,,,,,,,
587.1999998092651,,rt_thecrossant_black,994057,black_plus_sign,,,,,50,,,0.9836065573770492,1,,,,,,,,,,,,,,,,,,,,,,,,,,
null,,color_black,994160,black_plus_sign,,,,,null,,,,,,,,,,,,,,,,,,,,,,,,,,,,,,
null,,learn_phase(without_color),996709,black_plus_sign,,,,,null,US_Cities_List/mm_carmel.png,US_Cities_List/nat_shreveport.png,,,,,,,,,,,,,,,,,,,,,,,,,,,,
null,,black_cross(without_color),997398,green,,,,,null,US_Cities_List/mm_carmel.png,US_Cities_List/nat_shreveport.png,,,,,,,,,,,,,,,,,,,,,,,,,,,,
null,,rt_plussign_withcolor,997903,green,,,,,null,US_Cities_List/mm_carmel.png,US_Cities_List/nat_shreveport.png,,,,,,,,,,,,,,,,,,,,,,,,,,,,
1125.6999998092651,,rt_thecrossant_black,999223,black_plus_sign,,,,,50,,,0.983739837398374,1,,,,,,,,,,,,,,,,,,,,,,,,,,
null,,color_black,999327,black_plus_sign,,,,,null,,,,,,,,,,,,,,,,,,,,,,,,,,,,,,
null,,learn_phase(without_color),1001877,black_plus_sign,,,,,null,US_Cities_List/nat_boulder.png,US_Cities_List/mm_carmel.png,,,,,,,,,,,,,,,,,,,,,,,,,,,,
null,,black_cross(without_color),1002498,green,,,,,null,US_Cities_List/nat_boulder.png,US_Cities_List/mm_carmel.png,,,,,,,,,,,,,,,,,,,,,,,,,,,,
null,,rt_plussign_withcolor,1003000,green,,,,,null,US_Cities_List/nat_boulder.png,US_Cities_List/mm_carmel.png,,,,,,,,,,,,,,,,,,,,,,,,,,,,
1108.2000000476837,,rt_thecrossant_black,1004386,black_plus_sign,,,,,50,,,0.9838709677419355,1,,,,,,,,,,,,,,,,,,,,,,,,,,
null,,color_black,1004489,black_plus_sign,,,,,null,,,,,,,,,,,,,,,,,,,,,,,,,,,,,,
null,,learn_phase(without_color),1007046,black_plus_sign,,,,,null,US_Cities_List/nat_cornwall.png,US_Cities_List/nat_huntsville.png,,,,,,,,,,,,,,,,,,,,,,,,,,,,
null,,black_cross(without_color),1007766,green,,,,,null,US_Cities_List/nat_cornwall.png,US_Cities_List/nat_huntsville.png,,,,,,,,,,,,,,,,,,,,,,,,,,,,
null,,rt_plussign_withcolor,1008269,green,,,,,null,US_Cities_List/nat_cornwall.png,US_Cities_List/nat_huntsville.png,,,,,,,,,,,,,,,,,,,,,,,,,,,,
978,,rt_thecrossant_black,1009555,black_plus_sign,,,,,50,,,0.984,1,,,,,,,,,,,,,,,,,,,,,,,,,,
null,,color_black,1009658,black_plus_sign,,,,,null,,,,,,,,,,,,,,,,,,,,,,,,,,,,,,
21059.300000190735,,intro_1,1030721,instruct,,,0,,,,,,,,,,,,,,,,,,,,,,,,,,,,,,,,
61312.40000009537,,intro_2,1092036,instruct,,,1,Next,,,,,,,,,,,,,,,,,,,,,,,,,,,,,,,
null,,directmemory_phase,1098614,../static/images/US_Cities_List/nat_boulder.png,,,,,null,,,0,0,../static/images/US_Cities_List/nat_westpalmbeach.png,../static/images/US_Cities_List/nat_huntsville.png,../static/images/US_Cities_List/nat_cornwall.png,../static/images/US_Cities_List/nat_westpalmbeach.png,../static/images/US_Cities_List/nat_cornwall.png,../static/images/US_Cities_List/nat_huntsville.png,0,,,,,,,,,,,,,,,,,,,
null,,html-keyboard-response,1099621,<p></p>,,,,,null,,,,,,,,,,,,,,,,,,,,,,,,,,,,,,
5171.599999904633,,directmemory_phase,1104848,../static/images/US_Cities_List/nat_shreveport.png,,,,,51,,,0.5,1,../static/images/US_Cities_List/mm_leesburg.png,../static/images/US_Cities_List/nat_newhope.png,../static/images/US_Cities_List/mm_carmel.png,../static/images/US_Cities_List/mm_carmel.png,../static/images/US_Cities_List/nat_newhope.png,../static/images/US_Cities_List/mm_leesburg.png,1,,,,,,,,,,,,,,,,,,,
null,,html-keyboard-response,1105865,<p></p>,,,,,null,,,,,,,,,,,,,,,,,,,,,,,,,,,,,,
2903.5,,directmemory_phase,1108818,../static/images/US_Cities_List/nat_peoria.png,,,,,50,,,0.3333333333333333,0,../static/images/US_Cities_List/mm_hanover.png,../static/images/US_Cities_List/mm_racine.png,../static/images/US_Cities_List/nat_newhope.png,../static/images/US_Cities_List/nat_newhope.png,../static/images/US_Cities_List/mm_racine.png,../static/images/US_Cities_List/mm_hanover.png,0.5,closer,,,,,,,,,,,,,,,,,,
null,,html-keyboard-response,1109830,<p></p>,,,,,null,,,,,,,,,,,,,,,,,,,,,,,,,,,,,,
3150.9000000953674,,directmemory_phase,1113041,../static/images/US_Cities_List/nat_westpalmbeach.png,,,,,51,,,0.5,1,../static/images/US_Cities_List/mm_hanover.png,../static/images/US_Cities_List/nat_huntsville.png,../static/images/US_Cities_List/mm_carmel.png,../static/images/US_Cities_List/mm_carmel.png,../static/images/US_Cities_List/nat_huntsville.png,../static/images/US_Cities_List/mm_hanover.png,1,,,,,,,,,,,,,,,,,,,
null,,html-keyboard-response,1114048,<p></p>,,,,,null,,,,,,,,,,,,,,,,,,,,,,,,,,,,,,
2707.199999809265,,directmemory_phase,1116800,../static/images/US_Cities_List/nat_boulder.png,,,,,49,,,0.6,1,../static/images/US_Cities_List/mm_hotsprings.png,../static/images/US_Cities_List/nat_peoria.png,../static/images/US_Cities_List/nat_shreveport.png,../static/images/US_Cities_List/mm_hotsprings.png,../static/images/US_Cities_List/nat_shreveport.png,../static/images/US_Cities_List/nat_peoria.png,1,,,,,,,,,,,,,,,,,,,
null,,html-keyboard-response,1117806,<p></p>,,,,,null,,,,,,,,,,,,,,,,,,,,,,,,,,,,,,
3021.9000000953674,,directmemory_phase,1120884,../static/images/US_Cities_List/nat_peoria.png,,,,,50,,,0.6666666666666666,1,../static/images/US_Cities_List/mm_hotsprings.png,../static/images/US_Cities_List/nat_shreveport.png,../static/images/US_Cities_List/nat_cornwall.png,../static/images/US_Cities_List/nat_shreveport.png,../static/images/US_Cities_List/mm_hotsprings.png,../static/images/US_Cities_List/nat_cornwall.png,1,,,,,,,,,,,,,,,,,,,
null,,html-keyboard-response,1121892,<p></p>,,,,,null,,,,,,,,,,,,,,,,,,,,,,,,,,,,,,
2717.100000143051,,directmemory_phase,1124657,../static/images/US_Cities_List/nat_westpalmbeach.png,,,,,51,,,0.5714285714285714,0,../static/images/US_Cities_List/nat_boulder.png,../static/images/US_Cities_List/mm_racine.png,../static/images/US_Cities_List/mm_hotsprings.png,../static/images/US_Cities_List/nat_boulder.png,../static/images/US_Cities_List/mm_hotsprings.png,../static/images/US_Cities_List/mm_racine.png,0.5,closer,,,,,,,,,,,,,,,,,,
null,,html-keyboard-response,1125665,<p></p>,,,,,null,,,,,,,,,,,,,,,,,,,,,,,,,,,,,,
2795.199999809265,,directmemory_phase,1128520,../static/images/US_Cities_List/mm_hotsprings.png,,,,,50,,,0.5,0,../static/images/US_Cities_List/nat_shreveport.png,../static/images/US_Cities_List/nat_huntsville.png,../static/images/US_Cities_List/nat_westpalmbeach.png,../static/images/US_Cities_List/nat_shreveport.png,../static/images/US_Cities_List/nat_westpalmbeach.png,../static/images/US_Cities_List/nat_huntsville.png,0.5,closer,,,,,,,,,,,,,,,,,,
null,,html-keyboard-response,1129536,<p></p>,,,,,null,,,,,,,,,,,,,,,,,,,,,,,,,,,,,,
3169.600000143051,,directmemory_phase,1132759,../static/images/US_Cities_List/mm_carmel.png,,,,,50,,,0.5555555555555556,1,../static/images/US_Cities_List/nat_gatlinburg.png,../static/images/US_Cities_List/nat_cornwall.png,../static/images/US_Cities_List/mm_leesburg.png,../static/images/US_Cities_List/nat_cornwall.png,../static/images/US_Cities_List/nat_gatlinburg.png,../static/images/US_Cities_List/mm_leesburg.png,1,,,,,,,,,,,,,,,,,,,
null,,html-keyboard-response,1133778,<p></p>,,,,,null,,,,,,,,,,,,,,,,,,,,,,,,,,,,,,
2862.5,,directmemory_phase,1136702,../static/images/US_Cities_List/mm_racine.png,,,,,50,,,0.6,1,../static/images/US_Cities_List/mm_leesburg.png,../static/images/US_Cities_List/mm_hotsprings.png,../static/images/US_Cities_List/mm_carmel.png,../static/images/US_Cities_List/mm_hotsprings.png,../static/images/US_Cities_List/mm_leesburg.png,../static/images/US_Cities_List/mm_carmel.png,1,,,,,,,,,,,,,,,,,,,
null,,html-keyboard-response,1137719,<p></p>,,,,,null,,,,,,,,,,,,,,,,,,,,,,,,,,,,,,
2761.199999809265,,directmemory_phase,1140578,../static/images/US_Cities_List/nat_huntsville.png,,,,,50,,,0.6363636363636364,1,../static/images/US_Cities_List/mm_carmel.png,../static/images/US_Cities_List/nat_cornwall.png,../static/images/US_Cities_List/nat_gatlinburg.png,../static/images/US_Cities_List/nat_cornwall.png,../static/images/US_Cities_List/mm_carmel.png,../static/images/US_Cities_List/nat_gatlinburg.png,1,,,,,,,,,,,,,,,,,,,
null,,html-keyboard-response,1141593,<p></p>,,,,,null,,,,,,,,,,,,,,,,,,,,,,,,,,,,,,
3068.5999999046326,,directmemory_phase,1144710,../static/images/US_Cities_List/mm_carmel.png,,,,,49,,,0.6666666666666666,1,../static/images/US_Cities_List/nat_westpalmbeach.png,../static/images/US_Cities_List/mm_hanover.png,../static/images/US_Cities_List/nat_huntsville.png,../static/images/US_Cities_List/nat_westpalmbeach.png,../static/images/US_Cities_List/nat_huntsville.png,../static/images/US_Cities_List/mm_hanover.png,1,,,,,,,,,,,,,,,,,,,
null,,html-keyboard-response,1145716,<p></p>,,,,,null,,,,,,,,,,,,,,,,,,,,,,,,,,,,,,
3939.600000143051,,directmemory_phase,1149708,../static/images/US_Cities_List/nat_cornwall.png,,,,,50,,,0.6923076923076923,1,../static/images/US_Cities_List/nat_boulder.png,../static/images/US_Cities_List/nat_huntsville.png,../static/images/US_Cities_List/nat_newhope.png,../static/images/US_Cities_List/nat_huntsville.png,../static/images/US_Cities_List/nat_boulder.png,../static/images/US_Cities_List/nat_newhope.png,1,,,,,,,,,,,,,,,,,,,
null,,html-keyboard-response,1150721,<p></p>,,,,,null,,,,,,,,,,,,,,,,,,,,,,,,,,,,,,
2908.5,,directmemory_phase,1153681,../static/images/US_Cities_List/mm_carmel.png,,,,,49,,,0.6428571428571429,0,../static/images/US_Cities_List/nat_peoria.png,../static/images/US_Cities_List/nat_shreveport.png,../static/images/US_Cities_List/mm_leesburg.png,../static/images/US_Cities_List/nat_shreveport.png,../static/images/US_Cities_List/nat_peoria.png,../static/images/US_Cities_List/mm_leesburg.png,0.5,closer,,,,,,,,,,,,,,,,,,
null,,html-keyboard-response,1154688,<p></p>,,,,,null,,,,,,,,,,,,,,,,,,,,,,,,,,,,,,
2779,,directmemory_phase,1157537,../static/images/US_Cities_List/nat_newhope.png,,,,,50,,,0.6666666666666666,1,../static/images/US_Cities_List/mm_hanover.png,../static/images/US_Cities_List/mm_racine.png,../static/images/US_Cities_List/nat_westpalmbeach.png,../static/images/US_Cities_List/mm_racine.png,../static/images/US_Cities_List/mm_hanover.png,../static/images/US_Cities_List/nat_westpalmbeach.png,1,,,,,,,,,,,,,,,,,,,
null,,html-keyboard-response,1158544,<p></p>,,,,,null,,,,,,,,,,,,,,,,,,,,,,,,,,,,,,
3292,,directmemory_phase,1161889,../static/images/US_Cities_List/nat_westpalmbeach.png,,,,,49,,,0.625,0,../static/images/US_Cities_List/mm_hotsprings.png,../static/images/US_Cities_List/nat_gatlinburg.png,../static/images/US_Cities_List/mm_racine.png,../static/images/US_Cities_List/nat_gatlinburg.png,../static/images/US_Cities_List/mm_hotsprings.png,../static/images/US_Cities_List/mm_racine.png,0.5,closer,,,,,,,,,,,,,,,,,,
null,,html-keyboard-response,1162895,<p></p>,,,,,null,,,,,,,,,,,,,,,,,,,,,,,,,,,,,,
2882.7999999523163,,directmemory_phase,1165835,../static/images/US_Cities_List/mm_leesburg.png,,,,,51,,,0.6470588235294118,1,../static/images/US_Cities_List/mm_hanover.png,../static/images/US_Cities_List/nat_peoria.png,../static/images/US_Cities_List/nat_newhope.png,../static/images/US_Cities_List/nat_newhope.png,../static/images/US_Cities_List/nat_peoria.png,../static/images/US_Cities_List/mm_hanover.png,1,,,,,,,,,,,,,,,,,,,
null,,html-keyboard-response,1166848,<p></p>,,,,,null,,,,,,,,,,,,,,,,,,,,,,,,,,,,,,
3553.5999999046326,,directmemory_phase,1170460,../static/images/US_Cities_List/mm_hanover.png,,,,,50,,,0.6111111111111112,0,../static/images/US_Cities_List/mm_racine.png,../static/images/US_Cities_List/nat_peoria.png,../static/images/US_Cities_List/mm_hotsprings.png,../static/images/US_Cities_List/mm_racine.png,../static/images/US_Cities_List/mm_hotsprings.png,../static/images/US_Cities_List/nat_peoria.png,0.5,closer,,,,,,,,,,,,,,,,,,
null,,html-keyboard-response,1171474,<p></p>,,,,,null,,,,,,,,,,,,,,,,,,,,,,,,,,,,,,
4132.799999952316,,directmemory_phase,1175663,../static/images/US_Cities_List/nat_newhope.png,,,,,51,,,0.631578947368421,1,../static/images/US_Cities_List/nat_westpalmbeach.png,../static/images/US_Cities_List/mm_hanover.png,../static/images/US_Cities_List/nat_peoria.png,../static/images/US_Cities_List/nat_peoria.png,../static/images/US_Cities_List/mm_hanover.png,../static/images/US_Cities_List/nat_westpalmbeach.png,1,,,,,,,,,,,,,,,,,,,
null,,html-keyboard-response,1176672,<p></p>,,,,,null,,,,,,,,,,,,,,,,,,,,,,,,,,,,,,
4734.700000047684,,directmemory_phase,1181469,../static/images/US_Cities_List/nat_gatlinburg.png,,,,,50,,,0.6,0,../static/images/US_Cities_List/nat_westpalmbeach.png,../static/images/US_Cities_List/mm_hotsprings.png,../static/images/US_Cities_List/mm_carmel.png,../static/images/US_Cities_List/nat_westpalmbeach.png,../static/images/US_Cities_List/mm_carmel.png,../static/images/US_Cities_List/mm_hotsprings.png,0.5,closer,,,,,,,,,,,,,,,,,,
null,,html-keyboard-response,1182487,<p></p>,,,,,null,,,,,,,,,,,,,,,,,,,,,,,,,,,,,,
4305.399999856949,,directmemory_phase,1186877,../static/images/US_Cities_List/mm_racine.png,,,,,51,,,0.5714285714285714,0,../static/images/US_Cities_List/nat_shreveport.png,../static/images/US_Cities_List/mm_hanover.png,../static/images/US_Cities_List/nat_gatlinburg.png,../static/images/US_Cities_List/mm_hanover.png,../static/images/US_Cities_List/nat_shreveport.png,../static/images/US_Cities_List/nat_gatlinburg.png,0.5,closer,,,,,,,,,,,,,,,,,,
null,,html-keyboard-response,1187885,<p></p>,,,,,null,,,,,,,,,,,,,,,,,,,,,,,,,,,,,,
3420.199999809265,,directmemory_phase,1191353,../static/images/US_Cities_List/nat_newhope.png,,,,,49,,,0.5454545454545454,0,../static/images/US_Cities_List/nat_westpalmbeach.png,../static/images/US_Cities_List/nat_shreveport.png,../static/images/US_Cities_List/mm_leesburg.png,../static/images/US_Cities_List/mm_leesburg.png,../static/images/US_Cities_List/nat_shreveport.png,../static/images/US_Cities_List/nat_westpalmbeach.png,0.5,closer,,,,,,,,,,,,,,,,,,
null,,html-keyboard-response,1192361,<p></p>,,,,,null,,,,,,,,,,,,,,,,,,,,,,,,,,,,,,
3283.2999999523163,,directmemory_phase,1195693,../static/images/US_Cities_List/mm_hotsprings.png,,,,,51,,,0.5652173913043478,1,../static/images/US_Cities_List/mm_leesburg.png,../static/images/US_Cities_List/mm_hanover.png,../static/images/US_Cities_List/mm_racine.png,../static/images/US_Cities_List/mm_racine.png,../static/images/US_Cities_List/mm_hanover.png,../static/images/US_Cities_List/mm_leesburg.png,1,,,,,,,,,,,,,,,,,,,
null,,html-keyboard-response,1196707,<p></p>,,,,,null,,,,,,,,,,,,,,,,,,,,,,,,,,,,,,
2111.5,,directmemory_phase,1198893,../static/images/US_Cities_List/nat_shreveport.png,,,,,49,,,0.5416666666666666,0,../static/images/US_Cities_List/nat_boulder.png,../static/images/US_Cities_List/nat_peoria.png,../static/images/US_Cities_List/nat_gatlinburg.png,../static/images/US_Cities_List/nat_peoria.png,../static/images/US_Cities_List/nat_boulder.png,../static/images/US_Cities_List/nat_gatlinburg.png,0.5,closer,,,,,,,,,,,,,,,,,,
null,,html-keyboard-response,1199906,<p></p>,,,,,null,,,,,,,,,,,,,,,,,,,,,,,,,,,,,,
1967.0999999046326,,directmemory_phase,1201923,../static/images/US_Cities_List/nat_westpalmbeach.png,,,,,49,,,0.52,0,../static/images/US_Cities_List/nat_shreveport.png,../static/images/US_Cities_List/nat_cornwall.png,../static/images/US_Cities_List/mm_racine.png,../static/images/US_Cities_List/nat_cornwall.png,../static/images/US_Cities_List/nat_shreveport.png,../static/images/US_Cities_List/mm_racine.png,0.5,closer,,,,,,,,,,,,,,,,,,
null,,html-keyboard-response,1202931,<p></p>,,,,,null,,,,,,,,,,,,,,,,,,,,,,,,,,,,,,
2475.2999999523163,,directmemory_phase,1205463,../static/images/US_Cities_List/mm_carmel.png,,,,,51,,,0.5384615384615384,1,../static/images/US_Cities_List/mm_hanover.png,../static/images/US_Cities_List/mm_hotsprings.png,../static/images/US_Cities_List/nat_boulder.png,../static/images/US_Cities_List/nat_boulder.png,../static/images/US_Cities_List/mm_hotsprings.png,../static/images/US_Cities_List/mm_hanover.png,1,,,,,,,,,,,,,,,,,,,
null,,html-keyboard-response,1206471,<p></p>,,,,,null,,,,,,,,,,,,,,,,,,,,,,,,,,,,,,
2946.399999856949,,directmemory_phase,1209478,../static/images/US_Cities_List/mm_racine.png,,,,,49,,,0.5185185185185185,0,../static/images/US_Cities_List/mm_carmel.png,../static/images/US_Cities_List/nat_peoria.png,../static/images/US_Cities_List/nat_newhope.png,../static/images/US_Cities_List/nat_newhope.png,../static/images/US_Cities_List/nat_peoria.png,../static/images/US_Cities_List/mm_carmel.png,0.5,closer,,,,,,,,,,,,,,,,,,
null,,html-keyboard-response,1210487,<p></p>,,,,,null,,,,,,,,,,,,,,,,,,,,,,,,,,,,,,
