rt,responses,trial_type,time_elapsed,stimulus,cities,city_images,button_pressed,response,key_press,stimulus_left,stimulus_right,accuracy,cumulative_accuracy,stimulus_down_left,stimulus_down_mid,stimulus_down_right,stimulus_correct,stimulus_short,stimulus_far,weighted_accuracy,missedtrial,condition,specific_pairs,imgL_ID,imgR_ID,linedress,linedressed,image_position,unknowncity,testedstates,currentstate,otherstate,problems,smooth,distraction,strategies,easier,similar,comments
26091.70000001788,{worker_id:682bff53a2a3ea5a7b4b7d92},id_enter,26098,intro,Shreveport; New Hope; Cornwall; Boulder; Racine; Carmel; Leesburg; Gatlinburg; Hanover; Huntsville; Hot Springs; West Palm Beach; Peoria,US_Cities_List/nat_shreveport.png; US_Cities_List/nat_newhope.png; US_Cities_List/nat_cornwall.png; US_Cities_List/mm_boulder.png; US_Cities_List/mm_racine.png; US_Cities_List/mm_carmel.png; US_Cities_List/mm_leesburg.png; US_Cities_List/nat_gatlinburg.png; US_Cities_List/nat_hanover.png; US_Cities_List/nat_huntsville.png; US_Cities_List/mm_hotsprings.png; US_Cities_List/mm_westpalmbeach.png; US_Cities_List/mm_peoria.png,,,,,,,,,,,,,,,,,,,,,,,,,,,,,,,,,
109550.40000000596,,fullscreen,135657,make_fullscreen,,,0,,,,,,,,,,,,,,,,,,,,,,,,,,,,,,,,
21356.90000000596,,intro_1,157016,instruct,,,0,,,,,,,,,,,,,,,,,,,,,,,,,,,,,,,,
44494,,intro_2,201512,instruct,,,1,Next,,,,,,,,,,,,,,,,,,,,,,,,,,,,,,,
39230,,intro_3,240744,instruct,,,1,Next,,,,,,,,,,,,,,,,,,,,,,,,,,,,,,,
23365.90000000596,,intro_4,264112,instruct,,,1,Next,,,,,,,,,,,,,,,,,,,,,,,,,,,,,,,
10958.300000011921,,intro_5,275072,instruct,,,1,Next,,,,,,,,,,,,,,,,,,,,,,,,,,,,,,,
52294.69999998808,,intro_6,327369,instruct,,,1,Next,,,,,,,,,,,,,,,,,,,,,,,,,,,,,,,
null,,prac_atten_color_black,328310,black_plus_sign,,,,,null,,,,,,,,,,,,,,,,,,,,,,,,,,,,,,
null,,prac_atten_color,328798,prac_stop_color,,,,,null,,,,,,,,,,,,,,,,,,,,,,,,,,,,,,
826,,prac_atten_color_black,330801,black_plus_sign,,,,,49,,,,,,,,,,,,,,,,,,,,,,,,,,,,,,
null,,prac_atten_color_black,331747,black_plus_sign,,,,,null,,,,,,,,,,,,,,,,,,,,,,,,,,,,,,
572.6999999880791,,prac_atten_color,332789,prac_stop_color,,,,,49,,,,,,,,,,,,,,,,,,,,,,,,,,,,,,
null,,prac_atten_color_black,334794,black_plus_sign,,,,,null,,,,,,,,,,,,,,,,,,,,,,,,,,,,,,
44002.79999998212,,attentioncheck_help,378800,instruct,,,,,32,,,,,,,,,,,,,,,,,,,,,,,,,,,,,,
null,,prac_atten_color_black,379191,black_plus_sign,,,,,null,,,,,,,,,,,,,,,,,,,,,,,,,,,,,,
null,,prac_atten_color,379607,prac_stop_color,,,,,null,,,,,,,,,,,,,,,,,,,,,,,,,,,,,,
774.7999999821186,,prac_atten_color_black,381611,black_plus_sign,,,,,50,,,,,,,,,,,,,,,,,,,,,,,,,,,,,,
null,,prac_atten_color_black,382613,black_plus_sign,,,,,null,,,,,,,,,,,,,,,,,,,,,,,,,,,,,,
null,,prac_atten_color,383241,prac_stop_color,,,,,null,,,,,,,,,,,,,,,,,,,,,,,,,,,,,,
70.09999999403954,,prac_atten_color_black,385249,black_plus_sign,,,,,49,,,,,,,,,,,,,,,,,,,,,,,,,,,,,,
null,,prac_atten_color_black,386043,black_plus_sign,,,,,null,,,,,,,,,,,,,,,,,,,,,,,,,,,,,,
580.8000000119209,,prac_atten_color,387087,prac_stop_color,,,,,50,,,,,,,,,,,,,,,,,,,,,,,,,,,,,,
null,,prac_atten_color_black,389095,black_plus_sign,,,,,null,,,,,,,,,,,,,,,,,,,,,,,,,,,,,,
null,,prac_atten_color_black,389471,black_plus_sign,,,,,null,,,,,,,,,,,,,,,,,,,,,,,,,,,,,,
416.2999999821186,,prac_atten_color,390121,prac_stop_color,,,,,50,,,,,,,,,,,,,,,,,,,,,,,,,,,,,,
null,,prac_atten_color_black,392127,black_plus_sign,,,,,null,,,,,,,,,,,,,,,,,,,,,,,,,,,,,,
null,,prac_atten_color_black,392894,black_plus_sign,,,,,null,,,,,,,,,,,,,,,,,,,,,,,,,,,,,,
487.30000001192093,,prac_atten_color,393786,prac_stop_color,,,,,49,,,,,,,,,,,,,,,,,,,,,,,,,,,,,,
null,,prac_atten_color_black,395789,black_plus_sign,,,,,null,,,,,,,,,,,,,,,,,,,,,,,,,,,,,,
null,,prac_atten_color_black,396321,black_plus_sign,,,,,null,,,,,,,,,,,,,,,,,,,,,,,,,,,,,,
494.2999999821186,,prac_atten_color,397350,prac_stop_color,,,,,50,,,,,,,,,,,,,,,,,,,,,,,,,,,,,,
null,,prac_atten_color_black,399359,black_plus_sign,,,,,null,,,,,,,,,,,,,,,,,,,,,,,,,,,,,,
null,,prac_atten_color_black,399745,black_plus_sign,,,,,null,,,,,,,,,,,,,,,,,,,,,,,,,,,,,,
483.2000000178814,,prac_atten_color,400797,prac_stop_color,,,,,49,,,,,,,,,,,,,,,,,,,,,,,,,,,,,,
null,,prac_atten_color_black,402805,black_plus_sign,,,,,null,,,,,,,,,,,,,,,,,,,,,,,,,,,,,,
null,,prac_atten_color_black,403165,black_plus_sign,,,,,null,,,,,,,,,,,,,,,,,,,,,,,,,,,,,,
549.1999999880791,,prac_atten_color,404037,prac_stop_color,,,,,49,,,,,,,,,,,,,,,,,,,,,,,,,,,,,,
null,,prac_atten_color_black,406047,black_plus_sign,,,,,null,,,,,,,,,,,,,,,,,,,,,,,,,,,,,,
15046.199999988079,,attentioncheck_feedback,421096,cross_check_feedback,,,0,,,,,,,,,,,,,,,,,,,,,,,,,,,,,,,,
26910.20000001788,,last_instruct,448008,instruct,,,,,32,,,,,,,,,,,,,,,,,,,,,,,,,,,,,,
null,,learn_phase(without_color),450099,black_plus_sign,,,,,null,US_Cities_List/mm_hotsprings.png,US_Cities_List/mm_westpalmbeach.png,,,,,,,,,,,,,,,,,,,,,,,,,,,,
null,,black_cross(without_color),450588,green,,,,,null,US_Cities_List/mm_hotsprings.png,US_Cities_List/mm_westpalmbeach.png,,,,,,,,,,,,,,,,,,,,,,,,,,,,
null,,rt_plussign_withcolor,451097,green,,,,,null,US_Cities_List/mm_hotsprings.png,US_Cities_List/mm_westpalmbeach.png,,,,,,,,,,,,,,,,,,,,,,,,,,,,
1146,,rt_thecrossant_black,452631,black_plus_sign,,,,,50,,,1,1,,,,,,,,,,,,,,,,,,,,,,,,,,
null,,color_black,452735,black_plus_sign,,,,,null,,,,,,,,,,,,,,,,,,,,,,,,,,,,,,
null,,learn_phase(without_color),455310,black_plus_sign,,,,,null,US_Cities_List/mm_leesburg.png,US_Cities_List/nat_hanover.png,,,,,,,,,,,,,,,,,,,,,,,,,,,,
null,,black_cross(without_color),456047,green,,,,,null,US_Cities_List/mm_leesburg.png,US_Cities_List/nat_hanover.png,,,,,,,,,,,,,,,,,,,,,,,,,,,,
null,,rt_plussign_withcolor,456556,green,,,,,null,US_Cities_List/mm_leesburg.png,US_Cities_List/nat_hanover.png,,,,,,,,,,,,,,,,,,,,,,,,,,,,
1181.2000000178814,,rt_thecrossant_black,457835,black_plus_sign,,,,,50,,,1,1,,,,,,,,,,,,,,,,,,,,,,,,,,
null,,color_black,457947,black_plus_sign,,,,,null,,,,,,,,,,,,,,,,,,,,,,,,,,,,,,
null,,learn_phase(without_color),460535,black_plus_sign,,,,,null,US_Cities_List/nat_cornwall.png,US_Cities_List/mm_hotsprings.png,,,,,,,,,,,,,,,,,,,,,,,,,,,,
null,,black_cross(without_color),460960,blue,,,,,null,US_Cities_List/nat_cornwall.png,US_Cities_List/mm_hotsprings.png,,,,,,,,,,,,,,,,,,,,,,,,,,,,
null,,rt_plussign_withcolor,461471,blue,,,,,null,US_Cities_List/nat_cornwall.png,US_Cities_List/mm_hotsprings.png,,,,,,,,,,,,,,,,,,,,,,,,,,,,
908.9000000059605,,rt_thecrossant_black,463073,black_plus_sign,,,,,49,,,1,1,,,,,,,,,,,,,,,,,,,,,,,,,,
null,,color_black,463185,black_plus_sign,,,,,null,,,,,,,,,,,,,,,,,,,,,,,,,,,,,,
null,,learn_phase(without_color),465761,black_plus_sign,,,,,null,US_Cities_List/mm_hotsprings.png,US_Cities_List/mm_westpalmbeach.png,,,,,,,,,,,,,,,,,,,,,,,,,,,,
null,,black_cross(without_color),466226,blue,,,,,null,US_Cities_List/mm_hotsprings.png,US_Cities_List/mm_westpalmbeach.png,,,,,,,,,,,,,,,,,,,,,,,,,,,,
null,,rt_plussign_withcolor,466738,blue,,,,,null,US_Cities_List/mm_hotsprings.png,US_Cities_List/mm_westpalmbeach.png,,,,,,,,,,,,,,,,,,,,,,,,,,,,
702.6999999880791,,rt_thecrossant_black,468290,black_plus_sign,,,,,49,,,1,1,,,,,,,,,,,,,,,,,,,,,,,,,,
null,,color_black,468396,black_plus_sign,,,,,null,,,,,,,,,,,,,,,,,,,,,,,,,,,,,,
null,,learn_phase(without_color),470986,black_plus_sign,,,,,null,US_Cities_List/nat_gatlinburg.png,US_Cities_List/nat_hanover.png,,,,,,,,,,,,,,,,,,,,,,,,,,,,
null,,black_cross(without_color),471625,blue,,,,,null,US_Cities_List/nat_gatlinburg.png,US_Cities_List/nat_hanover.png,,,,,,,,,,,,,,,,,,,,,,,,,,,,
null,,rt_plussign_withcolor,472134,blue,,,,,null,US_Cities_List/nat_gatlinburg.png,US_Cities_List/nat_hanover.png,,,,,,,,,,,,,,,,,,,,,,,,,,,,
563,,rt_thecrossant_black,473522,black_plus_sign,,,,,49,,,1,1,,,,,,,,,,,,,,,,,,,,,,,,,,
null,,color_black,473625,black_plus_sign,,,,,null,,,,,,,,,,,,,,,,,,,,,,,,,,,,,,
null,,learn_phase(without_color),476190,black_plus_sign,,,,,null,US_Cities_List/nat_newhope.png,US_Cities_List/mm_boulder.png,,,,,,,,,,,,,,,,,,,,,,,,,,,,
null,,black_cross(without_color),476737,blue,,,,,null,US_Cities_List/nat_newhope.png,US_Cities_List/mm_boulder.png,,,,,,,,,,,,,,,,,,,,,,,,,,,,
null,,rt_plussign_withcolor,477246,blue,,,,,null,US_Cities_List/nat_newhope.png,US_Cities_List/mm_boulder.png,,,,,,,,,,,,,,,,,,,,,,,,,,,,
919.6999999880791,,rt_thecrossant_black,478731,black_plus_sign,,,,,49,,,1,1,,,,,,,,,,,,,,,,,,,,,,,,,,
null,,color_black,478843,black_plus_sign,,,,,null,,,,,,,,,,,,,,,,,,,,,,,,,,,,,,
null,,learn_phase(without_color),481410,black_plus_sign,,,,,null,US_Cities_List/mm_hotsprings.png,US_Cities_List/mm_westpalmbeach.png,,,,,,,,,,,,,,,,,,,,,,,,,,,,
null,,black_cross(without_color),482271,blue,,,,,null,US_Cities_List/mm_hotsprings.png,US_Cities_List/mm_westpalmbeach.png,,,,,,,,,,,,,,,,,,,,,,,,,,,,
452.5,,rt_plussign_withcolor,482779,blue,,,,,49,US_Cities_List/mm_hotsprings.png,US_Cities_List/mm_westpalmbeach.png,,,,,,,,,,,,,,,,,,,,,,,,,,,,
null,,rt_thecrossant_black,483947,black_plus_sign,,,,,null,,,1,1,,,,,,,,,,,,,,,,,,,,,,,,,,
null,,color_black,484059,black_plus_sign,,,,,null,,,,,,,,,,,,,,,,,,,,,,,,,,,,,,
null,,learn_phase(without_color),486618,black_plus_sign,,,,,null,US_Cities_List/mm_leesburg.png,US_Cities_List/nat_hanover.png,,,,,,,,,,,,,,,,,,,,,,,,,,,,
null,,black_cross(without_color),487029,green,,,,,null,US_Cities_List/mm_leesburg.png,US_Cities_List/nat_hanover.png,,,,,,,,,,,,,,,,,,,,,,,,,,,,
null,,rt_plussign_withcolor,487536,green,,,,,null,US_Cities_List/mm_leesburg.png,US_Cities_List/nat_hanover.png,,,,,,,,,,,,,,,,,,,,,,,,,,,,
1184.699999988079,,rt_thecrossant_black,489142,black_plus_sign,,,,,50,,,1,1,,,,,,,,,,,,,,,,,,,,,,,,,,
null,,color_black,489255,black_plus_sign,,,,,null,,,,,,,,,,,,,,,,,,,,,,,,,,,,,,
null,,learn_phase(without_color),491826,black_plus_sign,,,,,null,US_Cities_List/nat_shreveport.png,US_Cities_List/nat_newhope.png,,,,,,,,,,,,,,,,,,,,,,,,,,,,
null,,black_cross(without_color),492375,blue,,,,,null,US_Cities_List/nat_shreveport.png,US_Cities_List/nat_newhope.png,,,,,,,,,,,,,,,,,,,,,,,,,,,,
null,,rt_plussign_withcolor,492889,blue,,,,,null,US_Cities_List/nat_shreveport.png,US_Cities_List/nat_newhope.png,,,,,,,,,,,,,,,,,,,,,,,,,,,,
621.4000000059605,,rt_thecrossant_black,494366,black_plus_sign,,,,,49,,,1,1,,,,,,,,,,,,,,,,,,,,,,,,,,
null,,color_black,494482,black_plus_sign,,,,,null,,,,,,,,,,,,,,,,,,,,,,,,,,,,,,
null,,learn_phase(without_color),497069,black_plus_sign,,,,,null,US_Cities_List/mm_leesburg.png,US_Cities_List/mm_peoria.png,,,,,,,,,,,,,,,,,,,,,,,,,,,,
null,,black_cross(without_color),497744,blue,,,,,null,US_Cities_List/mm_leesburg.png,US_Cities_List/mm_peoria.png,,,,,,,,,,,,,,,,,,,,,,,,,,,,
null,,rt_plussign_withcolor,498247,blue,,,,,null,US_Cities_List/mm_leesburg.png,US_Cities_List/mm_peoria.png,,,,,,,,,,,,,,,,,,,,,,,,,,,,
686.5,,rt_thecrossant_black,499599,black_plus_sign,,,,,49,,,1,1,,,,,,,,,,,,,,,,,,,,,,,,,,
null,,color_black,499703,black_plus_sign,,,,,null,,,,,,,,,,,,,,,,,,,,,,,,,,,,,,
null,,learn_phase(without_color),502299,black_plus_sign,,,,,null,US_Cities_List/nat_shreveport.png,US_Cities_List/nat_newhope.png,,,,,,,,,,,,,,,,,,,,,,,,,,,,
null,,black_cross(without_color),503396,blue,,,,,null,US_Cities_List/nat_shreveport.png,US_Cities_List/nat_newhope.png,,,,,,,,,,,,,,,,,,,,,,,,,,,,
null,,rt_plussign_withcolor,503901,blue,,,,,null,US_Cities_List/nat_shreveport.png,US_Cities_List/nat_newhope.png,,,,,,,,,,,,,,,,,,,,,,,,,,,,
1029.800000011921,,rt_thecrossant_black,504826,black_plus_sign,,,,,49,,,1,1,,,,,,,,,,,,,,,,,,,,,,,,,,
null,,color_black,504929,black_plus_sign,,,,,null,,,,,,,,,,,,,,,,,,,,,,,,,,,,,,
null,,learn_phase(without_color),507505,black_plus_sign,,,,,null,US_Cities_List/mm_boulder.png,US_Cities_List/mm_westpalmbeach.png,,,,,,,,,,,,,,,,,,,,,,,,,,,,
null,,black_cross(without_color),508369,blue,,,,,null,US_Cities_List/mm_boulder.png,US_Cities_List/mm_westpalmbeach.png,,,,,,,,,,,,,,,,,,,,,,,,,,,,
364.90000000596046,,rt_plussign_withcolor,508885,blue,,,,,49,US_Cities_List/mm_boulder.png,US_Cities_List/mm_westpalmbeach.png,,,,,,,,,,,,,,,,,,,,,,,,,,,,
null,,rt_thecrossant_black,510037,black_plus_sign,,,,,null,,,1,1,,,,,,,,,,,,,,,,,,,,,,,,,,
null,,color_black,510151,black_plus_sign,,,,,null,,,,,,,,,,,,,,,,,,,,,,,,,,,,,,
null,,learn_phase(without_color),512719,black_plus_sign,,,,,null,US_Cities_List/nat_cornwall.png,US_Cities_List/mm_hotsprings.png,,,,,,,,,,,,,,,,,,,,,,,,,,,,
null,,black_cross(without_color),513545,blue,,,,,null,US_Cities_List/nat_cornwall.png,US_Cities_List/mm_hotsprings.png,,,,,,,,,,,,,,,,,,,,,,,,,,,,
461.10000002384186,,rt_plussign_withcolor,514060,blue,,,,,49,US_Cities_List/nat_cornwall.png,US_Cities_List/mm_hotsprings.png,,,,,,,,,,,,,,,,,,,,,,,,,,,,
null,,rt_thecrossant_black,515251,black_plus_sign,,,,,null,,,1,1,,,,,,,,,,,,,,,,,,,,,,,,,,
null,,color_black,515355,black_plus_sign,,,,,null,,,,,,,,,,,,,,,,,,,,,,,,,,,,,,
null,,learn_phase(without_color),517917,black_plus_sign,,,,,null,US_Cities_List/nat_newhope.png,US_Cities_List/mm_boulder.png,,,,,,,,,,,,,,,,,,,,,,,,,,,,
null,,black_cross(without_color),518573,blue,,,,,null,US_Cities_List/nat_newhope.png,US_Cities_List/mm_boulder.png,,,,,,,,,,,,,,,,,,,,,,,,,,,,
412.5,,rt_plussign_withcolor,519088,blue,,,,,49,US_Cities_List/nat_newhope.png,US_Cities_List/mm_boulder.png,,,,,,,,,,,,,,,,,,,,,,,,,,,,
null,,rt_thecrossant_black,520466,black_plus_sign,,,,,null,,,1,1,,,,,,,,,,,,,,,,,,,,,,,,,,
null,,color_black,520577,black_plus_sign,,,,,null,,,,,,,,,,,,,,,,,,,,,,,,,,,,,,
null,,learn_phase(without_color),523151,black_plus_sign,,,,,null,US_Cities_List/nat_gatlinburg.png,US_Cities_List/nat_hanover.png,,,,,,,,,,,,,,,,,,,,,,,,,,,,
null,,black_cross(without_color),523567,green,,,,,null,US_Cities_List/nat_gatlinburg.png,US_Cities_List/nat_hanover.png,,,,,,,,,,,,,,,,,,,,,,,,,,,,
null,,rt_plussign_withcolor,524081,green,,,,,null,US_Cities_List/nat_gatlinburg.png,US_Cities_List/nat_hanover.png,,,,,,,,,,,,,,,,,,,,,,,,,,,,
775.6999999880791,,rt_thecrossant_black,525681,black_plus_sign,,,,,50,,,1,1,,,,,,,,,,,,,,,,,,,,,,,,,,
null,,color_black,525795,black_plus_sign,,,,,null,,,,,,,,,,,,,,,,,,,,,,,,,,,,,,
null,,learn_phase(without_color),528363,black_plus_sign,,,,,null,US_Cities_List/mm_carmel.png,US_Cities_List/nat_hanover.png,,,,,,,,,,,,,,,,,,,,,,,,,,,,
null,,black_cross(without_color),529168,green,,,,,null,US_Cities_List/mm_carmel.png,US_Cities_List/nat_hanover.png,,,,,,,,,,,,,,,,,,,,,,,,,,,,
355,,rt_plussign_withcolor,529680,green,,,,,50,US_Cities_List/mm_carmel.png,US_Cities_List/nat_hanover.png,,,,,,,,,,,,,,,,,,,,,,,,,,,,
null,,rt_thecrossant_black,530888,black_plus_sign,,,,,null,,,1,1,,,,,,,,,,,,,,,,,,,,,,,,,,
null,,color_black,530992,black_plus_sign,,,,,null,,,,,,,,,,,,,,,,,,,,,,,,,,,,,,
null,,learn_phase(without_color),533577,black_plus_sign,,,,,null,US_Cities_List/nat_gatlinburg.png,US_Cities_List/nat_huntsville.png,,,,,,,,,,,,,,,,,,,,,,,,,,,,
null,,black_cross(without_color),534427,blue,,,,,null,US_Cities_List/nat_gatlinburg.png,US_Cities_List/nat_huntsville.png,,,,,,,,,,,,,,,,,,,,,,,,,,,,
348.39999997615814,,rt_plussign_withcolor,534945,blue,,,,,49,US_Cities_List/nat_gatlinburg.png,US_Cities_List/nat_huntsville.png,,,,,,,,,,,,,,,,,,,,,,,,,,,,
null,,rt_thecrossant_black,536114,black_plus_sign,,,,,null,,,1,1,,,,,,,,,,,,,,,,,,,,,,,,,,
null,,color_black,536217,black_plus_sign,,,,,null,,,,,,,,,,,,,,,,,,,,,,,,,,,,,,
null,,learn_phase(without_color),538795,black_plus_sign,,,,,null,US_Cities_List/mm_carmel.png,US_Cities_List/mm_leesburg.png,,,,,,,,,,,,,,,,,,,,,,,,,,,,
null,,black_cross(without_color),539347,blue,,,,,null,US_Cities_List/mm_carmel.png,US_Cities_List/mm_leesburg.png,,,,,,,,,,,,,,,,,,,,,,,,,,,,
417.7000000178814,,rt_plussign_withcolor,539851,blue,,,,,50,US_Cities_List/mm_carmel.png,US_Cities_List/mm_leesburg.png,,,,,,,,,,,,,,,,,,,,,,,,,,,,
null,,rt_thecrossant_black,541321,black_plus_sign,,,,,null,,,0,0.9444444444444444,,,,,,,,,,,,,,,,,,,,,,,,,,
null,,color_black,541425,black_plus_sign,,,,,null,,,,,,,,,,,,,,,,,,,,,,,,,,,,,,
null,,learn_phase(without_color),543999,black_plus_sign,,,,,null,US_Cities_List/mm_leesburg.png,US_Cities_List/nat_gatlinburg.png,,,,,,,,,,,,,,,,,,,,,,,,,,,,
null,,black_cross(without_color),544705,green,,,,,null,US_Cities_List/mm_leesburg.png,US_Cities_List/nat_gatlinburg.png,,,,,,,,,,,,,,,,,,,,,,,,,,,,
453,,rt_plussign_withcolor,545208,green,,,,,50,US_Cities_List/mm_leesburg.png,US_Cities_List/nat_gatlinburg.png,,,,,,,,,,,,,,,,,,,,,,,,,,,,
null,,rt_thecrossant_black,546516,black_plus_sign,,,,,null,,,1,0.9473684210526315,,,,,,,,,,,,,,,,,,,,,,,,,,
null,,color_black,546627,black_plus_sign,,,,,null,,,,,,,,,,,,,,,,,,,,,,,,,,,,,,
null,,learn_phase(without_color),549203,black_plus_sign,,,,,null,US_Cities_List/nat_newhope.png,US_Cities_List/nat_cornwall.png,,,,,,,,,,,,,,,,,,,,,,,,,,,,
null,,black_cross(without_color),549899,blue,,,,,null,US_Cities_List/nat_newhope.png,US_Cities_List/nat_cornwall.png,,,,,,,,,,,,,,,,,,,,,,,,,,,,
null,,rt_plussign_withcolor,550403,blue,,,,,null,US_Cities_List/nat_newhope.png,US_Cities_List/nat_cornwall.png,,,,,,,,,,,,,,,,,,,,,,,,,,,,
828,,rt_thecrossant_black,551725,black_plus_sign,,,,,49,,,1,0.95,,,,,,,,,,,,,,,,,,,,,,,,,,
null,,color_black,551837,black_plus_sign,,,,,null,,,,,,,,,,,,,,,,,,,,,,,,,,,,,,
null,,learn_phase(without_color),554393,black_plus_sign,,,,,null,US_Cities_List/mm_boulder.png,US_Cities_List/mm_racine.png,,,,,,,,,,,,,,,,,,,,,,,,,,,,
null,,black_cross(without_color),555137,blue,,,,,null,US_Cities_List/mm_boulder.png,US_Cities_List/mm_racine.png,,,,,,,,,,,,,,,,,,,,,,,,,,,,
404.09999999403954,,rt_plussign_withcolor,555641,blue,,,,,49,US_Cities_List/mm_boulder.png,US_Cities_List/mm_racine.png,,,,,,,,,,,,,,,,,,,,,,,,,,,,
null,,rt_thecrossant_black,556909,black_plus_sign,,,,,null,,,1,0.9523809523809523,,,,,,,,,,,,,,,,,,,,,,,,,,
null,,color_black,557013,black_plus_sign,,,,,null,,,,,,,,,,,,,,,,,,,,,,,,,,,,,,
null,,learn_phase(without_color),559584,black_plus_sign,,,,,null,US_Cities_List/mm_carmel.png,US_Cities_List/nat_hanover.png,,,,,,,,,,,,,,,,,,,,,,,,,,,,
null,,black_cross(without_color),560309,blue,,,,,null,US_Cities_List/mm_carmel.png,US_Cities_List/nat_hanover.png,,,,,,,,,,,,,,,,,,,,,,,,,,,,
423.40000000596046,,rt_plussign_withcolor,560822,blue,,,,,49,US_Cities_List/mm_carmel.png,US_Cities_List/nat_hanover.png,,,,,,,,,,,,,,,,,,,,,,,,,,,,
null,,rt_thecrossant_black,562119,black_plus_sign,,,,,null,,,1,0.9545454545454546,,,,,,,,,,,,,,,,,,,,,,,,,,
null,,color_black,562231,black_plus_sign,,,,,null,,,,,,,,,,,,,,,,,,,,,,,,,,,,,,
null,,learn_phase(without_color),564812,black_plus_sign,,,,,null,US_Cities_List/mm_leesburg.png,US_Cities_List/nat_gatlinburg.png,,,,,,,,,,,,,,,,,,,,,,,,,,,,
null,,black_cross(without_color),565745,green,,,,,null,US_Cities_List/mm_leesburg.png,US_Cities_List/nat_gatlinburg.png,,,,,,,,,,,,,,,,,,,,,,,,,,,,
null,,rt_plussign_withcolor,566259,green,,,,,null,US_Cities_List/mm_leesburg.png,US_Cities_List/nat_gatlinburg.png,,,,,,,,,,,,,,,,,,,,,,,,,,,,
852.7000000178814,,rt_thecrossant_black,567347,black_plus_sign,,,,,50,,,1,0.9565217391304348,,,,,,,,,,,,,,,,,,,,,,,,,,
null,,color_black,567459,black_plus_sign,,,,,null,,,,,,,,,,,,,,,,,,,,,,,,,,,,,,
null,,learn_phase(without_color),570034,black_plus_sign,,,,,null,US_Cities_List/mm_boulder.png,US_Cities_List/mm_racine.png,,,,,,,,,,,,,,,,,,,,,,,,,,,,
null,,black_cross(without_color),571051,green,,,,,null,US_Cities_List/mm_boulder.png,US_Cities_List/mm_racine.png,,,,,,,,,,,,,,,,,,,,,,,,,,,,
null,,rt_plussign_withcolor,571555,green,,,,,null,US_Cities_List/mm_boulder.png,US_Cities_List/mm_racine.png,,,,,,,,,,,,,,,,,,,,,,,,,,,,
1148.4000000059605,,rt_thecrossant_black,572549,black_plus_sign,,,,,49,,,0,0.9166666666666666,,,,,,,,,,,,,,,,,,,,,,,,,,
null,,color_black,572653,black_plus_sign,,,,,null,,,,,,,,,,,,,,,,,,,,,,,,,,,,,,
null,,learn_phase(without_color),575230,black_plus_sign,,,,,null,US_Cities_List/mm_leesburg.png,US_Cities_List/mm_peoria.png,,,,,,,,,,,,,,,,,,,,,,,,,,,,
null,,black_cross(without_color),576134,green,,,,,null,US_Cities_List/mm_leesburg.png,US_Cities_List/mm_peoria.png,,,,,,,,,,,,,,,,,,,,,,,,,,,,
437.09999999403954,,rt_plussign_withcolor,576637,green,,,,,50,US_Cities_List/mm_leesburg.png,US_Cities_List/mm_peoria.png,,,,,,,,,,,,,,,,,,,,,,,,,,,,
null,,rt_thecrossant_black,577761,black_plus_sign,,,,,null,,,1,0.92,,,,,,,,,,,,,,,,,,,,,,,,,,
null,,color_black,577865,black_plus_sign,,,,,null,,,,,,,,,,,,,,,,,,,,,,,,,,,,,,
null,,learn_phase(without_color),580454,black_plus_sign,,,,,null,US_Cities_List/nat_newhope.png,US_Cities_List/nat_cornwall.png,,,,,,,,,,,,,,,,,,,,,,,,,,,,
null,,black_cross(without_color),581133,green,,,,,null,US_Cities_List/nat_newhope.png,US_Cities_List/nat_cornwall.png,,,,,,,,,,,,,,,,,,,,,,,,,,,,
407.90000000596046,,rt_plussign_withcolor,581637,green,,,,,50,US_Cities_List/nat_newhope.png,US_Cities_List/nat_cornwall.png,,,,,,,,,,,,,,,,,,,,,,,,,,,,
null,,rt_thecrossant_black,582975,black_plus_sign,,,,,null,,,1,0.9230769230769231,,,,,,,,,,,,,,,,,,,,,,,,,,
null,,color_black,583087,black_plus_sign,,,,,null,,,,,,,,,,,,,,,,,,,,,,,,,,,,,,
null,,learn_phase(without_color),585662,black_plus_sign,,,,,null,US_Cities_List/mm_hotsprings.png,US_Cities_List/mm_westpalmbeach.png,,,,,,,,,,,,,,,,,,,,,,,,,,,,
null,,black_cross(without_color),586337,blue,,,,,null,US_Cities_List/mm_hotsprings.png,US_Cities_List/mm_westpalmbeach.png,,,,,,,,,,,,,,,,,,,,,,,,,,,,
null,,rt_plussign_withcolor,586846,blue,,,,,null,US_Cities_List/mm_hotsprings.png,US_Cities_List/mm_westpalmbeach.png,,,,,,,,,,,,,,,,,,,,,,,,,,,,
909.8999999761581,,rt_thecrossant_black,588195,black_plus_sign,,,,,49,,,1,0.9259259259259259,,,,,,,,,,,,,,,,,,,,,,,,,,
null,,color_black,588299,black_plus_sign,,,,,null,,,,,,,,,,,,,,,,,,,,,,,,,,,,,,
null,,learn_phase(without_color),590868,black_plus_sign,,,,,null,US_Cities_List/nat_gatlinburg.png,US_Cities_List/nat_huntsville.png,,,,,,,,,,,,,,,,,,,,,,,,,,,,
null,,black_cross(without_color),591541,green,,,,,null,US_Cities_List/nat_gatlinburg.png,US_Cities_List/nat_huntsville.png,,,,,,,,,,,,,,,,,,,,,,,,,,,,
null,,rt_plussign_withcolor,592046,green,,,,,null,US_Cities_List/nat_gatlinburg.png,US_Cities_List/nat_huntsville.png,,,,,,,,,,,,,,,,,,,,,,,,,,,,
850.1999999880791,,rt_thecrossant_black,593401,black_plus_sign,,,,,50,,,1,0.9285714285714286,,,,,,,,,,,,,,,,,,,,,,,,,,
null,,color_black,593512,black_plus_sign,,,,,null,,,,,,,,,,,,,,,,,,,,,,,,,,,,,,
null,,learn_phase(without_color),596094,black_plus_sign,,,,,null,US_Cities_List/nat_gatlinburg.png,US_Cities_List/nat_hanover.png,,,,,,,,,,,,,,,,,,,,,,,,,,,,
null,,black_cross(without_color),597001,green,,,,,null,US_Cities_List/nat_gatlinburg.png,US_Cities_List/nat_hanover.png,,,,,,,,,,,,,,,,,,,,,,,,,,,,
390,,rt_plussign_withcolor,597513,green,,,,,50,US_Cities_List/nat_gatlinburg.png,US_Cities_List/nat_hanover.png,,,,,,,,,,,,,,,,,,,,,,,,,,,,
null,,rt_thecrossant_black,598636,black_plus_sign,,,,,null,,,1,0.9310344827586207,,,,,,,,,,,,,,,,,,,,,,,,,,
null,,color_black,598748,black_plus_sign,,,,,null,,,,,,,,,,,,,,,,,,,,,,,,,,,,,,
null,,learn_phase(without_color),601312,black_plus_sign,,,,,null,US_Cities_List/mm_leesburg.png,US_Cities_List/mm_peoria.png,,,,,,,,,,,,,,,,,,,,,,,,,,,,
null,,black_cross(without_color),601848,green,,,,,null,US_Cities_List/mm_leesburg.png,US_Cities_List/mm_peoria.png,,,,,,,,,,,,,,,,,,,,,,,,,,,,
473.10000002384186,,rt_plussign_withcolor,602357,green,,,,,49,US_Cities_List/mm_leesburg.png,US_Cities_List/mm_peoria.png,,,,,,,,,,,,,,,,,,,,,,,,,,,,
null,,rt_thecrossant_black,603842,black_plus_sign,,,,,null,,,0,0.9,,,,,,,,,,,,,,,,,,,,,,,,,,
null,,color_black,603946,black_plus_sign,,,,,null,,,,,,,,,,,,,,,,,,,,,,,,,,,,,,
null,,learn_phase(without_color),606518,black_plus_sign,,,,,null,US_Cities_List/mm_hotsprings.png,US_Cities_List/mm_westpalmbeach.png,,,,,,,,,,,,,,,,,,,,,,,,,,,,
null,,black_cross(without_color),607330,green,,,,,null,US_Cities_List/mm_hotsprings.png,US_Cities_List/mm_westpalmbeach.png,,,,,,,,,,,,,,,,,,,,,,,,,,,,
null,,rt_plussign_withcolor,607837,green,,,,,null,US_Cities_List/mm_hotsprings.png,US_Cities_List/mm_westpalmbeach.png,,,,,,,,,,,,,,,,,,,,,,,,,,,,
674.9000000059605,,rt_thecrossant_black,609046,black_plus_sign,,,,,50,,,1,0.9032258064516129,,,,,,,,,,,,,,,,,,,,,,,,,,
null,,color_black,609158,black_plus_sign,,,,,null,,,,,,,,,,,,,,,,,,,,,,,,,,,,,,
null,,learn_phase(without_color),611743,black_plus_sign,,,,,null,US_Cities_List/nat_hanover.png,US_Cities_List/mm_hotsprings.png,,,,,,,,,,,,,,,,,,,,,,,,,,,,
null,,black_cross(without_color),612799,green,,,,,null,US_Cities_List/nat_hanover.png,US_Cities_List/mm_hotsprings.png,,,,,,,,,,,,,,,,,,,,,,,,,,,,
382.09999999403954,,rt_plussign_withcolor,613311,green,,,,,50,US_Cities_List/nat_hanover.png,US_Cities_List/mm_hotsprings.png,,,,,,,,,,,,,,,,,,,,,,,,,,,,
null,,rt_thecrossant_black,614272,black_plus_sign,,,,,null,,,1,0.90625,,,,,,,,,,,,,,,,,,,,,,,,,,
null,,color_black,614376,black_plus_sign,,,,,null,,,,,,,,,,,,,,,,,,,,,,,,,,,,,,
null,,learn_phase(without_color),616953,black_plus_sign,,,,,null,US_Cities_List/mm_boulder.png,US_Cities_List/mm_westpalmbeach.png,,,,,,,,,,,,,,,,,,,,,,,,,,,,
null,,black_cross(without_color),618022,blue,,,,,null,US_Cities_List/mm_boulder.png,US_Cities_List/mm_westpalmbeach.png,,,,,,,,,,,,,,,,,,,,,,,,,,,,
444,,rt_plussign_withcolor,618524,blue,,,,,49,US_Cities_List/mm_boulder.png,US_Cities_List/mm_westpalmbeach.png,,,,,,,,,,,,,,,,,,,,,,,,,,,,
null,,rt_thecrossant_black,619485,black_plus_sign,,,,,null,,,1,0.9090909090909091,,,,,,,,,,,,,,,,,,,,,,,,,,
null,,color_black,619597,black_plus_sign,,,,,null,,,,,,,,,,,,,,,,,,,,,,,,,,,,,,
null,,learn_phase(without_color),622164,black_plus_sign,,,,,null,US_Cities_List/nat_newhope.png,US_Cities_List/nat_cornwall.png,,,,,,,,,,,,,,,,,,,,,,,,,,,,
null,,black_cross(without_color),622675,blue,,,,,null,US_Cities_List/nat_newhope.png,US_Cities_List/nat_cornwall.png,,,,,,,,,,,,,,,,,,,,,,,,,,,,
467.19999998807907,,rt_plussign_withcolor,623192,blue,,,,,49,US_Cities_List/nat_newhope.png,US_Cities_List/nat_cornwall.png,,,,,,,,,,,,,,,,,,,,,,,,,,,,
null,,rt_thecrossant_black,624701,black_plus_sign,,,,,null,,,1,0.9117647058823529,,,,,,,,,,,,,,,,,,,,,,,,,,
null,,color_black,624813,black_plus_sign,,,,,null,,,,,,,,,,,,,,,,,,,,,,,,,,,,,,
null,,learn_phase(without_color),627402,black_plus_sign,,,,,null,US_Cities_List/nat_cornwall.png,US_Cities_List/mm_carmel.png,,,,,,,,,,,,,,,,,,,,,,,,,,,,
null,,black_cross(without_color),628395,green,,,,,null,US_Cities_List/nat_cornwall.png,US_Cities_List/mm_carmel.png,,,,,,,,,,,,,,,,,,,,,,,,,,,,
458.09999999403954,,rt_plussign_withcolor,628910,green,,,,,50,US_Cities_List/nat_cornwall.png,US_Cities_List/mm_carmel.png,,,,,,,,,,,,,,,,,,,,,,,,,,,,
null,,rt_thecrossant_black,629937,black_plus_sign,,,,,null,,,1,0.9142857142857143,,,,,,,,,,,,,,,,,,,,,,,,,,
null,,color_black,630049,black_plus_sign,,,,,null,,,,,,,,,,,,,,,,,,,,,,,,,,,,,,
null,,learn_phase(without_color),632627,black_plus_sign,,,,,null,US_Cities_List/nat_newhope.png,US_Cities_List/mm_boulder.png,,,,,,,,,,,,,,,,,,,,,,,,,,,,
null,,black_cross(without_color),633647,green,,,,,null,US_Cities_List/nat_newhope.png,US_Cities_List/mm_boulder.png,,,,,,,,,,,,,,,,,,,,,,,,,,,,
389.19999998807907,,rt_plussign_withcolor,634158,green,,,,,50,US_Cities_List/nat_newhope.png,US_Cities_List/mm_boulder.png,,,,,,,,,,,,,,,,,,,,,,,,,,,,
null,,rt_thecrossant_black,635148,black_plus_sign,,,,,null,,,1,0.9166666666666666,,,,,,,,,,,,,,,,,,,,,,,,,,
null,,color_black,635252,black_plus_sign,,,,,null,,,,,,,,,,,,,,,,,,,,,,,,,,,,,,
null,,learn_phase(without_color),637831,black_plus_sign,,,,,null,US_Cities_List/mm_carmel.png,US_Cities_List/nat_hanover.png,,,,,,,,,,,,,,,,,,,,,,,,,,,,
null,,black_cross(without_color),638385,green,,,,,null,US_Cities_List/mm_carmel.png,US_Cities_List/nat_hanover.png,,,,,,,,,,,,,,,,,,,,,,,,,,,,
471.09999999403954,,rt_plussign_withcolor,638890,green,,,,,50,US_Cities_List/mm_carmel.png,US_Cities_List/nat_hanover.png,,,,,,,,,,,,,,,,,,,,,,,,,,,,
null,,rt_thecrossant_black,640348,black_plus_sign,,,,,null,,,1,0.918918918918919,,,,,,,,,,,,,,,,,,,,,,,,,,
null,,color_black,640465,black_plus_sign,,,,,null,,,,,,,,,,,,,,,,,,,,,,,,,,,,,,
null,,learn_phase(without_color),643056,black_plus_sign,,,,,null,US_Cities_List/mm_carmel.png,US_Cities_List/mm_leesburg.png,,,,,,,,,,,,,,,,,,,,,,,,,,,,
null,,black_cross(without_color),644074,blue,,,,,null,US_Cities_List/mm_carmel.png,US_Cities_List/mm_leesburg.png,,,,,,,,,,,,,,,,,,,,,,,,,,,,
412.19999998807907,,rt_plussign_withcolor,644585,blue,,,,,49,US_Cities_List/mm_carmel.png,US_Cities_List/mm_leesburg.png,,,,,,,,,,,,,,,,,,,,,,,,,,,,
null,,rt_thecrossant_black,645587,black_plus_sign,,,,,null,,,1,0.9210526315789473,,,,,,,,,,,,,,,,,,,,,,,,,,
null,,color_black,645699,black_plus_sign,,,,,null,,,,,,,,,,,,,,,,,,,,,,,,,,,,,,
null,,learn_phase(without_color),648267,black_plus_sign,,,,,null,US_Cities_List/nat_newhope.png,US_Cities_List/mm_boulder.png,,,,,,,,,,,,,,,,,,,,,,,,,,,,
null,,black_cross(without_color),648887,green,,,,,null,US_Cities_List/nat_newhope.png,US_Cities_List/mm_boulder.png,,,,,,,,,,,,,,,,,,,,,,,,,,,,
447.5,,rt_plussign_withcolor,649393,green,,,,,50,US_Cities_List/nat_newhope.png,US_Cities_List/mm_boulder.png,,,,,,,,,,,,,,,,,,,,,,,,,,,,
null,,rt_thecrossant_black,650792,black_plus_sign,,,,,null,,,1,0.9230769230769231,,,,,,,,,,,,,,,,,,,,,,,,,,
null,,color_black,650896,black_plus_sign,,,,,null,,,,,,,,,,,,,,,,,,,,,,,,,,,,,,
null,,learn_phase(without_color),653485,black_plus_sign,,,,,null,US_Cities_List/nat_gatlinburg.png,US_Cities_List/nat_hanover.png,,,,,,,,,,,,,,,,,,,,,,,,,,,,
null,,black_cross(without_color),654425,blue,,,,,null,US_Cities_List/nat_gatlinburg.png,US_Cities_List/nat_hanover.png,,,,,,,,,,,,,,,,,,,,,,,,,,,,
null,,rt_plussign_withcolor,654941,blue,,,,,null,US_Cities_List/nat_gatlinburg.png,US_Cities_List/nat_hanover.png,,,,,,,,,,,,,,,,,,,,,,,,,,,,
716.5,,rt_thecrossant_black,656013,black_plus_sign,,,,,50,,,0,0.9,,,,,,,,,,,,,,,,,,,,,,,,,,
null,,color_black,656125,black_plus_sign,,,,,null,,,,,,,,,,,,,,,,,,,,,,,,,,,,,,
null,,learn_phase(without_color),658712,black_plus_sign,,,,,null,US_Cities_List/nat_gatlinburg.png,US_Cities_List/nat_huntsville.png,,,,,,,,,,,,,,,,,,,,,,,,,,,,
null,,black_cross(without_color),659176,green,,,,,null,US_Cities_List/nat_gatlinburg.png,US_Cities_List/nat_huntsville.png,,,,,,,,,,,,,,,,,,,,,,,,,,,,
465.89999997615814,,rt_plussign_withcolor,659690,green,,,,,50,US_Cities_List/nat_gatlinburg.png,US_Cities_List/nat_huntsville.png,,,,,,,,,,,,,,,,,,,,,,,,,,,,
null,,rt_thecrossant_black,661247,black_plus_sign,,,,,null,,,1,0.9024390243902439,,,,,,,,,,,,,,,,,,,,,,,,,,
null,,color_black,661352,black_plus_sign,,,,,null,,,,,,,,,,,,,,,,,,,,,,,,,,,,,,
null,,learn_phase(without_color),663945,black_plus_sign,,,,,null,US_Cities_List/mm_leesburg.png,US_Cities_List/nat_hanover.png,,,,,,,,,,,,,,,,,,,,,,,,,,,,
null,,black_cross(without_color),664721,blue,,,,,null,US_Cities_List/mm_leesburg.png,US_Cities_List/nat_hanover.png,,,,,,,,,,,,,,,,,,,,,,,,,,,,
null,,rt_plussign_withcolor,665227,blue,,,,,null,US_Cities_List/mm_leesburg.png,US_Cities_List/nat_hanover.png,,,,,,,,,,,,,,,,,,,,,,,,,,,,
620.8000000119209,,rt_thecrossant_black,666467,black_plus_sign,,,,,49,,,1,0.9047619047619048,,,,,,,,,,,,,,,,,,,,,,,,,,
null,,color_black,666579,black_plus_sign,,,,,null,,,,,,,,,,,,,,,,,,,,,,,,,,,,,,
null,,learn_phase(without_color),669179,black_plus_sign,,,,,null,US_Cities_List/nat_newhope.png,US_Cities_List/mm_boulder.png,,,,,,,,,,,,,,,,,,,,,,,,,,,,
null,,black_cross(without_color),669816,green,,,,,null,US_Cities_List/nat_newhope.png,US_Cities_List/mm_boulder.png,,,,,,,,,,,,,,,,,,,,,,,,,,,,
435.80000001192093,,rt_plussign_withcolor,670325,green,,,,,50,US_Cities_List/nat_newhope.png,US_Cities_List/mm_boulder.png,,,,,,,,,,,,,,,,,,,,,,,,,,,,
null,,rt_thecrossant_black,671703,black_plus_sign,,,,,null,,,1,0.9069767441860465,,,,,,,,,,,,,,,,,,,,,,,,,,
null,,color_black,671814,black_plus_sign,,,,,null,,,,,,,,,,,,,,,,,,,,,,,,,,,,,,
null,,learn_phase(without_color),674395,black_plus_sign,,,,,null,US_Cities_List/nat_newhope.png,US_Cities_List/nat_cornwall.png,,,,,,,,,,,,,,,,,,,,,,,,,,,,
null,,black_cross(without_color),675099,green,,,,,null,US_Cities_List/nat_newhope.png,US_Cities_List/nat_cornwall.png,,,,,,,,,,,,,,,,,,,,,,,,,,,,
477.69999998807907,,rt_plussign_withcolor,675603,green,,,,,50,US_Cities_List/nat_newhope.png,US_Cities_List/nat_cornwall.png,,,,,,,,,,,,,,,,,,,,,,,,,,,,
null,,rt_thecrossant_black,676932,black_plus_sign,,,,,null,,,1,0.9090909090909091,,,,,,,,,,,,,,,,,,,,,,,,,,
null,,color_black,677046,black_plus_sign,,,,,null,,,,,,,,,,,,,,,,,,,,,,,,,,,,,,
null,,learn_phase(without_color),679627,black_plus_sign,,,,,null,US_Cities_List/mm_boulder.png,US_Cities_List/mm_racine.png,,,,,,,,,,,,,,,,,,,,,,,,,,,,
null,,black_cross(without_color),680067,blue,,,,,null,US_Cities_List/mm_boulder.png,US_Cities_List/mm_racine.png,,,,,,,,,,,,,,,,,,,,,,,,,,,,
null,,rt_plussign_withcolor,680571,blue,,,,,null,US_Cities_List/mm_boulder.png,US_Cities_List/mm_racine.png,,,,,,,,,,,,,,,,,,,,,,,,,,,,
855.2999999821186,,rt_thecrossant_black,682150,black_plus_sign,,,,,49,,,1,0.9111111111111111,,,,,,,,,,,,,,,,,,,,,,,,,,
null,,color_black,682262,black_plus_sign,,,,,null,,,,,,,,,,,,,,,,,,,,,,,,,,,,,,
null,,learn_phase(without_color),684848,black_plus_sign,,,,,null,US_Cities_List/nat_cornwall.png,US_Cities_List/mm_carmel.png,,,,,,,,,,,,,,,,,,,,,,,,,,,,
null,,black_cross(without_color),685699,green,,,,,null,US_Cities_List/nat_cornwall.png,US_Cities_List/mm_carmel.png,,,,,,,,,,,,,,,,,,,,,,,,,,,,
398.09999999403954,,rt_plussign_withcolor,686215,green,,,,,50,US_Cities_List/nat_cornwall.png,US_Cities_List/mm_carmel.png,,,,,,,,,,,,,,,,,,,,,,,,,,,,
null,,rt_thecrossant_black,687385,black_plus_sign,,,,,null,,,1,0.9130434782608695,,,,,,,,,,,,,,,,,,,,,,,,,,
null,,color_black,687489,black_plus_sign,,,,,null,,,,,,,,,,,,,,,,,,,,,,,,,,,,,,
null,,learn_phase(without_color),690079,black_plus_sign,,,,,null,US_Cities_List/nat_newhope.png,US_Cities_List/mm_boulder.png,,,,,,,,,,,,,,,,,,,,,,,,,,,,
null,,black_cross(without_color),691183,green,,,,,null,US_Cities_List/nat_newhope.png,US_Cities_List/mm_boulder.png,,,,,,,,,,,,,,,,,,,,,,,,,,,,
390,,rt_plussign_withcolor,691695,green,,,,,50,US_Cities_List/nat_newhope.png,US_Cities_List/mm_boulder.png,,,,,,,,,,,,,,,,,,,,,,,,,,,,
null,,rt_thecrossant_black,692602,black_plus_sign,,,,,null,,,1,0.9148936170212766,,,,,,,,,,,,,,,,,,,,,,,,,,
null,,color_black,692706,black_plus_sign,,,,,null,,,,,,,,,,,,,,,,,,,,,,,,,,,,,,
null,,learn_phase(without_color),695274,black_plus_sign,,,,,null,US_Cities_List/mm_leesburg.png,US_Cities_List/nat_gatlinburg.png,,,,,,,,,,,,,,,,,,,,,,,,,,,,
null,,black_cross(without_color),696221,blue,,,,,null,US_Cities_List/mm_leesburg.png,US_Cities_List/nat_gatlinburg.png,,,,,,,,,,,,,,,,,,,,,,,,,,,,
null,,rt_plussign_withcolor,696733,blue,,,,,null,US_Cities_List/mm_leesburg.png,US_Cities_List/nat_gatlinburg.png,,,,,,,,,,,,,,,,,,,,,,,,,,,,
1202.800000011921,,rt_thecrossant_black,697810,black_plus_sign,,,,,49,,,1,0.9166666666666666,,,,,,,,,,,,,,,,,,,,,,,,,,
null,,color_black,697914,black_plus_sign,,,,,null,,,,,,,,,,,,,,,,,,,,,,,,,,,,,,
null,,learn_phase(without_color),700495,black_plus_sign,,,,,null,US_Cities_List/nat_gatlinburg.png,US_Cities_List/nat_hanover.png,,,,,,,,,,,,,,,,,,,,,,,,,,,,
null,,black_cross(without_color),701111,blue,,,,,null,US_Cities_List/nat_gatlinburg.png,US_Cities_List/nat_hanover.png,,,,,,,,,,,,,,,,,,,,,,,,,,,,
394.2000000178814,,rt_plussign_withcolor,701623,blue,,,,,50,US_Cities_List/nat_gatlinburg.png,US_Cities_List/nat_hanover.png,,,,,,,,,,,,,,,,,,,,,,,,,,,,
null,,rt_thecrossant_black,703031,black_plus_sign,,,,,null,,,0,0.8979591836734694,,,,,,,,,,,,,,,,,,,,,,,,,,
null,,color_black,703135,black_plus_sign,,,,,null,,,,,,,,,,,,,,,,,,,,,,,,,,,,,,
null,,learn_phase(without_color),705721,black_plus_sign,,,,,null,US_Cities_List/nat_gatlinburg.png,US_Cities_List/nat_huntsville.png,,,,,,,,,,,,,,,,,,,,,,,,,,,,
null,,black_cross(without_color),706491,green,,,,,null,US_Cities_List/nat_gatlinburg.png,US_Cities_List/nat_huntsville.png,,,,,,,,,,,,,,,,,,,,,,,,,,,,
401.7000000178814,,rt_plussign_withcolor,706997,green,,,,,50,US_Cities_List/nat_gatlinburg.png,US_Cities_List/nat_huntsville.png,,,,,,,,,,,,,,,,,,,,,,,,,,,,
null,,rt_thecrossant_black,708240,black_plus_sign,,,,,null,,,1,0.9,,,,,,,,,,,,,,,,,,,,,,,,,,
null,,color_black,708352,black_plus_sign,,,,,null,,,,,,,,,,,,,,,,,,,,,,,,,,,,,,
null,,learn_phase(without_color),710971,black_plus_sign,,,,,null,US_Cities_List/nat_gatlinburg.png,US_Cities_List/nat_hanover.png,,,,,,,,,,,,,,,,,,,,,,,,,,,,
null,,black_cross(without_color),711395,blue,,,,,null,US_Cities_List/nat_gatlinburg.png,US_Cities_List/nat_hanover.png,,,,,,,,,,,,,,,,,,,,,,,,,,,,
467,,rt_plussign_withcolor,711900,blue,,,,,49,US_Cities_List/nat_gatlinburg.png,US_Cities_List/nat_hanover.png,,,,,,,,,,,,,,,,,,,,,,,,,,,,
null,,rt_thecrossant_black,713483,black_plus_sign,,,,,null,,,1,0.9019607843137255,,,,,,,,,,,,,,,,,,,,,,,,,,
null,,color_black,713595,black_plus_sign,,,,,null,,,,,,,,,,,,,,,,,,,,,,,,,,,,,,
null,,learn_phase(without_color),716195,black_plus_sign,,,,,null,US_Cities_List/nat_hanover.png,US_Cities_List/mm_hotsprings.png,,,,,,,,,,,,,,,,,,,,,,,,,,,,
null,,black_cross(without_color),717261,blue,,,,,null,US_Cities_List/nat_hanover.png,US_Cities_List/mm_hotsprings.png,,,,,,,,,,,,,,,,,,,,,,,,,,,,
368.90000000596046,,rt_plussign_withcolor,717771,blue,,,,,50,US_Cities_List/nat_hanover.png,US_Cities_List/mm_hotsprings.png,,,,,,,,,,,,,,,,,,,,,,,,,,,,
null,,rt_thecrossant_black,718725,black_plus_sign,,,,,null,,,0,0.8846153846153846,,,,,,,,,,,,,,,,,,,,,,,,,,
null,,color_black,718837,black_plus_sign,,,,,null,,,,,,,,,,,,,,,,,,,,,,,,,,,,,,
null,,learn_phase(without_color),721415,black_plus_sign,,,,,null,US_Cities_List/nat_cornwall.png,US_Cities_List/mm_hotsprings.png,,,,,,,,,,,,,,,,,,,,,,,,,,,,
null,,black_cross(without_color),722255,blue,,,,,null,US_Cities_List/nat_cornwall.png,US_Cities_List/mm_hotsprings.png,,,,,,,,,,,,,,,,,,,,,,,,,,,,
428,,rt_plussign_withcolor,722761,blue,,,,,49,US_Cities_List/nat_cornwall.png,US_Cities_List/mm_hotsprings.png,,,,,,,,,,,,,,,,,,,,,,,,,,,,
null,,rt_thecrossant_black,723937,black_plus_sign,,,,,null,,,1,0.8867924528301887,,,,,,,,,,,,,,,,,,,,,,,,,,
null,,color_black,724049,black_plus_sign,,,,,null,,,,,,,,,,,,,,,,,,,,,,,,,,,,,,
null,,learn_phase(without_color),726645,black_plus_sign,,,,,null,US_Cities_List/nat_hanover.png,US_Cities_List/mm_hotsprings.png,,,,,,,,,,,,,,,,,,,,,,,,,,,,
null,,black_cross(without_color),727543,blue,,,,,null,US_Cities_List/nat_hanover.png,US_Cities_List/mm_hotsprings.png,,,,,,,,,,,,,,,,,,,,,,,,,,,,
null,,rt_plussign_withcolor,728056,blue,,,,,null,US_Cities_List/nat_hanover.png,US_Cities_List/mm_hotsprings.png,,,,,,,,,,,,,,,,,,,,,,,,,,,,
1020.7999999821186,,rt_thecrossant_black,729178,black_plus_sign,,,,,49,,,1,0.8888888888888888,,,,,,,,,,,,,,,,,,,,,,,,,,
null,,color_black,729282,black_plus_sign,,,,,null,,,,,,,,,,,,,,,,,,,,,,,,,,,,,,
null,,learn_phase(without_color),731861,black_plus_sign,,,,,null,US_Cities_List/mm_leesburg.png,US_Cities_List/nat_gatlinburg.png,,,,,,,,,,,,,,,,,,,,,,,,,,,,
null,,black_cross(without_color),732757,blue,,,,,null,US_Cities_List/mm_leesburg.png,US_Cities_List/nat_gatlinburg.png,,,,,,,,,,,,,,,,,,,,,,,,,,,,
null,,rt_plussign_withcolor,733261,blue,,,,,null,US_Cities_List/mm_leesburg.png,US_Cities_List/nat_gatlinburg.png,,,,,,,,,,,,,,,,,,,,,,,,,,,,
1049.2999999821186,,rt_thecrossant_black,734383,black_plus_sign,,,,,49,,,1,0.8909090909090909,,,,,,,,,,,,,,,,,,,,,,,,,,
null,,color_black,734495,black_plus_sign,,,,,null,,,,,,,,,,,,,,,,,,,,,,,,,,,,,,
null,,learn_phase(without_color),737063,black_plus_sign,,,,,null,US_Cities_List/mm_leesburg.png,US_Cities_List/nat_hanover.png,,,,,,,,,,,,,,,,,,,,,,,,,,,,
null,,black_cross(without_color),737666,green,,,,,null,US_Cities_List/mm_leesburg.png,US_Cities_List/nat_hanover.png,,,,,,,,,,,,,,,,,,,,,,,,,,,,
null,,rt_plussign_withcolor,738174,green,,,,,null,US_Cities_List/mm_leesburg.png,US_Cities_List/nat_hanover.png,,,,,,,,,,,,,,,,,,,,,,,,,,,,
1140.9000000059605,,rt_thecrossant_black,739598,black_plus_sign,,,,,50,,,1,0.8928571428571429,,,,,,,,,,,,,,,,,,,,,,,,,,
null,,color_black,739710,black_plus_sign,,,,,null,,,,,,,,,,,,,,,,,,,,,,,,,,,,,,
null,,learn_phase(without_color),742294,black_plus_sign,,,,,null,US_Cities_List/nat_hanover.png,US_Cities_List/mm_hotsprings.png,,,,,,,,,,,,,,,,,,,,,,,,,,,,
null,,black_cross(without_color),743219,green,,,,,null,US_Cities_List/nat_hanover.png,US_Cities_List/mm_hotsprings.png,,,,,,,,,,,,,,,,,,,,,,,,,,,,
398.7000000178814,,rt_plussign_withcolor,743723,green,,,,,50,US_Cities_List/nat_hanover.png,US_Cities_List/mm_hotsprings.png,,,,,,,,,,,,,,,,,,,,,,,,,,,,
null,,rt_thecrossant_black,744826,black_plus_sign,,,,,null,,,1,0.8947368421052632,,,,,,,,,,,,,,,,,,,,,,,,,,
null,,color_black,744930,black_plus_sign,,,,,null,,,,,,,,,,,,,,,,,,,,,,,,,,,,,,
null,,learn_phase(without_color),747503,black_plus_sign,,,,,null,US_Cities_List/mm_leesburg.png,US_Cities_List/nat_hanover.png,,,,,,,,,,,,,,,,,,,,,,,,,,,,
null,,black_cross(without_color),748524,green,,,,,null,US_Cities_List/mm_leesburg.png,US_Cities_List/nat_hanover.png,,,,,,,,,,,,,,,,,,,,,,,,,,,,
null,,rt_plussign_withcolor,749043,green,,,,,null,US_Cities_List/mm_leesburg.png,US_Cities_List/nat_hanover.png,,,,,,,,,,,,,,,,,,,,,,,,,,,,
1137.7000000178814,,rt_thecrossant_black,750050,black_plus_sign,,,,,50,,,1,0.896551724137931,,,,,,,,,,,,,,,,,,,,,,,,,,
null,,color_black,750162,black_plus_sign,,,,,null,,,,,,,,,,,,,,,,,,,,,,,,,,,,,,
null,,learn_phase(without_color),752724,black_plus_sign,,,,,null,US_Cities_List/nat_newhope.png,US_Cities_List/mm_boulder.png,,,,,,,,,,,,,,,,,,,,,,,,,,,,
null,,black_cross(without_color),753439,green,,,,,null,US_Cities_List/nat_newhope.png,US_Cities_List/mm_boulder.png,,,,,,,,,,,,,,,,,,,,,,,,,,,,
394.09999999403954,,rt_plussign_withcolor,753949,green,,,,,50,US_Cities_List/nat_newhope.png,US_Cities_List/mm_boulder.png,,,,,,,,,,,,,,,,,,,,,,,,,,,,
null,,rt_thecrossant_black,755259,black_plus_sign,,,,,null,,,1,0.8983050847457628,,,,,,,,,,,,,,,,,,,,,,,,,,
null,,color_black,755371,black_plus_sign,,,,,null,,,,,,,,,,,,,,,,,,,,,,,,,,,,,,
null,,learn_phase(without_color),757960,black_plus_sign,,,,,null,US_Cities_List/mm_boulder.png,US_Cities_List/mm_racine.png,,,,,,,,,,,,,,,,,,,,,,,,,,,,
null,,black_cross(without_color),758415,green,,,,,null,US_Cities_List/mm_boulder.png,US_Cities_List/mm_racine.png,,,,,,,,,,,,,,,,,,,,,,,,,,,,
null,,rt_plussign_withcolor,758927,green,,,,,null,US_Cities_List/mm_boulder.png,US_Cities_List/mm_racine.png,,,,,,,,,,,,,,,,,,,,,,,,,,,,
845.7999999821186,,rt_thecrossant_black,760482,black_plus_sign,,,,,50,,,1,0.9,,,,,,,,,,,,,,,,,,,,,,,,,,
null,,color_black,760586,black_plus_sign,,,,,null,,,,,,,,,,,,,,,,,,,,,,,,,,,,,,
null,,learn_phase(without_color),763151,black_plus_sign,,,,,null,US_Cities_List/mm_leesburg.png,US_Cities_List/nat_hanover.png,,,,,,,,,,,,,,,,,,,,,,,,,,,,
null,,black_cross(without_color),763676,blue,,,,,null,US_Cities_List/mm_leesburg.png,US_Cities_List/nat_hanover.png,,,,,,,,,,,,,,,,,,,,,,,,,,,,
null,,rt_plussign_withcolor,764182,blue,,,,,null,US_Cities_List/mm_leesburg.png,US_Cities_List/nat_hanover.png,,,,,,,,,,,,,,,,,,,,,,,,,,,,
561.9000000059605,,rt_thecrossant_black,765678,black_plus_sign,,,,,49,,,1,0.9016393442622951,,,,,,,,,,,,,,,,,,,,,,,,,,
null,,color_black,765783,black_plus_sign,,,,,null,,,,,,,,,,,,,,,,,,,,,,,,,,,,,,
null,,learn_phase(without_color),768366,black_plus_sign,,,,,null,US_Cities_List/nat_newhope.png,US_Cities_List/mm_boulder.png,,,,,,,,,,,,,,,,,,,,,,,,,,,,
null,,black_cross(without_color),769433,green,,,,,null,US_Cities_List/nat_newhope.png,US_Cities_List/mm_boulder.png,,,,,,,,,,,,,,,,,,,,,,,,,,,,
387.5,,rt_plussign_withcolor,769937,green,,,,,50,US_Cities_List/nat_newhope.png,US_Cities_List/mm_boulder.png,,,,,,,,,,,,,,,,,,,,,,,,,,,,
null,,rt_thecrossant_black,770880,black_plus_sign,,,,,null,,,1,0.9032258064516129,,,,,,,,,,,,,,,,,,,,,,,,,,
null,,color_black,770992,black_plus_sign,,,,,null,,,,,,,,,,,,,,,,,,,,,,,,,,,,,,
null,,learn_phase(without_color),773574,black_plus_sign,,,,,null,US_Cities_List/mm_leesburg.png,US_Cities_List/nat_hanover.png,,,,,,,,,,,,,,,,,,,,,,,,,,,,
null,,black_cross(without_color),774485,green,,,,,null,US_Cities_List/mm_leesburg.png,US_Cities_List/nat_hanover.png,,,,,,,,,,,,,,,,,,,,,,,,,,,,
null,,rt_plussign_withcolor,774997,green,,,,,null,US_Cities_List/mm_leesburg.png,US_Cities_List/nat_hanover.png,,,,,,,,,,,,,,,,,,,,,,,,,,,,
1178.5999999940395,,rt_thecrossant_black,776102,black_plus_sign,,,,,50,,,1,0.9047619047619048,,,,,,,,,,,,,,,,,,,,,,,,,,
null,,color_black,776209,black_plus_sign,,,,,null,,,,,,,,,,,,,,,,,,,,,,,,,,,,,,
null,,learn_phase(without_color),778803,black_plus_sign,,,,,null,US_Cities_List/mm_leesburg.png,US_Cities_List/mm_peoria.png,,,,,,,,,,,,,,,,,,,,,,,,,,,,
null,,black_cross(without_color),779307,green,,,,,null,US_Cities_List/mm_leesburg.png,US_Cities_List/mm_peoria.png,,,,,,,,,,,,,,,,,,,,,,,,,,,,
458.30000001192093,,rt_plussign_withcolor,779814,green,,,,,50,US_Cities_List/mm_leesburg.png,US_Cities_List/mm_peoria.png,,,,,,,,,,,,,,,,,,,,,,,,,,,,
null,,rt_thecrossant_black,781334,black_plus_sign,,,,,null,,,1,0.90625,,,,,,,,,,,,,,,,,,,,,,,,,,
null,,color_black,781437,black_plus_sign,,,,,null,,,,,,,,,,,,,,,,,,,,,,,,,,,,,,
null,,learn_phase(without_color),784027,black_plus_sign,,,,,null,US_Cities_List/mm_leesburg.png,US_Cities_List/nat_gatlinburg.png,,,,,,,,,,,,,,,,,,,,,,,,,,,,
null,,black_cross(without_color),784579,blue,,,,,null,US_Cities_List/mm_leesburg.png,US_Cities_List/nat_gatlinburg.png,,,,,,,,,,,,,,,,,,,,,,,,,,,,
null,,rt_plussign_withcolor,785088,blue,,,,,null,US_Cities_List/mm_leesburg.png,US_Cities_List/nat_gatlinburg.png,,,,,,,,,,,,,,,,,,,,,,,,,,,,
614.7999999821186,,rt_thecrossant_black,786555,black_plus_sign,,,,,49,,,1,0.9076923076923077,,,,,,,,,,,,,,,,,,,,,,,,,,
null,,color_black,786667,black_plus_sign,,,,,null,,,,,,,,,,,,,,,,,,,,,,,,,,,,,,
null,,learn_phase(without_color),789269,black_plus_sign,,,,,null,US_Cities_List/mm_boulder.png,US_Cities_List/mm_racine.png,,,,,,,,,,,,,,,,,,,,,,,,,,,,
null,,black_cross(without_color),790191,blue,,,,,null,US_Cities_List/mm_boulder.png,US_Cities_List/mm_racine.png,,,,,,,,,,,,,,,,,,,,,,,,,,,,
418.89999997615814,,rt_plussign_withcolor,790700,blue,,,,,49,US_Cities_List/mm_boulder.png,US_Cities_List/mm_racine.png,,,,,,,,,,,,,,,,,,,,,,,,,,,,
null,,rt_thecrossant_black,791793,black_plus_sign,,,,,null,,,1,0.9090909090909091,,,,,,,,,,,,,,,,,,,,,,,,,,
null,,color_black,791905,black_plus_sign,,,,,null,,,,,,,,,,,,,,,,,,,,,,,,,,,,,,
null,,learn_phase(without_color),794475,black_plus_sign,,,,,null,US_Cities_List/nat_cornwall.png,US_Cities_List/mm_hotsprings.png,,,,,,,,,,,,,,,,,,,,,,,,,,,,
null,,black_cross(without_color),795438,green,,,,,null,US_Cities_List/nat_cornwall.png,US_Cities_List/mm_hotsprings.png,,,,,,,,,,,,,,,,,,,,,,,,,,,,
449.19999998807907,,rt_plussign_withcolor,795943,green,,,,,50,US_Cities_List/nat_cornwall.png,US_Cities_List/mm_hotsprings.png,,,,,,,,,,,,,,,,,,,,,,,,,,,,
null,,rt_thecrossant_black,797005,black_plus_sign,,,,,null,,,1,0.9104477611940298,,,,,,,,,,,,,,,,,,,,,,,,,,
null,,color_black,797117,black_plus_sign,,,,,null,,,,,,,,,,,,,,,,,,,,,,,,,,,,,,
null,,learn_phase(without_color),799682,black_plus_sign,,,,,null,US_Cities_List/nat_newhope.png,US_Cities_List/nat_cornwall.png,,,,,,,,,,,,,,,,,,,,,,,,,,,,
null,,black_cross(without_color),800383,green,,,,,null,US_Cities_List/nat_newhope.png,US_Cities_List/nat_cornwall.png,,,,,,,,,,,,,,,,,,,,,,,,,,,,
426.90000000596046,,rt_plussign_withcolor,800890,green,,,,,50,US_Cities_List/nat_newhope.png,US_Cities_List/nat_cornwall.png,,,,,,,,,,,,,,,,,,,,,,,,,,,,
null,,rt_thecrossant_black,802207,black_plus_sign,,,,,null,,,1,0.9117647058823529,,,,,,,,,,,,,,,,,,,,,,,,,,
null,,color_black,802311,black_plus_sign,,,,,null,,,,,,,,,,,,,,,,,,,,,,,,,,,,,,
null,,learn_phase(without_color),804897,black_plus_sign,,,,,null,US_Cities_List/nat_gatlinburg.png,US_Cities_List/nat_hanover.png,,,,,,,,,,,,,,,,,,,,,,,,,,,,
null,,black_cross(without_color),805799,green,,,,,null,US_Cities_List/nat_gatlinburg.png,US_Cities_List/nat_hanover.png,,,,,,,,,,,,,,,,,,,,,,,,,,,,
null,,rt_plussign_withcolor,806306,green,,,,,null,US_Cities_List/nat_gatlinburg.png,US_Cities_List/nat_hanover.png,,,,,,,,,,,,,,,,,,,,,,,,,,,,
949.2999999821186,,rt_thecrossant_black,807434,black_plus_sign,,,,,50,,,1,0.9130434782608695,,,,,,,,,,,,,,,,,,,,,,,,,,
null,,color_black,807546,black_plus_sign,,,,,null,,,,,,,,,,,,,,,,,,,,,,,,,,,,,,
null,,learn_phase(without_color),810131,black_plus_sign,,,,,null,US_Cities_List/nat_gatlinburg.png,US_Cities_List/nat_huntsville.png,,,,,,,,,,,,,,,,,,,,,,,,,,,,
null,,black_cross(without_color),811012,green,,,,,null,US_Cities_List/nat_gatlinburg.png,US_Cities_List/nat_huntsville.png,,,,,,,,,,,,,,,,,,,,,,,,,,,,
391.30000001192093,,rt_plussign_withcolor,811518,green,,,,,50,US_Cities_List/nat_gatlinburg.png,US_Cities_List/nat_huntsville.png,,,,,,,,,,,,,,,,,,,,,,,,,,,,
null,,rt_thecrossant_black,812656,black_plus_sign,,,,,null,,,1,0.9142857142857143,,,,,,,,,,,,,,,,,,,,,,,,,,
null,,color_black,812774,black_plus_sign,,,,,null,,,,,,,,,,,,,,,,,,,,,,,,,,,,,,
null,,learn_phase(without_color),815332,black_plus_sign,,,,,null,US_Cities_List/mm_boulder.png,US_Cities_List/mm_racine.png,,,,,,,,,,,,,,,,,,,,,,,,,,,,
null,,black_cross(without_color),816371,blue,,,,,null,US_Cities_List/mm_boulder.png,US_Cities_List/mm_racine.png,,,,,,,,,,,,,,,,,,,,,,,,,,,,
399.19999998807907,,rt_plussign_withcolor,816885,blue,,,,,49,US_Cities_List/mm_boulder.png,US_Cities_List/mm_racine.png,,,,,,,,,,,,,,,,,,,,,,,,,,,,
null,,rt_thecrossant_black,817865,black_plus_sign,,,,,null,,,1,0.9154929577464789,,,,,,,,,,,,,,,,,,,,,,,,,,
null,,color_black,817969,black_plus_sign,,,,,null,,,,,,,,,,,,,,,,,,,,,,,,,,,,,,
null,,learn_phase(without_color),820548,black_plus_sign,,,,,null,US_Cities_List/mm_leesburg.png,US_Cities_List/mm_peoria.png,,,,,,,,,,,,,,,,,,,,,,,,,,,,
null,,black_cross(without_color),821028,green,,,,,null,US_Cities_List/mm_leesburg.png,US_Cities_List/mm_peoria.png,,,,,,,,,,,,,,,,,,,,,,,,,,,,
null,,rt_plussign_withcolor,821542,green,,,,,null,US_Cities_List/mm_leesburg.png,US_Cities_List/mm_peoria.png,,,,,,,,,,,,,,,,,,,,,,,,,,,,
1311.199999988079,,rt_thecrossant_black,823083,black_plus_sign,,,,,50,,,1,0.9166666666666666,,,,,,,,,,,,,,,,,,,,,,,,,,
null,,color_black,823187,black_plus_sign,,,,,null,,,,,,,,,,,,,,,,,,,,,,,,,,,,,,
null,,learn_phase(without_color),825788,black_plus_sign,,,,,null,US_Cities_List/mm_hotsprings.png,US_Cities_List/mm_westpalmbeach.png,,,,,,,,,,,,,,,,,,,,,,,,,,,,
null,,black_cross(without_color),826224,blue,,,,,null,US_Cities_List/mm_hotsprings.png,US_Cities_List/mm_westpalmbeach.png,,,,,,,,,,,,,,,,,,,,,,,,,,,,
480,,rt_plussign_withcolor,826730,blue,,,,,49,US_Cities_List/mm_hotsprings.png,US_Cities_List/mm_westpalmbeach.png,,,,,,,,,,,,,,,,,,,,,,,,,,,,
null,,rt_thecrossant_black,828315,black_plus_sign,,,,,null,,,1,0.9178082191780822,,,,,,,,,,,,,,,,,,,,,,,,,,
null,,color_black,828419,black_plus_sign,,,,,null,,,,,,,,,,,,,,,,,,,,,,,,,,,,,,
null,,learn_phase(without_color),830999,black_plus_sign,,,,,null,US_Cities_List/mm_leesburg.png,US_Cities_List/nat_hanover.png,,,,,,,,,,,,,,,,,,,,,,,,,,,,
null,,black_cross(without_color),831801,green,,,,,null,US_Cities_List/mm_leesburg.png,US_Cities_List/nat_hanover.png,,,,,,,,,,,,,,,,,,,,,,,,,,,,
430.5,,rt_plussign_withcolor,832318,green,,,,,50,US_Cities_List/mm_leesburg.png,US_Cities_List/nat_hanover.png,,,,,,,,,,,,,,,,,,,,,,,,,,,,
null,,rt_thecrossant_black,833527,black_plus_sign,,,,,null,,,1,0.918918918918919,,,,,,,,,,,,,,,,,,,,,,,,,,
null,,color_black,833640,black_plus_sign,,,,,null,,,,,,,,,,,,,,,,,,,,,,,,,,,,,,
null,,learn_phase(without_color),836224,black_plus_sign,,,,,null,US_Cities_List/nat_shreveport.png,US_Cities_List/nat_newhope.png,,,,,,,,,,,,,,,,,,,,,,,,,,,,
null,,black_cross(without_color),836713,blue,,,,,null,US_Cities_List/nat_shreveport.png,US_Cities_List/nat_newhope.png,,,,,,,,,,,,,,,,,,,,,,,,,,,,
500.69999998807907,,rt_plussign_withcolor,837217,blue,,,,,49,US_Cities_List/nat_shreveport.png,US_Cities_List/nat_newhope.png,,,,,,,,,,,,,,,,,,,,,,,,,,,,
null,,rt_thecrossant_black,838755,black_plus_sign,,,,,null,,,1,0.92,,,,,,,,,,,,,,,,,,,,,,,,,,
null,,color_black,838867,black_plus_sign,,,,,null,,,,,,,,,,,,,,,,,,,,,,,,,,,,,,
null,,learn_phase(without_color),841445,black_plus_sign,,,,,null,US_Cities_List/mm_leesburg.png,US_Cities_List/nat_gatlinburg.png,,,,,,,,,,,,,,,,,,,,,,,,,,,,
null,,black_cross(without_color),842381,green,,,,,null,US_Cities_List/mm_leesburg.png,US_Cities_List/nat_gatlinburg.png,,,,,,,,,,,,,,,,,,,,,,,,,,,,
453.40000000596046,,rt_plussign_withcolor,842886,green,,,,,50,US_Cities_List/mm_leesburg.png,US_Cities_List/nat_gatlinburg.png,,,,,,,,,,,,,,,,,,,,,,,,,,,,
null,,rt_thecrossant_black,843971,black_plus_sign,,,,,null,,,1,0.9210526315789473,,,,,,,,,,,,,,,,,,,,,,,,,,
null,,color_black,844078,black_plus_sign,,,,,null,,,,,,,,,,,,,,,,,,,,,,,,,,,,,,
null,,learn_phase(without_color),846685,black_plus_sign,,,,,null,US_Cities_List/nat_newhope.png,US_Cities_List/nat_cornwall.png,,,,,,,,,,,,,,,,,,,,,,,,,,,,
null,,black_cross(without_color),847673,blue,,,,,null,US_Cities_List/nat_newhope.png,US_Cities_List/nat_cornwall.png,,,,,,,,,,,,,,,,,,,,,,,,,,,,
485.30000001192093,,rt_plussign_withcolor,848181,blue,,,,,49,US_Cities_List/nat_newhope.png,US_Cities_List/nat_cornwall.png,,,,,,,,,,,,,,,,,,,,,,,,,,,,
null,,rt_thecrossant_black,849213,black_plus_sign,,,,,null,,,1,0.922077922077922,,,,,,,,,,,,,,,,,,,,,,,,,,
null,,color_black,849325,black_plus_sign,,,,,null,,,,,,,,,,,,,,,,,,,,,,,,,,,,,,
null,,learn_phase(without_color),851913,black_plus_sign,,,,,null,US_Cities_List/mm_leesburg.png,US_Cities_List/mm_peoria.png,,,,,,,,,,,,,,,,,,,,,,,,,,,,
null,,black_cross(without_color),852345,green,,,,,null,US_Cities_List/mm_leesburg.png,US_Cities_List/mm_peoria.png,,,,,,,,,,,,,,,,,,,,,,,,,,,,
null,,rt_plussign_withcolor,852850,green,,,,,null,US_Cities_List/mm_leesburg.png,US_Cities_List/mm_peoria.png,,,,,,,,,,,,,,,,,,,,,,,,,,,,
1158.4000000059605,,rt_thecrossant_black,854433,black_plus_sign,,,,,50,,,1,0.9230769230769231,,,,,,,,,,,,,,,,,,,,,,,,,,
null,,color_black,854537,black_plus_sign,,,,,null,,,,,,,,,,,,,,,,,,,,,,,,,,,,,,
null,,learn_phase(without_color),857126,black_plus_sign,,,,,null,US_Cities_List/nat_hanover.png,US_Cities_List/mm_hotsprings.png,,,,,,,,,,,,,,,,,,,,,,,,,,,,
null,,black_cross(without_color),857678,green,,,,,null,US_Cities_List/nat_hanover.png,US_Cities_List/mm_hotsprings.png,,,,,,,,,,,,,,,,,,,,,,,,,,,,
null,,rt_plussign_withcolor,858186,green,,,,,null,US_Cities_List/nat_hanover.png,US_Cities_List/mm_hotsprings.png,,,,,,,,,,,,,,,,,,,,,,,,,,,,
611.5,,rt_thecrossant_black,859662,black_plus_sign,,,,,50,,,1,0.9240506329113924,,,,,,,,,,,,,,,,,,,,,,,,,,
null,,color_black,859776,black_plus_sign,,,,,null,,,,,,,,,,,,,,,,,,,,,,,,,,,,,,
null,,learn_phase(without_color),862353,black_plus_sign,,,,,null,US_Cities_List/nat_cornwall.png,US_Cities_List/mm_carmel.png,,,,,,,,,,,,,,,,,,,,,,,,,,,,
null,,black_cross(without_color),863284,blue,,,,,null,US_Cities_List/nat_cornwall.png,US_Cities_List/mm_carmel.png,,,,,,,,,,,,,,,,,,,,,,,,,,,,
469.5,,rt_plussign_withcolor,863790,blue,,,,,49,US_Cities_List/nat_cornwall.png,US_Cities_List/mm_carmel.png,,,,,,,,,,,,,,,,,,,,,,,,,,,,
null,,rt_thecrossant_black,864874,black_plus_sign,,,,,null,,,1,0.925,,,,,,,,,,,,,,,,,,,,,,,,,,
null,,color_black,864978,black_plus_sign,,,,,null,,,,,,,,,,,,,,,,,,,,,,,,,,,,,,
null,,learn_phase(without_color),867552,black_plus_sign,,,,,null,US_Cities_List/mm_hotsprings.png,US_Cities_List/mm_westpalmbeach.png,,,,,,,,,,,,,,,,,,,,,,,,,,,,
null,,black_cross(without_color),868249,blue,,,,,null,US_Cities_List/mm_hotsprings.png,US_Cities_List/mm_westpalmbeach.png,,,,,,,,,,,,,,,,,,,,,,,,,,,,
446.10000002384186,,rt_plussign_withcolor,868755,blue,,,,,49,US_Cities_List/mm_hotsprings.png,US_Cities_List/mm_westpalmbeach.png,,,,,,,,,,,,,,,,,,,,,,,,,,,,
null,,rt_thecrossant_black,870083,black_plus_sign,,,,,null,,,1,0.9259259259259259,,,,,,,,,,,,,,,,,,,,,,,,,,
null,,color_black,870195,black_plus_sign,,,,,null,,,,,,,,,,,,,,,,,,,,,,,,,,,,,,
null,,learn_phase(without_color),872793,black_plus_sign,,,,,null,US_Cities_List/mm_carmel.png,US_Cities_List/nat_hanover.png,,,,,,,,,,,,,,,,,,,,,,,,,,,,
null,,black_cross(without_color),873513,blue,,,,,null,US_Cities_List/mm_carmel.png,US_Cities_List/nat_hanover.png,,,,,,,,,,,,,,,,,,,,,,,,,,,,
477.2000000178814,,rt_plussign_withcolor,874017,blue,,,,,49,US_Cities_List/mm_carmel.png,US_Cities_List/nat_hanover.png,,,,,,,,,,,,,,,,,,,,,,,,,,,,
null,,rt_thecrossant_black,875311,black_plus_sign,,,,,null,,,1,0.926829268292683,,,,,,,,,,,,,,,,,,,,,,,,,,
null,,color_black,875415,black_plus_sign,,,,,null,,,,,,,,,,,,,,,,,,,,,,,,,,,,,,
null,,learn_phase(without_color),877999,black_plus_sign,,,,,null,US_Cities_List/nat_cornwall.png,US_Cities_List/mm_carmel.png,,,,,,,,,,,,,,,,,,,,,,,,,,,,
null,,black_cross(without_color),878673,blue,,,,,null,US_Cities_List/nat_cornwall.png,US_Cities_List/mm_carmel.png,,,,,,,,,,,,,,,,,,,,,,,,,,,,
452.2000000178814,,rt_plussign_withcolor,879182,blue,,,,,49,US_Cities_List/nat_cornwall.png,US_Cities_List/mm_carmel.png,,,,,,,,,,,,,,,,,,,,,,,,,,,,
null,,rt_thecrossant_black,880531,black_plus_sign,,,,,null,,,1,0.927710843373494,,,,,,,,,,,,,,,,,,,,,,,,,,
null,,color_black,880635,black_plus_sign,,,,,null,,,,,,,,,,,,,,,,,,,,,,,,,,,,,,
null,,learn_phase(without_color),883220,black_plus_sign,,,,,null,US_Cities_List/mm_carmel.png,US_Cities_List/mm_leesburg.png,,,,,,,,,,,,,,,,,,,,,,,,,,,,
null,,black_cross(without_color),883821,blue,,,,,null,US_Cities_List/mm_carmel.png,US_Cities_List/mm_leesburg.png,,,,,,,,,,,,,,,,,,,,,,,,,,,,
468.19999998807907,,rt_plussign_withcolor,884326,blue,,,,,49,US_Cities_List/mm_carmel.png,US_Cities_List/mm_leesburg.png,,,,,,,,,,,,,,,,,,,,,,,,,,,,
null,,rt_thecrossant_black,885736,black_plus_sign,,,,,null,,,1,0.9285714285714286,,,,,,,,,,,,,,,,,,,,,,,,,,
null,,color_black,885842,black_plus_sign,,,,,null,,,,,,,,,,,,,,,,,,,,,,,,,,,,,,
null,,learn_phase(without_color),888438,black_plus_sign,,,,,null,US_Cities_List/nat_cornwall.png,US_Cities_List/mm_hotsprings.png,,,,,,,,,,,,,,,,,,,,,,,,,,,,
null,,black_cross(without_color),889537,green,,,,,null,US_Cities_List/nat_cornwall.png,US_Cities_List/mm_hotsprings.png,,,,,,,,,,,,,,,,,,,,,,,,,,,,
null,,rt_plussign_withcolor,890048,green,,,,,null,US_Cities_List/nat_cornwall.png,US_Cities_List/mm_hotsprings.png,,,,,,,,,,,,,,,,,,,,,,,,,,,,
774.0999999940395,,rt_thecrossant_black,890969,black_plus_sign,,,,,50,,,1,0.9294117647058824,,,,,,,,,,,,,,,,,,,,,,,,,,
null,,color_black,891082,black_plus_sign,,,,,null,,,,,,,,,,,,,,,,,,,,,,,,,,,,,,
null,,learn_phase(without_color),893647,black_plus_sign,,,,,null,US_Cities_List/nat_hanover.png,US_Cities_List/mm_hotsprings.png,,,,,,,,,,,,,,,,,,,,,,,,,,,,
null,,black_cross(without_color),894647,blue,,,,,null,US_Cities_List/nat_hanover.png,US_Cities_List/mm_hotsprings.png,,,,,,,,,,,,,,,,,,,,,,,,,,,,
432.2999999821186,,rt_plussign_withcolor,895151,blue,,,,,49,US_Cities_List/nat_hanover.png,US_Cities_List/mm_hotsprings.png,,,,,,,,,,,,,,,,,,,,,,,,,,,,
null,,rt_thecrossant_black,896160,black_plus_sign,,,,,null,,,1,0.9302325581395349,,,,,,,,,,,,,,,,,,,,,,,,,,
null,,color_black,896264,black_plus_sign,,,,,null,,,,,,,,,,,,,,,,,,,,,,,,,,,,,,
null,,learn_phase(without_color),898873,black_plus_sign,,,,,null,US_Cities_List/mm_carmel.png,US_Cities_List/mm_leesburg.png,,,,,,,,,,,,,,,,,,,,,,,,,,,,
null,,black_cross(without_color),899358,green,,,,,null,US_Cities_List/mm_carmel.png,US_Cities_List/mm_leesburg.png,,,,,,,,,,,,,,,,,,,,,,,,,,,,
482.40000000596046,,rt_plussign_withcolor,899867,green,,,,,50,US_Cities_List/mm_carmel.png,US_Cities_List/mm_leesburg.png,,,,,,,,,,,,,,,,,,,,,,,,,,,,
null,,rt_thecrossant_black,901406,black_plus_sign,,,,,null,,,1,0.9310344827586207,,,,,,,,,,,,,,,,,,,,,,,,,,
null,,color_black,901510,black_plus_sign,,,,,null,,,,,,,,,,,,,,,,,,,,,,,,,,,,,,
null,,learn_phase(without_color),904114,black_plus_sign,,,,,null,US_Cities_List/mm_boulder.png,US_Cities_List/mm_westpalmbeach.png,,,,,,,,,,,,,,,,,,,,,,,,,,,,
null,,black_cross(without_color),904661,green,,,,,null,US_Cities_List/mm_boulder.png,US_Cities_List/mm_westpalmbeach.png,,,,,,,,,,,,,,,,,,,,,,,,,,,,
484.59999999403954,,rt_plussign_withcolor,905165,green,,,,,50,US_Cities_List/mm_boulder.png,US_Cities_List/mm_westpalmbeach.png,,,,,,,,,,,,,,,,,,,,,,,,,,,,
null,,rt_thecrossant_black,906640,black_plus_sign,,,,,null,,,1,0.9318181818181818,,,,,,,,,,,,,,,,,,,,,,,,,,
null,,color_black,906751,black_plus_sign,,,,,null,,,,,,,,,,,,,,,,,,,,,,,,,,,,,,
null,,learn_phase(without_color),909342,black_plus_sign,,,,,null,US_Cities_List/nat_shreveport.png,US_Cities_List/nat_newhope.png,,,,,,,,,,,,,,,,,,,,,,,,,,,,
null,,black_cross(without_color),910328,blue,,,,,null,US_Cities_List/nat_shreveport.png,US_Cities_List/nat_newhope.png,,,,,,,,,,,,,,,,,,,,,,,,,,,,
456.5,,rt_plussign_withcolor,910834,blue,,,,,50,US_Cities_List/nat_shreveport.png,US_Cities_List/nat_newhope.png,,,,,,,,,,,,,,,,,,,,,,,,,,,,
null,,rt_thecrossant_black,911878,black_plus_sign,,,,,49,,,0,0.9213483146067416,,,,,,,,,,,,,,,,,,,,,,,,,,
null,,color_black,911991,black_plus_sign,,,,,null,,,,,,,,,,,,,,,,,,,,,,,,,,,,,,
null,,learn_phase(without_color),914571,black_plus_sign,,,,,null,US_Cities_List/mm_carmel.png,US_Cities_List/nat_hanover.png,,,,,,,,,,,,,,,,,,,,,,,,,,,,
null,,black_cross(without_color),915547,blue,,,,,null,US_Cities_List/mm_carmel.png,US_Cities_List/nat_hanover.png,,,,,,,,,,,,,,,,,,,,,,,,,,,,
374.39999997615814,,rt_plussign_withcolor,916059,blue,,,,,49,US_Cities_List/mm_carmel.png,US_Cities_List/nat_hanover.png,,,,,,,,,,,,,,,,,,,,,,,,,,,,
null,,rt_thecrossant_black,917108,black_plus_sign,,,,,null,,,1,0.9222222222222223,,,,,,,,,,,,,,,,,,,,,,,,,,
null,,color_black,917212,black_plus_sign,,,,,null,,,,,,,,,,,,,,,,,,,,,,,,,,,,,,
null,,learn_phase(without_color),919786,black_plus_sign,,,,,null,US_Cities_List/mm_leesburg.png,US_Cities_List/nat_gatlinburg.png,,,,,,,,,,,,,,,,,,,,,,,,,,,,
null,,black_cross(without_color),920722,green,,,,,null,US_Cities_List/mm_leesburg.png,US_Cities_List/nat_gatlinburg.png,,,,,,,,,,,,,,,,,,,,,,,,,,,,
424.5,,rt_plussign_withcolor,921227,green,,,,,50,US_Cities_List/mm_leesburg.png,US_Cities_List/nat_gatlinburg.png,,,,,,,,,,,,,,,,,,,,,,,,,,,,
null,,rt_thecrossant_black,922301,black_plus_sign,,,,,null,,,1,0.9230769230769231,,,,,,,,,,,,,,,,,,,,,,,,,,
null,,color_black,922413,black_plus_sign,,,,,null,,,,,,,,,,,,,,,,,,,,,,,,,,,,,,
null,,learn_phase(without_color),925003,black_plus_sign,,,,,null,US_Cities_List/nat_cornwall.png,US_Cities_List/mm_hotsprings.png,,,,,,,,,,,,,,,,,,,,,,,,,,,,
null,,black_cross(without_color),925867,blue,,,,,null,US_Cities_List/nat_cornwall.png,US_Cities_List/mm_hotsprings.png,,,,,,,,,,,,,,,,,,,,,,,,,,,,
null,,rt_plussign_withcolor,926376,blue,,,,,null,US_Cities_List/nat_cornwall.png,US_Cities_List/mm_hotsprings.png,,,,,,,,,,,,,,,,,,,,,,,,,,,,
1186.4000000059605,,rt_thecrossant_black,927529,black_plus_sign,,,,,49,,,1,0.9239130434782609,,,,,,,,,,,,,,,,,,,,,,,,,,
null,,color_black,927641,black_plus_sign,,,,,null,,,,,,,,,,,,,,,,,,,,,,,,,,,,,,
null,,learn_phase(without_color),930234,black_plus_sign,,,,,null,US_Cities_List/mm_boulder.png,US_Cities_List/mm_westpalmbeach.png,,,,,,,,,,,,,,,,,,,,,,,,,,,,
null,,black_cross(without_color),930817,blue,,,,,null,US_Cities_List/mm_boulder.png,US_Cities_List/mm_westpalmbeach.png,,,,,,,,,,,,,,,,,,,,,,,,,,,,
null,,rt_plussign_withcolor,931321,blue,,,,,null,US_Cities_List/mm_boulder.png,US_Cities_List/mm_westpalmbeach.png,,,,,,,,,,,,,,,,,,,,,,,,,,,,
1074.800000011921,,rt_thecrossant_black,932757,black_plus_sign,,,,,49,,,1,0.9247311827956989,,,,,,,,,,,,,,,,,,,,,,,,,,
null,,color_black,932869,black_plus_sign,,,,,null,,,,,,,,,,,,,,,,,,,,,,,,,,,,,,
null,,learn_phase(without_color),935443,black_plus_sign,,,,,null,US_Cities_List/mm_carmel.png,US_Cities_List/nat_hanover.png,,,,,,,,,,,,,,,,,,,,,,,,,,,,
null,,black_cross(without_color),936326,green,,,,,null,US_Cities_List/mm_carmel.png,US_Cities_List/nat_hanover.png,,,,,,,,,,,,,,,,,,,,,,,,,,,,
null,,rt_plussign_withcolor,936837,green,,,,,null,US_Cities_List/mm_carmel.png,US_Cities_List/nat_hanover.png,,,,,,,,,,,,,,,,,,,,,,,,,,,,
696.5999999940395,,rt_thecrossant_black,937984,black_plus_sign,,,,,49,,,0,0.9148936170212766,,,,,,,,,,,,,,,,,,,,,,,,,,
null,,color_black,938095,black_plus_sign,,,,,null,,,,,,,,,,,,,,,,,,,,,,,,,,,,,,
null,,learn_phase(without_color),940677,black_plus_sign,,,,,null,US_Cities_List/mm_carmel.png,US_Cities_List/mm_leesburg.png,,,,,,,,,,,,,,,,,,,,,,,,,,,,
null,,black_cross(without_color),941237,blue,,,,,null,US_Cities_List/mm_carmel.png,US_Cities_List/mm_leesburg.png,,,,,,,,,,,,,,,,,,,,,,,,,,,,
465.2999999821186,,rt_plussign_withcolor,941741,blue,,,,,49,US_Cities_List/mm_carmel.png,US_Cities_List/mm_leesburg.png,,,,,,,,,,,,,,,,,,,,,,,,,,,,
null,,rt_thecrossant_black,943195,black_plus_sign,,,,,null,,,1,0.9157894736842105,,,,,,,,,,,,,,,,,,,,,,,,,,
null,,color_black,943307,black_plus_sign,,,,,null,,,,,,,,,,,,,,,,,,,,,,,,,,,,,,
null,,learn_phase(without_color),945901,black_plus_sign,,,,,null,US_Cities_List/nat_gatlinburg.png,US_Cities_List/nat_huntsville.png,,,,,,,,,,,,,,,,,,,,,,,,,,,,
null,,black_cross(without_color),946819,blue,,,,,null,US_Cities_List/nat_gatlinburg.png,US_Cities_List/nat_huntsville.png,,,,,,,,,,,,,,,,,,,,,,,,,,,,
453.5,,rt_plussign_withcolor,947325,blue,,,,,49,US_Cities_List/nat_gatlinburg.png,US_Cities_List/nat_huntsville.png,,,,,,,,,,,,,,,,,,,,,,,,,,,,
null,,rt_thecrossant_black,948420,black_plus_sign,,,,,null,,,1,0.9166666666666666,,,,,,,,,,,,,,,,,,,,,,,,,,
null,,color_black,948526,black_plus_sign,,,,,null,,,,,,,,,,,,,,,,,,,,,,,,,,,,,,
null,,learn_phase(without_color),951116,black_plus_sign,,,,,null,US_Cities_List/mm_carmel.png,US_Cities_List/mm_leesburg.png,,,,,,,,,,,,,,,,,,,,,,,,,,,,
null,,black_cross(without_color),952075,blue,,,,,null,US_Cities_List/mm_carmel.png,US_Cities_List/mm_leesburg.png,,,,,,,,,,,,,,,,,,,,,,,,,,,,
null,,rt_plussign_withcolor,952579,blue,,,,,null,US_Cities_List/mm_carmel.png,US_Cities_List/mm_leesburg.png,,,,,,,,,,,,,,,,,,,,,,,,,,,,
1103.2999999821186,,rt_thecrossant_black,953639,black_plus_sign,,,,,49,,,1,0.9175257731958762,,,,,,,,,,,,,,,,,,,,,,,,,,
null,,color_black,953752,black_plus_sign,,,,,null,,,,,,,,,,,,,,,,,,,,,,,,,,,,,,
null,,learn_phase(without_color),956327,black_plus_sign,,,,,null,US_Cities_List/nat_shreveport.png,US_Cities_List/nat_newhope.png,,,,,,,,,,,,,,,,,,,,,,,,,,,,
null,,black_cross(without_color),956828,blue,,,,,null,US_Cities_List/nat_shreveport.png,US_Cities_List/nat_newhope.png,,,,,,,,,,,,,,,,,,,,,,,,,,,,
null,,rt_plussign_withcolor,957334,blue,,,,,null,US_Cities_List/nat_shreveport.png,US_Cities_List/nat_newhope.png,,,,,,,,,,,,,,,,,,,,,,,,,,,,
1195.5,,rt_thecrossant_black,958851,black_plus_sign,,,,,49,,,1,0.9183673469387755,,,,,,,,,,,,,,,,,,,,,,,,,,
null,,color_black,958955,black_plus_sign,,,,,null,,,,,,,,,,,,,,,,,,,,,,,,,,,,,,
null,,learn_phase(without_color),961552,black_plus_sign,,,,,null,US_Cities_List/mm_boulder.png,US_Cities_List/mm_westpalmbeach.png,,,,,,,,,,,,,,,,,,,,,,,,,,,,
null,,black_cross(without_color),961998,blue,,,,,null,US_Cities_List/mm_boulder.png,US_Cities_List/mm_westpalmbeach.png,,,,,,,,,,,,,,,,,,,,,,,,,,,,
null,,rt_plussign_withcolor,962512,blue,,,,,null,US_Cities_List/mm_boulder.png,US_Cities_List/mm_westpalmbeach.png,,,,,,,,,,,,,,,,,,,,,,,,,,,,
631.6999999880791,,rt_thecrossant_black,964078,black_plus_sign,,,,,49,,,1,0.9191919191919192,,,,,,,,,,,,,,,,,,,,,,,,,,
null,,color_black,964186,black_plus_sign,,,,,null,,,,,,,,,,,,,,,,,,,,,,,,,,,,,,
null,,learn_phase(without_color),966775,black_plus_sign,,,,,null,US_Cities_List/nat_cornwall.png,US_Cities_List/mm_hotsprings.png,,,,,,,,,,,,,,,,,,,,,,,,,,,,
null,,black_cross(without_color),967476,green,,,,,null,US_Cities_List/nat_cornwall.png,US_Cities_List/mm_hotsprings.png,,,,,,,,,,,,,,,,,,,,,,,,,,,,
null,,rt_plussign_withcolor,967984,green,,,,,null,US_Cities_List/nat_cornwall.png,US_Cities_List/mm_hotsprings.png,,,,,,,,,,,,,,,,,,,,,,,,,,,,
587.0999999940395,,rt_thecrossant_black,969311,black_plus_sign,,,,,50,,,1,0.92,,,,,,,,,,,,,,,,,,,,,,,,,,
null,,color_black,969415,black_plus_sign,,,,,null,,,,,,,,,,,,,,,,,,,,,,,,,,,,,,
null,,learn_phase(without_color),972024,black_plus_sign,,,,,null,US_Cities_List/nat_cornwall.png,US_Cities_List/mm_carmel.png,,,,,,,,,,,,,,,,,,,,,,,,,,,,
null,,black_cross(without_color),972876,blue,,,,,null,US_Cities_List/nat_cornwall.png,US_Cities_List/mm_carmel.png,,,,,,,,,,,,,,,,,,,,,,,,,,,,
null,,rt_plussign_withcolor,973391,blue,,,,,null,US_Cities_List/nat_cornwall.png,US_Cities_List/mm_carmel.png,,,,,,,,,,,,,,,,,,,,,,,,,,,,
864,,rt_thecrossant_black,974560,black_plus_sign,,,,,49,,,1,0.9207920792079208,,,,,,,,,,,,,,,,,,,,,,,,,,
null,,color_black,974671,black_plus_sign,,,,,null,,,,,,,,,,,,,,,,,,,,,,,,,,,,,,
null,,learn_phase(without_color),977255,black_plus_sign,,,,,null,US_Cities_List/nat_newhope.png,US_Cities_List/nat_cornwall.png,,,,,,,,,,,,,,,,,,,,,,,,,,,,
null,,black_cross(without_color),978287,green,,,,,null,US_Cities_List/nat_newhope.png,US_Cities_List/nat_cornwall.png,,,,,,,,,,,,,,,,,,,,,,,,,,,,
null,,rt_plussign_withcolor,978791,green,,,,,null,US_Cities_List/nat_newhope.png,US_Cities_List/nat_cornwall.png,,,,,,,,,,,,,,,,,,,,,,,,,,,,
1128.2000000178814,,rt_thecrossant_black,979772,black_plus_sign,,,,,50,,,1,0.9215686274509803,,,,,,,,,,,,,,,,,,,,,,,,,,
null,,color_black,979878,black_plus_sign,,,,,null,,,,,,,,,,,,,,,,,,,,,,,,,,,,,,
null,,learn_phase(without_color),982458,black_plus_sign,,,,,null,US_Cities_List/mm_boulder.png,US_Cities_List/mm_racine.png,,,,,,,,,,,,,,,,,,,,,,,,,,,,
null,,black_cross(without_color),983226,green,,,,,null,US_Cities_List/mm_boulder.png,US_Cities_List/mm_racine.png,,,,,,,,,,,,,,,,,,,,,,,,,,,,
null,,rt_plussign_withcolor,983733,green,,,,,null,US_Cities_List/mm_boulder.png,US_Cities_List/mm_racine.png,,,,,,,,,,,,,,,,,,,,,,,,,,,,
1135.1000000238419,,rt_thecrossant_black,984988,black_plus_sign,,,,,50,,,1,0.9223300970873787,,,,,,,,,,,,,,,,,,,,,,,,,,
null,,color_black,985106,black_plus_sign,,,,,null,,,,,,,,,,,,,,,,,,,,,,,,,,,,,,
null,,learn_phase(without_color),987686,black_plus_sign,,,,,null,US_Cities_List/mm_boulder.png,US_Cities_List/mm_westpalmbeach.png,,,,,,,,,,,,,,,,,,,,,,,,,,,,
null,,black_cross(without_color),988337,blue,,,,,null,US_Cities_List/mm_boulder.png,US_Cities_List/mm_westpalmbeach.png,,,,,,,,,,,,,,,,,,,,,,,,,,,,
474.5,,rt_plussign_withcolor,988848,blue,,,,,49,US_Cities_List/mm_boulder.png,US_Cities_List/mm_westpalmbeach.png,,,,,,,,,,,,,,,,,,,,,,,,,,,,
null,,rt_thecrossant_black,990219,black_plus_sign,,,,,null,,,1,0.9230769230769231,,,,,,,,,,,,,,,,,,,,,,,,,,
null,,color_black,990332,black_plus_sign,,,,,null,,,,,,,,,,,,,,,,,,,,,,,,,,,,,,
null,,learn_phase(without_color),992916,black_plus_sign,,,,,null,US_Cities_List/nat_cornwall.png,US_Cities_List/mm_carmel.png,,,,,,,,,,,,,,,,,,,,,,,,,,,,
null,,black_cross(without_color),993886,blue,,,,,null,US_Cities_List/nat_cornwall.png,US_Cities_List/mm_carmel.png,,,,,,,,,,,,,,,,,,,,,,,,,,,,
505,,rt_plussign_withcolor,994394,blue,,,,,49,US_Cities_List/nat_cornwall.png,US_Cities_List/mm_carmel.png,,,,,,,,,,,,,,,,,,,,,,,,,,,,
null,,rt_thecrossant_black,995438,black_plus_sign,,,,,null,,,1,0.9238095238095239,,,,,,,,,,,,,,,,,,,,,,,,,,
null,,color_black,995542,black_plus_sign,,,,,null,,,,,,,,,,,,,,,,,,,,,,,,,,,,,,
null,,learn_phase(without_color),998140,black_plus_sign,,,,,null,US_Cities_List/mm_carmel.png,US_Cities_List/nat_hanover.png,,,,,,,,,,,,,,,,,,,,,,,,,,,,
null,,black_cross(without_color),998966,blue,,,,,null,US_Cities_List/mm_carmel.png,US_Cities_List/nat_hanover.png,,,,,,,,,,,,,,,,,,,,,,,,,,,,
397.90000000596046,,rt_plussign_withcolor,999476,blue,,,,,49,US_Cities_List/mm_carmel.png,US_Cities_List/nat_hanover.png,,,,,,,,,,,,,,,,,,,,,,,,,,,,
null,,rt_thecrossant_black,1000665,black_plus_sign,,,,,null,,,1,0.9245283018867925,,,,,,,,,,,,,,,,,,,,,,,,,,
null,,color_black,1000769,black_plus_sign,,,,,null,,,,,,,,,,,,,,,,,,,,,,,,,,,,,,
null,,learn_phase(without_color),1003363,black_plus_sign,,,,,null,US_Cities_List/mm_boulder.png,US_Cities_List/mm_westpalmbeach.png,,,,,,,,,,,,,,,,,,,,,,,,,,,,
null,,black_cross(without_color),1003885,green,,,,,null,US_Cities_List/mm_boulder.png,US_Cities_List/mm_westpalmbeach.png,,,,,,,,,,,,,,,,,,,,,,,,,,,,
483,,rt_plussign_withcolor,1004389,green,,,,,49,US_Cities_List/mm_boulder.png,US_Cities_List/mm_westpalmbeach.png,,,,,,,,,,,,,,,,,,,,,,,,,,,,
null,,rt_thecrossant_black,1005892,black_plus_sign,,,,,null,,,0,0.9158878504672897,,,,,,,,,,,,,,,,,,,,,,,,,,
null,,color_black,1005996,black_plus_sign,,,,,null,,,,,,,,,,,,,,,,,,,,,,,,,,,,,,
null,,learn_phase(without_color),1008559,black_plus_sign,,,,,null,US_Cities_List/mm_leesburg.png,US_Cities_List/mm_peoria.png,,,,,,,,,,,,,,,,,,,,,,,,,,,,
null,,black_cross(without_color),1009047,green,,,,,null,US_Cities_List/mm_leesburg.png,US_Cities_List/mm_peoria.png,,,,,,,,,,,,,,,,,,,,,,,,,,,,
455.09999999403954,,rt_plussign_withcolor,1009553,green,,,,,50,US_Cities_List/mm_leesburg.png,US_Cities_List/mm_peoria.png,,,,,,,,,,,,,,,,,,,,,,,,,,,,
null,,rt_thecrossant_black,1011079,black_plus_sign,,,,,null,,,1,0.9166666666666666,,,,,,,,,,,,,,,,,,,,,,,,,,
null,,color_black,1011192,black_plus_sign,,,,,null,,,,,,,,,,,,,,,,,,,,,,,,,,,,,,
null,,learn_phase(without_color),1013780,black_plus_sign,,,,,null,US_Cities_List/nat_shreveport.png,US_Cities_List/nat_newhope.png,,,,,,,,,,,,,,,,,,,,,,,,,,,,
null,,black_cross(without_color),1014386,blue,,,,,null,US_Cities_List/nat_shreveport.png,US_Cities_List/nat_newhope.png,,,,,,,,,,,,,,,,,,,,,,,,,,,,
null,,rt_plussign_withcolor,1014903,blue,,,,,null,US_Cities_List/nat_shreveport.png,US_Cities_List/nat_newhope.png,,,,,,,,,,,,,,,,,,,,,,,,,,,,
615.1999999880791,,rt_thecrossant_black,1016322,black_plus_sign,,,,,49,,,1,0.9174311926605505,,,,,,,,,,,,,,,,,,,,,,,,,,
null,,color_black,1016436,black_plus_sign,,,,,null,,,,,,,,,,,,,,,,,,,,,,,,,,,,,,
null,,learn_phase(without_color),1019024,black_plus_sign,,,,,null,US_Cities_List/mm_boulder.png,US_Cities_List/mm_racine.png,,,,,,,,,,,,,,,,,,,,,,,,,,,,
null,,black_cross(without_color),1019769,blue,,,,,null,US_Cities_List/mm_boulder.png,US_Cities_List/mm_racine.png,,,,,,,,,,,,,,,,,,,,,,,,,,,,
null,,rt_plussign_withcolor,1020280,blue,,,,,null,US_Cities_List/mm_boulder.png,US_Cities_List/mm_racine.png,,,,,,,,,,,,,,,,,,,,,,,,,,,,
831.7000000178814,,rt_thecrossant_black,1021555,black_plus_sign,,,,,49,,,1,0.9181818181818182,,,,,,,,,,,,,,,,,,,,,,,,,,
null,,color_black,1021667,black_plus_sign,,,,,null,,,,,,,,,,,,,,,,,,,,,,,,,,,,,,
null,,learn_phase(without_color),1024250,black_plus_sign,,,,,null,US_Cities_List/nat_hanover.png,US_Cities_List/mm_hotsprings.png,,,,,,,,,,,,,,,,,,,,,,,,,,,,
null,,black_cross(without_color),1024668,blue,,,,,null,US_Cities_List/nat_hanover.png,US_Cities_List/mm_hotsprings.png,,,,,,,,,,,,,,,,,,,,,,,,,,,,
499.80000001192093,,rt_plussign_withcolor,1025171,blue,,,,,49,US_Cities_List/nat_hanover.png,US_Cities_List/mm_hotsprings.png,,,,,,,,,,,,,,,,,,,,,,,,,,,,
null,,rt_thecrossant_black,1026763,black_plus_sign,,,,,null,,,1,0.918918918918919,,,,,,,,,,,,,,,,,,,,,,,,,,
null,,color_black,1026876,black_plus_sign,,,,,null,,,,,,,,,,,,,,,,,,,,,,,,,,,,,,
null,,learn_phase(without_color),1029456,black_plus_sign,,,,,null,US_Cities_List/nat_shreveport.png,US_Cities_List/nat_newhope.png,,,,,,,,,,,,,,,,,,,,,,,,,,,,
null,,black_cross(without_color),1030522,blue,,,,,null,US_Cities_List/nat_shreveport.png,US_Cities_List/nat_newhope.png,,,,,,,,,,,,,,,,,,,,,,,,,,,,
497.5,,rt_plussign_withcolor,1031039,blue,,,,,49,US_Cities_List/nat_shreveport.png,US_Cities_List/nat_newhope.png,,,,,,,,,,,,,,,,,,,,,,,,,,,,
null,,rt_thecrossant_black,1031993,black_plus_sign,,,,,null,,,1,0.9196428571428571,,,,,,,,,,,,,,,,,,,,,,,,,,
null,,color_black,1032097,black_plus_sign,,,,,null,,,,,,,,,,,,,,,,,,,,,,,,,,,,,,
null,,learn_phase(without_color),1034676,black_plus_sign,,,,,null,US_Cities_List/mm_leesburg.png,US_Cities_List/mm_peoria.png,,,,,,,,,,,,,,,,,,,,,,,,,,,,
null,,black_cross(without_color),1035194,green,,,,,null,US_Cities_List/mm_leesburg.png,US_Cities_List/mm_peoria.png,,,,,,,,,,,,,,,,,,,,,,,,,,,,
504.7999999821186,,rt_plussign_withcolor,1035702,green,,,,,50,US_Cities_List/mm_leesburg.png,US_Cities_List/mm_peoria.png,,,,,,,,,,,,,,,,,,,,,,,,,,,,
null,,rt_thecrossant_black,1037198,black_plus_sign,,,,,50,,,1,0.9203539823008849,,,,,,,,,,,,,,,,,,,,,,,,,,
null,,color_black,1037312,black_plus_sign,,,,,null,,,,,,,,,,,,,,,,,,,,,,,,,,,,,,
null,,learn_phase(without_color),1039900,black_plus_sign,,,,,null,US_Cities_List/nat_newhope.png,US_Cities_List/nat_cornwall.png,,,,,,,,,,,,,,,,,,,,,,,,,,,,
null,,black_cross(without_color),1040599,green,,,,,null,US_Cities_List/nat_newhope.png,US_Cities_List/nat_cornwall.png,,,,,,,,,,,,,,,,,,,,,,,,,,,,
null,,rt_plussign_withcolor,1041104,green,,,,,null,US_Cities_List/nat_newhope.png,US_Cities_List/nat_cornwall.png,,,,,,,,,,,,,,,,,,,,,,,,,,,,
642.1999999880791,,rt_thecrossant_black,1042422,black_plus_sign,,,,,50,,,1,0.9210526315789473,,,,,,,,,,,,,,,,,,,,,,,,,,
null,,color_black,1042534,black_plus_sign,,,,,null,,,,,,,,,,,,,,,,,,,,,,,,,,,,,,
null,,learn_phase(without_color),1045166,black_plus_sign,,,,,null,US_Cities_List/mm_hotsprings.png,US_Cities_List/mm_westpalmbeach.png,,,,,,,,,,,,,,,,,,,,,,,,,,,,
null,,black_cross(without_color),1045994,blue,,,,,null,US_Cities_List/mm_hotsprings.png,US_Cities_List/mm_westpalmbeach.png,,,,,,,,,,,,,,,,,,,,,,,,,,,,
null,,rt_plussign_withcolor,1046507,blue,,,,,null,US_Cities_List/mm_hotsprings.png,US_Cities_List/mm_westpalmbeach.png,,,,,,,,,,,,,,,,,,,,,,,,,,,,
800.7999999821186,,rt_thecrossant_black,1047707,black_plus_sign,,,,,49,,,1,0.9217391304347826,,,,,,,,,,,,,,,,,,,,,,,,,,
null,,color_black,1047820,black_plus_sign,,,,,null,,,,,,,,,,,,,,,,,,,,,,,,,,,,,,
null,,learn_phase(without_color),1050406,black_plus_sign,,,,,null,US_Cities_List/mm_boulder.png,US_Cities_List/mm_westpalmbeach.png,,,,,,,,,,,,,,,,,,,,,,,,,,,,
null,,black_cross(without_color),1051317,blue,,,,,null,US_Cities_List/mm_boulder.png,US_Cities_List/mm_westpalmbeach.png,,,,,,,,,,,,,,,,,,,,,,,,,,,,
null,,rt_plussign_withcolor,1051821,blue,,,,,null,US_Cities_List/mm_boulder.png,US_Cities_List/mm_westpalmbeach.png,,,,,,,,,,,,,,,,,,,,,,,,,,,,
1229.5999999940395,,rt_thecrossant_black,1052931,black_plus_sign,,,,,49,,,1,0.9224137931034483,,,,,,,,,,,,,,,,,,,,,,,,,,
null,,color_black,1053039,black_plus_sign,,,,,null,,,,,,,,,,,,,,,,,,,,,,,,,,,,,,
null,,learn_phase(without_color),1055616,black_plus_sign,,,,,null,US_Cities_List/nat_cornwall.png,US_Cities_List/mm_hotsprings.png,,,,,,,,,,,,,,,,,,,,,,,,,,,,
null,,black_cross(without_color),1056174,green,,,,,null,US_Cities_List/nat_cornwall.png,US_Cities_List/mm_hotsprings.png,,,,,,,,,,,,,,,,,,,,,,,,,,,,
null,,rt_plussign_withcolor,1056680,green,,,,,null,US_Cities_List/nat_cornwall.png,US_Cities_List/mm_hotsprings.png,,,,,,,,,,,,,,,,,,,,,,,,,,,,
1204.5999999940395,,rt_thecrossant_black,1058136,black_plus_sign,,,,,50,,,1,0.9230769230769231,,,,,,,,,,,,,,,,,,,,,,,,,,
null,,color_black,1058248,black_plus_sign,,,,,null,,,,,,,,,,,,,,,,,,,,,,,,,,,,,,
null,,learn_phase(without_color),1060838,black_plus_sign,,,,,null,US_Cities_List/nat_hanover.png,US_Cities_List/mm_hotsprings.png,,,,,,,,,,,,,,,,,,,,,,,,,,,,
null,,black_cross(without_color),1061326,blue,,,,,null,US_Cities_List/nat_hanover.png,US_Cities_List/mm_hotsprings.png,,,,,,,,,,,,,,,,,,,,,,,,,,,,
null,,rt_plussign_withcolor,1061829,blue,,,,,null,US_Cities_List/nat_hanover.png,US_Cities_List/mm_hotsprings.png,,,,,,,,,,,,,,,,,,,,,,,,,,,,
791.1999999880791,,rt_thecrossant_black,1063365,black_plus_sign,,,,,49,,,1,0.923728813559322,,,,,,,,,,,,,,,,,,,,,,,,,,
null,,color_black,1063477,black_plus_sign,,,,,null,,,,,,,,,,,,,,,,,,,,,,,,,,,,,,
null,,learn_phase(without_color),1066065,black_plus_sign,,,,,null,US_Cities_List/nat_gatlinburg.png,US_Cities_List/nat_huntsville.png,,,,,,,,,,,,,,,,,,,,,,,,,,,,
null,,black_cross(without_color),1066577,blue,,,,,null,US_Cities_List/nat_gatlinburg.png,US_Cities_List/nat_huntsville.png,,,,,,,,,,,,,,,,,,,,,,,,,,,,
null,,rt_plussign_withcolor,1067084,blue,,,,,null,US_Cities_List/nat_gatlinburg.png,US_Cities_List/nat_huntsville.png,,,,,,,,,,,,,,,,,,,,,,,,,,,,
803.0999999940395,,rt_thecrossant_black,1068583,black_plus_sign,,,,,49,,,1,0.9243697478991597,,,,,,,,,,,,,,,,,,,,,,,,,,
null,,color_black,1068697,black_plus_sign,,,,,null,,,,,,,,,,,,,,,,,,,,,,,,,,,,,,
null,,learn_phase(without_color),1071301,black_plus_sign,,,,,null,US_Cities_List/nat_cornwall.png,US_Cities_List/mm_carmel.png,,,,,,,,,,,,,,,,,,,,,,,,,,,,
null,,black_cross(without_color),1071776,green,,,,,null,US_Cities_List/nat_cornwall.png,US_Cities_List/mm_carmel.png,,,,,,,,,,,,,,,,,,,,,,,,,,,,
null,,rt_plussign_withcolor,1072280,green,,,,,null,US_Cities_List/nat_cornwall.png,US_Cities_List/mm_carmel.png,,,,,,,,,,,,,,,,,,,,,,,,,,,,
676.6999999880791,,rt_thecrossant_black,1073827,black_plus_sign,,,,,50,,,1,0.925,,,,,,,,,,,,,,,,,,,,,,,,,,
null,,color_black,1073939,black_plus_sign,,,,,null,,,,,,,,,,,,,,,,,,,,,,,,,,,,,,
null,,learn_phase(without_color),1076524,black_plus_sign,,,,,null,US_Cities_List/mm_carmel.png,US_Cities_List/mm_leesburg.png,,,,,,,,,,,,,,,,,,,,,,,,,,,,
null,,black_cross(without_color),1077411,green,,,,,null,US_Cities_List/mm_carmel.png,US_Cities_List/mm_leesburg.png,,,,,,,,,,,,,,,,,,,,,,,,,,,,
null,,rt_plussign_withcolor,1077924,green,,,,,null,US_Cities_List/mm_carmel.png,US_Cities_List/mm_leesburg.png,,,,,,,,,,,,,,,,,,,,,,,,,,,,
594.4000000059605,,rt_thecrossant_black,1079060,black_plus_sign,,,,,50,,,1,0.9256198347107438,,,,,,,,,,,,,,,,,,,,,,,,,,
null,,color_black,1079172,black_plus_sign,,,,,null,,,,,,,,,,,,,,,,,,,,,,,,,,,,,,
null,,learn_phase(without_color),1081752,black_plus_sign,,,,,null,US_Cities_List/mm_leesburg.png,US_Cities_List/nat_gatlinburg.png,,,,,,,,,,,,,,,,,,,,,,,,,,,,
null,,black_cross(without_color),1082476,blue,,,,,null,US_Cities_List/mm_leesburg.png,US_Cities_List/nat_gatlinburg.png,,,,,,,,,,,,,,,,,,,,,,,,,,,,
null,,rt_plussign_withcolor,1082988,blue,,,,,null,US_Cities_List/mm_leesburg.png,US_Cities_List/nat_gatlinburg.png,,,,,,,,,,,,,,,,,,,,,,,,,,,,
1146.699999988079,,rt_thecrossant_black,1084284,black_plus_sign,,,,,49,,,1,0.9262295081967213,,,,,,,,,,,,,,,,,,,,,,,,,,
null,,color_black,1084396,black_plus_sign,,,,,null,,,,,,,,,,,,,,,,,,,,,,,,,,,,,,
null,,learn_phase(without_color),1086966,black_plus_sign,,,,,null,US_Cities_List/nat_shreveport.png,US_Cities_List/nat_newhope.png,,,,,,,,,,,,,,,,,,,,,,,,,,,,
null,,black_cross(without_color),1087415,green,,,,,null,US_Cities_List/nat_shreveport.png,US_Cities_List/nat_newhope.png,,,,,,,,,,,,,,,,,,,,,,,,,,,,
null,,rt_plussign_withcolor,1087931,green,,,,,null,US_Cities_List/nat_shreveport.png,US_Cities_List/nat_newhope.png,,,,,,,,,,,,,,,,,,,,,,,,,,,,
1000,,rt_thecrossant_black,1089508,black_plus_sign,,,,,50,,,1,0.926829268292683,,,,,,,,,,,,,,,,,,,,,,,,,,
null,,color_black,1089613,black_plus_sign,,,,,null,,,,,,,,,,,,,,,,,,,,,,,,,,,,,,
null,,learn_phase(without_color),1092188,black_plus_sign,,,,,null,US_Cities_List/nat_cornwall.png,US_Cities_List/mm_carmel.png,,,,,,,,,,,,,,,,,,,,,,,,,,,,
null,,black_cross(without_color),1093270,blue,,,,,null,US_Cities_List/nat_cornwall.png,US_Cities_List/mm_carmel.png,,,,,,,,,,,,,,,,,,,,,,,,,,,,
null,,rt_plussign_withcolor,1093774,blue,,,,,null,US_Cities_List/nat_cornwall.png,US_Cities_List/mm_carmel.png,,,,,,,,,,,,,,,,,,,,,,,,,,,,
700.7000000178814,,rt_thecrossant_black,1094709,black_plus_sign,,,,,49,,,1,0.9274193548387096,,,,,,,,,,,,,,,,,,,,,,,,,,
null,,color_black,1094821,black_plus_sign,,,,,null,,,,,,,,,,,,,,,,,,,,,,,,,,,,,,
null,,learn_phase(without_color),1097408,black_plus_sign,,,,,null,US_Cities_List/nat_gatlinburg.png,US_Cities_List/nat_huntsville.png,,,,,,,,,,,,,,,,,,,,,,,,,,,,
null,,black_cross(without_color),1098506,green,,,,,null,US_Cities_List/nat_gatlinburg.png,US_Cities_List/nat_huntsville.png,,,,,,,,,,,,,,,,,,,,,,,,,,,,
null,,rt_plussign_withcolor,1099014,green,,,,,null,US_Cities_List/nat_gatlinburg.png,US_Cities_List/nat_huntsville.png,,,,,,,,,,,,,,,,,,,,,,,,,,,,
1390.4000000059605,,rt_thecrossant_black,1099931,black_plus_sign,,,,,50,,,1,0.928,,,,,,,,,,,,,,,,,,,,,,,,,,
null,,color_black,1100036,black_plus_sign,,,,,null,,,,,,,,,,,,,,,,,,,,,,,,,,,,,,
null,,learn_phase(without_color),1102612,black_plus_sign,,,,,null,US_Cities_List/nat_gatlinburg.png,US_Cities_List/nat_hanover.png,,,,,,,,,,,,,,,,,,,,,,,,,,,,
null,,black_cross(without_color),1103384,blue,,,,,null,US_Cities_List/nat_gatlinburg.png,US_Cities_List/nat_hanover.png,,,,,,,,,,,,,,,,,,,,,,,,,,,,
473.5,,rt_plussign_withcolor,1103892,blue,,,,,49,US_Cities_List/nat_gatlinburg.png,US_Cities_List/nat_hanover.png,,,,,,,,,,,,,,,,,,,,,,,,,,,,
null,,rt_thecrossant_black,1105127,black_plus_sign,,,,,null,,,1,0.9285714285714286,,,,,,,,,,,,,,,,,,,,,,,,,,
null,,color_black,1105232,black_plus_sign,,,,,null,,,,,,,,,,,,,,,,,,,,,,,,,,,,,,
null,,learn_phase(without_color),1107831,black_plus_sign,,,,,null,US_Cities_List/mm_carmel.png,US_Cities_List/mm_leesburg.png,,,,,,,,,,,,,,,,,,,,,,,,,,,,
null,,black_cross(without_color),1108832,blue,,,,,null,US_Cities_List/mm_carmel.png,US_Cities_List/mm_leesburg.png,,,,,,,,,,,,,,,,,,,,,,,,,,,,
null,,rt_plussign_withcolor,1109339,blue,,,,,null,US_Cities_List/mm_carmel.png,US_Cities_List/mm_leesburg.png,,,,,,,,,,,,,,,,,,,,,,,,,,,,
992.9000000059605,,rt_thecrossant_black,1110347,black_plus_sign,,,,,49,,,1,0.9291338582677166,,,,,,,,,,,,,,,,,,,,,,,,,,
null,,color_black,1110459,black_plus_sign,,,,,null,,,,,,,,,,,,,,,,,,,,,,,,,,,,,,
null,,learn_phase(without_color),1113052,black_plus_sign,,,,,null,US_Cities_List/mm_carmel.png,US_Cities_List/nat_hanover.png,,,,,,,,,,,,,,,,,,,,,,,,,,,,
null,,black_cross(without_color),1113567,blue,,,,,null,US_Cities_List/mm_carmel.png,US_Cities_List/nat_hanover.png,,,,,,,,,,,,,,,,,,,,,,,,,,,,
null,,rt_plussign_withcolor,1114074,blue,,,,,null,US_Cities_List/mm_carmel.png,US_Cities_List/nat_hanover.png,,,,,,,,,,,,,,,,,,,,,,,,,,,,
1115.1000000238419,,rt_thecrossant_black,1115581,black_plus_sign,,,,,49,,,1,0.9296875,,,,,,,,,,,,,,,,,,,,,,,,,,
null,,color_black,1115685,black_plus_sign,,,,,null,,,,,,,,,,,,,,,,,,,,,,,,,,,,,,
18846.20000001788,,intro_1,1134535,instruct,,,0,,,,,,,,,,,,,,,,,,,,,,,,,,,,,,,,
25933.69999998808,,intro_2,1160471,instruct,,,1,Next,,,,,,,,,,,,,,,,,,,,,,,,,,,,,,,
3235.5999999940395,,directmemory_phase,1163771,../static/images/US_Cities_List/mm_westpalmbeach.png,,,,,50,,,1,1,../static/images/US_Cities_List/nat_newhope.png,../static/images/US_Cities_List/mm_boulder.png,../static/images/US_Cities_List/mm_carmel.png,../static/images/US_Cities_List/mm_boulder.png,../static/images/US_Cities_List/nat_newhope.png,../static/images/US_Cities_List/mm_carmel.png,1,,,,,,,,,,,,,,,,,,,
null,,html-keyboard-response,1164786,<p></p>,,,,,null,,,,,,,,,,,,,,,,,,,,,,,,,,,,,,
2998.7000000178814,,directmemory_phase,1167894,../static/images/US_Cities_List/nat_cornwall.png,,,,,51,,,0,0.5,../static/images/US_Cities_List/mm_hotsprings.png,../static/images/US_Cities_List/mm_peoria.png,../static/images/US_Cities_List/mm_westpalmbeach.png,../static/images/US_Cities_List/mm_hotsprings.png,../static/images/US_Cities_List/mm_westpalmbeach.png,../static/images/US_Cities_List/mm_peoria.png,0.5,closer,,,,,,,,,,,,,,,,,,
null,,html-keyboard-response,1168909,<p></p>,,,,,null,,,,,,,,,,,,,,,,,,,,,,,,,,,,,,
2795.7000000178814,,directmemory_phase,1171816,../static/images/US_Cities_List/mm_boulder.png,,,,,51,,,1,0.6666666666666666,../static/images/US_Cities_List/mm_leesburg.png,../static/images/US_Cities_List/nat_shreveport.png,../static/images/US_Cities_List/mm_westpalmbeach.png,../static/images/US_Cities_List/mm_westpalmbeach.png,../static/images/US_Cities_List/nat_shreveport.png,../static/images/US_Cities_List/mm_leesburg.png,1,,,,,,,,,,,,,,,,,,,
null,,html-keyboard-response,1172844,<p></p>,,,,,null,,,,,,,,,,,,,,,,,,,,,,,,,,,,,,
1944,,directmemory_phase,1174907,../static/images/US_Cities_List/mm_leesburg.png,,,,,49,,,0,0.5,../static/images/US_Cities_List/mm_westpalmbeach.png,../static/images/US_Cities_List/nat_cornwall.png,../static/images/US_Cities_List/nat_gatlinburg.png,../static/images/US_Cities_List/nat_gatlinburg.png,../static/images/US_Cities_List/nat_cornwall.png,../static/images/US_Cities_List/mm_westpalmbeach.png,0.5,closer,,,,,,,,,,,,,,,,,,
null,,html-keyboard-response,1175926,<p></p>,,,,,null,,,,,,,,,,,,,,,,,,,,,,,,,,,,,,
2591.5,,directmemory_phase,1178614,../static/images/US_Cities_List/mm_boulder.png,,,,,49,,,0,0.4,../static/images/US_Cities_List/mm_leesburg.png,../static/images/US_Cities_List/nat_cornwall.png,../static/images/US_Cities_List/nat_newhope.png,../static/images/US_Cities_List/nat_newhope.png,../static/images/US_Cities_List/nat_cornwall.png,../static/images/US_Cities_List/mm_leesburg.png,0.5,closer,,,,,,,,,,,,,,,,,,
null,,html-keyboard-response,1179637,<p></p>,,,,,null,,,,,,,,,,,,,,,,,,,,,,,,,,,,,,
2413.300000011921,,directmemory_phase,1182151,../static/images/US_Cities_List/nat_gatlinburg.png,,,,,51,,,0,0.3333333333333333,../static/images/US_Cities_List/mm_hotsprings.png,../static/images/US_Cities_List/nat_huntsville.png,../static/images/US_Cities_List/mm_boulder.png,../static/images/US_Cities_List/nat_huntsville.png,../static/images/US_Cities_List/mm_hotsprings.png,../static/images/US_Cities_List/mm_boulder.png,0.5,closer,,,,,,,,,,,,,,,,,,
null,,html-keyboard-response,1183170,<p></p>,,,,,null,,,,,,,,,,,,,,,,,,,,,,,,,,,,,,
2645.9000000059605,,directmemory_phase,1185951,../static/images/US_Cities_List/mm_carmel.png,,,,,50,,,0,0.2857142857142857,../static/images/US_Cities_List/mm_westpalmbeach.png,../static/images/US_Cities_List/nat_newhope.png,../static/images/US_Cities_List/mm_leesburg.png,../static/images/US_Cities_List/mm_leesburg.png,../static/images/US_Cities_List/nat_newhope.png,../static/images/US_Cities_List/mm_westpalmbeach.png,0.5,closer,,,,,,,,,,,,,,,,,,
null,,html-keyboard-response,1186966,<p></p>,,,,,null,,,,,,,,,,,,,,,,,,,,,,,,,,,,,,
2123.5999999940395,,directmemory_phase,1189205,../static/images/US_Cities_List/nat_hanover.png,,,,,50,,,0,0.25,../static/images/US_Cities_List/nat_gatlinburg.png,../static/images/US_Cities_List/nat_shreveport.png,../static/images/US_Cities_List/nat_cornwall.png,../static/images/US_Cities_List/nat_gatlinburg.png,../static/images/US_Cities_List/nat_cornwall.png,../static/images/US_Cities_List/nat_shreveport.png,0.5,closer,,,,,,,,,,,,,,,,,,
null,,html-keyboard-response,1190218,<p></p>,,,,,null,,,,,,,,,,,,,,,,,,,,,,,,,,,,,,
2444.2999999821186,,directmemory_phase,1192792,../static/images/US_Cities_List/mm_leesburg.png,,,,,49,,,1,0.3333333333333333,../static/images/US_Cities_List/mm_carmel.png,../static/images/US_Cities_List/mm_boulder.png,../static/images/US_Cities_List/nat_cornwall.png,../static/images/US_Cities_List/mm_carmel.png,../static/images/US_Cities_List/nat_cornwall.png,../static/images/US_Cities_List/mm_boulder.png,1,,,,,,,,,,,,,,,,,,,
null,,html-keyboard-response,1193811,<p></p>,,,,,null,,,,,,,,,,,,,,,,,,,,,,,,,,,,,,
2627.5999999940395,,directmemory_phase,1196582,../static/images/US_Cities_List/mm_westpalmbeach.png,,,,,50,,,0,0.3,../static/images/US_Cities_List/nat_shreveport.png,../static/images/US_Cities_List/nat_cornwall.png,../static/images/US_Cities_List/mm_hotsprings.png,../static/images/US_Cities_List/mm_hotsprings.png,../static/images/US_Cities_List/nat_cornwall.png,../static/images/US_Cities_List/nat_shreveport.png,0.5,closer,,,,,,,,,,,,,,,,,,
null,,html-keyboard-response,1197604,<p></p>,,,,,null,,,,,,,,,,,,,,,,,,,,,,,,,,,,,,
2420.699999988079,,directmemory_phase,1200108,../static/images/US_Cities_List/mm_racine.png,,,,,49,,,0,0.2727272727272727,../static/images/US_Cities_List/nat_newhope.png,../static/images/US_Cities_List/mm_boulder.png,../static/images/US_Cities_List/nat_hanover.png,../static/images/US_Cities_List/mm_boulder.png,../static/images/US_Cities_List/nat_newhope.png,../static/images/US_Cities_List/nat_hanover.png,0.5,closer,,,,,,,,,,,,,,,,,,
null,,html-keyboard-response,1201122,<p></p>,,,,,null,,,,,,,,,,,,,,,,,,,,,,,,,,,,,,
3813.5,,directmemory_phase,1205030,../static/images/US_Cities_List/mm_hotsprings.png,,,,,51,,,0,0.25,../static/images/US_Cities_List/nat_cornwall.png,../static/images/US_Cities_List/nat_huntsville.png,../static/images/US_Cities_List/nat_gatlinburg.png,../static/images/US_Cities_List/nat_cornwall.png,../static/images/US_Cities_List/nat_gatlinburg.png,../static/images/US_Cities_List/nat_huntsville.png,0.5,closer,,,,,,,,,,,,,,,,,,
null,,html-keyboard-response,1206048,<p></p>,,,,,null,,,,,,,,,,,,,,,,,,,,,,,,,,,,,,
2722.2999999821186,,directmemory_phase,1208879,../static/images/US_Cities_List/nat_shreveport.png,,,,,51,,,0,0.23076923076923078,../static/images/US_Cities_List/nat_newhope.png,../static/images/US_Cities_List/mm_westpalmbeach.png,../static/images/US_Cities_List/mm_boulder.png,../static/images/US_Cities_List/nat_newhope.png,../static/images/US_Cities_List/mm_boulder.png,../static/images/US_Cities_List/mm_westpalmbeach.png,0.5,closer,,,,,,,,,,,,,,,,,,
null,,html-keyboard-response,1209900,<p></p>,,,,,null,,,,,,,,,,,,,,,,,,,,,,,,,,,,,,
1581.4000000059605,,directmemory_phase,1211599,../static/images/US_Cities_List/nat_hanover.png,,,,,49,,,0,0.21428571428571427,../static/images/US_Cities_List/mm_racine.png,../static/images/US_Cities_List/mm_peoria.png,../static/images/US_Cities_List/mm_leesburg.png,../static/images/US_Cities_List/mm_leesburg.png,../static/images/US_Cities_List/mm_peoria.png,../static/images/US_Cities_List/mm_racine.png,0.5,closer,,,,,,,,,,,,,,,,,,
null,,html-keyboard-response,1212618,<p></p>,,,,,null,,,,,,,,,,,,,,,,,,,,,,,,,,,,,,
1963.199999988079,,directmemory_phase,1214680,../static/images/US_Cities_List/nat_newhope.png,,,,,49,,,0,0.2,../static/images/US_Cities_List/mm_peoria.png,../static/images/US_Cities_List/mm_racine.png,../static/images/US_Cities_List/nat_shreveport.png,../static/images/US_Cities_List/nat_shreveport.png,../static/images/US_Cities_List/mm_racine.png,../static/images/US_Cities_List/mm_peoria.png,0.5,closer,,,,,,,,,,,,,,,,,,
null,,html-keyboard-response,1215699,<p></p>,,,,,null,,,,,,,,,,,,,,,,,,,,,,,,,,,,,,
2737.0999999940395,,directmemory_phase,1218573,../static/images/US_Cities_List/nat_gatlinburg.png,,,,,51,,,0,0.1875,../static/images/US_Cities_List/mm_peoria.png,../static/images/US_Cities_List/mm_leesburg.png,../static/images/US_Cities_List/mm_boulder.png,../static/images/US_Cities_List/mm_leesburg.png,../static/images/US_Cities_List/mm_peoria.png,../static/images/US_Cities_List/mm_boulder.png,0.5,closer,,,,,,,,,,,,,,,,,,
null,,html-keyboard-response,1219600,<p></p>,,,,,null,,,,,,,,,,,,,,,,,,,,,,,,,,,,,,
2258.2000000178814,,directmemory_phase,1221978,../static/images/US_Cities_List/nat_newhope.png,,,,,50,,,0,0.17647058823529413,../static/images/US_Cities_List/nat_hanover.png,../static/images/US_Cities_List/mm_hotsprings.png,../static/images/US_Cities_List/nat_cornwall.png,../static/images/US_Cities_List/nat_cornwall.png,../static/images/US_Cities_List/mm_hotsprings.png,../static/images/US_Cities_List/nat_hanover.png,0.5,closer,,,,,,,,,,,,,,,,,,
null,,html-keyboard-response,1222996,<p></p>,,,,,null,,,,,,,,,,,,,,,,,,,,,,,,,,,,,,
2170.5999999940395,,directmemory_phase,1225262,../static/images/US_Cities_List/mm_leesburg.png,,,,,49,,,0,0.16666666666666666,../static/images/US_Cities_List/nat_newhope.png,../static/images/US_Cities_List/nat_cornwall.png,../static/images/US_Cities_List/mm_peoria.png,../static/images/US_Cities_List/mm_peoria.png,../static/images/US_Cities_List/nat_cornwall.png,../static/images/US_Cities_List/nat_newhope.png,0.5,closer,,,,,,,,,,,,,,,,,,
null,,html-keyboard-response,1226278,<p></p>,,,,,null,,,,,,,,,,,,,,,,,,,,,,,,,,,,,,
2985.800000011921,,directmemory_phase,1229364,../static/images/US_Cities_List/nat_cornwall.png,,,,,51,,,1,0.21052631578947367,../static/images/US_Cities_List/nat_huntsville.png,../static/images/US_Cities_List/mm_westpalmbeach.png,../static/images/US_Cities_List/mm_carmel.png,../static/images/US_Cities_List/mm_carmel.png,../static/images/US_Cities_List/mm_westpalmbeach.png,../static/images/US_Cities_List/nat_huntsville.png,1,,,,,,,,,,,,,,,,,,,
null,,html-keyboard-response,1230380,<p></p>,,,,,null,,,,,,,,,,,,,,,,,,,,,,,,,,,,,,
2016.7000000178814,,directmemory_phase,1232508,../static/images/US_Cities_List/mm_hotsprings.png,,,,,50,,,0,0.2,../static/images/US_Cities_List/mm_westpalmbeach.png,../static/images/US_Cities_List/nat_huntsville.png,../static/images/US_Cities_List/nat_newhope.png,../static/images/US_Cities_List/mm_westpalmbeach.png,../static/images/US_Cities_List/nat_newhope.png,../static/images/US_Cities_List/nat_huntsville.png,0.5,closer,,,,,,,,,,,,,,,,,,
null,,html-keyboard-response,1233529,<p></p>,,,,,null,,,,,,,,,,,,,,,,,,,,,,,,,,,,,,
1423.0999999940395,,directmemory_phase,1235073,../static/images/US_Cities_List/nat_cornwall.png,,,,,49,,,0,0.19047619047619047,../static/images/US_Cities_List/mm_leesburg.png,../static/images/US_Cities_List/nat_newhope.png,../static/images/US_Cities_List/mm_racine.png,../static/images/US_Cities_List/nat_newhope.png,../static/images/US_Cities_List/mm_leesburg.png,../static/images/US_Cities_List/mm_racine.png,0.5,closer,,,,,,,,,,,,,,,,,,
null,,html-keyboard-response,1236094,<p></p>,,,,,null,,,,,,,,,,,,,,,,,,,,,,,,,,,,,,
1960.5,,directmemory_phase,1238198,../static/images/US_Cities_List/nat_gatlinburg.png,,,,,51,,,1,0.22727272727272727,../static/images/US_Cities_List/nat_newhope.png,../static/images/US_Cities_List/mm_hotsprings.png,../static/images/US_Cities_List/nat_hanover.png,../static/images/US_Cities_List/nat_hanover.png,../static/images/US_Cities_List/mm_hotsprings.png,../static/images/US_Cities_List/nat_newhope.png,1,,,,,,,,,,,,,,,,,,,
null,,html-keyboard-response,1239224,<p></p>,,,,,null,,,,,,,,,,,,,,,,,,,,,,,,,,,,,,
2911.5999999940395,,directmemory_phase,1242250,../static/images/US_Cities_List/mm_carmel.png,,,,,50,,,0,0.21739130434782608,../static/images/US_Cities_List/mm_racine.png,../static/images/US_Cities_List/nat_gatlinburg.png,../static/images/US_Cities_List/nat_cornwall.png,../static/images/US_Cities_List/nat_cornwall.png,../static/images/US_Cities_List/nat_gatlinburg.png,../static/images/US_Cities_List/mm_racine.png,0.5,closer,,,,,,,,,,,,,,,,,,
null,,html-keyboard-response,1243264,<p></p>,,,,,null,,,,,,,,,,,,,,,,,,,,,,,,,,,,,,
2206.7000000178814,,directmemory_phase,1245623,../static/images/US_Cities_List/nat_huntsville.png,,,,,51,,,1,0.25,../static/images/US_Cities_List/mm_westpalmbeach.png,../static/images/US_Cities_List/mm_leesburg.png,../static/images/US_Cities_List/nat_gatlinburg.png,../static/images/US_Cities_List/nat_gatlinburg.png,../static/images/US_Cities_List/mm_leesburg.png,../static/images/US_Cities_List/mm_westpalmbeach.png,1,,,,,,,,,,,,,,,,,,,
null,,html-keyboard-response,1246646,<p></p>,,,,,null,,,,,,,,,,,,,,,,,,,,,,,,,,,,,,
