rt,responses,trial_type,time_elapsed,stimulus,cities,city_images,button_pressed,response,key_press,stimulus_left,stimulus_right,accuracy,cumulative_accuracy,stimulus_down_left,stimulus_down_mid,stimulus_down_right,stimulus_correct,stimulus_short,stimulus_far,weighted_accuracy,missedtrial,condition,specific_pairs,imgL_ID,imgR_ID,linedress,linedressed,image_position,unknowncity,testedstates,currentstate,otherstate,problems,smooth,distraction,strategies,easier,similar,comments,detectfocus
6957.29999999702,{worker_id:67cdd01182952d5b5915999d},id_enter,6966,intro,Gatlinburg; Peoria; Hot Springs; West Palm Beach; Carmel; Racine; Hanover; Huntsville; Shreveport; New Hope; Cornwall; Leesburg; Boulder,US_Cities_List/mm_gatlinburg.png; US_Cities_List/nat_peoria.png; US_Cities_List/nat_hotsprings.png; US_Cities_List/nat_westpalmbeach.png; US_Cities_List/nat_carmel.png; US_Cities_List/nat_racine.png; US_Cities_List/nat_hanover.png; US_Cities_List/mm_huntsville.png; US_Cities_List/nat_shreveport.png; US_Cities_List/nat_newhope.png; US_Cities_List/nat_cornwall.png; US_Cities_List/mm_leesburg.png; US_Cities_List/nat_boulder.png,,,,,,,,,,,,,,,,,,,,,,,,,,,,,,,,,,
12688.39999999851,,fullscreen,19669,make_fullscreen,,,0,,,,,,,,,,,,,,,,,,,,,,,,,,,,,,,,,
6782.699999999255,,intro_1,26458,instruct,,,0,,,,,,,,,,,,,,,,,,,,,,,,,,,,,,,,,
10202.300000000745,,intro_2,36662,instruct,,,1,Next,,,,,,,,,,,,,,,,,,,,,,,,,,,,,,,,
11623.39999999851,,intro_3,48287,instruct,,,1,Next,,,,,,,,,,,,,,,,,,,,,,,,,,,,,,,,
41112.89999999851,,intro_4,89402,instruct,,,1,Next,,,,,,,,,,,,,,,,,,,,,,,,,,,,,,,,
6429,,intro_5,95832,instruct,,,1,Next,,,,,,,,,,,,,,,,,,,,,,,,,,,,,,,,
23235.10000000149,,intro_6,119069,instruct,,,1,Next,,,,,,,,,,,,,,,,,,,,,,,,,,,,,,,,
null,,prac_atten_color_black,119672,black_plus_sign,,,,,null,,,,,,,,,,,,,,,,,,,,,,,,,,,,,,,
null,,prac_atten_color,120473,prac_stop_color,,,,,null,,,,,,,,,,,,,,,,,,,,,,,,,,,,,,,
608.5,,prac_atten_color_black,122475,black_plus_sign,,,,,49,,,,,,,,,,,,,,,,,,,,,,,,,,,,,,,
null,,prac_atten_color_black,123078,black_plus_sign,,,,,null,,,,,,,,,,,,,,,,,,,,,,,,,,,,,,,
638.5,,prac_atten_color,123885,prac_stop_color,,,,,50,,,,,,,,,,,,,,,,,,,,,,,,,,,,,,,
null,,prac_atten_color_black,125888,black_plus_sign,,,,,null,,,,,,,,,,,,,,,,,,,,,,,,,,,,,,,
null,,prac_atten_color_black,126490,black_plus_sign,,,,,null,,,,,,,,,,,,,,,,,,,,,,,,,,,,,,,
null,,prac_atten_color,126959,prac_stop_color,,,,,null,,,,,,,,,,,,,,,,,,,,,,,,,,,,,,,
8.5,,prac_atten_color_black,128961,black_plus_sign,,,,,50,,,,,,,,,,,,,,,,,,,,,,,,,,,,,,,
null,,prac_atten_color_black,129896,black_plus_sign,,,,,null,,,,,,,,,,,,,,,,,,,,,,,,,,,,,,,
531.8999999985099,,prac_atten_color,130523,prac_stop_color,,,,,49,,,,,,,,,,,,,,,,,,,,,,,,,,,,,,,
null,,prac_atten_color_black,132525,black_plus_sign,,,,,null,,,,,,,,,,,,,,,,,,,,,,,,,,,,,,,
null,,prac_atten_color_black,133301,black_plus_sign,,,,,null,,,,,,,,,,,,,,,,,,,,,,,,,,,,,,,
653.4000000022352,,prac_atten_color,134178,prac_stop_color,,,,,49,,,,,,,,,,,,,,,,,,,,,,,,,,,,,,,
null,,prac_atten_color_black,136180,black_plus_sign,,,,,null,,,,,,,,,,,,,,,,,,,,,,,,,,,,,,,
4705.10000000149,,attentioncheck_help,140886,instruct,,,,,32,,,,,,,,,,,,,,,,,,,,,,,,,,,,,,,
null,,prac_atten_color_black,141427,black_plus_sign,,,,,null,,,,,,,,,,,,,,,,,,,,,,,,,,,,,,,
957.1999999992549,,prac_atten_color,142432,prac_stop_color,,,,,50,,,,,,,,,,,,,,,,,,,,,,,,,,,,,,,
null,,prac_atten_color_black,144435,black_plus_sign,,,,,null,,,,,,,,,,,,,,,,,,,,,,,,,,,,,,,
null,,prac_atten_color_black,144833,black_plus_sign,,,,,null,,,,,,,,,,,,,,,,,,,,,,,,,,,,,,,
524.6000000014901,,prac_atten_color,145794,prac_stop_color,,,,,49,,,,,,,,,,,,,,,,,,,,,,,,,,,,,,,
null,,prac_atten_color_black,147795,black_plus_sign,,,,,null,,,,,,,,,,,,,,,,,,,,,,,,,,,,,,,
null,,prac_atten_color_black,148238,black_plus_sign,,,,,null,,,,,,,,,,,,,,,,,,,,,,,,,,,,,,,
607.5999999977648,,prac_atten_color,149089,prac_stop_color,,,,,50,,,,,,,,,,,,,,,,,,,,,,,,,,,,,,,
null,,prac_atten_color_black,151090,black_plus_sign,,,,,null,,,,,,,,,,,,,,,,,,,,,,,,,,,,,,,
null,,prac_atten_color_black,151643,black_plus_sign,,,,,null,,,,,,,,,,,,,,,,,,,,,,,,,,,,,,,
371.6000000014901,,prac_atten_color,152533,prac_stop_color,,,,,49,,,,,,,,,,,,,,,,,,,,,,,,,,,,,,,
null,,prac_atten_color_black,154535,black_plus_sign,,,,,null,,,,,,,,,,,,,,,,,,,,,,,,,,,,,,,
null,,prac_atten_color_black,155049,black_plus_sign,,,,,null,,,,,,,,,,,,,,,,,,,,,,,,,,,,,,,
385.5,,prac_atten_color,155934,prac_stop_color,,,,,49,,,,,,,,,,,,,,,,,,,,,,,,,,,,,,,
null,,prac_atten_color_black,157936,black_plus_sign,,,,,null,,,,,,,,,,,,,,,,,,,,,,,,,,,,,,,
11404.599999997765,,attentioncheck_feedback,169342,cross_check_feedback,,,0,,,,,,,,,,,,,,,,,,,,,,,,,,,,,,,,,
11317.400000002235,,last_instruct,180660,instruct,,,,,32,,,,,,,,,,,,,,,,,,,,,,,,,,,,,,,
null,,learn_phase(without_color),182685,black_plus_sign,,,,,null,US_Cities_List/nat_racine.png,US_Cities_List/nat_hanover.png,,,,,,,,,,,,,,,,,,,,,,,,,,,,,
null,,black_cross(without_color),183486,green,,,,,null,US_Cities_List/nat_racine.png,US_Cities_List/nat_hanover.png,,,,,,,,,,,,,,,,,,,,,,,,,,,,,
null,,rt_plussign_withcolor,183987,green,,,,,null,US_Cities_List/nat_racine.png,US_Cities_List/nat_hanover.png,,,,,,,,,,,,,,,,,,,,,,,,,,,,,
936.1999999992549,,rt_thecrossant_black,185190,black_plus_sign,,,,,50,,,1,1,,,,,,,,,,,,,,,,,,,,,,,,,,,
null,,color_black,185292,black_plus_sign,,,,,null,,,,,,,,,,,,,,,,,,,,,,,,,,,,,,,
null,,learn_phase(without_color),187825,black_plus_sign,,,,,null,US_Cities_List/nat_racine.png,US_Cities_List/nat_shreveport.png,,,,,,,,,,,,,,,,,,,,,,,,,,,,,
null,,black_cross(without_color),188489,blue,,,,,null,US_Cities_List/nat_racine.png,US_Cities_List/nat_shreveport.png,,,,,,,,,,,,,,,,,,,,,,,,,,,,,
null,,rt_plussign_withcolor,188990,blue,,,,,null,US_Cities_List/nat_racine.png,US_Cities_List/nat_shreveport.png,,,,,,,,,,,,,,,,,,,,,,,,,,,,,
1290.800000000745,,rt_thecrossant_black,190330,black_plus_sign,,,,,49,,,1,1,,,,,,,,,,,,,,,,,,,,,,,,,,,
null,,color_black,190432,black_plus_sign,,,,,null,,,,,,,,,,,,,,,,,,,,,,,,,,,,,,,
null,,learn_phase(without_color),192964,black_plus_sign,,,,,null,US_Cities_List/nat_hotsprings.png,US_Cities_List/nat_racine.png,,,,,,,,,,,,,,,,,,,,,,,,,,,,,
null,,black_cross(without_color),193756,green,,,,,null,US_Cities_List/nat_hotsprings.png,US_Cities_List/nat_racine.png,,,,,,,,,,,,,,,,,,,,,,,,,,,,,
null,,rt_plussign_withcolor,194257,green,,,,,null,US_Cities_List/nat_hotsprings.png,US_Cities_List/nat_racine.png,,,,,,,,,,,,,,,,,,,,,,,,,,,,,
1039.9000000022352,,rt_thecrossant_black,195471,black_plus_sign,,,,,50,,,1,1,,,,,,,,,,,,,,,,,,,,,,,,,,,
null,,color_black,195573,black_plus_sign,,,,,null,,,,,,,,,,,,,,,,,,,,,,,,,,,,,,,
null,,learn_phase(without_color),198102,black_plus_sign,,,,,null,US_Cities_List/nat_hanover.png,US_Cities_List/mm_huntsville.png,,,,,,,,,,,,,,,,,,,,,,,,,,,,,
null,,black_cross(without_color),198741,green,,,,,null,US_Cities_List/nat_hanover.png,US_Cities_List/mm_huntsville.png,,,,,,,,,,,,,,,,,,,,,,,,,,,,,
null,,rt_plussign_withcolor,199242,green,,,,,null,US_Cities_List/nat_hanover.png,US_Cities_List/mm_huntsville.png,,,,,,,,,,,,,,,,,,,,,,,,,,,,,
1519.5,,rt_thecrossant_black,200606,black_plus_sign,,,,,50,,,1,1,,,,,,,,,,,,,,,,,,,,,,,,,,,
null,,color_black,200708,black_plus_sign,,,,,null,,,,,,,,,,,,,,,,,,,,,,,,,,,,,,,
null,,learn_phase(without_color),203243,black_plus_sign,,,,,null,US_Cities_List/nat_peoria.png,US_Cities_List/nat_hotsprings.png,,,,,,,,,,,,,,,,,,,,,,,,,,,,,
null,,black_cross(without_color),204048,blue,,,,,null,US_Cities_List/nat_peoria.png,US_Cities_List/nat_hotsprings.png,,,,,,,,,,,,,,,,,,,,,,,,,,,,,
null,,rt_plussign_withcolor,204550,blue,,,,,null,US_Cities_List/nat_peoria.png,US_Cities_List/nat_hotsprings.png,,,,,,,,,,,,,,,,,,,,,,,,,,,,,
890.8000000007451,,rt_thecrossant_black,205748,black_plus_sign,,,,,49,,,1,1,,,,,,,,,,,,,,,,,,,,,,,,,,,
null,,color_black,205851,black_plus_sign,,,,,null,,,,,,,,,,,,,,,,,,,,,,,,,,,,,,,
null,,learn_phase(without_color),208378,black_plus_sign,,,,,null,US_Cities_List/nat_hanover.png,US_Cities_List/nat_boulder.png,,,,,,,,,,,,,,,,,,,,,,,,,,,,,
null,,black_cross(without_color),208827,green,,,,,null,US_Cities_List/nat_hanover.png,US_Cities_List/nat_boulder.png,,,,,,,,,,,,,,,,,,,,,,,,,,,,,
null,,rt_plussign_withcolor,209329,green,,,,,null,US_Cities_List/nat_hanover.png,US_Cities_List/nat_boulder.png,,,,,,,,,,,,,,,,,,,,,,,,,,,,,
1237,,rt_thecrossant_black,210884,black_plus_sign,,,,,50,,,1,1,,,,,,,,,,,,,,,,,,,,,,,,,,,
null,,color_black,210985,black_plus_sign,,,,,null,,,,,,,,,,,,,,,,,,,,,,,,,,,,,,,
null,,learn_phase(without_color),213514,black_plus_sign,,,,,null,US_Cities_List/nat_hanover.png,US_Cities_List/mm_huntsville.png,,,,,,,,,,,,,,,,,,,,,,,,,,,,,
null,,black_cross(without_color),214304,green,,,,,null,US_Cities_List/nat_hanover.png,US_Cities_List/mm_huntsville.png,,,,,,,,,,,,,,,,,,,,,,,,,,,,,
null,,rt_plussign_withcolor,214806,green,,,,,null,US_Cities_List/nat_hanover.png,US_Cities_List/mm_huntsville.png,,,,,,,,,,,,,,,,,,,,,,,,,,,,,
872.5,,rt_thecrossant_black,216020,black_plus_sign,,,,,50,,,1,1,,,,,,,,,,,,,,,,,,,,,,,,,,,
null,,color_black,216122,black_plus_sign,,,,,null,,,,,,,,,,,,,,,,,,,,,,,,,,,,,,,
null,,learn_phase(without_color),218650,black_plus_sign,,,,,null,US_Cities_List/nat_westpalmbeach.png,US_Cities_List/nat_carmel.png,,,,,,,,,,,,,,,,,,,,,,,,,,,,,
null,,black_cross(without_color),219164,green,,,,,null,US_Cities_List/nat_westpalmbeach.png,US_Cities_List/nat_carmel.png,,,,,,,,,,,,,,,,,,,,,,,,,,,,,
null,,rt_plussign_withcolor,219667,green,,,,,null,US_Cities_List/nat_westpalmbeach.png,US_Cities_List/nat_carmel.png,,,,,,,,,,,,,,,,,,,,,,,,,,,,,
1282.5999999977648,,rt_thecrossant_black,221155,black_plus_sign,,,,,50,,,1,1,,,,,,,,,,,,,,,,,,,,,,,,,,,
null,,color_black,221257,black_plus_sign,,,,,null,,,,,,,,,,,,,,,,,,,,,,,,,,,,,,,
null,,learn_phase(without_color),223788,black_plus_sign,,,,,null,US_Cities_List/nat_racine.png,US_Cities_List/nat_shreveport.png,,,,,,,,,,,,,,,,,,,,,,,,,,,,,
null,,black_cross(without_color),224468,green,,,,,null,US_Cities_List/nat_racine.png,US_Cities_List/nat_shreveport.png,,,,,,,,,,,,,,,,,,,,,,,,,,,,,
null,,rt_plussign_withcolor,224970,green,,,,,null,US_Cities_List/nat_racine.png,US_Cities_List/nat_shreveport.png,,,,,,,,,,,,,,,,,,,,,,,,,,,,,
898.6999999992549,,rt_thecrossant_black,226294,black_plus_sign,,,,,50,,,1,1,,,,,,,,,,,,,,,,,,,,,,,,,,,
null,,color_black,226396,black_plus_sign,,,,,null,,,,,,,,,,,,,,,,,,,,,,,,,,,,,,,
null,,learn_phase(without_color),228928,black_plus_sign,,,,,null,US_Cities_List/nat_hanover.png,US_Cities_List/mm_huntsville.png,,,,,,,,,,,,,,,,,,,,,,,,,,,,,
null,,black_cross(without_color),229444,green,,,,,null,US_Cities_List/nat_hanover.png,US_Cities_List/mm_huntsville.png,,,,,,,,,,,,,,,,,,,,,,,,,,,,,
null,,rt_plussign_withcolor,229946,green,,,,,null,US_Cities_List/nat_hanover.png,US_Cities_List/mm_huntsville.png,,,,,,,,,,,,,,,,,,,,,,,,,,,,,
888.4000000022352,,rt_thecrossant_black,231432,black_plus_sign,,,,,50,,,1,1,,,,,,,,,,,,,,,,,,,,,,,,,,,
null,,color_black,231534,black_plus_sign,,,,,null,,,,,,,,,,,,,,,,,,,,,,,,,,,,,,,
null,,learn_phase(without_color),234062,black_plus_sign,,,,,null,US_Cities_List/nat_hanover.png,US_Cities_List/nat_boulder.png,,,,,,,,,,,,,,,,,,,,,,,,,,,,,
null,,black_cross(without_color),234551,green,,,,,null,US_Cities_List/nat_hanover.png,US_Cities_List/nat_boulder.png,,,,,,,,,,,,,,,,,,,,,,,,,,,,,
362.69999999925494,,rt_plussign_withcolor,235053,green,,,,,50,US_Cities_List/nat_hanover.png,US_Cities_List/nat_boulder.png,,,,,,,,,,,,,,,,,,,,,,,,,,,,,
null,,rt_thecrossant_black,236566,black_plus_sign,,,,,null,,,1,1,,,,,,,,,,,,,,,,,,,,,,,,,,,
null,,color_black,236668,black_plus_sign,,,,,null,,,,,,,,,,,,,,,,,,,,,,,,,,,,,,,
null,,learn_phase(without_color),239192,black_plus_sign,,,,,null,US_Cities_List/mm_huntsville.png,US_Cities_List/nat_shreveport.png,,,,,,,,,,,,,,,,,,,,,,,,,,,,,
null,,black_cross(without_color),239871,green,,,,,null,US_Cities_List/mm_huntsville.png,US_Cities_List/nat_shreveport.png,,,,,,,,,,,,,,,,,,,,,,,,,,,,,
385.19999999925494,,rt_plussign_withcolor,240372,green,,,,,50,US_Cities_List/mm_huntsville.png,US_Cities_List/nat_shreveport.png,,,,,,,,,,,,,,,,,,,,,,,,,,,,,
null,,rt_thecrossant_black,241696,black_plus_sign,,,,,null,,,1,1,,,,,,,,,,,,,,,,,,,,,,,,,,,
null,,color_black,241798,black_plus_sign,,,,,null,,,,,,,,,,,,,,,,,,,,,,,,,,,,,,,
null,,learn_phase(without_color),244331,black_plus_sign,,,,,null,US_Cities_List/nat_racine.png,US_Cities_List/nat_shreveport.png,,,,,,,,,,,,,,,,,,,,,,,,,,,,,
null,,black_cross(without_color),244893,green,,,,,null,US_Cities_List/nat_racine.png,US_Cities_List/nat_shreveport.png,,,,,,,,,,,,,,,,,,,,,,,,,,,,,
null,,rt_plussign_withcolor,245395,green,,,,,null,US_Cities_List/nat_racine.png,US_Cities_List/nat_shreveport.png,,,,,,,,,,,,,,,,,,,,,,,,,,,,,
778.1999999992549,,rt_thecrossant_black,246836,black_plus_sign,,,,,50,,,1,1,,,,,,,,,,,,,,,,,,,,,,,,,,,
null,,color_black,246938,black_plus_sign,,,,,null,,,,,,,,,,,,,,,,,,,,,,,,,,,,,,,
null,,learn_phase(without_color),249463,black_plus_sign,,,,,null,US_Cities_List/nat_peoria.png,US_Cities_List/nat_westpalmbeach.png,,,,,,,,,,,,,,,,,,,,,,,,,,,,,
null,,black_cross(without_color),250006,green,,,,,null,US_Cities_List/nat_peoria.png,US_Cities_List/nat_westpalmbeach.png,,,,,,,,,,,,,,,,,,,,,,,,,,,,,
481.5,,rt_plussign_withcolor,250508,green,,,,,50,US_Cities_List/nat_peoria.png,US_Cities_List/nat_westpalmbeach.png,,,,,,,,,,,,,,,,,,,,,,,,,,,,,
null,,rt_thecrossant_black,251969,black_plus_sign,,,,,null,,,1,1,,,,,,,,,,,,,,,,,,,,,,,,,,,
null,,color_black,252071,black_plus_sign,,,,,null,,,,,,,,,,,,,,,,,,,,,,,,,,,,,,,
null,,learn_phase(without_color),254603,black_plus_sign,,,,,null,US_Cities_List/mm_huntsville.png,US_Cities_List/nat_shreveport.png,,,,,,,,,,,,,,,,,,,,,,,,,,,,,
null,,black_cross(without_color),255362,blue,,,,,null,US_Cities_List/mm_huntsville.png,US_Cities_List/nat_shreveport.png,,,,,,,,,,,,,,,,,,,,,,,,,,,,,
null,,rt_plussign_withcolor,255864,blue,,,,,null,US_Cities_List/mm_huntsville.png,US_Cities_List/nat_shreveport.png,,,,,,,,,,,,,,,,,,,,,,,,,,,,,
824.8999999985099,,rt_thecrossant_black,257108,black_plus_sign,,,,,49,,,1,1,,,,,,,,,,,,,,,,,,,,,,,,,,,
null,,color_black,257210,black_plus_sign,,,,,null,,,,,,,,,,,,,,,,,,,,,,,,,,,,,,,
null,,learn_phase(without_color),259744,black_plus_sign,,,,,null,US_Cities_List/nat_hanover.png,US_Cities_List/nat_shreveport.png,,,,,,,,,,,,,,,,,,,,,,,,,,,,,
null,,black_cross(without_color),260425,blue,,,,,null,US_Cities_List/nat_hanover.png,US_Cities_List/nat_shreveport.png,,,,,,,,,,,,,,,,,,,,,,,,,,,,,
null,,rt_plussign_withcolor,260926,blue,,,,,null,US_Cities_List/nat_hanover.png,US_Cities_List/nat_shreveport.png,,,,,,,,,,,,,,,,,,,,,,,,,,,,,
1262.0999999977648,,rt_thecrossant_black,262249,black_plus_sign,,,,,49,,,1,1,,,,,,,,,,,,,,,,,,,,,,,,,,,
null,,color_black,262351,black_plus_sign,,,,,null,,,,,,,,,,,,,,,,,,,,,,,,,,,,,,,
null,,learn_phase(without_color),264881,black_plus_sign,,,,,null,US_Cities_List/nat_hotsprings.png,US_Cities_List/nat_cornwall.png,,,,,,,,,,,,,,,,,,,,,,,,,,,,,
null,,black_cross(without_color),265739,green,,,,,null,US_Cities_List/nat_hotsprings.png,US_Cities_List/nat_cornwall.png,,,,,,,,,,,,,,,,,,,,,,,,,,,,,
null,,rt_plussign_withcolor,266241,green,,,,,null,US_Cities_List/nat_hotsprings.png,US_Cities_List/nat_cornwall.png,,,,,,,,,,,,,,,,,,,,,,,,,,,,,
778.8999999985099,,rt_thecrossant_black,267387,black_plus_sign,,,,,50,,,1,1,,,,,,,,,,,,,,,,,,,,,,,,,,,
null,,color_black,267488,black_plus_sign,,,,,null,,,,,,,,,,,,,,,,,,,,,,,,,,,,,,,
null,,learn_phase(without_color),270016,black_plus_sign,,,,,null,US_Cities_List/nat_westpalmbeach.png,US_Cities_List/nat_carmel.png,,,,,,,,,,,,,,,,,,,,,,,,,,,,,
null,,black_cross(without_color),270843,blue,,,,,null,US_Cities_List/nat_westpalmbeach.png,US_Cities_List/nat_carmel.png,,,,,,,,,,,,,,,,,,,,,,,,,,,,,
null,,rt_plussign_withcolor,271344,blue,,,,,null,US_Cities_List/nat_westpalmbeach.png,US_Cities_List/nat_carmel.png,,,,,,,,,,,,,,,,,,,,,,,,,,,,,
1052.300000000745,,rt_thecrossant_black,272520,black_plus_sign,,,,,49,,,1,1,,,,,,,,,,,,,,,,,,,,,,,,,,,
null,,color_black,272622,black_plus_sign,,,,,null,,,,,,,,,,,,,,,,,,,,,,,,,,,,,,,
null,,learn_phase(without_color),275148,black_plus_sign,,,,,null,US_Cities_List/mm_huntsville.png,US_Cities_List/nat_shreveport.png,,,,,,,,,,,,,,,,,,,,,,,,,,,,,
null,,black_cross(without_color),276214,green,,,,,null,US_Cities_List/mm_huntsville.png,US_Cities_List/nat_shreveport.png,,,,,,,,,,,,,,,,,,,,,,,,,,,,,
481.3999999985099,,rt_plussign_withcolor,276716,green,,,,,50,US_Cities_List/mm_huntsville.png,US_Cities_List/nat_shreveport.png,,,,,,,,,,,,,,,,,,,,,,,,,,,,,
null,,rt_thecrossant_black,277654,black_plus_sign,,,,,null,,,1,1,,,,,,,,,,,,,,,,,,,,,,,,,,,
null,,color_black,277769,black_plus_sign,,,,,null,,,,,,,,,,,,,,,,,,,,,,,,,,,,,,,
null,,learn_phase(without_color),280297,black_plus_sign,,,,,null,US_Cities_List/mm_gatlinburg.png,US_Cities_List/nat_peoria.png,,,,,,,,,,,,,,,,,,,,,,,,,,,,,
null,,black_cross(without_color),281077,blue,,,,,null,US_Cities_List/mm_gatlinburg.png,US_Cities_List/nat_peoria.png,,,,,,,,,,,,,,,,,,,,,,,,,,,,,
null,,rt_plussign_withcolor,281579,blue,,,,,null,US_Cities_List/mm_gatlinburg.png,US_Cities_List/nat_peoria.png,,,,,,,,,,,,,,,,,,,,,,,,,,,,,
1227.6000000014901,,rt_thecrossant_black,282802,black_plus_sign,,,,,49,,,1,1,,,,,,,,,,,,,,,,,,,,,,,,,,,
null,,color_black,282903,black_plus_sign,,,,,null,,,,,,,,,,,,,,,,,,,,,,,,,,,,,,,
null,,learn_phase(without_color),285435,black_plus_sign,,,,,null,US_Cities_List/nat_hanover.png,US_Cities_List/nat_shreveport.png,,,,,,,,,,,,,,,,,,,,,,,,,,,,,
null,,black_cross(without_color),286048,blue,,,,,null,US_Cities_List/nat_hanover.png,US_Cities_List/nat_shreveport.png,,,,,,,,,,,,,,,,,,,,,,,,,,,,,
435.80000000074506,,rt_plussign_withcolor,286549,blue,,,,,50,US_Cities_List/nat_hanover.png,US_Cities_List/nat_shreveport.png,,,,,,,,,,,,,,,,,,,,,,,,,,,,,
null,,rt_thecrossant_black,287939,black_plus_sign,,,,,null,,,0,0.9523809523809523,,,,,,,,,,,,,,,,,,,,,,,,,,,
null,,color_black,288040,black_plus_sign,,,,,null,,,,,,,,,,,,,,,,,,,,,,,,,,,,,,,
null,,learn_phase(without_color),290572,black_plus_sign,,,,,null,US_Cities_List/nat_peoria.png,US_Cities_List/nat_westpalmbeach.png,,,,,,,,,,,,,,,,,,,,,,,,,,,,,
null,,black_cross(without_color),291151,green,,,,,null,US_Cities_List/nat_peoria.png,US_Cities_List/nat_westpalmbeach.png,,,,,,,,,,,,,,,,,,,,,,,,,,,,,
null,,rt_plussign_withcolor,291653,green,,,,,null,US_Cities_List/nat_peoria.png,US_Cities_List/nat_westpalmbeach.png,,,,,,,,,,,,,,,,,,,,,,,,,,,,,
939.6999999992549,,rt_thecrossant_black,293087,black_plus_sign,,,,,50,,,1,0.9545454545454546,,,,,,,,,,,,,,,,,,,,,,,,,,,
null,,color_black,293188,black_plus_sign,,,,,null,,,,,,,,,,,,,,,,,,,,,,,,,,,,,,,
null,,learn_phase(without_color),295716,black_plus_sign,,,,,null,US_Cities_List/mm_huntsville.png,US_Cities_List/nat_newhope.png,,,,,,,,,,,,,,,,,,,,,,,,,,,,,
null,,black_cross(without_color),296748,blue,,,,,null,US_Cities_List/mm_huntsville.png,US_Cities_List/nat_newhope.png,,,,,,,,,,,,,,,,,,,,,,,,,,,,,
null,,rt_plussign_withcolor,297250,blue,,,,,null,US_Cities_List/mm_huntsville.png,US_Cities_List/nat_newhope.png,,,,,,,,,,,,,,,,,,,,,,,,,,,,,
937,,rt_thecrossant_black,298221,black_plus_sign,,,,,49,,,1,0.9565217391304348,,,,,,,,,,,,,,,,,,,,,,,,,,,
null,,color_black,298323,black_plus_sign,,,,,null,,,,,,,,,,,,,,,,,,,,,,,,,,,,,,,
null,,learn_phase(without_color),300854,black_plus_sign,,,,,null,US_Cities_List/nat_racine.png,US_Cities_List/nat_shreveport.png,,,,,,,,,,,,,,,,,,,,,,,,,,,,,
null,,black_cross(without_color),301853,green,,,,,null,US_Cities_List/nat_racine.png,US_Cities_List/nat_shreveport.png,,,,,,,,,,,,,,,,,,,,,,,,,,,,,
null,,rt_plussign_withcolor,302355,green,,,,,null,US_Cities_List/nat_racine.png,US_Cities_List/nat_shreveport.png,,,,,,,,,,,,,,,,,,,,,,,,,,,,,
1617.800000000745,,rt_thecrossant_black,303359,black_plus_sign,,,,,50,,,1,0.9583333333333334,,,,,,,,,,,,,,,,,,,,,,,,,,,
null,,color_black,303462,black_plus_sign,,,,,null,,,,,,,,,,,,,,,,,,,,,,,,,,,,,,,
null,,learn_phase(without_color),305991,black_plus_sign,,,,,null,US_Cities_List/nat_hanover.png,US_Cities_List/nat_boulder.png,,,,,,,,,,,,,,,,,,,,,,,,,,,,,
null,,black_cross(without_color),307023,blue,,,,,null,US_Cities_List/nat_hanover.png,US_Cities_List/nat_boulder.png,,,,,,,,,,,,,,,,,,,,,,,,,,,,,
435,,rt_plussign_withcolor,307526,blue,,,,,49,US_Cities_List/nat_hanover.png,US_Cities_List/nat_boulder.png,,,,,,,,,,,,,,,,,,,,,,,,,,,,,
null,,rt_thecrossant_black,308499,black_plus_sign,,,,,null,,,1,0.96,,,,,,,,,,,,,,,,,,,,,,,,,,,
null,,color_black,308600,black_plus_sign,,,,,null,,,,,,,,,,,,,,,,,,,,,,,,,,,,,,,
null,,learn_phase(without_color),311129,black_plus_sign,,,,,null,US_Cities_List/mm_gatlinburg.png,US_Cities_List/nat_peoria.png,,,,,,,,,,,,,,,,,,,,,,,,,,,,,
null,,black_cross(without_color),311665,green,,,,,null,US_Cities_List/mm_gatlinburg.png,US_Cities_List/nat_peoria.png,,,,,,,,,,,,,,,,,,,,,,,,,,,,,
420.30000000074506,,rt_plussign_withcolor,312167,green,,,,,50,US_Cities_List/mm_gatlinburg.png,US_Cities_List/nat_peoria.png,,,,,,,,,,,,,,,,,,,,,,,,,,,,,
null,,rt_thecrossant_black,313636,black_plus_sign,,,,,null,,,1,0.9615384615384616,,,,,,,,,,,,,,,,,,,,,,,,,,,
null,,color_black,313737,black_plus_sign,,,,,null,,,,,,,,,,,,,,,,,,,,,,,,,,,,,,,
null,,learn_phase(without_color),316275,black_plus_sign,,,,,null,US_Cities_List/nat_hanover.png,US_Cities_List/nat_boulder.png,,,,,,,,,,,,,,,,,,,,,,,,,,,,,
null,,black_cross(without_color),317343,blue,,,,,null,US_Cities_List/nat_hanover.png,US_Cities_List/nat_boulder.png,,,,,,,,,,,,,,,,,,,,,,,,,,,,,
346.3999999985099,,rt_plussign_withcolor,317844,blue,,,,,50,US_Cities_List/nat_hanover.png,US_Cities_List/nat_boulder.png,,,,,,,,,,,,,,,,,,,,,,,,,,,,,
null,,rt_thecrossant_black,318780,black_plus_sign,,,,,null,,,0,0.9259259259259259,,,,,,,,,,,,,,,,,,,,,,,,,,,
null,,color_black,318882,black_plus_sign,,,,,null,,,,,,,,,,,,,,,,,,,,,,,,,,,,,,,
null,,learn_phase(without_color),321418,black_plus_sign,,,,,null,US_Cities_List/mm_gatlinburg.png,US_Cities_List/nat_peoria.png,,,,,,,,,,,,,,,,,,,,,,,,,,,,,
null,,black_cross(without_color),322283,blue,,,,,null,US_Cities_List/mm_gatlinburg.png,US_Cities_List/nat_peoria.png,,,,,,,,,,,,,,,,,,,,,,,,,,,,,
490.30000000074506,,rt_plussign_withcolor,322786,blue,,,,,49,US_Cities_List/mm_gatlinburg.png,US_Cities_List/nat_peoria.png,,,,,,,,,,,,,,,,,,,,,,,,,,,,,
null,,rt_thecrossant_black,323925,black_plus_sign,,,,,null,,,1,0.9285714285714286,,,,,,,,,,,,,,,,,,,,,,,,,,,
null,,color_black,324026,black_plus_sign,,,,,null,,,,,,,,,,,,,,,,,,,,,,,,,,,,,,,
null,,learn_phase(without_color),326556,black_plus_sign,,,,,null,US_Cities_List/nat_cornwall.png,US_Cities_List/mm_leesburg.png,,,,,,,,,,,,,,,,,,,,,,,,,,,,,
null,,black_cross(without_color),327416,green,,,,,null,US_Cities_List/nat_cornwall.png,US_Cities_List/mm_leesburg.png,,,,,,,,,,,,,,,,,,,,,,,,,,,,,
null,,rt_plussign_withcolor,327918,green,,,,,null,US_Cities_List/nat_cornwall.png,US_Cities_List/mm_leesburg.png,,,,,,,,,,,,,,,,,,,,,,,,,,,,,
1204.300000000745,,rt_thecrossant_black,329061,black_plus_sign,,,,,50,,,1,0.9310344827586207,,,,,,,,,,,,,,,,,,,,,,,,,,,
null,,color_black,329162,black_plus_sign,,,,,null,,,,,,,,,,,,,,,,,,,,,,,,,,,,,,,
null,,learn_phase(without_color),331689,black_plus_sign,,,,,null,US_Cities_List/nat_westpalmbeach.png,US_Cities_List/mm_leesburg.png,,,,,,,,,,,,,,,,,,,,,,,,,,,,,
null,,black_cross(without_color),332110,blue,,,,,null,US_Cities_List/nat_westpalmbeach.png,US_Cities_List/mm_leesburg.png,,,,,,,,,,,,,,,,,,,,,,,,,,,,,
null,,rt_plussign_withcolor,332611,blue,,,,,null,US_Cities_List/nat_westpalmbeach.png,US_Cities_List/mm_leesburg.png,,,,,,,,,,,,,,,,,,,,,,,,,,,,,
1098.699999999255,,rt_thecrossant_black,334193,black_plus_sign,,,,,49,,,1,0.9333333333333333,,,,,,,,,,,,,,,,,,,,,,,,,,,
null,,color_black,334295,black_plus_sign,,,,,null,,,,,,,,,,,,,,,,,,,,,,,,,,,,,,,
null,,learn_phase(without_color),336828,black_plus_sign,,,,,null,US_Cities_List/nat_cornwall.png,US_Cities_List/mm_leesburg.png,,,,,,,,,,,,,,,,,,,,,,,,,,,,,
null,,black_cross(without_color),337462,green,,,,,null,US_Cities_List/nat_cornwall.png,US_Cities_List/mm_leesburg.png,,,,,,,,,,,,,,,,,,,,,,,,,,,,,
null,,rt_plussign_withcolor,337963,green,,,,,null,US_Cities_List/nat_cornwall.png,US_Cities_List/mm_leesburg.png,,,,,,,,,,,,,,,,,,,,,,,,,,,,,
584.1000000014901,,rt_thecrossant_black,339333,black_plus_sign,,,,,50,,,1,0.9354838709677419,,,,,,,,,,,,,,,,,,,,,,,,,,,
null,,color_black,339434,black_plus_sign,,,,,null,,,,,,,,,,,,,,,,,,,,,,,,,,,,,,,
null,,learn_phase(without_color),341962,black_plus_sign,,,,,null,US_Cities_List/mm_gatlinburg.png,US_Cities_List/nat_peoria.png,,,,,,,,,,,,,,,,,,,,,,,,,,,,,
null,,black_cross(without_color),342609,green,,,,,null,US_Cities_List/mm_gatlinburg.png,US_Cities_List/nat_peoria.png,,,,,,,,,,,,,,,,,,,,,,,,,,,,,
null,,rt_plussign_withcolor,343110,green,,,,,null,US_Cities_List/mm_gatlinburg.png,US_Cities_List/nat_peoria.png,,,,,,,,,,,,,,,,,,,,,,,,,,,,,
785.8000000007451,,rt_thecrossant_black,344478,black_plus_sign,,,,,50,,,1,0.9375,,,,,,,,,,,,,,,,,,,,,,,,,,,
null,,color_black,344580,black_plus_sign,,,,,null,,,,,,,,,,,,,,,,,,,,,,,,,,,,,,,
null,,learn_phase(without_color),347112,black_plus_sign,,,,,null,US_Cities_List/nat_shreveport.png,US_Cities_List/nat_cornwall.png,,,,,,,,,,,,,,,,,,,,,,,,,,,,,
null,,black_cross(without_color),348127,blue,,,,,null,US_Cities_List/nat_shreveport.png,US_Cities_List/nat_cornwall.png,,,,,,,,,,,,,,,,,,,,,,,,,,,,,
442.19999999925494,,rt_plussign_withcolor,348629,blue,,,,,49,US_Cities_List/nat_shreveport.png,US_Cities_List/nat_cornwall.png,,,,,,,,,,,,,,,,,,,,,,,,,,,,,
null,,rt_thecrossant_black,349619,black_plus_sign,,,,,null,,,1,0.9393939393939394,,,,,,,,,,,,,,,,,,,,,,,,,,,
null,,color_black,349721,black_plus_sign,,,,,null,,,,,,,,,,,,,,,,,,,,,,,,,,,,,,,
null,,learn_phase(without_color),352250,black_plus_sign,,,,,null,US_Cities_List/nat_westpalmbeach.png,US_Cities_List/nat_carmel.png,,,,,,,,,,,,,,,,,,,,,,,,,,,,,
null,,black_cross(without_color),352653,blue,,,,,null,US_Cities_List/nat_westpalmbeach.png,US_Cities_List/nat_carmel.png,,,,,,,,,,,,,,,,,,,,,,,,,,,,,
null,,rt_plussign_withcolor,353168,blue,,,,,null,US_Cities_List/nat_westpalmbeach.png,US_Cities_List/nat_carmel.png,,,,,,,,,,,,,,,,,,,,,,,,,,,,,
1140.199999999255,,rt_thecrossant_black,354769,black_plus_sign,,,,,49,,,1,0.9411764705882353,,,,,,,,,,,,,,,,,,,,,,,,,,,
null,,color_black,354870,black_plus_sign,,,,,null,,,,,,,,,,,,,,,,,,,,,,,,,,,,,,,
null,,learn_phase(without_color),357399,black_plus_sign,,,,,null,US_Cities_List/nat_peoria.png,US_Cities_List/nat_hotsprings.png,,,,,,,,,,,,,,,,,,,,,,,,,,,,,
null,,black_cross(without_color),357902,green,,,,,null,US_Cities_List/nat_peoria.png,US_Cities_List/nat_hotsprings.png,,,,,,,,,,,,,,,,,,,,,,,,,,,,,
null,,rt_plussign_withcolor,358404,green,,,,,null,US_Cities_List/nat_peoria.png,US_Cities_List/nat_hotsprings.png,,,,,,,,,,,,,,,,,,,,,,,,,,,,,
603.3000000007451,,rt_thecrossant_black,359905,black_plus_sign,,,,,50,,,1,0.9428571428571428,,,,,,,,,,,,,,,,,,,,,,,,,,,
null,,color_black,360006,black_plus_sign,,,,,null,,,,,,,,,,,,,,,,,,,,,,,,,,,,,,,
null,,learn_phase(without_color),362531,black_plus_sign,,,,,null,US_Cities_List/mm_huntsville.png,US_Cities_List/nat_shreveport.png,,,,,,,,,,,,,,,,,,,,,,,,,,,,,
null,,black_cross(without_color),363022,green,,,,,null,US_Cities_List/mm_huntsville.png,US_Cities_List/nat_shreveport.png,,,,,,,,,,,,,,,,,,,,,,,,,,,,,
null,,rt_plussign_withcolor,363523,green,,,,,null,US_Cities_List/mm_huntsville.png,US_Cities_List/nat_shreveport.png,,,,,,,,,,,,,,,,,,,,,,,,,,,,,
694.6999999992549,,rt_thecrossant_black,365037,black_plus_sign,,,,,50,,,1,0.9444444444444444,,,,,,,,,,,,,,,,,,,,,,,,,,,
null,,color_black,365139,black_plus_sign,,,,,null,,,,,,,,,,,,,,,,,,,,,,,,,,,,,,,
null,,learn_phase(without_color),367665,black_plus_sign,,,,,null,US_Cities_List/nat_westpalmbeach.png,US_Cities_List/nat_carmel.png,,,,,,,,,,,,,,,,,,,,,,,,,,,,,
null,,black_cross(without_color),368399,green,,,,,null,US_Cities_List/nat_westpalmbeach.png,US_Cities_List/nat_carmel.png,,,,,,,,,,,,,,,,,,,,,,,,,,,,,
null,,rt_plussign_withcolor,368901,green,,,,,null,US_Cities_List/nat_westpalmbeach.png,US_Cities_List/nat_carmel.png,,,,,,,,,,,,,,,,,,,,,,,,,,,,,
729.8999999985099,,rt_thecrossant_black,370172,black_plus_sign,,,,,50,,,1,0.9459459459459459,,,,,,,,,,,,,,,,,,,,,,,,,,,
null,,color_black,370273,black_plus_sign,,,,,null,,,,,,,,,,,,,,,,,,,,,,,,,,,,,,,
null,,learn_phase(without_color),372803,black_plus_sign,,,,,null,US_Cities_List/nat_peoria.png,US_Cities_List/nat_hotsprings.png,,,,,,,,,,,,,,,,,,,,,,,,,,,,,
null,,black_cross(without_color),373706,green,,,,,null,US_Cities_List/nat_peoria.png,US_Cities_List/nat_hotsprings.png,,,,,,,,,,,,,,,,,,,,,,,,,,,,,
493.3999999985099,,rt_plussign_withcolor,374208,green,,,,,50,US_Cities_List/nat_peoria.png,US_Cities_List/nat_hotsprings.png,,,,,,,,,,,,,,,,,,,,,,,,,,,,,
null,,rt_thecrossant_black,375308,black_plus_sign,,,,,null,,,1,0.9473684210526315,,,,,,,,,,,,,,,,,,,,,,,,,,,
null,,color_black,375410,black_plus_sign,,,,,null,,,,,,,,,,,,,,,,,,,,,,,,,,,,,,,
null,,learn_phase(without_color),377942,black_plus_sign,,,,,null,US_Cities_List/mm_gatlinburg.png,US_Cities_List/nat_peoria.png,,,,,,,,,,,,,,,,,,,,,,,,,,,,,
null,,black_cross(without_color),378444,green,,,,,null,US_Cities_List/mm_gatlinburg.png,US_Cities_List/nat_peoria.png,,,,,,,,,,,,,,,,,,,,,,,,,,,,,
145.10000000149012,,rt_plussign_withcolor,378946,green,,,,,50,US_Cities_List/mm_gatlinburg.png,US_Cities_List/nat_peoria.png,,,,,,,,,,,,,,,,,,,,,,,,,,,,,
null,,rt_thecrossant_black,380448,black_plus_sign,,,,,null,,,1,0.9487179487179487,,,,,,,,,,,,,,,,,,,,,,,,,,,
null,,color_black,380549,black_plus_sign,,,,,null,,,,,,,,,,,,,,,,,,,,,,,,,,,,,,,
null,,learn_phase(without_color),383081,black_plus_sign,,,,,null,US_Cities_List/nat_shreveport.png,US_Cities_List/nat_cornwall.png,,,,,,,,,,,,,,,,,,,,,,,,,,,,,
null,,black_cross(without_color),383589,green,,,,,null,US_Cities_List/nat_shreveport.png,US_Cities_List/nat_cornwall.png,,,,,,,,,,,,,,,,,,,,,,,,,,,,,
457.5999999977648,,rt_plussign_withcolor,384091,green,,,,,50,US_Cities_List/nat_shreveport.png,US_Cities_List/nat_cornwall.png,,,,,,,,,,,,,,,,,,,,,,,,,,,,,
null,,rt_thecrossant_black,385586,black_plus_sign,,,,,null,,,1,0.95,,,,,,,,,,,,,,,,,,,,,,,,,,,
null,,color_black,385688,black_plus_sign,,,,,null,,,,,,,,,,,,,,,,,,,,,,,,,,,,,,,
null,,learn_phase(without_color),388217,black_plus_sign,,,,,null,US_Cities_List/nat_hanover.png,US_Cities_List/mm_huntsville.png,,,,,,,,,,,,,,,,,,,,,,,,,,,,,
null,,black_cross(without_color),389181,blue,,,,,null,US_Cities_List/nat_hanover.png,US_Cities_List/mm_huntsville.png,,,,,,,,,,,,,,,,,,,,,,,,,,,,,
382.5,,rt_plussign_withcolor,389682,blue,,,,,49,US_Cities_List/nat_hanover.png,US_Cities_List/mm_huntsville.png,,,,,,,,,,,,,,,,,,,,,,,,,,,,,
null,,rt_thecrossant_black,390722,black_plus_sign,,,,,null,,,1,0.9512195121951219,,,,,,,,,,,,,,,,,,,,,,,,,,,
null,,color_black,390823,black_plus_sign,,,,,null,,,,,,,,,,,,,,,,,,,,,,,,,,,,,,,
null,,learn_phase(without_color),393355,black_plus_sign,,,,,null,US_Cities_List/nat_hanover.png,US_Cities_List/nat_shreveport.png,,,,,,,,,,,,,,,,,,,,,,,,,,,,,
null,,black_cross(without_color),394361,green,,,,,null,US_Cities_List/nat_hanover.png,US_Cities_List/nat_shreveport.png,,,,,,,,,,,,,,,,,,,,,,,,,,,,,
445.19999999925494,,rt_plussign_withcolor,394863,green,,,,,50,US_Cities_List/nat_hanover.png,US_Cities_List/nat_shreveport.png,,,,,,,,,,,,,,,,,,,,,,,,,,,,,
null,,rt_thecrossant_black,395862,black_plus_sign,,,,,null,,,1,0.9523809523809523,,,,,,,,,,,,,,,,,,,,,,,,,,,
null,,color_black,395965,black_plus_sign,,,,,null,,,,,,,,,,,,,,,,,,,,,,,,,,,,,,,
null,,learn_phase(without_color),398492,black_plus_sign,,,,,null,US_Cities_List/nat_peoria.png,US_Cities_List/nat_westpalmbeach.png,,,,,,,,,,,,,,,,,,,,,,,,,,,,,
null,,black_cross(without_color),398917,green,,,,,null,US_Cities_List/nat_peoria.png,US_Cities_List/nat_westpalmbeach.png,,,,,,,,,,,,,,,,,,,,,,,,,,,,,
null,,rt_plussign_withcolor,399418,green,,,,,null,US_Cities_List/nat_peoria.png,US_Cities_List/nat_westpalmbeach.png,,,,,,,,,,,,,,,,,,,,,,,,,,,,,
1171.800000000745,,rt_thecrossant_black,400997,black_plus_sign,,,,,50,,,1,0.9534883720930233,,,,,,,,,,,,,,,,,,,,,,,,,,,
null,,color_black,401099,black_plus_sign,,,,,null,,,,,,,,,,,,,,,,,,,,,,,,,,,,,,,
null,,learn_phase(without_color),403630,black_plus_sign,,,,,null,US_Cities_List/nat_hanover.png,US_Cities_List/mm_huntsville.png,,,,,,,,,,,,,,,,,,,,,,,,,,,,,
null,,black_cross(without_color),404421,blue,,,,,null,US_Cities_List/nat_hanover.png,US_Cities_List/mm_huntsville.png,,,,,,,,,,,,,,,,,,,,,,,,,,,,,
448.5,,rt_plussign_withcolor,404923,blue,,,,,50,US_Cities_List/nat_hanover.png,US_Cities_List/mm_huntsville.png,,,,,,,,,,,,,,,,,,,,,,,,,,,,,
null,,rt_thecrossant_black,406135,black_plus_sign,,,,,49,,,0,0.9318181818181818,,,,,,,,,,,,,,,,,,,,,,,,,,,
null,,color_black,406246,black_plus_sign,,,,,null,,,,,,,,,,,,,,,,,,,,,,,,,,,,,,,
null,,learn_phase(without_color),408776,black_plus_sign,,,,,null,US_Cities_List/nat_hotsprings.png,US_Cities_List/nat_cornwall.png,,,,,,,,,,,,,,,,,,,,,,,,,,,,,
null,,black_cross(without_color),409712,blue,,,,,null,US_Cities_List/nat_hotsprings.png,US_Cities_List/nat_cornwall.png,,,,,,,,,,,,,,,,,,,,,,,,,,,,,
437.30000000074506,,rt_plussign_withcolor,410213,blue,,,,,49,US_Cities_List/nat_hotsprings.png,US_Cities_List/nat_cornwall.png,,,,,,,,,,,,,,,,,,,,,,,,,,,,,
null,,rt_thecrossant_black,411281,black_plus_sign,,,,,null,,,1,0.9333333333333333,,,,,,,,,,,,,,,,,,,,,,,,,,,
null,,color_black,411382,black_plus_sign,,,,,null,,,,,,,,,,,,,,,,,,,,,,,,,,,,,,,
null,,learn_phase(without_color),413918,black_plus_sign,,,,,null,US_Cities_List/nat_hotsprings.png,US_Cities_List/nat_racine.png,,,,,,,,,,,,,,,,,,,,,,,,,,,,,
null,,black_cross(without_color),415014,green,,,,,null,US_Cities_List/nat_hotsprings.png,US_Cities_List/nat_racine.png,,,,,,,,,,,,,,,,,,,,,,,,,,,,,
479.80000000074506,,rt_plussign_withcolor,415514,green,,,,,50,US_Cities_List/nat_hotsprings.png,US_Cities_List/nat_racine.png,,,,,,,,,,,,,,,,,,,,,,,,,,,,,
null,,rt_thecrossant_black,416422,black_plus_sign,,,,,null,,,1,0.9347826086956522,,,,,,,,,,,,,,,,,,,,,,,,,,,
null,,color_black,416524,black_plus_sign,,,,,null,,,,,,,,,,,,,,,,,,,,,,,,,,,,,,,
null,,learn_phase(without_color),419061,black_plus_sign,,,,,null,US_Cities_List/nat_hotsprings.png,US_Cities_List/nat_cornwall.png,,,,,,,,,,,,,,,,,,,,,,,,,,,,,
null,,black_cross(without_color),419913,green,,,,,null,US_Cities_List/nat_hotsprings.png,US_Cities_List/nat_cornwall.png,,,,,,,,,,,,,,,,,,,,,,,,,,,,,
389.3999999985099,,rt_plussign_withcolor,420415,green,,,,,50,US_Cities_List/nat_hotsprings.png,US_Cities_List/nat_cornwall.png,,,,,,,,,,,,,,,,,,,,,,,,,,,,,
null,,rt_thecrossant_black,421579,black_plus_sign,,,,,null,,,1,0.9361702127659575,,,,,,,,,,,,,,,,,,,,,,,,,,,
null,,color_black,421680,black_plus_sign,,,,,null,,,,,,,,,,,,,,,,,,,,,,,,,,,,,,,
null,,learn_phase(without_color),424206,black_plus_sign,,,,,null,US_Cities_List/nat_hanover.png,US_Cities_List/mm_huntsville.png,,,,,,,,,,,,,,,,,,,,,,,,,,,,,
null,,black_cross(without_color),425274,green,,,,,null,US_Cities_List/nat_hanover.png,US_Cities_List/mm_huntsville.png,,,,,,,,,,,,,,,,,,,,,,,,,,,,,
474.5,,rt_plussign_withcolor,425776,green,,,,,50,US_Cities_List/nat_hanover.png,US_Cities_List/mm_huntsville.png,,,,,,,,,,,,,,,,,,,,,,,,,,,,,
null,,rt_thecrossant_black,426712,black_plus_sign,,,,,null,,,1,0.9375,,,,,,,,,,,,,,,,,,,,,,,,,,,
null,,color_black,426814,black_plus_sign,,,,,null,,,,,,,,,,,,,,,,,,,,,,,,,,,,,,,
null,,learn_phase(without_color),429343,black_plus_sign,,,,,null,US_Cities_List/nat_hotsprings.png,US_Cities_List/nat_racine.png,,,,,,,,,,,,,,,,,,,,,,,,,,,,,
null,,black_cross(without_color),430172,green,,,,,null,US_Cities_List/nat_hotsprings.png,US_Cities_List/nat_racine.png,,,,,,,,,,,,,,,,,,,,,,,,,,,,,
464.30000000074506,,rt_plussign_withcolor,430673,green,,,,,50,US_Cities_List/nat_hotsprings.png,US_Cities_List/nat_racine.png,,,,,,,,,,,,,,,,,,,,,,,,,,,,,
null,,rt_thecrossant_black,431847,black_plus_sign,,,,,null,,,1,0.9387755102040817,,,,,,,,,,,,,,,,,,,,,,,,,,,
null,,color_black,431949,black_plus_sign,,,,,null,,,,,,,,,,,,,,,,,,,,,,,,,,,,,,,
null,,learn_phase(without_color),434483,black_plus_sign,,,,,null,US_Cities_List/nat_racine.png,US_Cities_List/nat_shreveport.png,,,,,,,,,,,,,,,,,,,,,,,,,,,,,
null,,black_cross(without_color),435516,green,,,,,null,US_Cities_List/nat_racine.png,US_Cities_List/nat_shreveport.png,,,,,,,,,,,,,,,,,,,,,,,,,,,,,
483.70000000298023,,rt_plussign_withcolor,436017,green,,,,,50,US_Cities_List/nat_racine.png,US_Cities_List/nat_shreveport.png,,,,,,,,,,,,,,,,,,,,,,,,,,,,,
null,,rt_thecrossant_black,436993,black_plus_sign,,,,,null,,,1,0.94,,,,,,,,,,,,,,,,,,,,,,,,,,,
null,,color_black,437094,black_plus_sign,,,,,null,,,,,,,,,,,,,,,,,,,,,,,,,,,,,,,
null,,learn_phase(without_color),439632,black_plus_sign,,,,,null,US_Cities_List/nat_hotsprings.png,US_Cities_List/nat_racine.png,,,,,,,,,,,,,,,,,,,,,,,,,,,,,
null,,black_cross(without_color),440107,blue,,,,,null,US_Cities_List/nat_hotsprings.png,US_Cities_List/nat_racine.png,,,,,,,,,,,,,,,,,,,,,,,,,,,,,
396.30000000074506,,rt_plussign_withcolor,440609,blue,,,,,50,US_Cities_List/nat_hotsprings.png,US_Cities_List/nat_racine.png,,,,,,,,,,,,,,,,,,,,,,,,,,,,,
null,,rt_thecrossant_black,442138,black_plus_sign,,,,,null,,,0,0.9215686274509803,,,,,,,,,,,,,,,,,,,,,,,,,,,
null,,color_black,442241,black_plus_sign,,,,,null,,,,,,,,,,,,,,,,,,,,,,,,,,,,,,,
null,,learn_phase(without_color),444772,black_plus_sign,,,,,null,US_Cities_List/nat_cornwall.png,US_Cities_List/mm_leesburg.png,,,,,,,,,,,,,,,,,,,,,,,,,,,,,
null,,black_cross(without_color),445436,blue,,,,,null,US_Cities_List/nat_cornwall.png,US_Cities_List/mm_leesburg.png,,,,,,,,,,,,,,,,,,,,,,,,,,,,,
491.19999999925494,,rt_plussign_withcolor,445938,blue,,,,,49,US_Cities_List/nat_cornwall.png,US_Cities_List/mm_leesburg.png,,,,,,,,,,,,,,,,,,,,,,,,,,,,,
null,,rt_thecrossant_black,447276,black_plus_sign,,,,,null,,,1,0.9230769230769231,,,,,,,,,,,,,,,,,,,,,,,,,,,
null,,color_black,447379,black_plus_sign,,,,,null,,,,,,,,,,,,,,,,,,,,,,,,,,,,,,,
null,,learn_phase(without_color),449910,black_plus_sign,,,,,null,US_Cities_List/nat_westpalmbeach.png,US_Cities_List/mm_leesburg.png,,,,,,,,,,,,,,,,,,,,,,,,,,,,,
null,,black_cross(without_color),450640,blue,,,,,null,US_Cities_List/nat_westpalmbeach.png,US_Cities_List/mm_leesburg.png,,,,,,,,,,,,,,,,,,,,,,,,,,,,,
429,,rt_plussign_withcolor,451142,blue,,,,,49,US_Cities_List/nat_westpalmbeach.png,US_Cities_List/mm_leesburg.png,,,,,,,,,,,,,,,,,,,,,,,,,,,,,
null,,rt_thecrossant_black,452419,black_plus_sign,,,,,null,,,1,0.9245283018867925,,,,,,,,,,,,,,,,,,,,,,,,,,,
null,,color_black,452521,black_plus_sign,,,,,null,,,,,,,,,,,,,,,,,,,,,,,,,,,,,,,
null,,learn_phase(without_color),455050,black_plus_sign,,,,,null,US_Cities_List/nat_shreveport.png,US_Cities_List/nat_cornwall.png,,,,,,,,,,,,,,,,,,,,,,,,,,,,,
null,,black_cross(without_color),455991,blue,,,,,null,US_Cities_List/nat_shreveport.png,US_Cities_List/nat_cornwall.png,,,,,,,,,,,,,,,,,,,,,,,,,,,,,
null,,rt_plussign_withcolor,456493,blue,,,,,null,US_Cities_List/nat_shreveport.png,US_Cities_List/nat_cornwall.png,,,,,,,,,,,,,,,,,,,,,,,,,,,,,
824.1999999992549,,rt_thecrossant_black,457556,black_plus_sign,,,,,50,,,0,0.9074074074074074,,,,,,,,,,,,,,,,,,,,,,,,,,,
null,,color_black,457658,black_plus_sign,,,,,null,,,,,,,,,,,,,,,,,,,,,,,,,,,,,,,
null,,learn_phase(without_color),460187,black_plus_sign,,,,,null,US_Cities_List/mm_huntsville.png,US_Cities_List/nat_newhope.png,,,,,,,,,,,,,,,,,,,,,,,,,,,,,
null,,black_cross(without_color),460781,green,,,,,null,US_Cities_List/mm_huntsville.png,US_Cities_List/nat_newhope.png,,,,,,,,,,,,,,,,,,,,,,,,,,,,,
null,,rt_plussign_withcolor,461283,green,,,,,null,US_Cities_List/mm_huntsville.png,US_Cities_List/nat_newhope.png,,,,,,,,,,,,,,,,,,,,,,,,,,,,,
1256.5999999977648,,rt_thecrossant_black,462693,black_plus_sign,,,,,50,,,1,0.9090909090909091,,,,,,,,,,,,,,,,,,,,,,,,,,,
null,,color_black,462795,black_plus_sign,,,,,null,,,,,,,,,,,,,,,,,,,,,,,,,,,,,,,
null,,learn_phase(without_color),465331,black_plus_sign,,,,,null,US_Cities_List/nat_cornwall.png,US_Cities_List/mm_leesburg.png,,,,,,,,,,,,,,,,,,,,,,,,,,,,,
null,,black_cross(without_color),466013,green,,,,,null,US_Cities_List/nat_cornwall.png,US_Cities_List/mm_leesburg.png,,,,,,,,,,,,,,,,,,,,,,,,,,,,,
null,,rt_plussign_withcolor,466515,green,,,,,null,US_Cities_List/nat_cornwall.png,US_Cities_List/mm_leesburg.png,,,,,,,,,,,,,,,,,,,,,,,,,,,,,
725.1999999992549,,rt_thecrossant_black,467836,black_plus_sign,,,,,50,,,1,0.9107142857142857,,,,,,,,,,,,,,,,,,,,,,,,,,,
null,,color_black,467938,black_plus_sign,,,,,null,,,,,,,,,,,,,,,,,,,,,,,,,,,,,,,
null,,learn_phase(without_color),470471,black_plus_sign,,,,,null,US_Cities_List/nat_hotsprings.png,US_Cities_List/nat_cornwall.png,,,,,,,,,,,,,,,,,,,,,,,,,,,,,
null,,black_cross(without_color),471207,blue,,,,,null,US_Cities_List/nat_hotsprings.png,US_Cities_List/nat_cornwall.png,,,,,,,,,,,,,,,,,,,,,,,,,,,,,
null,,rt_plussign_withcolor,471710,blue,,,,,null,US_Cities_List/nat_hotsprings.png,US_Cities_List/nat_cornwall.png,,,,,,,,,,,,,,,,,,,,,,,,,,,,,
820.1000000014901,,rt_thecrossant_black,472977,black_plus_sign,,,,,49,,,1,0.9122807017543859,,,,,,,,,,,,,,,,,,,,,,,,,,,
null,,color_black,473078,black_plus_sign,,,,,null,,,,,,,,,,,,,,,,,,,,,,,,,,,,,,,
null,,learn_phase(without_color),475614,black_plus_sign,,,,,null,US_Cities_List/nat_cornwall.png,US_Cities_List/mm_leesburg.png,,,,,,,,,,,,,,,,,,,,,,,,,,,,,
null,,black_cross(without_color),476308,green,,,,,null,US_Cities_List/nat_cornwall.png,US_Cities_List/mm_leesburg.png,,,,,,,,,,,,,,,,,,,,,,,,,,,,,
413,,rt_plussign_withcolor,476811,green,,,,,50,US_Cities_List/nat_cornwall.png,US_Cities_List/mm_leesburg.png,,,,,,,,,,,,,,,,,,,,,,,,,,,,,
null,,rt_thecrossant_black,478121,black_plus_sign,,,,,null,,,1,0.9137931034482759,,,,,,,,,,,,,,,,,,,,,,,,,,,
null,,color_black,478223,black_plus_sign,,,,,null,,,,,,,,,,,,,,,,,,,,,,,,,,,,,,,
null,,learn_phase(without_color),480754,black_plus_sign,,,,,null,US_Cities_List/nat_peoria.png,US_Cities_List/nat_westpalmbeach.png,,,,,,,,,,,,,,,,,,,,,,,,,,,,,
null,,black_cross(without_color),481535,green,,,,,null,US_Cities_List/nat_peoria.png,US_Cities_List/nat_westpalmbeach.png,,,,,,,,,,,,,,,,,,,,,,,,,,,,,
477.69999999925494,,rt_plussign_withcolor,482037,green,,,,,50,US_Cities_List/nat_peoria.png,US_Cities_List/nat_westpalmbeach.png,,,,,,,,,,,,,,,,,,,,,,,,,,,,,
null,,rt_thecrossant_black,483260,black_plus_sign,,,,,null,,,1,0.9152542372881356,,,,,,,,,,,,,,,,,,,,,,,,,,,
null,,color_black,483362,black_plus_sign,,,,,null,,,,,,,,,,,,,,,,,,,,,,,,,,,,,,,
null,,learn_phase(without_color),485893,black_plus_sign,,,,,null,US_Cities_List/nat_racine.png,US_Cities_List/nat_shreveport.png,,,,,,,,,,,,,,,,,,,,,,,,,,,,,
null,,black_cross(without_color),486506,blue,,,,,null,US_Cities_List/nat_racine.png,US_Cities_List/nat_shreveport.png,,,,,,,,,,,,,,,,,,,,,,,,,,,,,
455.5,,rt_plussign_withcolor,487007,blue,,,,,49,US_Cities_List/nat_racine.png,US_Cities_List/nat_shreveport.png,,,,,,,,,,,,,,,,,,,,,,,,,,,,,
null,,rt_thecrossant_black,488398,black_plus_sign,,,,,null,,,1,0.9166666666666666,,,,,,,,,,,,,,,,,,,,,,,,,,,
null,,color_black,488501,black_plus_sign,,,,,null,,,,,,,,,,,,,,,,,,,,,,,,,,,,,,,
null,,learn_phase(without_color),491030,black_plus_sign,,,,,null,US_Cities_List/nat_hotsprings.png,US_Cities_List/nat_racine.png,,,,,,,,,,,,,,,,,,,,,,,,,,,,,
null,,black_cross(without_color),491461,green,,,,,null,US_Cities_List/nat_hotsprings.png,US_Cities_List/nat_racine.png,,,,,,,,,,,,,,,,,,,,,,,,,,,,,
494.19999999925494,,rt_plussign_withcolor,491962,green,,,,,50,US_Cities_List/nat_hotsprings.png,US_Cities_List/nat_racine.png,,,,,,,,,,,,,,,,,,,,,,,,,,,,,
null,,rt_thecrossant_black,493534,black_plus_sign,,,,,null,,,1,0.9180327868852459,,,,,,,,,,,,,,,,,,,,,,,,,,,
null,,color_black,493649,black_plus_sign,,,,,null,,,,,,,,,,,,,,,,,,,,,,,,,,,,,,,
null,,learn_phase(without_color),496182,black_plus_sign,,,,,null,US_Cities_List/nat_peoria.png,US_Cities_List/nat_hotsprings.png,,,,,,,,,,,,,,,,,,,,,,,,,,,,,
null,,black_cross(without_color),496838,blue,,,,,null,US_Cities_List/nat_peoria.png,US_Cities_List/nat_hotsprings.png,,,,,,,,,,,,,,,,,,,,,,,,,,,,,
null,,rt_plussign_withcolor,497339,blue,,,,,null,US_Cities_List/nat_peoria.png,US_Cities_List/nat_hotsprings.png,,,,,,,,,,,,,,,,,,,,,,,,,,,,,
618.8000000007451,,rt_thecrossant_black,498693,black_plus_sign,,,,,49,,,1,0.9193548387096774,,,,,,,,,,,,,,,,,,,,,,,,,,,
null,,color_black,498802,black_plus_sign,,,,,null,,,,,,,,,,,,,,,,,,,,,,,,,,,,,,,
null,,learn_phase(without_color),501328,black_plus_sign,,,,,null,US_Cities_List/mm_huntsville.png,US_Cities_List/nat_newhope.png,,,,,,,,,,,,,,,,,,,,,,,,,,,,,
null,,black_cross(without_color),502377,blue,,,,,null,US_Cities_List/mm_huntsville.png,US_Cities_List/nat_newhope.png,,,,,,,,,,,,,,,,,,,,,,,,,,,,,
436,,rt_plussign_withcolor,502879,blue,,,,,49,US_Cities_List/mm_huntsville.png,US_Cities_List/nat_newhope.png,,,,,,,,,,,,,,,,,,,,,,,,,,,,,
null,,rt_thecrossant_black,503834,black_plus_sign,,,,,null,,,1,0.9206349206349206,,,,,,,,,,,,,,,,,,,,,,,,,,,
null,,color_black,503936,black_plus_sign,,,,,null,,,,,,,,,,,,,,,,,,,,,,,,,,,,,,,
null,,learn_phase(without_color),506475,black_plus_sign,,,,,null,US_Cities_List/nat_westpalmbeach.png,US_Cities_List/mm_leesburg.png,,,,,,,,,,,,,,,,,,,,,,,,,,,,,
null,,black_cross(without_color),507468,green,,,,,null,US_Cities_List/nat_westpalmbeach.png,US_Cities_List/mm_leesburg.png,,,,,,,,,,,,,,,,,,,,,,,,,,,,,
null,,rt_plussign_withcolor,507969,green,,,,,null,US_Cities_List/nat_westpalmbeach.png,US_Cities_List/mm_leesburg.png,,,,,,,,,,,,,,,,,,,,,,,,,,,,,
1300.6000000014901,,rt_thecrossant_black,508980,black_plus_sign,,,,,50,,,1,0.921875,,,,,,,,,,,,,,,,,,,,,,,,,,,
null,,color_black,509082,black_plus_sign,,,,,null,,,,,,,,,,,,,,,,,,,,,,,,,,,,,,,
null,,learn_phase(without_color),511617,black_plus_sign,,,,,null,US_Cities_List/nat_peoria.png,US_Cities_List/nat_hotsprings.png,,,,,,,,,,,,,,,,,,,,,,,,,,,,,
null,,black_cross(without_color),512581,blue,,,,,null,US_Cities_List/nat_peoria.png,US_Cities_List/nat_hotsprings.png,,,,,,,,,,,,,,,,,,,,,,,,,,,,,
null,,rt_plussign_withcolor,513083,blue,,,,,null,US_Cities_List/nat_peoria.png,US_Cities_List/nat_hotsprings.png,,,,,,,,,,,,,,,,,,,,,,,,,,,,,
1194.5999999977648,,rt_thecrossant_black,514123,black_plus_sign,,,,,49,,,1,0.9230769230769231,,,,,,,,,,,,,,,,,,,,,,,,,,,
null,,color_black,514226,black_plus_sign,,,,,null,,,,,,,,,,,,,,,,,,,,,,,,,,,,,,,
null,,learn_phase(without_color),516763,black_plus_sign,,,,,null,US_Cities_List/mm_huntsville.png,US_Cities_List/nat_newhope.png,,,,,,,,,,,,,,,,,,,,,,,,,,,,,
null,,black_cross(without_color),517832,blue,,,,,null,US_Cities_List/mm_huntsville.png,US_Cities_List/nat_newhope.png,,,,,,,,,,,,,,,,,,,,,,,,,,,,,
485,,rt_plussign_withcolor,518334,blue,,,,,49,US_Cities_List/mm_huntsville.png,US_Cities_List/nat_newhope.png,,,,,,,,,,,,,,,,,,,,,,,,,,,,,
null,,rt_thecrossant_black,519282,black_plus_sign,,,,,null,,,1,0.9242424242424242,,,,,,,,,,,,,,,,,,,,,,,,,,,
null,,color_black,519384,black_plus_sign,,,,,null,,,,,,,,,,,,,,,,,,,,,,,,,,,,,,,
null,,learn_phase(without_color),521918,black_plus_sign,,,,,null,US_Cities_List/nat_peoria.png,US_Cities_List/nat_westpalmbeach.png,,,,,,,,,,,,,,,,,,,,,,,,,,,,,
null,,black_cross(without_color),522835,green,,,,,null,US_Cities_List/nat_peoria.png,US_Cities_List/nat_westpalmbeach.png,,,,,,,,,,,,,,,,,,,,,,,,,,,,,
null,,rt_plussign_withcolor,523337,green,,,,,null,US_Cities_List/nat_peoria.png,US_Cities_List/nat_westpalmbeach.png,,,,,,,,,,,,,,,,,,,,,,,,,,,,,
1243.5999999977648,,rt_thecrossant_black,524423,black_plus_sign,,,,,50,,,1,0.9253731343283582,,,,,,,,,,,,,,,,,,,,,,,,,,,
null,,color_black,524524,black_plus_sign,,,,,null,,,,,,,,,,,,,,,,,,,,,,,,,,,,,,,
null,,learn_phase(without_color),527053,black_plus_sign,,,,,null,US_Cities_List/nat_shreveport.png,US_Cities_List/nat_cornwall.png,,,,,,,,,,,,,,,,,,,,,,,,,,,,,
null,,black_cross(without_color),527590,blue,,,,,null,US_Cities_List/nat_shreveport.png,US_Cities_List/nat_cornwall.png,,,,,,,,,,,,,,,,,,,,,,,,,,,,,
null,,rt_plussign_withcolor,528091,blue,,,,,null,US_Cities_List/nat_shreveport.png,US_Cities_List/nat_cornwall.png,,,,,,,,,,,,,,,,,,,,,,,,,,,,,
1209.3999999985099,,rt_thecrossant_black,529558,black_plus_sign,,,,,49,,,1,0.9264705882352942,,,,,,,,,,,,,,,,,,,,,,,,,,,
null,,color_black,529660,black_plus_sign,,,,,null,,,,,,,,,,,,,,,,,,,,,,,,,,,,,,,
null,,learn_phase(without_color),532185,black_plus_sign,,,,,null,US_Cities_List/nat_hanover.png,US_Cities_List/mm_huntsville.png,,,,,,,,,,,,,,,,,,,,,,,,,,,,,
null,,black_cross(without_color),532744,green,,,,,null,US_Cities_List/nat_hanover.png,US_Cities_List/mm_huntsville.png,,,,,,,,,,,,,,,,,,,,,,,,,,,,,
null,,rt_plussign_withcolor,533246,green,,,,,null,US_Cities_List/nat_hanover.png,US_Cities_List/mm_huntsville.png,,,,,,,,,,,,,,,,,,,,,,,,,,,,,
705.2999999970198,,rt_thecrossant_black,534690,black_plus_sign,,,,,50,,,1,0.927536231884058,,,,,,,,,,,,,,,,,,,,,,,,,,,
null,,color_black,534792,black_plus_sign,,,,,null,,,,,,,,,,,,,,,,,,,,,,,,,,,,,,,
null,,learn_phase(without_color),537320,black_plus_sign,,,,,null,US_Cities_List/nat_hotsprings.png,US_Cities_List/nat_racine.png,,,,,,,,,,,,,,,,,,,,,,,,,,,,,
null,,black_cross(without_color),538253,green,,,,,null,US_Cities_List/nat_hotsprings.png,US_Cities_List/nat_racine.png,,,,,,,,,,,,,,,,,,,,,,,,,,,,,
null,,rt_plussign_withcolor,538754,green,,,,,null,US_Cities_List/nat_hotsprings.png,US_Cities_List/nat_racine.png,,,,,,,,,,,,,,,,,,,,,,,,,,,,,
908.5999999977648,,rt_thecrossant_black,539825,black_plus_sign,,,,,49,,,0,0.9142857142857143,,,,,,,,,,,,,,,,,,,,,,,,,,,
null,,color_black,539927,black_plus_sign,,,,,null,,,,,,,,,,,,,,,,,,,,,,,,,,,,,,,
null,,learn_phase(without_color),542461,black_plus_sign,,,,,null,US_Cities_List/nat_hotsprings.png,US_Cities_List/nat_cornwall.png,,,,,,,,,,,,,,,,,,,,,,,,,,,,,
null,,black_cross(without_color),543160,blue,,,,,null,US_Cities_List/nat_hotsprings.png,US_Cities_List/nat_cornwall.png,,,,,,,,,,,,,,,,,,,,,,,,,,,,,
462,,rt_plussign_withcolor,543662,blue,,,,,50,US_Cities_List/nat_hotsprings.png,US_Cities_List/nat_cornwall.png,,,,,,,,,,,,,,,,,,,,,,,,,,,,,
null,,rt_thecrossant_black,544967,black_plus_sign,,,,,null,,,0,0.9014084507042254,,,,,,,,,,,,,,,,,,,,,,,,,,,
null,,warning_page,547969,warning,,,,,null,,,,,,,,,,,,,,,,,,,,,,,,,,,,,,,
null,,color_black,548071,black_plus_sign,,,,,null,,,,,,,,,,,,,,,,,,,,,,,,,,,,,,,
null,,learn_phase(without_color),550598,black_plus_sign,,,,,null,US_Cities_List/nat_peoria.png,US_Cities_List/nat_westpalmbeach.png,,,,,,,,,,,,,,,,,,,,,,,,,,,,,
null,,black_cross(without_color),551367,green,,,,,null,US_Cities_List/nat_peoria.png,US_Cities_List/nat_westpalmbeach.png,,,,,,,,,,,,,,,,,,,,,,,,,,,,,
null,,rt_plussign_withcolor,551868,green,,,,,null,US_Cities_List/nat_peoria.png,US_Cities_List/nat_westpalmbeach.png,,,,,,,,,,,,,,,,,,,,,,,,,,,,,
821.8999999985099,,rt_thecrossant_black,553105,black_plus_sign,,,,,50,,,1,0.9027777777777778,,,,,,,,,,,,,,,,,,,,,,,,,,,
null,,color_black,553207,black_plus_sign,,,,,null,,,,,,,,,,,,,,,,,,,,,,,,,,,,,,,
null,,learn_phase(without_color),555741,black_plus_sign,,,,,null,US_Cities_List/nat_hanover.png,US_Cities_List/nat_shreveport.png,,,,,,,,,,,,,,,,,,,,,,,,,,,,,
null,,black_cross(without_color),556812,green,,,,,null,US_Cities_List/nat_hanover.png,US_Cities_List/nat_shreveport.png,,,,,,,,,,,,,,,,,,,,,,,,,,,,,
464.80000000074506,,rt_plussign_withcolor,557313,green,,,,,50,US_Cities_List/nat_hanover.png,US_Cities_List/nat_shreveport.png,,,,,,,,,,,,,,,,,,,,,,,,,,,,,
null,,rt_thecrossant_black,558246,black_plus_sign,,,,,null,,,1,0.9041095890410958,,,,,,,,,,,,,,,,,,,,,,,,,,,
null,,color_black,558348,black_plus_sign,,,,,null,,,,,,,,,,,,,,,,,,,,,,,,,,,,,,,
null,,learn_phase(without_color),560885,black_plus_sign,,,,,null,US_Cities_List/nat_peoria.png,US_Cities_List/nat_hotsprings.png,,,,,,,,,,,,,,,,,,,,,,,,,,,,,
null,,black_cross(without_color),561607,green,,,,,null,US_Cities_List/nat_peoria.png,US_Cities_List/nat_hotsprings.png,,,,,,,,,,,,,,,,,,,,,,,,,,,,,
442.79999999701977,,rt_plussign_withcolor,562109,green,,,,,50,US_Cities_List/nat_peoria.png,US_Cities_List/nat_hotsprings.png,,,,,,,,,,,,,,,,,,,,,,,,,,,,,
null,,rt_thecrossant_black,563392,black_plus_sign,,,,,null,,,1,0.9054054054054054,,,,,,,,,,,,,,,,,,,,,,,,,,,
null,,color_black,563494,black_plus_sign,,,,,null,,,,,,,,,,,,,,,,,,,,,,,,,,,,,,,
null,,learn_phase(without_color),566032,black_plus_sign,,,,,null,US_Cities_List/nat_racine.png,US_Cities_List/nat_hanover.png,,,,,,,,,,,,,,,,,,,,,,,,,,,,,
null,,black_cross(without_color),567018,blue,,,,,null,US_Cities_List/nat_racine.png,US_Cities_List/nat_hanover.png,,,,,,,,,,,,,,,,,,,,,,,,,,,,,
482.5,,rt_plussign_withcolor,567520,blue,,,,,49,US_Cities_List/nat_racine.png,US_Cities_List/nat_hanover.png,,,,,,,,,,,,,,,,,,,,,,,,,,,,,
null,,rt_thecrossant_black,568538,black_plus_sign,,,,,null,,,1,0.9066666666666666,,,,,,,,,,,,,,,,,,,,,,,,,,,
null,,color_black,568640,black_plus_sign,,,,,null,,,,,,,,,,,,,,,,,,,,,,,,,,,,,,,
null,,learn_phase(without_color),571173,black_plus_sign,,,,,null,US_Cities_List/nat_peoria.png,US_Cities_List/nat_westpalmbeach.png,,,,,,,,,,,,,,,,,,,,,,,,,,,,,
null,,black_cross(without_color),571871,blue,,,,,null,US_Cities_List/nat_peoria.png,US_Cities_List/nat_westpalmbeach.png,,,,,,,,,,,,,,,,,,,,,,,,,,,,,
null,,rt_plussign_withcolor,572372,blue,,,,,null,US_Cities_List/nat_peoria.png,US_Cities_List/nat_westpalmbeach.png,,,,,,,,,,,,,,,,,,,,,,,,,,,,,
1196.3999999985099,,rt_thecrossant_black,573678,black_plus_sign,,,,,49,,,1,0.9078947368421053,,,,,,,,,,,,,,,,,,,,,,,,,,,
null,,color_black,573780,black_plus_sign,,,,,null,,,,,,,,,,,,,,,,,,,,,,,,,,,,,,,
null,,learn_phase(without_color),576309,black_plus_sign,,,,,null,US_Cities_List/mm_huntsville.png,US_Cities_List/nat_newhope.png,,,,,,,,,,,,,,,,,,,,,,,,,,,,,
null,,black_cross(without_color),577298,green,,,,,null,US_Cities_List/mm_huntsville.png,US_Cities_List/nat_newhope.png,,,,,,,,,,,,,,,,,,,,,,,,,,,,,
null,,rt_plussign_withcolor,577800,green,,,,,null,US_Cities_List/mm_huntsville.png,US_Cities_List/nat_newhope.png,,,,,,,,,,,,,,,,,,,,,,,,,,,,,
847.6999999992549,,rt_thecrossant_black,578815,black_plus_sign,,,,,50,,,1,0.9090909090909091,,,,,,,,,,,,,,,,,,,,,,,,,,,
null,,color_black,578917,black_plus_sign,,,,,null,,,,,,,,,,,,,,,,,,,,,,,,,,,,,,,
null,,learn_phase(without_color),581447,black_plus_sign,,,,,null,US_Cities_List/nat_racine.png,US_Cities_List/nat_hanover.png,,,,,,,,,,,,,,,,,,,,,,,,,,,,,
null,,black_cross(without_color),582503,green,,,,,null,US_Cities_List/nat_racine.png,US_Cities_List/nat_hanover.png,,,,,,,,,,,,,,,,,,,,,,,,,,,,,
null,,rt_plussign_withcolor,583005,green,,,,,null,US_Cities_List/nat_racine.png,US_Cities_List/nat_hanover.png,,,,,,,,,,,,,,,,,,,,,,,,,,,,,
1159.1000000014901,,rt_thecrossant_black,583953,black_plus_sign,,,,,50,,,1,0.9102564102564102,,,,,,,,,,,,,,,,,,,,,,,,,,,
null,,color_black,584054,black_plus_sign,,,,,null,,,,,,,,,,,,,,,,,,,,,,,,,,,,,,,
null,,learn_phase(without_color),586586,black_plus_sign,,,,,null,US_Cities_List/nat_hanover.png,US_Cities_List/nat_boulder.png,,,,,,,,,,,,,,,,,,,,,,,,,,,,,
null,,black_cross(without_color),587335,blue,,,,,null,US_Cities_List/nat_hanover.png,US_Cities_List/nat_boulder.png,,,,,,,,,,,,,,,,,,,,,,,,,,,,,
null,,rt_plussign_withcolor,587849,blue,,,,,null,US_Cities_List/nat_hanover.png,US_Cities_List/nat_boulder.png,,,,,,,,,,,,,,,,,,,,,,,,,,,,,
1242.8999999985099,,rt_thecrossant_black,589104,black_plus_sign,,,,,49,,,1,0.9113924050632911,,,,,,,,,,,,,,,,,,,,,,,,,,,
null,,color_black,589221,black_plus_sign,,,,,null,,,,,,,,,,,,,,,,,,,,,,,,,,,,,,,
null,,learn_phase(without_color),591752,black_plus_sign,,,,,null,US_Cities_List/nat_hotsprings.png,US_Cities_List/nat_cornwall.png,,,,,,,,,,,,,,,,,,,,,,,,,,,,,
null,,black_cross(without_color),592172,blue,,,,,null,US_Cities_List/nat_hotsprings.png,US_Cities_List/nat_cornwall.png,,,,,,,,,,,,,,,,,,,,,,,,,,,,,
null,,rt_plussign_withcolor,592683,blue,,,,,null,US_Cities_List/nat_hotsprings.png,US_Cities_List/nat_cornwall.png,,,,,,,,,,,,,,,,,,,,,,,,,,,,,
973.2000000029802,,rt_thecrossant_black,594280,black_plus_sign,,,,,49,,,1,0.9125,,,,,,,,,,,,,,,,,,,,,,,,,,,
null,,color_black,594382,black_plus_sign,,,,,null,,,,,,,,,,,,,,,,,,,,,,,,,,,,,,,
null,,learn_phase(without_color),596909,black_plus_sign,,,,,null,US_Cities_List/mm_huntsville.png,US_Cities_List/nat_newhope.png,,,,,,,,,,,,,,,,,,,,,,,,,,,,,
null,,black_cross(without_color),597963,green,,,,,null,US_Cities_List/mm_huntsville.png,US_Cities_List/nat_newhope.png,,,,,,,,,,,,,,,,,,,,,,,,,,,,,
458.8999999985099,,rt_plussign_withcolor,598465,green,,,,,50,US_Cities_List/mm_huntsville.png,US_Cities_List/nat_newhope.png,,,,,,,,,,,,,,,,,,,,,,,,,,,,,
null,,rt_thecrossant_black,599414,black_plus_sign,,,,,null,,,1,0.9135802469135802,,,,,,,,,,,,,,,,,,,,,,,,,,,
null,,color_black,599524,black_plus_sign,,,,,null,,,,,,,,,,,,,,,,,,,,,,,,,,,,,,,
null,,learn_phase(without_color),602059,black_plus_sign,,,,,null,US_Cities_List/nat_peoria.png,US_Cities_List/nat_hotsprings.png,,,,,,,,,,,,,,,,,,,,,,,,,,,,,
null,,black_cross(without_color),602580,blue,,,,,null,US_Cities_List/nat_peoria.png,US_Cities_List/nat_hotsprings.png,,,,,,,,,,,,,,,,,,,,,,,,,,,,,
null,,rt_plussign_withcolor,603082,blue,,,,,null,US_Cities_List/nat_peoria.png,US_Cities_List/nat_hotsprings.png,,,,,,,,,,,,,,,,,,,,,,,,,,,,,
1390.4000000022352,,rt_thecrossant_black,604565,black_plus_sign,,,,,49,,,1,0.9146341463414634,,,,,,,,,,,,,,,,,,,,,,,,,,,
null,,color_black,604668,black_plus_sign,,,,,null,,,,,,,,,,,,,,,,,,,,,,,,,,,,,,,
null,,learn_phase(without_color),607199,black_plus_sign,,,,,null,US_Cities_List/nat_racine.png,US_Cities_List/nat_shreveport.png,,,,,,,,,,,,,,,,,,,,,,,,,,,,,
null,,black_cross(without_color),608268,green,,,,,null,US_Cities_List/nat_racine.png,US_Cities_List/nat_shreveport.png,,,,,,,,,,,,,,,,,,,,,,,,,,,,,
null,,rt_plussign_withcolor,608770,green,,,,,null,US_Cities_List/nat_racine.png,US_Cities_List/nat_shreveport.png,,,,,,,,,,,,,,,,,,,,,,,,,,,,,
829.9000000022352,,rt_thecrossant_black,609704,black_plus_sign,,,,,50,,,1,0.9156626506024096,,,,,,,,,,,,,,,,,,,,,,,,,,,
null,,color_black,609818,black_plus_sign,,,,,null,,,,,,,,,,,,,,,,,,,,,,,,,,,,,,,
null,,learn_phase(without_color),612350,black_plus_sign,,,,,null,US_Cities_List/nat_hanover.png,US_Cities_List/mm_huntsville.png,,,,,,,,,,,,,,,,,,,,,,,,,,,,,
null,,black_cross(without_color),612838,blue,,,,,null,US_Cities_List/nat_hanover.png,US_Cities_List/mm_huntsville.png,,,,,,,,,,,,,,,,,,,,,,,,,,,,,
null,,rt_plussign_withcolor,613340,blue,,,,,null,US_Cities_List/nat_hanover.png,US_Cities_List/mm_huntsville.png,,,,,,,,,,,,,,,,,,,,,,,,,,,,,
1287.199999999255,,rt_thecrossant_black,614854,black_plus_sign,,,,,49,,,1,0.9166666666666666,,,,,,,,,,,,,,,,,,,,,,,,,,,
null,,color_black,614969,black_plus_sign,,,,,null,,,,,,,,,,,,,,,,,,,,,,,,,,,,,,,
null,,learn_phase(without_color),617501,black_plus_sign,,,,,null,US_Cities_List/mm_huntsville.png,US_Cities_List/nat_shreveport.png,,,,,,,,,,,,,,,,,,,,,,,,,,,,,
null,,black_cross(without_color),617995,green,,,,,null,US_Cities_List/mm_huntsville.png,US_Cities_List/nat_shreveport.png,,,,,,,,,,,,,,,,,,,,,,,,,,,,,
466.30000000074506,,rt_plussign_withcolor,618497,green,,,,,50,US_Cities_List/mm_huntsville.png,US_Cities_List/nat_shreveport.png,,,,,,,,,,,,,,,,,,,,,,,,,,,,,
null,,rt_thecrossant_black,620006,black_plus_sign,,,,,null,,,1,0.9176470588235294,,,,,,,,,,,,,,,,,,,,,,,,,,,
null,,color_black,620108,black_plus_sign,,,,,null,,,,,,,,,,,,,,,,,,,,,,,,,,,,,,,
null,,learn_phase(without_color),622633,black_plus_sign,,,,,null,US_Cities_List/nat_westpalmbeach.png,US_Cities_List/mm_leesburg.png,,,,,,,,,,,,,,,,,,,,,,,,,,,,,
null,,black_cross(without_color),623110,blue,,,,,null,US_Cities_List/nat_westpalmbeach.png,US_Cities_List/mm_leesburg.png,,,,,,,,,,,,,,,,,,,,,,,,,,,,,
null,,rt_plussign_withcolor,623611,blue,,,,,null,US_Cities_List/nat_westpalmbeach.png,US_Cities_List/mm_leesburg.png,,,,,,,,,,,,,,,,,,,,,,,,,,,,,
610.3999999985099,,rt_thecrossant_black,625139,black_plus_sign,,,,,49,,,1,0.9186046511627907,,,,,,,,,,,,,,,,,,,,,,,,,,,
null,,color_black,625241,black_plus_sign,,,,,null,,,,,,,,,,,,,,,,,,,,,,,,,,,,,,,
null,,learn_phase(without_color),627774,black_plus_sign,,,,,null,US_Cities_List/nat_cornwall.png,US_Cities_List/mm_leesburg.png,,,,,,,,,,,,,,,,,,,,,,,,,,,,,
null,,black_cross(without_color),628865,blue,,,,,null,US_Cities_List/nat_cornwall.png,US_Cities_List/mm_leesburg.png,,,,,,,,,,,,,,,,,,,,,,,,,,,,,
null,,rt_plussign_withcolor,629367,blue,,,,,null,US_Cities_List/nat_cornwall.png,US_Cities_List/mm_leesburg.png,,,,,,,,,,,,,,,,,,,,,,,,,,,,,
704.4000000022352,,rt_thecrossant_black,630280,black_plus_sign,,,,,49,,,1,0.9195402298850575,,,,,,,,,,,,,,,,,,,,,,,,,,,
null,,color_black,630382,black_plus_sign,,,,,null,,,,,,,,,,,,,,,,,,,,,,,,,,,,,,,
null,,learn_phase(without_color),632910,black_plus_sign,,,,,null,US_Cities_List/nat_westpalmbeach.png,US_Cities_List/nat_carmel.png,,,,,,,,,,,,,,,,,,,,,,,,,,,,,
null,,black_cross(without_color),633840,blue,,,,,null,US_Cities_List/nat_westpalmbeach.png,US_Cities_List/nat_carmel.png,,,,,,,,,,,,,,,,,,,,,,,,,,,,,
null,,rt_plussign_withcolor,634342,blue,,,,,null,US_Cities_List/nat_westpalmbeach.png,US_Cities_List/nat_carmel.png,,,,,,,,,,,,,,,,,,,,,,,,,,,,,
1380.199999999255,,rt_thecrossant_black,635416,black_plus_sign,,,,,49,,,1,0.9204545454545454,,,,,,,,,,,,,,,,,,,,,,,,,,,
null,,color_black,635518,black_plus_sign,,,,,null,,,,,,,,,,,,,,,,,,,,,,,,,,,,,,,
null,,learn_phase(without_color),638048,black_plus_sign,,,,,null,US_Cities_List/nat_hanover.png,US_Cities_List/nat_boulder.png,,,,,,,,,,,,,,,,,,,,,,,,,,,,,
null,,black_cross(without_color),638774,blue,,,,,null,US_Cities_List/nat_hanover.png,US_Cities_List/nat_boulder.png,,,,,,,,,,,,,,,,,,,,,,,,,,,,,
420.3999999985099,,rt_plussign_withcolor,639275,blue,,,,,49,US_Cities_List/nat_hanover.png,US_Cities_List/nat_boulder.png,,,,,,,,,,,,,,,,,,,,,,,,,,,,,
null,,rt_thecrossant_black,640553,black_plus_sign,,,,,null,,,1,0.9213483146067416,,,,,,,,,,,,,,,,,,,,,,,,,,,
null,,color_black,640656,black_plus_sign,,,,,null,,,,,,,,,,,,,,,,,,,,,,,,,,,,,,,
null,,learn_phase(without_color),643187,black_plus_sign,,,,,null,US_Cities_List/nat_racine.png,US_Cities_List/nat_hanover.png,,,,,,,,,,,,,,,,,,,,,,,,,,,,,
null,,black_cross(without_color),643706,blue,,,,,null,US_Cities_List/nat_racine.png,US_Cities_List/nat_hanover.png,,,,,,,,,,,,,,,,,,,,,,,,,,,,,
461.19999999925494,,rt_plussign_withcolor,644207,blue,,,,,49,US_Cities_List/nat_racine.png,US_Cities_List/nat_hanover.png,,,,,,,,,,,,,,,,,,,,,,,,,,,,,
null,,rt_thecrossant_black,645692,black_plus_sign,,,,,null,,,1,0.9222222222222223,,,,,,,,,,,,,,,,,,,,,,,,,,,
null,,color_black,645794,black_plus_sign,,,,,null,,,,,,,,,,,,,,,,,,,,,,,,,,,,,,,
null,,learn_phase(without_color),648332,black_plus_sign,,,,,null,US_Cities_List/nat_hotsprings.png,US_Cities_List/nat_racine.png,,,,,,,,,,,,,,,,,,,,,,,,,,,,,
null,,black_cross(without_color),649069,green,,,,,null,US_Cities_List/nat_hotsprings.png,US_Cities_List/nat_racine.png,,,,,,,,,,,,,,,,,,,,,,,,,,,,,
464.80000000074506,,rt_plussign_withcolor,649572,green,,,,,50,US_Cities_List/nat_hotsprings.png,US_Cities_List/nat_racine.png,,,,,,,,,,,,,,,,,,,,,,,,,,,,,
null,,rt_thecrossant_black,650841,black_plus_sign,,,,,null,,,1,0.9230769230769231,,,,,,,,,,,,,,,,,,,,,,,,,,,
null,,color_black,650943,black_plus_sign,,,,,null,,,,,,,,,,,,,,,,,,,,,,,,,,,,,,,
null,,learn_phase(without_color),653481,black_plus_sign,,,,,null,US_Cities_List/nat_racine.png,US_Cities_List/nat_hanover.png,,,,,,,,,,,,,,,,,,,,,,,,,,,,,
null,,black_cross(without_color),654181,green,,,,,null,US_Cities_List/nat_racine.png,US_Cities_List/nat_hanover.png,,,,,,,,,,,,,,,,,,,,,,,,,,,,,
484,,rt_plussign_withcolor,654682,green,,,,,50,US_Cities_List/nat_racine.png,US_Cities_List/nat_hanover.png,,,,,,,,,,,,,,,,,,,,,,,,,,,,,
null,,rt_thecrossant_black,655985,black_plus_sign,,,,,null,,,1,0.9239130434782609,,,,,,,,,,,,,,,,,,,,,,,,,,,
null,,color_black,656096,black_plus_sign,,,,,null,,,,,,,,,,,,,,,,,,,,,,,,,,,,,,,
null,,learn_phase(without_color),658636,black_plus_sign,,,,,null,US_Cities_List/nat_hotsprings.png,US_Cities_List/nat_racine.png,,,,,,,,,,,,,,,,,,,,,,,,,,,,,
null,,black_cross(without_color),659654,green,,,,,null,US_Cities_List/nat_hotsprings.png,US_Cities_List/nat_racine.png,,,,,,,,,,,,,,,,,,,,,,,,,,,,,
482.5,,rt_plussign_withcolor,660155,green,,,,,50,US_Cities_List/nat_hotsprings.png,US_Cities_List/nat_racine.png,,,,,,,,,,,,,,,,,,,,,,,,,,,,,
null,,rt_thecrossant_black,661141,black_plus_sign,,,,,null,,,1,0.9247311827956989,,,,,,,,,,,,,,,,,,,,,,,,,,,
null,,color_black,661243,black_plus_sign,,,,,null,,,,,,,,,,,,,,,,,,,,,,,,,,,,,,,
null,,learn_phase(without_color),663782,black_plus_sign,,,,,null,US_Cities_List/nat_racine.png,US_Cities_List/nat_hanover.png,,,,,,,,,,,,,,,,,,,,,,,,,,,,,
null,,black_cross(without_color),664803,blue,,,,,null,US_Cities_List/nat_racine.png,US_Cities_List/nat_hanover.png,,,,,,,,,,,,,,,,,,,,,,,,,,,,,
445.5999999977648,,rt_plussign_withcolor,665305,blue,,,,,50,US_Cities_List/nat_racine.png,US_Cities_List/nat_hanover.png,,,,,,,,,,,,,,,,,,,,,,,,,,,,,
null,,rt_thecrossant_black,666289,black_plus_sign,,,,,null,,,0,0.9148936170212766,,,,,,,,,,,,,,,,,,,,,,,,,,,
null,,color_black,666391,black_plus_sign,,,,,null,,,,,,,,,,,,,,,,,,,,,,,,,,,,,,,
null,,learn_phase(without_color),668915,black_plus_sign,,,,,null,US_Cities_List/nat_westpalmbeach.png,US_Cities_List/mm_leesburg.png,,,,,,,,,,,,,,,,,,,,,,,,,,,,,
null,,black_cross(without_color),669509,green,,,,,null,US_Cities_List/nat_westpalmbeach.png,US_Cities_List/mm_leesburg.png,,,,,,,,,,,,,,,,,,,,,,,,,,,,,
null,,rt_plussign_withcolor,670012,green,,,,,null,US_Cities_List/nat_westpalmbeach.png,US_Cities_List/mm_leesburg.png,,,,,,,,,,,,,,,,,,,,,,,,,,,,,
1179.5,,rt_thecrossant_black,671428,black_plus_sign,,,,,50,,,1,0.9157894736842105,,,,,,,,,,,,,,,,,,,,,,,,,,,
null,,color_black,671531,black_plus_sign,,,,,null,,,,,,,,,,,,,,,,,,,,,,,,,,,,,,,
null,,learn_phase(without_color),674059,black_plus_sign,,,,,null,US_Cities_List/nat_hotsprings.png,US_Cities_List/nat_cornwall.png,,,,,,,,,,,,,,,,,,,,,,,,,,,,,
null,,black_cross(without_color),674931,blue,,,,,null,US_Cities_List/nat_hotsprings.png,US_Cities_List/nat_cornwall.png,,,,,,,,,,,,,,,,,,,,,,,,,,,,,
469.0999999977648,,rt_plussign_withcolor,675433,blue,,,,,49,US_Cities_List/nat_hotsprings.png,US_Cities_List/nat_cornwall.png,,,,,,,,,,,,,,,,,,,,,,,,,,,,,
null,,rt_thecrossant_black,676564,black_plus_sign,,,,,null,,,1,0.9166666666666666,,,,,,,,,,,,,,,,,,,,,,,,,,,
null,,color_black,676666,black_plus_sign,,,,,null,,,,,,,,,,,,,,,,,,,,,,,,,,,,,,,
null,,learn_phase(without_color),679199,black_plus_sign,,,,,null,US_Cities_List/nat_shreveport.png,US_Cities_List/nat_cornwall.png,,,,,,,,,,,,,,,,,,,,,,,,,,,,,
null,,black_cross(without_color),679758,blue,,,,,null,US_Cities_List/nat_shreveport.png,US_Cities_List/nat_cornwall.png,,,,,,,,,,,,,,,,,,,,,,,,,,,,,
500.69999999925494,,rt_plussign_withcolor,680260,blue,,,,,49,US_Cities_List/nat_shreveport.png,US_Cities_List/nat_cornwall.png,,,,,,,,,,,,,,,,,,,,,,,,,,,,,
null,,rt_thecrossant_black,681706,black_plus_sign,,,,,null,,,1,0.9175257731958762,,,,,,,,,,,,,,,,,,,,,,,,,,,
null,,color_black,681808,black_plus_sign,,,,,null,,,,,,,,,,,,,,,,,,,,,,,,,,,,,,,
null,,learn_phase(without_color),684341,black_plus_sign,,,,,null,US_Cities_List/nat_hanover.png,US_Cities_List/nat_shreveport.png,,,,,,,,,,,,,,,,,,,,,,,,,,,,,
null,,black_cross(without_color),685093,blue,,,,,null,US_Cities_List/nat_hanover.png,US_Cities_List/nat_shreveport.png,,,,,,,,,,,,,,,,,,,,,,,,,,,,,
454.30000000074506,,rt_plussign_withcolor,685595,blue,,,,,49,US_Cities_List/nat_hanover.png,US_Cities_List/nat_shreveport.png,,,,,,,,,,,,,,,,,,,,,,,,,,,,,
null,,rt_thecrossant_black,686855,black_plus_sign,,,,,null,,,1,0.9183673469387755,,,,,,,,,,,,,,,,,,,,,,,,,,,
null,,color_black,686957,black_plus_sign,,,,,null,,,,,,,,,,,,,,,,,,,,,,,,,,,,,,,
null,,learn_phase(without_color),689487,black_plus_sign,,,,,null,US_Cities_List/mm_gatlinburg.png,US_Cities_List/nat_peoria.png,,,,,,,,,,,,,,,,,,,,,,,,,,,,,
null,,black_cross(without_color),690078,blue,,,,,null,US_Cities_List/mm_gatlinburg.png,US_Cities_List/nat_peoria.png,,,,,,,,,,,,,,,,,,,,,,,,,,,,,
null,,rt_plussign_withcolor,690580,blue,,,,,null,US_Cities_List/mm_gatlinburg.png,US_Cities_List/nat_peoria.png,,,,,,,,,,,,,,,,,,,,,,,,,,,,,
842.1999999992549,,rt_thecrossant_black,691993,black_plus_sign,,,,,49,,,1,0.9191919191919192,,,,,,,,,,,,,,,,,,,,,,,,,,,
null,,color_black,692095,black_plus_sign,,,,,null,,,,,,,,,,,,,,,,,,,,,,,,,,,,,,,
null,,learn_phase(without_color),694623,black_plus_sign,,,,,null,US_Cities_List/mm_huntsville.png,US_Cities_List/nat_newhope.png,,,,,,,,,,,,,,,,,,,,,,,,,,,,,
null,,black_cross(without_color),695491,green,,,,,null,US_Cities_List/mm_huntsville.png,US_Cities_List/nat_newhope.png,,,,,,,,,,,,,,,,,,,,,,,,,,,,,
null,,rt_plussign_withcolor,695993,green,,,,,null,US_Cities_List/mm_huntsville.png,US_Cities_List/nat_newhope.png,,,,,,,,,,,,,,,,,,,,,,,,,,,,,
703.3999999985099,,rt_thecrossant_black,697129,black_plus_sign,,,,,50,,,1,0.92,,,,,,,,,,,,,,,,,,,,,,,,,,,
null,,color_black,697231,black_plus_sign,,,,,null,,,,,,,,,,,,,,,,,,,,,,,,,,,,,,,
null,,learn_phase(without_color),699765,black_plus_sign,,,,,null,US_Cities_List/nat_racine.png,US_Cities_List/nat_hanover.png,,,,,,,,,,,,,,,,,,,,,,,,,,,,,
null,,black_cross(without_color),700203,green,,,,,null,US_Cities_List/nat_racine.png,US_Cities_List/nat_hanover.png,,,,,,,,,,,,,,,,,,,,,,,,,,,,,
null,,rt_plussign_withcolor,700704,green,,,,,null,US_Cities_List/nat_racine.png,US_Cities_List/nat_hanover.png,,,,,,,,,,,,,,,,,,,,,,,,,,,,,
1035.6000000014901,,rt_thecrossant_black,702270,black_plus_sign,,,,,50,,,1,0.9207920792079208,,,,,,,,,,,,,,,,,,,,,,,,,,,
null,,color_black,702372,black_plus_sign,,,,,null,,,,,,,,,,,,,,,,,,,,,,,,,,,,,,,
null,,learn_phase(without_color),704905,black_plus_sign,,,,,null,US_Cities_List/nat_cornwall.png,US_Cities_List/mm_leesburg.png,,,,,,,,,,,,,,,,,,,,,,,,,,,,,
null,,black_cross(without_color),705680,green,,,,,null,US_Cities_List/nat_cornwall.png,US_Cities_List/mm_leesburg.png,,,,,,,,,,,,,,,,,,,,,,,,,,,,,
null,,rt_plussign_withcolor,706182,green,,,,,null,US_Cities_List/nat_cornwall.png,US_Cities_List/mm_leesburg.png,,,,,,,,,,,,,,,,,,,,,,,,,,,,,
658.5999999977648,,rt_thecrossant_black,707411,black_plus_sign,,,,,50,,,1,0.9215686274509803,,,,,,,,,,,,,,,,,,,,,,,,,,,
null,,color_black,707512,black_plus_sign,,,,,null,,,,,,,,,,,,,,,,,,,,,,,,,,,,,,,
null,,learn_phase(without_color),710046,black_plus_sign,,,,,null,US_Cities_List/nat_hanover.png,US_Cities_List/nat_boulder.png,,,,,,,,,,,,,,,,,,,,,,,,,,,,,
null,,black_cross(without_color),711005,green,,,,,null,US_Cities_List/nat_hanover.png,US_Cities_List/nat_boulder.png,,,,,,,,,,,,,,,,,,,,,,,,,,,,,
null,,rt_plussign_withcolor,711521,green,,,,,null,US_Cities_List/nat_hanover.png,US_Cities_List/nat_boulder.png,,,,,,,,,,,,,,,,,,,,,,,,,,,,,
967.3000000007451,,rt_thecrossant_black,712566,black_plus_sign,,,,,50,,,1,0.9223300970873787,,,,,,,,,,,,,,,,,,,,,,,,,,,
null,,color_black,712667,black_plus_sign,,,,,null,,,,,,,,,,,,,,,,,,,,,,,,,,,,,,,
null,,learn_phase(without_color),715200,black_plus_sign,,,,,null,US_Cities_List/mm_gatlinburg.png,US_Cities_List/nat_peoria.png,,,,,,,,,,,,,,,,,,,,,,,,,,,,,
null,,black_cross(without_color),716073,green,,,,,null,US_Cities_List/mm_gatlinburg.png,US_Cities_List/nat_peoria.png,,,,,,,,,,,,,,,,,,,,,,,,,,,,,
null,,rt_plussign_withcolor,716574,green,,,,,null,US_Cities_List/mm_gatlinburg.png,US_Cities_List/nat_peoria.png,,,,,,,,,,,,,,,,,,,,,,,,,,,,,
1090.199999999255,,rt_thecrossant_black,717705,black_plus_sign,,,,,50,,,1,0.9230769230769231,,,,,,,,,,,,,,,,,,,,,,,,,,,
null,,color_black,717807,black_plus_sign,,,,,null,,,,,,,,,,,,,,,,,,,,,,,,,,,,,,,
null,,learn_phase(without_color),720339,black_plus_sign,,,,,null,US_Cities_List/nat_peoria.png,US_Cities_List/nat_westpalmbeach.png,,,,,,,,,,,,,,,,,,,,,,,,,,,,,
null,,black_cross(without_color),721095,blue,,,,,null,US_Cities_List/nat_peoria.png,US_Cities_List/nat_westpalmbeach.png,,,,,,,,,,,,,,,,,,,,,,,,,,,,,
null,,rt_plussign_withcolor,721598,blue,,,,,null,US_Cities_List/nat_peoria.png,US_Cities_List/nat_westpalmbeach.png,,,,,,,,,,,,,,,,,,,,,,,,,,,,,
1166,,rt_thecrossant_black,722846,black_plus_sign,,,,,49,,,1,0.9238095238095239,,,,,,,,,,,,,,,,,,,,,,,,,,,
null,,color_black,722949,black_plus_sign,,,,,null,,,,,,,,,,,,,,,,,,,,,,,,,,,,,,,
null,,learn_phase(without_color),725479,black_plus_sign,,,,,null,US_Cities_List/nat_shreveport.png,US_Cities_List/nat_cornwall.png,,,,,,,,,,,,,,,,,,,,,,,,,,,,,
null,,black_cross(without_color),725886,green,,,,,null,US_Cities_List/nat_shreveport.png,US_Cities_List/nat_cornwall.png,,,,,,,,,,,,,,,,,,,,,,,,,,,,,
null,,rt_plussign_withcolor,726388,green,,,,,null,US_Cities_List/nat_shreveport.png,US_Cities_List/nat_cornwall.png,,,,,,,,,,,,,,,,,,,,,,,,,,,,,
896.3000000007451,,rt_thecrossant_black,727986,black_plus_sign,,,,,50,,,1,0.9245283018867925,,,,,,,,,,,,,,,,,,,,,,,,,,,
null,,color_black,728088,black_plus_sign,,,,,null,,,,,,,,,,,,,,,,,,,,,,,,,,,,,,,
null,,learn_phase(without_color),730616,black_plus_sign,,,,,null,US_Cities_List/nat_hanover.png,US_Cities_List/nat_shreveport.png,,,,,,,,,,,,,,,,,,,,,,,,,,,,,
null,,black_cross(without_color),731384,blue,,,,,null,US_Cities_List/nat_hanover.png,US_Cities_List/nat_shreveport.png,,,,,,,,,,,,,,,,,,,,,,,,,,,,,
null,,rt_plussign_withcolor,731885,blue,,,,,null,US_Cities_List/nat_hanover.png,US_Cities_List/nat_shreveport.png,,,,,,,,,,,,,,,,,,,,,,,,,,,,,
647,,rt_thecrossant_black,733122,black_plus_sign,,,,,49,,,1,0.9252336448598131,,,,,,,,,,,,,,,,,,,,,,,,,,,
null,,color_black,733224,black_plus_sign,,,,,null,,,,,,,,,,,,,,,,,,,,,,,,,,,,,,,
null,,learn_phase(without_color),735753,black_plus_sign,,,,,null,US_Cities_List/mm_huntsville.png,US_Cities_List/nat_newhope.png,,,,,,,,,,,,,,,,,,,,,,,,,,,,,
null,,black_cross(without_color),736365,blue,,,,,null,US_Cities_List/mm_huntsville.png,US_Cities_List/nat_newhope.png,,,,,,,,,,,,,,,,,,,,,,,,,,,,,
417,,rt_plussign_withcolor,736867,blue,,,,,50,US_Cities_List/mm_huntsville.png,US_Cities_List/nat_newhope.png,,,,,,,,,,,,,,,,,,,,,,,,,,,,,
null,,rt_thecrossant_black,738259,black_plus_sign,,,,,null,,,0,0.9166666666666666,,,,,,,,,,,,,,,,,,,,,,,,,,,
null,,color_black,738361,black_plus_sign,,,,,null,,,,,,,,,,,,,,,,,,,,,,,,,,,,,,,
null,,learn_phase(without_color),740898,black_plus_sign,,,,,null,US_Cities_List/nat_hanover.png,US_Cities_List/nat_shreveport.png,,,,,,,,,,,,,,,,,,,,,,,,,,,,,
null,,black_cross(without_color),741971,green,,,,,null,US_Cities_List/nat_hanover.png,US_Cities_List/nat_shreveport.png,,,,,,,,,,,,,,,,,,,,,,,,,,,,,
null,,rt_plussign_withcolor,742473,green,,,,,null,US_Cities_List/nat_hanover.png,US_Cities_List/nat_shreveport.png,,,,,,,,,,,,,,,,,,,,,,,,,,,,,
741.0999999977648,,rt_thecrossant_black,743403,black_plus_sign,,,,,50,,,1,0.9174311926605505,,,,,,,,,,,,,,,,,,,,,,,,,,,
null,,color_black,743505,black_plus_sign,,,,,null,,,,,,,,,,,,,,,,,,,,,,,,,,,,,,,
null,,learn_phase(without_color),746039,black_plus_sign,,,,,null,US_Cities_List/nat_shreveport.png,US_Cities_List/nat_cornwall.png,,,,,,,,,,,,,,,,,,,,,,,,,,,,,
null,,black_cross(without_color),746597,blue,,,,,null,US_Cities_List/nat_shreveport.png,US_Cities_List/nat_cornwall.png,,,,,,,,,,,,,,,,,,,,,,,,,,,,,
null,,rt_plussign_withcolor,747100,blue,,,,,null,US_Cities_List/nat_shreveport.png,US_Cities_List/nat_cornwall.png,,,,,,,,,,,,,,,,,,,,,,,,,,,,,
1229.5,,rt_thecrossant_black,748546,black_plus_sign,,,,,49,,,1,0.9181818181818182,,,,,,,,,,,,,,,,,,,,,,,,,,,
null,,color_black,748648,black_plus_sign,,,,,null,,,,,,,,,,,,,,,,,,,,,,,,,,,,,,,
null,,learn_phase(without_color),751182,black_plus_sign,,,,,null,US_Cities_List/nat_hanover.png,US_Cities_List/nat_shreveport.png,,,,,,,,,,,,,,,,,,,,,,,,,,,,,
null,,black_cross(without_color),751985,blue,,,,,null,US_Cities_List/nat_hanover.png,US_Cities_List/nat_shreveport.png,,,,,,,,,,,,,,,,,,,,,,,,,,,,,
null,,rt_plussign_withcolor,752488,blue,,,,,null,US_Cities_List/nat_hanover.png,US_Cities_List/nat_shreveport.png,,,,,,,,,,,,,,,,,,,,,,,,,,,,,
668.5,,rt_thecrossant_black,753699,black_plus_sign,,,,,49,,,1,0.918918918918919,,,,,,,,,,,,,,,,,,,,,,,,,,,
null,,color_black,753801,black_plus_sign,,,,,null,,,,,,,,,,,,,,,,,,,,,,,,,,,,,,,
null,,learn_phase(without_color),756333,black_plus_sign,,,,,null,US_Cities_List/mm_huntsville.png,US_Cities_List/nat_shreveport.png,,,,,,,,,,,,,,,,,,,,,,,,,,,,,
null,,black_cross(without_color),757020,blue,,,,,null,US_Cities_List/mm_huntsville.png,US_Cities_List/nat_shreveport.png,,,,,,,,,,,,,,,,,,,,,,,,,,,,,
null,,rt_plussign_withcolor,757522,blue,,,,,null,US_Cities_List/mm_huntsville.png,US_Cities_List/nat_shreveport.png,,,,,,,,,,,,,,,,,,,,,,,,,,,,,
996.3000000007451,,rt_thecrossant_black,758839,black_plus_sign,,,,,49,,,1,0.9196428571428571,,,,,,,,,,,,,,,,,,,,,,,,,,,
null,,color_black,758941,black_plus_sign,,,,,null,,,,,,,,,,,,,,,,,,,,,,,,,,,,,,,
null,,learn_phase(without_color),761476,black_plus_sign,,,,,null,US_Cities_List/nat_shreveport.png,US_Cities_List/nat_cornwall.png,,,,,,,,,,,,,,,,,,,,,,,,,,,,,
null,,black_cross(without_color),762068,green,,,,,null,US_Cities_List/nat_shreveport.png,US_Cities_List/nat_cornwall.png,,,,,,,,,,,,,,,,,,,,,,,,,,,,,
496.30000000074506,,rt_plussign_withcolor,762569,green,,,,,50,US_Cities_List/nat_shreveport.png,US_Cities_List/nat_cornwall.png,,,,,,,,,,,,,,,,,,,,,,,,,,,,,
null,,rt_thecrossant_black,763982,black_plus_sign,,,,,null,,,1,0.9203539823008849,,,,,,,,,,,,,,,,,,,,,,,,,,,
null,,color_black,764084,black_plus_sign,,,,,null,,,,,,,,,,,,,,,,,,,,,,,,,,,,,,,
null,,learn_phase(without_color),766613,black_plus_sign,,,,,null,US_Cities_List/nat_peoria.png,US_Cities_List/nat_hotsprings.png,,,,,,,,,,,,,,,,,,,,,,,,,,,,,
null,,black_cross(without_color),767539,blue,,,,,null,US_Cities_List/nat_peoria.png,US_Cities_List/nat_hotsprings.png,,,,,,,,,,,,,,,,,,,,,,,,,,,,,
null,,rt_plussign_withcolor,768041,blue,,,,,null,US_Cities_List/nat_peoria.png,US_Cities_List/nat_hotsprings.png,,,,,,,,,,,,,,,,,,,,,,,,,,,,,
746,,rt_thecrossant_black,769118,black_plus_sign,,,,,49,,,1,0.9210526315789473,,,,,,,,,,,,,,,,,,,,,,,,,,,
null,,color_black,769221,black_plus_sign,,,,,null,,,,,,,,,,,,,,,,,,,,,,,,,,,,,,,
null,,learn_phase(without_color),771754,black_plus_sign,,,,,null,US_Cities_List/mm_huntsville.png,US_Cities_List/nat_shreveport.png,,,,,,,,,,,,,,,,,,,,,,,,,,,,,
null,,black_cross(without_color),772400,green,,,,,null,US_Cities_List/mm_huntsville.png,US_Cities_List/nat_shreveport.png,,,,,,,,,,,,,,,,,,,,,,,,,,,,,
null,,rt_plussign_withcolor,772902,green,,,,,null,US_Cities_List/mm_huntsville.png,US_Cities_List/nat_shreveport.png,,,,,,,,,,,,,,,,,,,,,,,,,,,,,
1106.5,,rt_thecrossant_black,774260,black_plus_sign,,,,,50,,,1,0.9217391304347826,,,,,,,,,,,,,,,,,,,,,,,,,,,
null,,color_black,774362,black_plus_sign,,,,,null,,,,,,,,,,,,,,,,,,,,,,,,,,,,,,,
null,,learn_phase(without_color),776895,black_plus_sign,,,,,null,US_Cities_List/nat_cornwall.png,US_Cities_List/mm_leesburg.png,,,,,,,,,,,,,,,,,,,,,,,,,,,,,
null,,black_cross(without_color),777675,green,,,,,null,US_Cities_List/nat_cornwall.png,US_Cities_List/mm_leesburg.png,,,,,,,,,,,,,,,,,,,,,,,,,,,,,
null,,rt_plussign_withcolor,778177,green,,,,,null,US_Cities_List/nat_cornwall.png,US_Cities_List/mm_leesburg.png,,,,,,,,,,,,,,,,,,,,,,,,,,,,,
818.0999999977648,,rt_thecrossant_black,779400,black_plus_sign,,,,,50,,,1,0.9224137931034483,,,,,,,,,,,,,,,,,,,,,,,,,,,
null,,color_black,779502,black_plus_sign,,,,,null,,,,,,,,,,,,,,,,,,,,,,,,,,,,,,,
null,,learn_phase(without_color),782034,black_plus_sign,,,,,null,US_Cities_List/nat_westpalmbeach.png,US_Cities_List/mm_leesburg.png,,,,,,,,,,,,,,,,,,,,,,,,,,,,,
null,,black_cross(without_color),782549,green,,,,,null,US_Cities_List/nat_westpalmbeach.png,US_Cities_List/mm_leesburg.png,,,,,,,,,,,,,,,,,,,,,,,,,,,,,
null,,rt_plussign_withcolor,783050,green,,,,,null,US_Cities_List/nat_westpalmbeach.png,US_Cities_List/mm_leesburg.png,,,,,,,,,,,,,,,,,,,,,,,,,,,,,
1562.699999999255,,rt_thecrossant_black,784541,black_plus_sign,,,,,50,,,1,0.9230769230769231,,,,,,,,,,,,,,,,,,,,,,,,,,,
null,,color_black,784643,black_plus_sign,,,,,null,,,,,,,,,,,,,,,,,,,,,,,,,,,,,,,
null,,learn_phase(without_color),787174,black_plus_sign,,,,,null,US_Cities_List/nat_racine.png,US_Cities_List/nat_hanover.png,,,,,,,,,,,,,,,,,,,,,,,,,,,,,
null,,black_cross(without_color),787905,green,,,,,null,US_Cities_List/nat_racine.png,US_Cities_List/nat_hanover.png,,,,,,,,,,,,,,,,,,,,,,,,,,,,,
null,,rt_plussign_withcolor,788408,green,,,,,null,US_Cities_List/nat_racine.png,US_Cities_List/nat_hanover.png,,,,,,,,,,,,,,,,,,,,,,,,,,,,,
662.5,,rt_thecrossant_black,789682,black_plus_sign,,,,,50,,,1,0.923728813559322,,,,,,,,,,,,,,,,,,,,,,,,,,,
null,,color_black,789784,black_plus_sign,,,,,null,,,,,,,,,,,,,,,,,,,,,,,,,,,,,,,
null,,learn_phase(without_color),792309,black_plus_sign,,,,,null,US_Cities_List/nat_westpalmbeach.png,US_Cities_List/mm_leesburg.png,,,,,,,,,,,,,,,,,,,,,,,,,,,,,
null,,black_cross(without_color),792870,green,,,,,null,US_Cities_List/nat_westpalmbeach.png,US_Cities_List/mm_leesburg.png,,,,,,,,,,,,,,,,,,,,,,,,,,,,,
null,,rt_plussign_withcolor,793371,green,,,,,null,US_Cities_List/nat_westpalmbeach.png,US_Cities_List/mm_leesburg.png,,,,,,,,,,,,,,,,,,,,,,,,,,,,,
1287.800000000745,,rt_thecrossant_black,794815,black_plus_sign,,,,,50,,,1,0.9243697478991597,,,,,,,,,,,,,,,,,,,,,,,,,,,
null,,color_black,794917,black_plus_sign,,,,,null,,,,,,,,,,,,,,,,,,,,,,,,,,,,,,,
null,,learn_phase(without_color),797446,black_plus_sign,,,,,null,US_Cities_List/nat_hotsprings.png,US_Cities_List/nat_cornwall.png,,,,,,,,,,,,,,,,,,,,,,,,,,,,,
null,,black_cross(without_color),798441,blue,,,,,null,US_Cities_List/nat_hotsprings.png,US_Cities_List/nat_cornwall.png,,,,,,,,,,,,,,,,,,,,,,,,,,,,,
null,,rt_plussign_withcolor,798943,blue,,,,,null,US_Cities_List/nat_hotsprings.png,US_Cities_List/nat_cornwall.png,,,,,,,,,,,,,,,,,,,,,,,,,,,,,
684.7000000029802,,rt_thecrossant_black,799962,black_plus_sign,,,,,49,,,1,0.925,,,,,,,,,,,,,,,,,,,,,,,,,,,
null,,color_black,800063,black_plus_sign,,,,,null,,,,,,,,,,,,,,,,,,,,,,,,,,,,,,,
null,,learn_phase(without_color),802592,black_plus_sign,,,,,null,US_Cities_List/nat_westpalmbeach.png,US_Cities_List/nat_carmel.png,,,,,,,,,,,,,,,,,,,,,,,,,,,,,
null,,black_cross(without_color),803144,green,,,,,null,US_Cities_List/nat_westpalmbeach.png,US_Cities_List/nat_carmel.png,,,,,,,,,,,,,,,,,,,,,,,,,,,,,
null,,rt_plussign_withcolor,803645,green,,,,,null,US_Cities_List/nat_westpalmbeach.png,US_Cities_List/nat_carmel.png,,,,,,,,,,,,,,,,,,,,,,,,,,,,,
1201.6000000014901,,rt_thecrossant_black,805100,black_plus_sign,,,,,50,,,1,0.9256198347107438,,,,,,,,,,,,,,,,,,,,,,,,,,,
null,,color_black,805202,black_plus_sign,,,,,null,,,,,,,,,,,,,,,,,,,,,,,,,,,,,,,
null,,learn_phase(without_color),807735,black_plus_sign,,,,,null,US_Cities_List/nat_racine.png,US_Cities_List/nat_shreveport.png,,,,,,,,,,,,,,,,,,,,,,,,,,,,,
null,,black_cross(without_color),808385,blue,,,,,null,US_Cities_List/nat_racine.png,US_Cities_List/nat_shreveport.png,,,,,,,,,,,,,,,,,,,,,,,,,,,,,
null,,rt_plussign_withcolor,808886,blue,,,,,null,US_Cities_List/nat_racine.png,US_Cities_List/nat_shreveport.png,,,,,,,,,,,,,,,,,,,,,,,,,,,,,
680.6000000014901,,rt_thecrossant_black,810240,black_plus_sign,,,,,49,,,1,0.9262295081967213,,,,,,,,,,,,,,,,,,,,,,,,,,,
null,,color_black,810342,black_plus_sign,,,,,null,,,,,,,,,,,,,,,,,,,,,,,,,,,,,,,
null,,learn_phase(without_color),812876,black_plus_sign,,,,,null,US_Cities_List/nat_westpalmbeach.png,US_Cities_List/nat_carmel.png,,,,,,,,,,,,,,,,,,,,,,,,,,,,,
null,,black_cross(without_color),813370,green,,,,,null,US_Cities_List/nat_westpalmbeach.png,US_Cities_List/nat_carmel.png,,,,,,,,,,,,,,,,,,,,,,,,,,,,,
null,,rt_plussign_withcolor,813873,green,,,,,null,US_Cities_List/nat_westpalmbeach.png,US_Cities_List/nat_carmel.png,,,,,,,,,,,,,,,,,,,,,,,,,,,,,
776.0999999977648,,rt_thecrossant_black,815383,black_plus_sign,,,,,50,,,1,0.926829268292683,,,,,,,,,,,,,,,,,,,,,,,,,,,
null,,color_black,815486,black_plus_sign,,,,,null,,,,,,,,,,,,,,,,,,,,,,,,,,,,,,,
null,,learn_phase(without_color),818019,black_plus_sign,,,,,null,US_Cities_List/nat_westpalmbeach.png,US_Cities_List/mm_leesburg.png,,,,,,,,,,,,,,,,,,,,,,,,,,,,,
null,,black_cross(without_color),818474,blue,,,,,null,US_Cities_List/nat_westpalmbeach.png,US_Cities_List/mm_leesburg.png,,,,,,,,,,,,,,,,,,,,,,,,,,,,,
null,,rt_plussign_withcolor,818976,blue,,,,,null,US_Cities_List/nat_westpalmbeach.png,US_Cities_List/mm_leesburg.png,,,,,,,,,,,,,,,,,,,,,,,,,,,,,
656.6999999992549,,rt_thecrossant_black,820524,black_plus_sign,,,,,49,,,1,0.9274193548387096,,,,,,,,,,,,,,,,,,,,,,,,,,,
null,,color_black,820627,black_plus_sign,,,,,null,,,,,,,,,,,,,,,,,,,,,,,,,,,,,,,
null,,learn_phase(without_color),823152,black_plus_sign,,,,,null,US_Cities_List/mm_gatlinburg.png,US_Cities_List/nat_peoria.png,,,,,,,,,,,,,,,,,,,,,,,,,,,,,
null,,black_cross(without_color),824125,blue,,,,,null,US_Cities_List/mm_gatlinburg.png,US_Cities_List/nat_peoria.png,,,,,,,,,,,,,,,,,,,,,,,,,,,,,
null,,rt_plussign_withcolor,824628,blue,,,,,null,US_Cities_List/mm_gatlinburg.png,US_Cities_List/nat_peoria.png,,,,,,,,,,,,,,,,,,,,,,,,,,,,,
553.0999999977648,,rt_thecrossant_black,825658,black_plus_sign,,,,,49,,,1,0.928,,,,,,,,,,,,,,,,,,,,,,,,,,,
null,,color_black,825760,black_plus_sign,,,,,null,,,,,,,,,,,,,,,,,,,,,,,,,,,,,,,
null,,learn_phase(without_color),828289,black_plus_sign,,,,,null,US_Cities_List/nat_hanover.png,US_Cities_List/nat_boulder.png,,,,,,,,,,,,,,,,,,,,,,,,,,,,,
null,,black_cross(without_color),829279,blue,,,,,null,US_Cities_List/nat_hanover.png,US_Cities_List/nat_boulder.png,,,,,,,,,,,,,,,,,,,,,,,,,,,,,
null,,rt_plussign_withcolor,829781,blue,,,,,null,US_Cities_List/nat_hanover.png,US_Cities_List/nat_boulder.png,,,,,,,,,,,,,,,,,,,,,,,,,,,,,
1181.0999999977648,,rt_thecrossant_black,830795,black_plus_sign,,,,,49,,,1,0.9285714285714286,,,,,,,,,,,,,,,,,,,,,,,,,,,
null,,color_black,830897,black_plus_sign,,,,,null,,,,,,,,,,,,,,,,,,,,,,,,,,,,,,,
null,,learn_phase(without_color),833427,black_plus_sign,,,,,null,US_Cities_List/mm_huntsville.png,US_Cities_List/nat_shreveport.png,,,,,,,,,,,,,,,,,,,,,,,,,,,,,
null,,black_cross(without_color),834485,green,,,,,null,US_Cities_List/mm_huntsville.png,US_Cities_List/nat_shreveport.png,,,,,,,,,,,,,,,,,,,,,,,,,,,,,
482.6000000014901,,rt_plussign_withcolor,834987,green,,,,,50,US_Cities_List/mm_huntsville.png,US_Cities_List/nat_shreveport.png,,,,,,,,,,,,,,,,,,,,,,,,,,,,,
null,,rt_thecrossant_black,835933,black_plus_sign,,,,,null,,,1,0.9291338582677166,,,,,,,,,,,,,,,,,,,,,,,,,,,
null,,color_black,836035,black_plus_sign,,,,,null,,,,,,,,,,,,,,,,,,,,,,,,,,,,,,,
null,,learn_phase(without_color),838568,black_plus_sign,,,,,null,US_Cities_List/nat_westpalmbeach.png,US_Cities_List/nat_carmel.png,,,,,,,,,,,,,,,,,,,,,,,,,,,,,
null,,black_cross(without_color),839468,green,,,,,null,US_Cities_List/nat_westpalmbeach.png,US_Cities_List/nat_carmel.png,,,,,,,,,,,,,,,,,,,,,,,,,,,,,
null,,rt_plussign_withcolor,839969,green,,,,,null,US_Cities_List/nat_westpalmbeach.png,US_Cities_List/nat_carmel.png,,,,,,,,,,,,,,,,,,,,,,,,,,,,,
1234.8999999985099,,rt_thecrossant_black,841074,black_plus_sign,,,,,50,,,1,0.9296875,,,,,,,,,,,,,,,,,,,,,,,,,,,
null,,color_black,841176,black_plus_sign,,,,,null,,,,,,,,,,,,,,,,,,,,,,,,,,,,,,,
18260.89999999851,,intro_1,859439,instruct,,,0,,,,,,,,,,,,,,,,,,,,,,,,,,,,,,,,,
19680.60000000149,,intro_2,879122,instruct,,,1,Next,,,,,,,,,,,,,,,,,,,,,,,,,,,,,,,,
1556.5999999977648,,directmemory_phase,880744,../static/images/US_Cities_List/nat_cornwall.png,,,,,50,,,0,0,../static/images/US_Cities_List/nat_hotsprings.png,../static/images/US_Cities_List/nat_carmel.png,../static/images/US_Cities_List/nat_peoria.png,../static/images/US_Cities_List/nat_hotsprings.png,../static/images/US_Cities_List/nat_peoria.png,../static/images/US_Cities_List/nat_carmel.png,0.5,closer,,,,,,,,,,,,,,,,,,,
null,,html-keyboard-response,881750,<p></p>,,,,,null,,,,,,,,,,,,,,,,,,,,,,,,,,,,,,,
1508.699999999255,,directmemory_phase,883320,../static/images/US_Cities_List/nat_westpalmbeach.png,,,,,51,,,1,0.5,../static/images/US_Cities_List/nat_racine.png,../static/images/US_Cities_List/mm_gatlinburg.png,../static/images/US_Cities_List/nat_carmel.png,../static/images/US_Cities_List/nat_carmel.png,../static/images/US_Cities_List/mm_gatlinburg.png,../static/images/US_Cities_List/nat_racine.png,1,,,,,,,,,,,,,,,,,,,,
null,,html-keyboard-response,884329,<p></p>,,,,,null,,,,,,,,,,,,,,,,,,,,,,,,,,,,,,,
976.3000000007451,,directmemory_phase,885356,../static/images/US_Cities_List/nat_hotsprings.png,,,,,49,,,1,0.6666666666666666,../static/images/US_Cities_List/nat_racine.png,../static/images/US_Cities_List/mm_huntsville.png,../static/images/US_Cities_List/nat_hanover.png,../static/images/US_Cities_List/nat_racine.png,../static/images/US_Cities_List/nat_hanover.png,../static/images/US_Cities_List/mm_huntsville.png,1,,,,,,,,,,,,,,,,,,,,
null,,html-keyboard-response,886371,<p></p>,,,,,null,,,,,,,,,,,,,,,,,,,,,,,,,,,,,,,
897.5,,directmemory_phase,887320,../static/images/US_Cities_List/mm_huntsville.png,,,,,51,,,0,0.5,../static/images/US_Cities_List/nat_cornwall.png,../static/images/US_Cities_List/nat_hanover.png,../static/images/US_Cities_List/nat_westpalmbeach.png,../static/images/US_Cities_List/nat_hanover.png,../static/images/US_Cities_List/nat_cornwall.png,../static/images/US_Cities_List/nat_westpalmbeach.png,0.5,closer,,,,,,,,,,,,,,,,,,,
null,,html-keyboard-response,888325,<p></p>,,,,,null,,,,,,,,,,,,,,,,,,,,,,,,,,,,,,,
1008.3999999985099,,directmemory_phase,889389,../static/images/US_Cities_List/nat_peoria.png,,,,,50,,,0,0.4,../static/images/US_Cities_List/nat_shreveport.png,../static/images/US_Cities_List/nat_carmel.png,../static/images/US_Cities_List/nat_westpalmbeach.png,../static/images/US_Cities_List/nat_westpalmbeach.png,../static/images/US_Cities_List/nat_carmel.png,../static/images/US_Cities_List/nat_shreveport.png,0.5,closer,,,,,,,,,,,,,,,,,,,
null,,html-keyboard-response,890394,<p></p>,,,,,null,,,,,,,,,,,,,,,,,,,,,,,,,,,,,,,
944.9000000022352,,directmemory_phase,891396,../static/images/US_Cities_List/nat_hanover.png,,,,,50,,,1,0.5,../static/images/US_Cities_List/nat_newhope.png,../static/images/US_Cities_List/nat_shreveport.png,../static/images/US_Cities_List/nat_westpalmbeach.png,../static/images/US_Cities_List/nat_shreveport.png,../static/images/US_Cities_List/nat_newhope.png,../static/images/US_Cities_List/nat_westpalmbeach.png,1,,,,,,,,,,,,,,,,,,,,
null,,html-keyboard-response,892404,<p></p>,,,,,null,,,,,,,,,,,,,,,,,,,,,,,,,,,,,,,
736.7000000029802,,directmemory_phase,893195,../static/images/US_Cities_List/nat_peoria.png,,,,,51,,,0,0.42857142857142855,../static/images/US_Cities_List/nat_carmel.png,../static/images/US_Cities_List/mm_gatlinburg.png,../static/images/US_Cities_List/mm_huntsville.png,../static/images/US_Cities_List/mm_gatlinburg.png,../static/images/US_Cities_List/nat_carmel.png,../static/images/US_Cities_List/mm_huntsville.png,0.5,closer,,,,,,,,,,,,,,,,,,,
null,,html-keyboard-response,894202,<p></p>,,,,,null,,,,,,,,,,,,,,,,,,,,,,,,,,,,,,,
776,,directmemory_phase,895034,../static/images/US_Cities_List/mm_huntsville.png,,,,,49,,,0,0.375,../static/images/US_Cities_List/nat_hotsprings.png,../static/images/US_Cities_List/nat_boulder.png,../static/images/US_Cities_List/nat_shreveport.png,../static/images/US_Cities_List/nat_shreveport.png,../static/images/US_Cities_List/nat_boulder.png,../static/images/US_Cities_List/nat_hotsprings.png,0.5,closer,,,,,,,,,,,,,,,,,,,
null,,html-keyboard-response,896042,<p></p>,,,,,null,,,,,,,,,,,,,,,,,,,,,,,,,,,,,,,
754.9000000022352,,directmemory_phase,896839,../static/images/US_Cities_List/nat_westpalmbeach.png,,,,,51,,,0,0.3333333333333333,../static/images/US_Cities_List/nat_peoria.png,../static/images/US_Cities_List/nat_hanover.png,../static/images/US_Cities_List/nat_hotsprings.png,../static/images/US_Cities_List/nat_peoria.png,../static/images/US_Cities_List/nat_hotsprings.png,../static/images/US_Cities_List/nat_hanover.png,0.5,closer,,,,,,,,,,,,,,,,,,,
null,,html-keyboard-response,897845,<p></p>,,,,,null,,,,,,,,,,,,,,,,,,,,,,,,,,,,,,,
765.8000000007451,,directmemory_phase,898668,../static/images/US_Cities_List/nat_racine.png,,,,,49,,,0,0.3,../static/images/US_Cities_List/nat_peoria.png,../static/images/US_Cities_List/nat_shreveport.png,../static/images/US_Cities_List/mm_gatlinburg.png,../static/images/US_Cities_List/nat_shreveport.png,../static/images/US_Cities_List/nat_peoria.png,../static/images/US_Cities_List/mm_gatlinburg.png,0.5,closer,,,,,,,,,,,,,,,,,,,
null,,html-keyboard-response,899673,<p></p>,,,,,null,,,,,,,,,,,,,,,,,,,,,,,,,,,,,,,
429.30000000074506,,directmemory_phase,900153,../static/images/US_Cities_List/mm_huntsville.png,,,,,51,,,0,0.2727272727272727,../static/images/US_Cities_List/nat_newhope.png,../static/images/US_Cities_List/nat_peoria.png,../static/images/US_Cities_List/nat_cornwall.png,../static/images/US_Cities_List/nat_newhope.png,../static/images/US_Cities_List/nat_cornwall.png,../static/images/US_Cities_List/nat_peoria.png,0.5,closer,,,,,,,,,,,,,,,,,,,
null,,html-keyboard-response,901158,<p></p>,,,,,null,,,,,,,,,,,,,,,,,,,,,,,,,,,,,,,
377.6000000014901,,directmemory_phase,901600,../static/images/US_Cities_List/nat_hanover.png,,,,,50,,,1,0.3333333333333333,../static/images/US_Cities_List/nat_hotsprings.png,../static/images/US_Cities_List/nat_racine.png,../static/images/US_Cities_List/mm_gatlinburg.png,../static/images/US_Cities_List/nat_racine.png,../static/images/US_Cities_List/nat_hotsprings.png,../static/images/US_Cities_List/mm_gatlinburg.png,1,,,,,,,,,,,,,,,,,,,,
null,,html-keyboard-response,902617,<p></p>,,,,,null,,,,,,,,,,,,,,,,,,,,,,,,,,,,,,,
488.30000000074506,,directmemory_phase,903159,../static/images/US_Cities_List/nat_carmel.png,,,,,51,,,1,0.38461538461538464,../static/images/US_Cities_List/nat_hotsprings.png,../static/images/US_Cities_List/nat_peoria.png,../static/images/US_Cities_List/nat_westpalmbeach.png,../static/images/US_Cities_List/nat_westpalmbeach.png,../static/images/US_Cities_List/nat_peoria.png,../static/images/US_Cities_List/nat_hotsprings.png,1,,,,,,,,,,,,,,,,,,,,
null,,html-keyboard-response,904165,<p></p>,,,,,null,,,,,,,,,,,,,,,,,,,,,,,,,,,,,,,
621.3999999985099,,directmemory_phase,904837,../static/images/US_Cities_List/nat_peoria.png,,,,,49,,,1,0.42857142857142855,../static/images/US_Cities_List/nat_hotsprings.png,../static/images/US_Cities_List/nat_shreveport.png,../static/images/US_Cities_List/nat_racine.png,../static/images/US_Cities_List/nat_hotsprings.png,../static/images/US_Cities_List/nat_racine.png,../static/images/US_Cities_List/nat_shreveport.png,1,,,,,,,,,,,,,,,,,,,,
null,,html-keyboard-response,905844,<p></p>,,,,,null,,,,,,,,,,,,,,,,,,,,,,,,,,,,,,,
610.2000000029802,,directmemory_phase,906515,../static/images/US_Cities_List/nat_racine.png,,,,,51,,,0,0.4,../static/images/US_Cities_List/nat_hanover.png,../static/images/US_Cities_List/nat_carmel.png,../static/images/US_Cities_List/nat_peoria.png,../static/images/US_Cities_List/nat_hanover.png,../static/images/US_Cities_List/nat_peoria.png,../static/images/US_Cities_List/nat_carmel.png,0.5,closer,,,,,,,,,,,,,,,,,,,
null,,html-keyboard-response,907522,<p></p>,,,,,null,,,,,,,,,,,,,,,,,,,,,,,,,,,,,,,
561.1999999992549,,directmemory_phase,908144,../static/images/US_Cities_List/nat_hotsprings.png,,,,,51,,,0,0.375,../static/images/US_Cities_List/mm_leesburg.png,../static/images/US_Cities_List/nat_peoria.png,../static/images/US_Cities_List/nat_newhope.png,../static/images/US_Cities_List/nat_peoria.png,../static/images/US_Cities_List/mm_leesburg.png,../static/images/US_Cities_List/nat_newhope.png,0.5,closer,,,,,,,,,,,,,,,,,,,
null,,html-keyboard-response,909160,<p></p>,,,,,null,,,,,,,,,,,,,,,,,,,,,,,,,,,,,,,
580.5999999977648,,directmemory_phase,909799,../static/images/US_Cities_List/nat_cornwall.png,,,,,49,,,1,0.4117647058823529,../static/images/US_Cities_List/mm_leesburg.png,../static/images/US_Cities_List/nat_newhope.png,../static/images/US_Cities_List/nat_westpalmbeach.png,../static/images/US_Cities_List/mm_leesburg.png,../static/images/US_Cities_List/nat_westpalmbeach.png,../static/images/US_Cities_List/nat_newhope.png,1,,,,,,,,,,,,,,,,,,,,
null,,html-keyboard-response,910806,<p></p>,,,,,null,,,,,,,,,,,,,,,,,,,,,,,,,,,,,,,
785.6000000014901,,directmemory_phase,911656,../static/images/US_Cities_List/nat_racine.png,,,,,51,,,0,0.3888888888888889,../static/images/US_Cities_List/nat_hotsprings.png,../static/images/US_Cities_List/nat_westpalmbeach.png,../static/images/US_Cities_List/nat_cornwall.png,../static/images/US_Cities_List/nat_hotsprings.png,../static/images/US_Cities_List/nat_cornwall.png,../static/images/US_Cities_List/nat_westpalmbeach.png,0.5,closer,,,,,,,,,,,,,,,,,,,
null,,html-keyboard-response,912664,<p></p>,,,,,null,,,,,,,,,,,,,,,,,,,,,,,,,,,,,,,
681.6999999992549,,directmemory_phase,913398,../static/images/US_Cities_List/mm_leesburg.png,,,,,51,,,1,0.42105263157894735,../static/images/US_Cities_List/nat_boulder.png,../static/images/US_Cities_List/nat_carmel.png,../static/images/US_Cities_List/nat_westpalmbeach.png,../static/images/US_Cities_List/nat_westpalmbeach.png,../static/images/US_Cities_List/nat_carmel.png,../static/images/US_Cities_List/nat_boulder.png,1,,,,,,,,,,,,,,,,,,,,
null,,html-keyboard-response,914415,<p></p>,,,,,null,,,,,,,,,,,,,,,,,,,,,,,,,,,,,,,
679.5999999977648,,directmemory_phase,915158,../static/images/US_Cities_List/nat_hanover.png,,,,,51,,,1,0.45,../static/images/US_Cities_List/nat_peoria.png,../static/images/US_Cities_List/nat_newhope.png,../static/images/US_Cities_List/nat_boulder.png,../static/images/US_Cities_List/nat_boulder.png,../static/images/US_Cities_List/nat_newhope.png,../static/images/US_Cities_List/nat_peoria.png,1,,,,,,,,,,,,,,,,,,,,
null,,html-keyboard-response,916166,<p></p>,,,,,null,,,,,,,,,,,,,,,,,,,,,,,,,,,,,,,
756.8999999985099,,directmemory_phase,916974,../static/images/US_Cities_List/mm_leesburg.png,,,,,49,,,0,0.42857142857142855,../static/images/US_Cities_List/nat_newhope.png,../static/images/US_Cities_List/nat_shreveport.png,../static/images/US_Cities_List/nat_cornwall.png,../static/images/US_Cities_List/nat_cornwall.png,../static/images/US_Cities_List/nat_shreveport.png,../static/images/US_Cities_List/nat_newhope.png,0.5,closer,,,,,,,,,,,,,,,,,,,
null,,html-keyboard-response,917979,<p></p>,,,,,null,,,,,,,,,,,,,,,,,,,,,,,,,,,,,,,
663.1000000014901,,directmemory_phase,918690,../static/images/US_Cities_List/nat_hanover.png,,,,,51,,,1,0.45454545454545453,../static/images/US_Cities_List/mm_gatlinburg.png,../static/images/US_Cities_List/nat_cornwall.png,../static/images/US_Cities_List/mm_huntsville.png,../static/images/US_Cities_List/mm_huntsville.png,../static/images/US_Cities_List/nat_cornwall.png,../static/images/US_Cities_List/mm_gatlinburg.png,1,,,,,,,,,,,,,,,,,,,,
null,,html-keyboard-response,919696,<p></p>,,,,,null,,,,,,,,,,,,,,,,,,,,,,,,,,,,,,,
