rt,responses,trial_type,time_elapsed,stimulus,button_pressed,key_press,name_trial,city_type,rating,probe,probe_accuracy,response,correct,accuracy,problems,smooth,distraction,strategies,familiar,memorable,unique,realistic,similar,comments
20697.900000000373,{worker_id:67f24dddcc783cdf7a1ea017},id_enter,20701,,,,,,,,,,,,,,,,,,,,,
9623.700000000186,,fullscreen,30328,fullscreen,0,,,,,,,,,,,,,,,,,,,
1900,,intro_0,32231,instruct,,32,,,,,,,,,,,,,,,,,,
884.1000000005588,,intro_1,33118,instruct,,32,,,,,,,,,,,,,,,,,,
1597.3999999994412,,intro_2,34718,instruct,,32,,,,,,,,,,,,,,,,,,
null,,instruct_dir_4,36234,instruct,,null,,,,,,,,,,,,,,,,,,
null,,thebreak,36736,break,,null,,,,,,,,,,,,,,,,,,
2771.2000000001863,,familiar_rating,39510,US_Cities_List/nat_healdsburg.png,,51,US_Cities_List/nat_healdsburg.png,NAT,3,,,,,,,,,,,,,,,
null,,confidence_buffer,39614,confidence_buffer,,null,,,,,,,,,,,,,,,,,,
1308.7999999998137,,unique_rating,40926,US_Cities_List/nat_healdsburg.png,,53,,,5,,,,,,,,,,,,,,,
null,,confidence_buffer,41030,confidence_buffer,,null,,,,,,,,,,,,,,,,,,
1309.300000000745,,probe_rating,42342,probe_rating,,53,,,,5,1,,,,,,,,,,,,,
null,,confidence_buffer,42446,confidence_buffer,,null,,,,,,,,,,,,,,,,,,
1157.5,,memorable_rating,43606,US_Cities_List/nat_healdsburg.png,,52,,,4,,,,,,,,,,,,,,,
null,,confidence_buffer,43710,confidence_buffer,,null,,,,,,,,,,,,,,,,,,
null,,thebreak,44213,break,,null,,,,,,,,,,,,,,,,,,
1127.7000000001863,,familiar_rating,45343,US_Cities_List/mm_hilo.png,,51,US_Cities_List/mm_hilo.png,MM,3,,,,,,,,,,,,,,,
null,,confidence_buffer,45447,confidence_buffer,,null,,,,,,,,,,,,,,,,,,
796.7999999998137,,unique_rating,46246,US_Cities_List/mm_hilo.png,,51,,,3,,,,,,,,,,,,,,,
null,,confidence_buffer,46349,confidence_buffer,,null,,,,,,,,,,,,,,,,,,
622.7000000001863,,memorable_rating,46974,US_Cities_List/mm_hilo.png,,52,,,4,,,,,,,,,,,,,,,
null,,confidence_buffer,47078,confidence_buffer,,null,,,,,,,,,,,,,,,,,,
null,,thebreak,47580,break,,null,,,,,,,,,,,,,,,,,,
790.9000000003725,,familiar_rating,48374,Fictional_Cities_List/img_manmade_05.png,,51,Fictional_Cities_List/img_manmade_05.png,MM,3,,,,,,,,,,,,,,,
null,,confidence_buffer,48477,confidence_buffer,,null,,,,,,,,,,,,,,,,,,
390.70000000018626,,unique_rating,48870,Fictional_Cities_List/img_manmade_05.png,,50,,,2,,,,,,,,,,,,,,,
null,,confidence_buffer,48974,confidence_buffer,,null,,,,,,,,,,,,,,,,,,
549.5,,memorable_rating,49526,Fictional_Cities_List/img_manmade_05.png,,52,,,4,,,,,,,,,,,,,,,
null,,confidence_buffer,49630,confidence_buffer,,null,,,,,,,,,,,,,,,,,,
null,,thebreak,50132,break,,null,,,,,,,,,,,,,,,,,,
686.7999999998137,,familiar_rating,50822,Fictional_Cities_List/img_natural_06.png,,51,Fictional_Cities_List/img_natural_06.png,NAT,3,,,,,,,,,,,,,,,
null,,confidence_buffer,50925,confidence_buffer,,null,,,,,,,,,,,,,,,,,,
614.5,,unique_rating,51542,Fictional_Cities_List/img_natural_06.png,,50,,,2,,,,,,,,,,,,,,,
null,,confidence_buffer,51646,confidence_buffer,,null,,,,,,,,,,,,,,,,,,
717.2000000001863,,memorable_rating,52366,Fictional_Cities_List/img_natural_06.png,,51,,,3,,,,,,,,,,,,,,,
null,,confidence_buffer,52469,confidence_buffer,,null,,,,,,,,,,,,,,,,,,
null,,thebreak,52971,break,,null,,,,,,,,,,,,,,,,,,
912.5999999996275,,familiar_rating,53886,US_Cities_List/nat_athens.png,,50,US_Cities_List/nat_athens.png,NAT,2,,,,,,,,,,,,,,,
null,,confidence_buffer,53991,confidence_buffer,,null,,,,,,,,,,,,,,,,,,
548.9000000003725,,unique_rating,54542,US_Cities_List/nat_athens.png,,51,,,3,,,,,,,,,,,,,,,
null,,confidence_buffer,54645,confidence_buffer,,null,,,,,,,,,,,,,,,,,,
1255.4000000003725,,probe_rating,55902,probe_rating,,49,,,,1,1,,,,,,,,,,,,,
null,,confidence_buffer,56006,confidence_buffer,,null,,,,,,,,,,,,,,,,,,
1109.5,,memorable_rating,57118,US_Cities_List/nat_athens.png,,53,,,5,,,,,,,,,,,,,,,
null,,confidence_buffer,57223,confidence_buffer,,null,,,,,,,,,,,,,,,,,,
null,,thebreak,57725,break,,null,,,,,,,,,,,,,,,,,,
893.7999999998137,,familiar_rating,58622,Fictional_Cities_List/img_manmade_10.png,,52,Fictional_Cities_List/img_manmade_10.png,MM,4,,,,,,,,,,,,,,,
null,,confidence_buffer,58725,confidence_buffer,,null,,,,,,,,,,,,,,,,,,
582.7000000001863,,unique_rating,59310,Fictional_Cities_List/img_manmade_10.png,,50,,,2,,,,,,,,,,,,,,,
null,,confidence_buffer,59413,confidence_buffer,,null,,,,,,,,,,,,,,,,,,
669.9000000003725,,memorable_rating,60086,Fictional_Cities_List/img_manmade_10.png,,52,,,4,,,,,,,,,,,,,,,
null,,confidence_buffer,60190,confidence_buffer,,null,,,,,,,,,,,,,,,,,,
null,,thebreak,60691,break,,null,,,,,,,,,,,,,,,,,,
896,,familiar_rating,61590,Fictional_Cities_List/img_natural_15.png,,50,Fictional_Cities_List/img_natural_15.png,NAT,2,,,,,,,,,,,,,,,
null,,confidence_buffer,61701,confidence_buffer,,null,,,,,,,,,,,,,,,,,,
718.8000000007451,,unique_rating,62422,Fictional_Cities_List/img_natural_15.png,,52,,,4,,,,,,,,,,,,,,,
null,,confidence_buffer,62525,confidence_buffer,,null,,,,,,,,,,,,,,,,,,
782.1000000005588,,memorable_rating,63310,Fictional_Cities_List/img_natural_15.png,,51,,,3,,,,,,,,,,,,,,,
null,,confidence_buffer,63413,confidence_buffer,,null,,,,,,,,,,,,,,,,,,
null,,thebreak,63915,break,,null,,,,,,,,,,,,,,,,,,
920.2000000001863,,familiar_rating,64838,Fictional_Cities_List/img_manmade_13.png,,50,Fictional_Cities_List/img_manmade_13.png,MM,2,,,,,,,,,,,,,,,
null,,confidence_buffer,64941,confidence_buffer,,null,,,,,,,,,,,,,,,,,,
894.4000000003725,,unique_rating,65838,Fictional_Cities_List/img_manmade_13.png,,51,,,3,,,,,,,,,,,,,,,
null,,confidence_buffer,65941,confidence_buffer,,null,,,,,,,,,,,,,,,,,,
526.2999999998137,,memorable_rating,66470,Fictional_Cities_List/img_manmade_13.png,,52,,,4,,,,,,,,,,,,,,,
null,,confidence_buffer,66574,confidence_buffer,,null,,,,,,,,,,,,,,,,,,
null,,thebreak,67076,break,,null,,,,,,,,,,,,,,,,,,
663.4000000003725,,familiar_rating,67742,US_Cities_List/nat_hotsprings.png,,51,US_Cities_List/nat_hotsprings.png,NAT,3,,,,,,,,,,,,,,,
null,,confidence_buffer,67845,confidence_buffer,,null,,,,,,,,,,,,,,,,,,
654,,unique_rating,68502,US_Cities_List/nat_hotsprings.png,,50,,,2,,,,,,,,,,,,,,,
null,,confidence_buffer,68605,confidence_buffer,,null,,,,,,,,,,,,,,,,,,
726.9000000003725,,memorable_rating,69335,US_Cities_List/nat_hotsprings.png,,52,,,4,,,,,,,,,,,,,,,
null,,confidence_buffer,69439,confidence_buffer,,null,,,,,,,,,,,,,,,,,,
null,,thebreak,69941,break,,null,,,,,,,,,,,,,,,,,,
957.7999999998137,,familiar_rating,70902,Fictional_Cities_List/img_natural_14.png,,49,Fictional_Cities_List/img_natural_14.png,NAT,1,,,,,,,,,,,,,,,
null,,confidence_buffer,71006,confidence_buffer,,null,,,,,,,,,,,,,,,,,,
997.9000000003725,,unique_rating,72007,Fictional_Cities_List/img_natural_14.png,,50,,,2,,,,,,,,,,,,,,,
null,,confidence_buffer,72109,confidence_buffer,,null,,,,,,,,,,,,,,,,,,
565.7000000001863,,memorable_rating,72678,Fictional_Cities_List/img_natural_14.png,,51,,,3,,,,,,,,,,,,,,,
null,,confidence_buffer,72781,confidence_buffer,,null,,,,,,,,,,,,,,,,,,
null,,thebreak,73283,break,,null,,,,,,,,,,,,,,,,,,
919.8999999994412,,familiar_rating,74206,US_Cities_List/mm_okoboji.png,,52,US_Cities_List/mm_okoboji.png,MM,4,,,,,,,,,,,,,,,
null,,confidence_buffer,74309,confidence_buffer,,null,,,,,,,,,,,,,,,,,,
910.5999999996275,,unique_rating,75222,US_Cities_List/mm_okoboji.png,,51,,,3,,,,,,,,,,,,,,,
null,,confidence_buffer,75325,confidence_buffer,,null,,,,,,,,,,,,,,,,,,
574.9000000003725,,memorable_rating,75903,US_Cities_List/mm_okoboji.png,,50,,,2,,,,,,,,,,,,,,,
null,,confidence_buffer,76007,confidence_buffer,,null,,,,,,,,,,,,,,,,,,
null,,thebreak,76509,break,,null,,,,,,,,,,,,,,,,,,
661.7000000001863,,familiar_rating,77174,US_Cities_List/nat_sitka.png,,52,US_Cities_List/nat_sitka.png,NAT,4,,,,,,,,,,,,,,,
null,,confidence_buffer,77277,confidence_buffer,,null,,,,,,,,,,,,,,,,,,
686.5,,unique_rating,77966,US_Cities_List/nat_sitka.png,,51,,,3,,,,,,,,,,,,,,,
null,,confidence_buffer,78069,confidence_buffer,,null,,,,,,,,,,,,,,,,,,
566.0999999996275,,memorable_rating,78638,US_Cities_List/nat_sitka.png,,50,,,2,,,,,,,,,,,,,,,
null,,confidence_buffer,78741,confidence_buffer,,null,,,,,,,,,,,,,,,,,,
null,,thebreak,79242,break,,null,,,,,,,,,,,,,,,,,,
1296.7000000001863,,familiar_rating,80542,US_Cities_List/mm_sitka.png,,52,US_Cities_List/mm_sitka.png,MM,4,,,,,,,,,,,,,,,
null,,confidence_buffer,80646,confidence_buffer,,null,,,,,,,,,,,,,,,,,,
573.2999999998137,,unique_rating,81222,US_Cities_List/mm_sitka.png,,51,,,3,,,,,,,,,,,,,,,
null,,confidence_buffer,81324,confidence_buffer,,null,,,,,,,,,,,,,,,,,,
1591.2000000001863,,memorable_rating,82918,US_Cities_List/mm_sitka.png,,53,,,5,,,,,,,,,,,,,,,
null,,confidence_buffer,83023,confidence_buffer,,null,,,,,,,,,,,,,,,,,,
null,,thebreak,83525,break,,null,,,,,,,,,,,,,,,,,,
686.5,,familiar_rating,84215,US_Cities_List/nat_boulder.png,,50,US_Cities_List/nat_boulder.png,NAT,2,,,,,,,,,,,,,,,
null,,confidence_buffer,84318,confidence_buffer,,null,,,,,,,,,,,,,,,,,,
813.1000000005588,,unique_rating,85134,US_Cities_List/nat_boulder.png,,51,,,3,,,,,,,,,,,,,,,
null,,confidence_buffer,85250,confidence_buffer,,null,,,,,,,,,,,,,,,,,,
760.9000000003725,,memorable_rating,86014,US_Cities_List/nat_boulder.png,,52,,,4,,,,,,,,,,,,,,,
null,,confidence_buffer,86119,confidence_buffer,,null,,,,,,,,,,,,,,,,,,
null,,thebreak,86621,break,,null,,,,,,,,,,,,,,,,,,
910.5999999996275,,familiar_rating,87534,US_Cities_List/mm_boulder.png,,50,US_Cities_List/mm_boulder.png,MM,2,,,,,,,,,,,,,,,
null,,confidence_buffer,87638,confidence_buffer,,null,,,,,,,,,,,,,,,,,,
677.2000000001863,,unique_rating,88318,US_Cities_List/mm_boulder.png,,51,,,3,,,,,,,,,,,,,,,
null,,confidence_buffer,88421,confidence_buffer,,null,,,,,,,,,,,,,,,,,,
870.2999999998137,,memorable_rating,89294,US_Cities_List/mm_boulder.png,,52,,,4,,,,,,,,,,,,,,,
null,,confidence_buffer,89397,confidence_buffer,,null,,,,,,,,,,,,,,,,,,
null,,thebreak,89899,break,,null,,,,,,,,,,,,,,,,,,
760,,familiar_rating,90662,Fictional_Cities_List/img_manmade_11.png,,50,Fictional_Cities_List/img_manmade_11.png,MM,2,,,,,,,,,,,,,,,
null,,confidence_buffer,90766,confidence_buffer,,null,,,,,,,,,,,,,,,,,,
605,,unique_rating,91374,Fictional_Cities_List/img_manmade_11.png,,51,,,3,,,,,,,,,,,,,,,
null,,confidence_buffer,91478,confidence_buffer,,null,,,,,,,,,,,,,,,,,,
429.80000000074506,,memorable_rating,91910,Fictional_Cities_List/img_manmade_11.png,,50,,,2,,,,,,,,,,,,,,,
null,,confidence_buffer,92015,confidence_buffer,,null,,,,,,,,,,,,,,,,,,
null,,thebreak,92518,break,,null,,,,,,,,,,,,,,,,,,
741.5999999996275,,familiar_rating,93262,US_Cities_List/nat_abilene.png,,52,US_Cities_List/nat_abilene.png,NAT,4,,,,,,,,,,,,,,,
null,,confidence_buffer,93365,confidence_buffer,,null,,,,,,,,,,,,,,,,,,
605.6999999992549,,unique_rating,93975,US_Cities_List/nat_abilene.png,,51,,,3,,,,,,,,,,,,,,,
null,,confidence_buffer,94082,confidence_buffer,,null,,,,,,,,,,,,,,,,,,
489.3999999994412,,memorable_rating,94574,US_Cities_List/nat_abilene.png,,50,,,2,,,,,,,,,,,,,,,
null,,confidence_buffer,94678,confidence_buffer,,null,,,,,,,,,,,,,,,,,,
null,,thebreak,95181,break,,null,,,,,,,,,,,,,,,,,,
1133.2999999998137,,familiar_rating,96315,US_Cities_List/nat_westpalmbeach.png,,53,US_Cities_List/nat_westpalmbeach.png,NAT,5,,,,,,,,,,,,,,,
null,,confidence_buffer,96417,confidence_buffer,,null,,,,,,,,,,,,,,,,,,
483,,unique_rating,96902,US_Cities_List/nat_westpalmbeach.png,,52,,,4,,,,,,,,,,,,,,,
null,,confidence_buffer,97005,confidence_buffer,,null,,,,,,,,,,,,,,,,,,
486.5,,memorable_rating,97494,US_Cities_List/nat_westpalmbeach.png,,51,,,3,,,,,,,,,,,,,,,
null,,confidence_buffer,97597,confidence_buffer,,null,,,,,,,,,,,,,,,,,,
null,,thebreak,98099,break,,null,,,,,,,,,,,,,,,,,,
1082.7999999998137,,familiar_rating,99185,Fictional_Cities_List/img_natural_13.png,,53,Fictional_Cities_List/img_natural_13.png,NAT,5,,,,,,,,,,,,,,,
null,,confidence_buffer,99289,confidence_buffer,,null,,,,,,,,,,,,,,,,,,
570.3999999994412,,unique_rating,99862,Fictional_Cities_List/img_natural_13.png,,52,,,4,,,,,,,,,,,,,,,
null,,confidence_buffer,99965,confidence_buffer,,null,,,,,,,,,,,,,,,,,,
445.79999999981374,,memorable_rating,100413,Fictional_Cities_List/img_natural_13.png,,50,,,2,,,,,,,,,,,,,,,
null,,confidence_buffer,100518,confidence_buffer,,null,,,,,,,,,,,,,,,,,,
null,,thebreak,101020,break,,null,,,,,,,,,,,,,,,,,,
783.2999999998137,,familiar_rating,101806,Fictional_Cities_List/img_natural_08.png,,53,Fictional_Cities_List/img_natural_08.png,NAT,5,,,,,,,,,,,,,,,
null,,confidence_buffer,101909,confidence_buffer,,null,,,,,,,,,,,,,,,,,,
886.0999999996275,,unique_rating,102798,Fictional_Cities_List/img_natural_08.png,,52,,,4,,,,,,,,,,,,,,,
null,,confidence_buffer,102901,confidence_buffer,,null,,,,,,,,,,,,,,,,,,
510.19999999925494,,memorable_rating,103414,Fictional_Cities_List/img_natural_08.png,,50,,,2,,,,,,,,,,,,,,,
null,,confidence_buffer,103517,confidence_buffer,,null,,,,,,,,,,,,,,,,,,
null,,thebreak,104019,break,,null,,,,,,,,,,,,,,,,,,
862.2000000001863,,familiar_rating,104883,US_Cities_List/mm_cornwall.png,,52,US_Cities_List/mm_cornwall.png,MM,4,,,,,,,,,,,,,,,
null,,confidence_buffer,104986,confidence_buffer,,null,,,,,,,,,,,,,,,,,,
656,,unique_rating,105643,US_Cities_List/mm_cornwall.png,,51,,,3,,,,,,,,,,,,,,,
null,,confidence_buffer,105745,confidence_buffer,,null,,,,,,,,,,,,,,,,,,
712.3999999994412,,memorable_rating,106459,US_Cities_List/mm_cornwall.png,,50,,,2,,,,,,,,,,,,,,,
null,,confidence_buffer,106562,confidence_buffer,,null,,,,,,,,,,,,,,,,,,
null,,thebreak,107064,break,,null,,,,,,,,,,,,,,,,,,
1139.7999999998137,,familiar_rating,108206,Fictional_Cities_List/img_natural_11.png,,53,Fictional_Cities_List/img_natural_11.png,NAT,5,,,,,,,,,,,,,,,
null,,confidence_buffer,108310,confidence_buffer,,null,,,,,,,,,,,,,,,,,,
477.70000000018626,,unique_rating,108790,Fictional_Cities_List/img_natural_11.png,,52,,,4,,,,,,,,,,,,,,,
null,,confidence_buffer,108894,confidence_buffer,,null,,,,,,,,,,,,,,,,,,
1653.5,,probe_rating,110550,probe_rating,,52,,,,4,1,,,,,,,,,,,,,
null,,confidence_buffer,110653,confidence_buffer,,null,,,,,,,,,,,,,,,,,,
1021.3999999994412,,memorable_rating,111678,Fictional_Cities_List/img_natural_11.png,,50,,,2,,,,,,,,,,,,,,,
null,,confidence_buffer,111782,confidence_buffer,,null,,,,,,,,,,,,,,,,,,
null,,thebreak,112283,break,,null,,,,,,,,,,,,,,,,,,
1199.7999999998137,,familiar_rating,113487,US_Cities_List/mm_athens.png,,53,US_Cities_List/mm_athens.png,MM,5,,,,,,,,,,,,,,,
null,,confidence_buffer,113590,confidence_buffer,,null,,,,,,,,,,,,,,,,,,
589.5999999996275,,unique_rating,114183,US_Cities_List/mm_athens.png,,52,,,4,,,,,,,,,,,,,,,
null,,confidence_buffer,114287,confidence_buffer,,null,,,,,,,,,,,,,,,,,,
675.9000000003725,,memorable_rating,114966,US_Cities_List/mm_athens.png,,51,,,3,,,,,,,,,,,,,,,
null,,confidence_buffer,115070,confidence_buffer,,null,,,,,,,,,,,,,,,,,,
null,,thebreak,115573,break,,null,,,,,,,,,,,,,,,,,,
1262.6000000005588,,familiar_rating,116838,Fictional_Cities_List/img_manmade_02.png,,53,Fictional_Cities_List/img_manmade_02.png,MM,5,,,,,,,,,,,,,,,
null,,confidence_buffer,116942,confidence_buffer,,null,,,,,,,,,,,,,,,,,,
517.7000000001863,,unique_rating,117462,Fictional_Cities_List/img_manmade_02.png,,52,,,4,,,,,,,,,,,,,,,
null,,confidence_buffer,117566,confidence_buffer,,null,,,,,,,,,,,,,,,,,,
516.1999999992549,,memorable_rating,118085,Fictional_Cities_List/img_manmade_02.png,,51,,,3,,,,,,,,,,,,,,,
null,,confidence_buffer,118188,confidence_buffer,,null,,,,,,,,,,,,,,,,,,
null,,thebreak,118690,break,,null,,,,,,,,,,,,,,,,,,
960.8000000007451,,familiar_rating,119654,Fictional_Cities_List/img_natural_09.png,,50,Fictional_Cities_List/img_natural_09.png,NAT,2,,,,,,,,,,,,,,,
null,,confidence_buffer,119757,confidence_buffer,,null,,,,,,,,,,,,,,,,,,
2014,,probe_rating,121774,probe_rating,,49,,,,1,1,,,,,,,,,,,,,
null,,confidence_buffer,121877,confidence_buffer,,null,,,,,,,,,,,,,,,,,,
1214.2000000001863,,unique_rating,123094,Fictional_Cities_List/img_natural_09.png,,52,,,4,,,,,,,,,,,,,,,
null,,confidence_buffer,123197,confidence_buffer,,null,,,,,,,,,,,,,,,,,,
662.2999999998137,,memorable_rating,123862,Fictional_Cities_List/img_natural_09.png,,51,,,3,,,,,,,,,,,,,,,
null,,confidence_buffer,123966,confidence_buffer,,null,,,,,,,,,,,,,,,,,,
null,,thebreak,124467,break,,null,,,,,,,,,,,,,,,,,,
1487.5,,familiar_rating,125958,Fictional_Cities_List/img_natural_07.png,,50,Fictional_Cities_List/img_natural_07.png,NAT,2,,,,,,,,,,,,,,,
null,,confidence_buffer,126062,confidence_buffer,,null,,,,,,,,,,,,,,,,,,
773.2000000001863,,unique_rating,126838,Fictional_Cities_List/img_natural_07.png,,52,,,4,,,,,,,,,,,,,,,
null,,confidence_buffer,126941,confidence_buffer,,null,,,,,,,,,,,,,,,,,,
566.4000000003725,,memorable_rating,127510,Fictional_Cities_List/img_natural_07.png,,51,,,3,,,,,,,,,,,,,,,
null,,confidence_buffer,127621,confidence_buffer,,null,,,,,,,,,,,,,,,,,,
null,,thebreak,128123,break,,null,,,,,,,,,,,,,,,,,,
799.8000000007451,,familiar_rating,128926,Fictional_Cities_List/img_manmade_08.png,,52,Fictional_Cities_List/img_manmade_08.png,MM,4,,,,,,,,,,,,,,,
null,,confidence_buffer,129030,confidence_buffer,,null,,,,,,,,,,,,,,,,,,
493,,unique_rating,129526,Fictional_Cities_List/img_manmade_08.png,,51,,,3,,,,,,,,,,,,,,,
null,,confidence_buffer,129629,confidence_buffer,,null,,,,,,,,,,,,,,,,,,
470.1000000005588,,memorable_rating,130102,Fictional_Cities_List/img_manmade_08.png,,50,,,2,,,,,,,,,,,,,,,
null,,confidence_buffer,130206,confidence_buffer,,null,,,,,,,,,,,,,,,,,,
null,,thebreak,130707,break,,null,,,,,,,,,,,,,,,,,,
679.7000000001863,,familiar_rating,131390,US_Cities_List/mm_delawarecity.png,,52,US_Cities_List/mm_delawarecity.png,MM,4,,,,,,,,,,,,,,,
null,,confidence_buffer,131493,confidence_buffer,,null,,,,,,,,,,,,,,,,,,
486.6000000005588,,unique_rating,131982,US_Cities_List/mm_delawarecity.png,,51,,,3,,,,,,,,,,,,,,,
null,,confidence_buffer,132085,confidence_buffer,,null,,,,,,,,,,,,,,,,,,
422,,memorable_rating,132510,US_Cities_List/mm_delawarecity.png,,50,,,2,,,,,,,,,,,,,,,
null,,confidence_buffer,132613,confidence_buffer,,null,,,,,,,,,,,,,,,,,,
null,,thebreak,133115,break,,null,,,,,,,,,,,,,,,,,,
601.5,,familiar_rating,133720,US_Cities_List/mm_hotsprings.png,,52,US_Cities_List/mm_hotsprings.png,MM,4,,,,,,,,,,,,,,,
null,,confidence_buffer,133823,confidence_buffer,,null,,,,,,,,,,,,,,,,,,
420.79999999981374,,unique_rating,134246,US_Cities_List/mm_hotsprings.png,,51,,,3,,,,,,,,,,,,,,,
null,,confidence_buffer,134351,confidence_buffer,,null,,,,,,,,,,,,,,,,,,
441.3999999994412,,memorable_rating,134795,US_Cities_List/mm_hotsprings.png,,50,,,2,,,,,,,,,,,,,,,
null,,confidence_buffer,134898,confidence_buffer,,null,,,,,,,,,,,,,,,,,,
null,,thebreak,135399,break,,null,,,,,,,,,,,,,,,,,,
683.4000000003725,,familiar_rating,136086,Fictional_Cities_List/img_manmade_03.png,,52,Fictional_Cities_List/img_manmade_03.png,MM,4,,,,,,,,,,,,,,,
null,,confidence_buffer,136189,confidence_buffer,,null,,,,,,,,,,,,,,,,,,
765.8999999994412,,unique_rating,136958,Fictional_Cities_List/img_manmade_03.png,,51,,,3,,,,,,,,,,,,,,,
null,,confidence_buffer,137061,confidence_buffer,,null,,,,,,,,,,,,,,,,,,
445.3999999994412,,memorable_rating,137510,Fictional_Cities_List/img_manmade_03.png,,50,,,2,,,,,,,,,,,,,,,
null,,confidence_buffer,137612,confidence_buffer,,null,,,,,,,,,,,,,,,,,,
null,,thebreak,138114,break,,null,,,,,,,,,,,,,,,,,,
1529.0999999996275,,intro_0,139646,instruct,,32,,,,,,,,,,,,,,,,,,
1333.9000000003725,,intro_1,140981,instruct,,32,,,,,,,,,,,,,,,,,,
1004.2999999998137,,intro_2,141987,instruct,,32,,,,,,,,,,,,,,,,,,
null,,instruct_dir_4,143488,instruct,,null,,,,,,,,,,,,,,,,,,
1932.1000000005588,,realistic_rating,145422,US_Cities_List/nat_healdsburg.png,,49,US_Cities_List/nat_healdsburg.png,NAT,1,,,,,,,,,,,,,,,
null,,confidence_buffer,145526,confidence_buffer,,null,,,,,,,,,,,,,,,,,,
387.1000000005588,,pt2_unique_rating,145915,US_Cities_List/nat_healdsburg.png,,50,,,2,,,,,,,,,,,,,,,
null,,confidence_buffer,146018,confidence_buffer,,null,,,,,,,,,,,,,,,,,,
1481.4000000003725,,pt2_memorable_rating,147502,US_Cities_List/nat_healdsburg.png,,51,,,3,,,,,,,,,,,,,,,
null,,confidence_buffer,147607,confidence_buffer,,null,,,,,,,,,,,,,,,,,,
1531.7000000001863,,recognition_phase,149142,US_Cities_List/nat_healdsburg.png,,49,,,,,,old,1,1,,,,,,,,,,
null,,confidence_buffer,149247,confidence_buffer,,null,,,,,,,,,,,,,,,,,,
null,,thebreak,149749,break,,null,,,,,,,,,,,,,,,,,,
1597.7999999998137,,realistic_rating,151350,US_Cities_List/mm_athens.png,,53,US_Cities_List/mm_athens.png,MM,5,,,,,,,,,,,,,,,
null,,confidence_buffer,151453,confidence_buffer,,null,,,,,,,,,,,,,,,,,,
1099.0999999996275,,pt2_unique_rating,152555,US_Cities_List/mm_athens.png,,52,,,4,,,,,,,,,,,,,,,
null,,confidence_buffer,152657,confidence_buffer,,null,,,,,,,,,,,,,,,,,,
1624.7000000001863,,probe_rating,154284,probe_rating,,52,,,,4,1,,,,,,,,,,,,,
null,,confidence_buffer,154386,confidence_buffer,,null,,,,,,,,,,,,,,,,,,
1401.2999999998137,,pt2_memorable_rating,155790,US_Cities_List/mm_athens.png,,50,,,2,,,,,,,,,,,,,,,
null,,confidence_buffer,155893,confidence_buffer,,null,,,,,,,,,,,,,,,,,,
1333.800000000745,,recognition_phase,157230,US_Cities_List/mm_athens.png,,49,,,,,,old,1,1,,,,,,,,,,
null,,confidence_buffer,157333,confidence_buffer,,null,,,,,,,,,,,,,,,,,,
null,,thebreak,157835,break,,null,,,,,,,,,,,,,,,,,,
1047.7999999998137,,realistic_rating,158886,US_Cities_List/mm_okoboji.png,,52,US_Cities_List/mm_okoboji.png,MM,4,,,,,,,,,,,,,,,
null,,confidence_buffer,158990,confidence_buffer,,null,,,,,,,,,,,,,,,,,,
493.70000000018626,,pt2_unique_rating,159486,US_Cities_List/mm_okoboji.png,,51,,,3,,,,,,,,,,,,,,,
null,,confidence_buffer,159589,confidence_buffer,,null,,,,,,,,,,,,,,,,,,
1077.6000000005588,,pt2_memorable_rating,160670,US_Cities_List/mm_okoboji.png,,53,,,5,,,,,,,,,,,,,,,
null,,confidence_buffer,160773,confidence_buffer,,null,,,,,,,,,,,,,,,,,,
1548.5999999996275,,probe_rating,162323,probe_rating,,53,,,,5,1,,,,,,,,,,,,,
null,,confidence_buffer,162426,confidence_buffer,,null,,,,,,,,,,,,,,,,,,
1583.7999999998137,,recognition_phase,164011,US_Cities_List/mm_okoboji.png,,49,,,,,,old,1,1,,,,,,,,,,
null,,confidence_buffer,164114,confidence_buffer,,null,,,,,,,,,,,,,,,,,,
null,,thebreak,164617,break,,null,,,,,,,,,,,,,,,,,,
795.2000000001863,,realistic_rating,165414,Fictional_Cities_List/img_natural_01.png,,53,Fictional_Cities_List/img_natural_01.png,NAT,5,,,,,,,,,,,,,,,
null,,confidence_buffer,165518,confidence_buffer,,null,,,,,,,,,,,,,,,,,,
1252.0999999996275,,pt2_unique_rating,166772,Fictional_Cities_List/img_natural_01.png,,52,,,4,,,,,,,,,,,,,,,
null,,confidence_buffer,166873,confidence_buffer,,null,,,,,,,,,,,,,,,,,,
537,,pt2_memorable_rating,167411,Fictional_Cities_List/img_natural_01.png,,50,,,2,,,,,,,,,,,,,,,
null,,confidence_buffer,167514,confidence_buffer,,null,,,,,,,,,,,,,,,,,,
1794.2000000001863,,recognition_phase,169310,Fictional_Cities_List/img_natural_01.png,,52,,,,,,new,1,1,,,,,,,,,,
null,,confidence_buffer,169414,confidence_buffer,,null,,,,,,,,,,,,,,,,,,
null,,thebreak,169916,break,,null,,,,,,,,,,,,,,,,,,
535.0999999996275,,realistic_rating,170454,Fictional_Cities_List/img_natural_03.png,,51,Fictional_Cities_List/img_natural_03.png,NAT,3,,,,,,,,,,,,,,,
null,,confidence_buffer,170558,confidence_buffer,,null,,,,,,,,,,,,,,,,,,
597.7000000001863,,pt2_unique_rating,171158,Fictional_Cities_List/img_natural_03.png,,50,,,2,,,,,,,,,,,,,,,
null,,confidence_buffer,171261,confidence_buffer,,null,,,,,,,,,,,,,,,,,,
862.1999999992549,,pt2_memorable_rating,172126,Fictional_Cities_List/img_natural_03.png,,50,,,2,,,,,,,,,,,,,,,
null,,confidence_buffer,172229,confidence_buffer,,null,,,,,,,,,,,,,,,,,,
1461.699999999255,,recognition_phase,173694,Fictional_Cities_List/img_natural_03.png,,51,,,,,,new,1,1,,,,,,,,,,
null,,confidence_buffer,173797,confidence_buffer,,null,,,,,,,,,,,,,,,,,,
null,,thebreak,174299,break,,null,,,,,,,,,,,,,,,,,,
879.8999999994412,,realistic_rating,175182,US_Cities_List/nat_bisbee.png,,52,US_Cities_List/nat_bisbee.png,NAT,4,,,,,,,,,,,,,,,
null,,confidence_buffer,175286,confidence_buffer,,null,,,,,,,,,,,,,,,,,,
685.2999999998137,,pt2_unique_rating,175974,US_Cities_List/nat_bisbee.png,,51,,,3,,,,,,,,,,,,,,,
null,,confidence_buffer,176077,confidence_buffer,,null,,,,,,,,,,,,,,,,,,
470.1000000005588,,pt2_memorable_rating,176550,US_Cities_List/nat_bisbee.png,,50,,,2,,,,,,,,,,,,,,,
null,,confidence_buffer,176653,confidence_buffer,,null,,,,,,,,,,,,,,,,,,
3766.2000000001863,,recognition_phase,180422,US_Cities_List/nat_bisbee.png,,51,,,,,,new,1,1,,,,,,,,,,
null,,confidence_buffer,180526,confidence_buffer,,null,,,,,,,,,,,,,,,,,,
null,,thebreak,181027,break,,null,,,,,,,,,,,,,,,,,,
815.6000000005588,,realistic_rating,181846,US_Cities_List/nat_hotsprings.png,,50,US_Cities_List/nat_hotsprings.png,NAT,2,,,,,,,,,,,,,,,
null,,confidence_buffer,181949,confidence_buffer,,null,,,,,,,,,,,,,,,,,,
589.6000000005588,,pt2_unique_rating,182542,US_Cities_List/nat_hotsprings.png,,51,,,3,,,,,,,,,,,,,,,
null,,confidence_buffer,182644,confidence_buffer,,null,,,,,,,,,,,,,,,,,,
646.7000000001863,,pt2_memorable_rating,183294,US_Cities_List/nat_hotsprings.png,,50,,,2,,,,,,,,,,,,,,,
null,,confidence_buffer,183398,confidence_buffer,,null,,,,,,,,,,,,,,,,,,
996,,recognition_phase,184398,US_Cities_List/nat_hotsprings.png,,49,,,,,,old,1,1,,,,,,,,,,
null,,confidence_buffer,184502,confidence_buffer,,null,,,,,,,,,,,,,,,,,,
null,,thebreak,185003,break,,null,,,,,,,,,,,,,,,,,,
1199.7000000001863,,realistic_rating,186206,US_Cities_List/mm_hilo.png,,52,US_Cities_List/mm_hilo.png,MM,4,,,,,,,,,,,,,,,
null,,confidence_buffer,186309,confidence_buffer,,null,,,,,,,,,,,,,,,,,,
621.9000000003725,,pt2_unique_rating,186934,US_Cities_List/mm_hilo.png,,51,,,3,,,,,,,,,,,,,,,
null,,confidence_buffer,187037,confidence_buffer,,null,,,,,,,,,,,,,,,,,,
453.90000000037253,,pt2_memorable_rating,187494,US_Cities_List/mm_hilo.png,,50,,,2,,,,,,,,,,,,,,,
null,,confidence_buffer,187598,confidence_buffer,,null,,,,,,,,,,,,,,,,,,
2364.9000000003725,,recognition_phase,189966,US_Cities_List/mm_hilo.png,,52,,,,,,new,0,0.875,,,,,,,,,,
null,,confidence_buffer,190069,confidence_buffer,,null,,,,,,,,,,,,,,,,,,
null,,thebreak,190571,break,,null,,,,,,,,,,,,,,,,,,
712.7999999998137,,realistic_rating,191286,Fictional_Cities_List/img_natural_09.png,,51,Fictional_Cities_List/img_natural_09.png,NAT,3,,,,,,,,,,,,,,,
null,,confidence_buffer,191389,confidence_buffer,,null,,,,,,,,,,,,,,,,,,
501.79999999981374,,pt2_unique_rating,191894,Fictional_Cities_List/img_natural_09.png,,50,,,2,,,,,,,,,,,,,,,
null,,confidence_buffer,191997,confidence_buffer,,null,,,,,,,,,,,,,,,,,,
861.6000000005588,,pt2_memorable_rating,192862,Fictional_Cities_List/img_natural_09.png,,52,,,4,,,,,,,,,,,,,,,
null,,confidence_buffer,192965,confidence_buffer,,null,,,,,,,,,,,,,,,,,,
1189,,recognition_phase,194158,Fictional_Cities_List/img_natural_09.png,,49,,,,,,old,1,0.8888888888888888,,,,,,,,,,
null,,confidence_buffer,194261,confidence_buffer,,null,,,,,,,,,,,,,,,,,,
null,,thebreak,194764,break,,null,,,,,,,,,,,,,,,,,,
663,,realistic_rating,195430,US_Cities_List/mm_bisbee.png,,52,US_Cities_List/mm_bisbee.png,MM,4,,,,,,,,,,,,,,,
null,,confidence_buffer,195533,confidence_buffer,,null,,,,,,,,,,,,,,,,,,
518.5,,pt2_unique_rating,196054,US_Cities_List/mm_bisbee.png,,51,,,3,,,,,,,,,,,,,,,
null,,confidence_buffer,196157,confidence_buffer,,null,,,,,,,,,,,,,,,,,,
541.7999999998137,,pt2_memorable_rating,196702,US_Cities_List/mm_bisbee.png,,50,,,2,,,,,,,,,,,,,,,
null,,confidence_buffer,196805,confidence_buffer,,null,,,,,,,,,,,,,,,,,,
1974,,recognition_phase,198782,US_Cities_List/mm_bisbee.png,,49,,,,,,old,0,0.8,,,,,,,,,,
null,,confidence_buffer,198886,confidence_buffer,,null,,,,,,,,,,,,,,,,,,
null,,thebreak,199388,break,,null,,,,,,,,,,,,,,,,,,
662.7999999998137,,realistic_rating,200054,Fictional_Cities_List/img_natural_13.png,,52,Fictional_Cities_List/img_natural_13.png,NAT,4,,,,,,,,,,,,,,,
null,,confidence_buffer,200158,confidence_buffer,,null,,,,,,,,,,,,,,,,,,
477.6000000005588,,pt2_unique_rating,200638,Fictional_Cities_List/img_natural_13.png,,51,,,3,,,,,,,,,,,,,,,
null,,confidence_buffer,200741,confidence_buffer,,null,,,,,,,,,,,,,,,,,,
461.5,,pt2_memorable_rating,201206,Fictional_Cities_List/img_natural_13.png,,50,,,2,,,,,,,,,,,,,,,
null,,confidence_buffer,201309,confidence_buffer,,null,,,,,,,,,,,,,,,,,,
1647.7999999998137,,probe_rating,202960,probe_rating,,50,,,,2,1,,,,,,,,,,,,,
null,,confidence_buffer,203063,confidence_buffer,,null,,,,,,,,,,,,,,,,,,
1403.7000000001863,,recognition_phase,204470,Fictional_Cities_List/img_natural_13.png,,52,,,,,,new,0,0.7272727272727273,,,,,,,,,,
null,,confidence_buffer,204573,confidence_buffer,,null,,,,,,,,,,,,,,,,,,
null,,thebreak,205074,break,,null,,,,,,,,,,,,,,,,,,
1224.7000000001863,,realistic_rating,206302,Fictional_Cities_List/img_manmade_10.png,,51,Fictional_Cities_List/img_manmade_10.png,MM,3,,,,,,,,,,,,,,,
null,,confidence_buffer,206405,confidence_buffer,,null,,,,,,,,,,,,,,,,,,
389.90000000037253,,pt2_unique_rating,206798,Fictional_Cities_List/img_manmade_10.png,,50,,,2,,,,,,,,,,,,,,,
null,,confidence_buffer,206902,confidence_buffer,,null,,,,,,,,,,,,,,,,,,
1213.5999999996275,,pt2_memorable_rating,208118,Fictional_Cities_List/img_manmade_10.png,,51,,,3,,,,,,,,,,,,,,,
null,,confidence_buffer,208221,confidence_buffer,,null,,,,,,,,,,,,,,,,,,
1661.9000000003725,,probe_rating,209886,probe_rating,,50,,,,2,1,,,,,,,,,,,,,
null,,confidence_buffer,209990,confidence_buffer,,null,,,,,,,,,,,,,,,,,,
2077.2999999998137,,recognition_phase,212070,Fictional_Cities_List/img_manmade_10.png,,50,,,,,,old,1,0.75,,,,,,,,,,
null,,confidence_buffer,212174,confidence_buffer,,null,,,,,,,,,,,,,,,,,,
null,,thebreak,212675,break,,null,,,,,,,,,,,,,,,,,,
1207.9000000003725,,realistic_rating,213886,Fictional_Cities_List/img_manmade_03.png,,52,Fictional_Cities_List/img_manmade_03.png,MM,4,,,,,,,,,,,,,,,
null,,confidence_buffer,213990,confidence_buffer,,null,,,,,,,,,,,,,,,,,,
765,,pt2_unique_rating,214758,Fictional_Cities_List/img_manmade_03.png,,51,,,3,,,,,,,,,,,,,,,
null,,confidence_buffer,214862,confidence_buffer,,null,,,,,,,,,,,,,,,,,,
989.0999999996275,,pt2_memorable_rating,215854,Fictional_Cities_List/img_manmade_03.png,,50,,,2,,,,,,,,,,,,,,,
null,,confidence_buffer,215958,confidence_buffer,,null,,,,,,,,,,,,,,,,,,
2629.800000000745,,recognition_phase,218591,Fictional_Cities_List/img_manmade_03.png,,51,,,,,,new,0,0.6923076923076923,,,,,,,,,,
null,,confidence_buffer,218694,confidence_buffer,,null,,,,,,,,,,,,,,,,,,
null,,thebreak,219197,break,,null,,,,,,,,,,,,,,,,,,
1670,,realistic_rating,220870,Fictional_Cities_List/img_natural_14.png,,52,Fictional_Cities_List/img_natural_14.png,NAT,4,,,,,,,,,,,,,,,
null,,confidence_buffer,220973,confidence_buffer,,null,,,,,,,,,,,,,,,,,,
325.79999999981374,,pt2_unique_rating,221302,Fictional_Cities_List/img_natural_14.png,,51,,,3,,,,,,,,,,,,,,,
null,,confidence_buffer,221405,confidence_buffer,,null,,,,,,,,,,,,,,,,,,
750.7999999998137,,pt2_memorable_rating,222158,Fictional_Cities_List/img_natural_14.png,,50,,,2,,,,,,,,,,,,,,,
null,,confidence_buffer,222261,confidence_buffer,,null,,,,,,,,,,,,,,,,,,
1173.2999999998137,,recognition_phase,223438,Fictional_Cities_List/img_natural_14.png,,49,,,,,,old,1,0.7142857142857143,,,,,,,,,,
null,,confidence_buffer,223541,confidence_buffer,,null,,,,,,,,,,,,,,,,,,
null,,thebreak,224043,break,,null,,,,,,,,,,,,,,,,,,
1040.2999999998137,,realistic_rating,225086,US_Cities_List/nat_abilene.png,,52,US_Cities_List/nat_abilene.png,NAT,4,,,,,,,,,,,,,,,
null,,confidence_buffer,225190,confidence_buffer,,null,,,,,,,,,,,,,,,,,,
437.5,,pt2_unique_rating,225630,US_Cities_List/nat_abilene.png,,51,,,3,,,,,,,,,,,,,,,
null,,confidence_buffer,225734,confidence_buffer,,null,,,,,,,,,,,,,,,,,,
821.5999999996275,,pt2_memorable_rating,226558,US_Cities_List/nat_abilene.png,,50,,,2,,,,,,,,,,,,,,,
null,,confidence_buffer,226661,confidence_buffer,,null,,,,,,,,,,,,,,,,,,
1005.8999999994412,,recognition_phase,227670,US_Cities_List/nat_abilene.png,,49,,,,,,old,1,0.7333333333333333,,,,,,,,,,
null,,confidence_buffer,227773,confidence_buffer,,null,,,,,,,,,,,,,,,,,,
null,,thebreak,228276,break,,null,,,,,,,,,,,,,,,,,,
734.7999999998137,,realistic_rating,229014,Fictional_Cities_List/img_natural_10.png,,52,Fictional_Cities_List/img_natural_10.png,NAT,4,,,,,,,,,,,,,,,
null,,confidence_buffer,229118,confidence_buffer,,null,,,,,,,,,,,,,,,,,,
812.7999999998137,,pt2_unique_rating,229934,Fictional_Cities_List/img_natural_10.png,,51,,,3,,,,,,,,,,,,,,,
null,,confidence_buffer,230037,confidence_buffer,,null,,,,,,,,,,,,,,,,,,
502.09999999962747,,pt2_memorable_rating,230542,Fictional_Cities_List/img_natural_10.png,,50,,,2,,,,,,,,,,,,,,,
null,,confidence_buffer,230646,confidence_buffer,,null,,,,,,,,,,,,,,,,,,
1797.3999999994412,,recognition_phase,232446,Fictional_Cities_List/img_natural_10.png,,51,,,,,,new,1,0.75,,,,,,,,,,
null,,confidence_buffer,232551,confidence_buffer,,null,,,,,,,,,,,,,,,,,,
null,,thebreak,233052,break,,null,,,,,,,,,,,,,,,,,,
1230.6000000005588,,realistic_rating,234286,US_Cities_List/mm_carmel.png,,52,US_Cities_List/mm_carmel.png,MM,4,,,,,,,,,,,,,,,
null,,confidence_buffer,234390,confidence_buffer,,null,,,,,,,,,,,,,,,,,,
589.5999999996275,,pt2_unique_rating,234982,US_Cities_List/mm_carmel.png,,51,,,3,,,,,,,,,,,,,,,
null,,confidence_buffer,235085,confidence_buffer,,null,,,,,,,,,,,,,,,,,,
558.2999999998137,,pt2_memorable_rating,235647,US_Cities_List/mm_carmel.png,,50,,,2,,,,,,,,,,,,,,,
null,,confidence_buffer,235751,confidence_buffer,,null,,,,,,,,,,,,,,,,,,
595.7999999998137,,recognition_phase,236350,US_Cities_List/mm_carmel.png,,52,,,,,,new,1,0.7647058823529411,,,,,,,,,,
null,,confidence_buffer,236453,confidence_buffer,,null,,,,,,,,,,,,,,,,,,
null,,thebreak,236955,break,,null,,,,,,,,,,,,,,,,,,
1576,,realistic_rating,238534,US_Cities_List/mm_boulder.png,,51,US_Cities_List/mm_boulder.png,MM,3,,,,,,,,,,,,,,,
null,,confidence_buffer,238638,confidence_buffer,,null,,,,,,,,,,,,,,,,,,
1077.1000000005588,,pt2_unique_rating,239718,US_Cities_List/mm_boulder.png,,52,,,4,,,,,,,,,,,,,,,
null,,confidence_buffer,239822,confidence_buffer,,null,,,,,,,,,,,,,,,,,,
581.1999999992549,,pt2_memorable_rating,240406,US_Cities_List/mm_boulder.png,,51,,,3,,,,,,,,,,,,,,,
null,,confidence_buffer,240509,confidence_buffer,,null,,,,,,,,,,,,,,,,,,
1590.2000000001863,,probe_rating,242102,probe_rating,,51,,,,3,1,,,,,,,,,,,,,
null,,confidence_buffer,242206,confidence_buffer,,null,,,,,,,,,,,,,,,,,,
3421.600000000559,,recognition_phase,245630,US_Cities_List/mm_boulder.png,,50,,,,,,old,1,0.7777777777777778,,,,,,,,,,
null,,confidence_buffer,245733,confidence_buffer,,null,,,,,,,,,,,,,,,,,,
null,,thebreak,246236,break,,null,,,,,,,,,,,,,,,,,,
943.7000000001863,,realistic_rating,247183,Fictional_Cities_List/img_natural_15.png,,52,Fictional_Cities_List/img_natural_15.png,NAT,4,,,,,,,,,,,,,,,
null,,confidence_buffer,247286,confidence_buffer,,null,,,,,,,,,,,,,,,,,,
365.09999999962747,,pt2_unique_rating,247654,Fictional_Cities_List/img_natural_15.png,,51,,,3,,,,,,,,,,,,,,,
null,,confidence_buffer,247758,confidence_buffer,,null,,,,,,,,,,,,,,,,,,
485.29999999981374,,pt2_memorable_rating,248246,Fictional_Cities_List/img_natural_15.png,,50,,,2,,,,,,,,,,,,,,,
null,,confidence_buffer,248348,confidence_buffer,,null,,,,,,,,,,,,,,,,,,
1254.5,,recognition_phase,249606,Fictional_Cities_List/img_natural_15.png,,52,,,,,,new,0,0.7368421052631579,,,,,,,,,,
null,,confidence_buffer,249709,confidence_buffer,,null,,,,,,,,,,,,,,,,,,
null,,thebreak,250212,break,,null,,,,,,,,,,,,,,,,,,
711.0999999996275,,realistic_rating,250926,Fictional_Cities_List/img_manmade_04.png,,51,Fictional_Cities_List/img_manmade_04.png,MM,3,,,,,,,,,,,,,,,
null,,confidence_buffer,251030,confidence_buffer,,null,,,,,,,,,,,,,,,,,,
340.6000000005588,,pt2_unique_rating,251374,Fictional_Cities_List/img_manmade_04.png,,50,,,2,,,,,,,,,,,,,,,
null,,confidence_buffer,251478,confidence_buffer,,null,,,,,,,,,,,,,,,,,,
653.1999999992549,,pt2_memorable_rating,252134,Fictional_Cities_List/img_manmade_04.png,,52,,,4,,,,,,,,,,,,,,,
null,,confidence_buffer,252237,confidence_buffer,,null,,,,,,,,,,,,,,,,,,
1293.7999999998137,,recognition_phase,253534,Fictional_Cities_List/img_manmade_04.png,,51,,,,,,new,1,0.75,,,,,,,,,,
null,,confidence_buffer,253638,confidence_buffer,,null,,,,,,,,,,,,,,,,,,
null,,thebreak,254139,break,,null,,,,,,,,,,,,,,,,,,
1743,,realistic_rating,255886,US_Cities_List/mm_sitka.png,,51,US_Cities_List/mm_sitka.png,MM,3,,,,,,,,,,,,,,,
null,,confidence_buffer,255990,confidence_buffer,,null,,,,,,,,,,,,,,,,,,
749.2000000001863,,pt2_unique_rating,256742,US_Cities_List/mm_sitka.png,,52,,,4,,,,,,,,,,,,,,,
null,,confidence_buffer,256845,confidence_buffer,,null,,,,,,,,,,,,,,,,,,
502.59999999962747,,pt2_memorable_rating,257350,US_Cities_List/mm_sitka.png,,51,,,3,,,,,,,,,,,,,,,
null,,confidence_buffer,257453,confidence_buffer,,null,,,,,,,,,,,,,,,,,,
1629.4000000003725,,recognition_phase,259086,US_Cities_List/mm_sitka.png,,51,,,,,,new,0,0.7142857142857143,,,,,,,,,,
null,,confidence_buffer,259190,confidence_buffer,,null,,,,,,,,,,,,,,,,,,
null,,thebreak,259691,break,,null,,,,,,,,,,,,,,,,,,
1671.5,,realistic_rating,261366,Fictional_Cities_List/img_natural_11.png,,53,Fictional_Cities_List/img_natural_11.png,NAT,5,,,,,,,,,,,,,,,
null,,confidence_buffer,261469,confidence_buffer,,null,,,,,,,,,,,,,,,,,,
397.5,,probe_rating,261870,probe_rating,,52,,,,4,0,,,,,,,,,,,,,
null,,confidence_buffer,261974,confidence_buffer,,null,,,,,,,,,,,,,,,,,,
1700,,pt2_unique_rating,263676,Fictional_Cities_List/img_natural_11.png,,50,,,2,,,,,,,,,,,,,,,
null,,confidence_buffer,263781,confidence_buffer,,null,,,,,,,,,,,,,,,,,,
1137.7999999998137,,pt2_memorable_rating,264923,Fictional_Cities_List/img_natural_11.png,,52,,,4,,,,,,,,,,,,,,,
null,,confidence_buffer,265025,confidence_buffer,,null,,,,,,,,,,,,,,,,,,
1993.2999999998137,,recognition_phase,267022,Fictional_Cities_List/img_natural_11.png,,51,,,,,,new,0,0.6818181818181818,,,,,,,,,,
null,,confidence_buffer,267126,confidence_buffer,,null,,,,,,,,,,,,,,,,,,
null,,thebreak,267627,break,,null,,,,,,,,,,,,,,,,,,
1479.7999999998137,,realistic_rating,269111,US_Cities_List/mm_abilene.png,,53,US_Cities_List/mm_abilene.png,MM,5,,,,,,,,,,,,,,,
null,,confidence_buffer,269213,confidence_buffer,,null,,,,,,,,,,,,,,,,,,
405.70000000018626,,pt2_unique_rating,269622,US_Cities_List/mm_abilene.png,,52,,,4,,,,,,,,,,,,,,,
null,,confidence_buffer,269726,confidence_buffer,,null,,,,,,,,,,,,,,,,,,
1005.5,,pt2_memorable_rating,270734,US_Cities_List/mm_abilene.png,,51,,,3,,,,,,,,,,,,,,,
null,,confidence_buffer,270837,confidence_buffer,,null,,,,,,,,,,,,,,,,,,
1717.4000000003725,,recognition_phase,272557,US_Cities_List/mm_abilene.png,,51,,,,,,new,1,0.6956521739130435,,,,,,,,,,
null,,confidence_buffer,272660,confidence_buffer,,null,,,,,,,,,,,,,,,,,,
null,,thebreak,273161,break,,null,,,,,,,,,,,,,,,,,,
841.7999999998137,,realistic_rating,274006,Fictional_Cities_List/img_manmade_12.png,,50,Fictional_Cities_List/img_manmade_12.png,MM,2,,,,,,,,,,,,,,,
null,,confidence_buffer,274110,confidence_buffer,,null,,,,,,,,,,,,,,,,,,
492.6000000005588,,pt2_unique_rating,274606,Fictional_Cities_List/img_manmade_12.png,,51,,,3,,,,,,,,,,,,,,,
null,,confidence_buffer,274709,confidence_buffer,,null,,,,,,,,,,,,,,,,,,
605.8999999994412,,pt2_memorable_rating,275318,Fictional_Cities_List/img_manmade_12.png,,52,,,4,,,,,,,,,,,,,,,
null,,confidence_buffer,275422,confidence_buffer,,null,,,,,,,,,,,,,,,,,,
1773.2999999998137,,probe_rating,277198,probe_rating,,53,,,,5,1,,,,,,,,,,,,,
null,,confidence_buffer,277301,confidence_buffer,,null,,,,,,,,,,,,,,,,,,
2582.2000000001863,,recognition_phase,279886,Fictional_Cities_List/img_manmade_12.png,,52,,,,,,new,1,0.7083333333333334,,,,,,,,,,
null,,confidence_buffer,279990,confidence_buffer,,null,,,,,,,,,,,,,,,,,,
null,,thebreak,280492,break,,null,,,,,,,,,,,,,,,,,,
1031.2000000001863,,realistic_rating,281526,Fictional_Cities_List/img_natural_12.png,,51,Fictional_Cities_List/img_natural_12.png,NAT,3,,,,,,,,,,,,,,,
null,,confidence_buffer,281629,confidence_buffer,,null,,,,,,,,,,,,,,,,,,
421.79999999981374,,pt2_unique_rating,282054,Fictional_Cities_List/img_natural_12.png,,50,,,2,,,,,,,,,,,,,,,
null,,confidence_buffer,282157,confidence_buffer,,null,,,,,,,,,,,,,,,,,,
501.8999999994412,,pt2_memorable_rating,282662,Fictional_Cities_List/img_natural_12.png,,52,,,4,,,,,,,,,,,,,,,
null,,confidence_buffer,282765,confidence_buffer,,null,,,,,,,,,,,,,,,,,,
2333.7000000001863,,recognition_phase,285102,Fictional_Cities_List/img_natural_12.png,,52,,,,,,new,1,0.72,,,,,,,,,,
null,,confidence_buffer,285206,confidence_buffer,,null,,,,,,,,,,,,,,,,,,
null,,thebreak,285708,break,,null,,,,,,,,,,,,,,,,,,
654.9000000003725,,realistic_rating,286366,Fictional_Cities_List/img_natural_04.png,,51,Fictional_Cities_List/img_natural_04.png,NAT,3,,,,,,,,,,,,,,,
null,,confidence_buffer,286469,confidence_buffer,,null,,,,,,,,,,,,,,,,,,
518,,pt2_unique_rating,286990,Fictional_Cities_List/img_natural_04.png,,52,,,4,,,,,,,,,,,,,,,
null,,confidence_buffer,287093,confidence_buffer,,null,,,,,,,,,,,,,,,,,,
453.79999999981374,,pt2_memorable_rating,287550,Fictional_Cities_List/img_natural_04.png,,51,,,3,,,,,,,,,,,,,,,
null,,confidence_buffer,287653,confidence_buffer,,null,,,,,,,,,,,,,,,,,,
2086.2000000001863,,recognition_phase,289742,Fictional_Cities_List/img_natural_04.png,,52,,,,,,new,1,0.7307692307692307,,,,,,,,,,
null,,confidence_buffer,289845,confidence_buffer,,null,,,,,,,,,,,,,,,,,,
null,,thebreak,290348,break,,null,,,,,,,,,,,,,,,,,,
983.2000000001863,,realistic_rating,291334,Fictional_Cities_List/img_natural_05.png,,50,Fictional_Cities_List/img_natural_05.png,NAT,2,,,,,,,,,,,,,,,
null,,confidence_buffer,291437,confidence_buffer,,null,,,,,,,,,,,,,,,,,,
661.6000000005588,,pt2_unique_rating,292102,Fictional_Cities_List/img_natural_05.png,,51,,,3,,,,,,,,,,,,,,,
null,,confidence_buffer,292205,confidence_buffer,,null,,,,,,,,,,,,,,,,,,
558.1999999992549,,pt2_memorable_rating,292766,Fictional_Cities_List/img_natural_05.png,,52,,,4,,,,,,,,,,,,,,,
null,,confidence_buffer,292869,confidence_buffer,,null,,,,,,,,,,,,,,,,,,
2478,,recognition_phase,295350,Fictional_Cities_List/img_natural_05.png,,51,,,,,,new,1,0.7407407407407407,,,,,,,,,,
null,,confidence_buffer,295454,confidence_buffer,,null,,,,,,,,,,,,,,,,,,
null,,thebreak,295956,break,,null,,,,,,,,,,,,,,,,,,
998.8999999994412,,realistic_rating,296958,Fictional_Cities_List/img_natural_08.png,,52,Fictional_Cities_List/img_natural_08.png,NAT,4,,,,,,,,,,,,,,,
null,,confidence_buffer,297061,confidence_buffer,,null,,,,,,,,,,,,,,,,,,
509.40000000037253,,pt2_unique_rating,297574,Fictional_Cities_List/img_natural_08.png,,51,,,3,,,,,,,,,,,,,,,
null,,confidence_buffer,297679,confidence_buffer,,null,,,,,,,,,,,,,,,,,,
651.5,,pt2_memorable_rating,298334,Fictional_Cities_List/img_natural_08.png,,50,,,2,,,,,,,,,,,,,,,
null,,confidence_buffer,298437,confidence_buffer,,null,,,,,,,,,,,,,,,,,,
1997.4000000003725,,recognition_phase,300438,Fictional_Cities_List/img_natural_08.png,,51,,,,,,new,0,0.7142857142857143,,,,,,,,,,
null,,confidence_buffer,300542,confidence_buffer,,null,,,,,,,,,,,,,,,,,,
null,,thebreak,301044,break,,null,,,,,,,,,,,,,,,,,,
624.0999999996275,,realistic_rating,301671,US_Cities_List/mm_hotsprings.png,,52,US_Cities_List/mm_hotsprings.png,MM,4,,,,,,,,,,,,,,,
null,,confidence_buffer,301775,confidence_buffer,,null,,,,,,,,,,,,,,,,,,
451.70000000018626,,pt2_unique_rating,302230,US_Cities_List/mm_hotsprings.png,,51,,,3,,,,,,,,,,,,,,,
null,,confidence_buffer,302332,confidence_buffer,,null,,,,,,,,,,,,,,,,,,
494.6000000005588,,pt2_memorable_rating,302830,US_Cities_List/mm_hotsprings.png,,50,,,2,,,,,,,,,,,,,,,
null,,confidence_buffer,302933,confidence_buffer,,null,,,,,,,,,,,,,,,,,,
1525.7999999998137,,recognition_phase,304462,US_Cities_List/mm_hotsprings.png,,51,,,,,,new,0,0.6896551724137931,,,,,,,,,,
null,,confidence_buffer,304565,confidence_buffer,,null,,,,,,,,,,,,,,,,,,
null,,thebreak,305067,break,,null,,,,,,,,,,,,,,,,,,
999.7000000001863,,realistic_rating,306070,Fictional_Cities_List/img_natural_07.png,,52,Fictional_Cities_List/img_natural_07.png,NAT,4,,,,,,,,,,,,,,,
null,,confidence_buffer,306175,confidence_buffer,,null,,,,,,,,,,,,,,,,,,
596.5,,pt2_unique_rating,306774,Fictional_Cities_List/img_natural_07.png,,51,,,3,,,,,,,,,,,,,,,
null,,confidence_buffer,306877,confidence_buffer,,null,,,,,,,,,,,,,,,,,,
758.6000000005588,,pt2_memorable_rating,307638,Fictional_Cities_List/img_natural_07.png,,50,,,2,,,,,,,,,,,,,,,
null,,confidence_buffer,307742,confidence_buffer,,null,,,,,,,,,,,,,,,,,,
1364.8999999994412,,recognition_phase,309110,Fictional_Cities_List/img_natural_07.png,,51,,,,,,new,0,0.6666666666666666,,,,,,,,,,
null,,confidence_buffer,309213,confidence_buffer,,null,,,,,,,,,,,,,,,,,,
null,,thebreak,309715,break,,null,,,,,,,,,,,,,,,,,,
647.5999999996275,,realistic_rating,310366,Fictional_Cities_List/img_manmade_01.png,,52,Fictional_Cities_List/img_manmade_01.png,MM,4,,,,,,,,,,,,,,,
null,,confidence_buffer,310469,confidence_buffer,,null,,,,,,,,,,,,,,,,,,
502.40000000037253,,pt2_unique_rating,310974,Fictional_Cities_List/img_manmade_01.png,,51,,,3,,,,,,,,,,,,,,,
null,,confidence_buffer,311077,confidence_buffer,,null,,,,,,,,,,,,,,,,,,
1630.6000000005588,,probe_rating,312710,probe_rating,,53,,,,5,1,,,,,,,,,,,,,
null,,confidence_buffer,312814,confidence_buffer,,null,,,,,,,,,,,,,,,,,,
1348.6000000005588,,pt2_memorable_rating,314166,Fictional_Cities_List/img_manmade_01.png,,52,,,4,,,,,,,,,,,,,,,
null,,confidence_buffer,314269,confidence_buffer,,null,,,,,,,,,,,,,,,,,,
4053.600000000559,,recognition_phase,318326,Fictional_Cities_List/img_manmade_01.png,,51,,,,,,new,1,0.6774193548387096,,,,,,,,,,
null,,confidence_buffer,318428,confidence_buffer,,null,,,,,,,,,,,,,,,,,,
null,,thebreak,318931,break,,null,,,,,,,,,,,,,,,,,,
655.2000000001863,,realistic_rating,319590,Fictional_Cities_List/img_manmade_08.png,,52,Fictional_Cities_List/img_manmade_08.png,MM,4,,,,,,,,,,,,,,,
null,,confidence_buffer,319694,confidence_buffer,,null,,,,,,,,,,,,,,,,,,
741.1999999992549,,pt2_unique_rating,320438,Fictional_Cities_List/img_manmade_08.png,,51,,,3,,,,,,,,,,,,,,,
null,,confidence_buffer,320541,confidence_buffer,,null,,,,,,,,,,,,,,,,,,
709.6000000005588,,pt2_memorable_rating,321254,Fictional_Cities_List/img_manmade_08.png,,50,,,2,,,,,,,,,,,,,,,
null,,confidence_buffer,321357,confidence_buffer,,null,,,,,,,,,,,,,,,,,,
2358,,recognition_phase,323719,Fictional_Cities_List/img_manmade_08.png,,50,,,,,,old,1,0.6875,,,,,,,,,,
null,,confidence_buffer,323822,confidence_buffer,,null,,,,,,,,,,,,,,,,,,
null,,thebreak,324324,break,,null,,,,,,,,,,,,,,,,,,
1038.2999999998137,,realistic_rating,325366,US_Cities_List/nat_hilo.png,,51,US_Cities_List/nat_hilo.png,NAT,3,,,,,,,,,,,,,,,
null,,confidence_buffer,325469,confidence_buffer,,null,,,,,,,,,,,,,,,,,,
614.0999999996275,,pt2_unique_rating,326086,US_Cities_List/nat_hilo.png,,52,,,4,,,,,,,,,,,,,,,
null,,confidence_buffer,326189,confidence_buffer,,null,,,,,,,,,,,,,,,,,,
580.4000000003725,,pt2_memorable_rating,326774,US_Cities_List/nat_hilo.png,,51,,,3,,,,,,,,,,,,,,,
null,,confidence_buffer,326890,confidence_buffer,,null,,,,,,,,,,,,,,,,,,
1393.5,,recognition_phase,328286,US_Cities_List/nat_hilo.png,,50,,,,,,old,0,0.6666666666666666,,,,,,,,,,
null,,confidence_buffer,328391,confidence_buffer,,null,,,,,,,,,,,,,,,,,,
null,,thebreak,328894,break,,null,,,,,,,,,,,,,,,,,,
1004.2000000001863,,realistic_rating,329902,US_Cities_List/mm_peoria.png,,51,US_Cities_List/mm_peoria.png,MM,3,,,,,,,,,,,,,,,
null,,confidence_buffer,330005,confidence_buffer,,null,,,,,,,,,,,,,,,,,,
613.0999999996275,,pt2_unique_rating,330622,US_Cities_List/mm_peoria.png,,52,,,4,,,,,,,,,,,,,,,
null,,confidence_buffer,330725,confidence_buffer,,null,,,,,,,,,,,,,,,,,,
806,,pt2_memorable_rating,331534,US_Cities_List/mm_peoria.png,,52,,,4,,,,,,,,,,,,,,,
null,,confidence_buffer,331638,confidence_buffer,,null,,,,,,,,,,,,,,,,,,
1573.2999999998137,,probe_rating,333214,probe_rating,,52,,,,4,1,,,,,,,,,,,,,
null,,confidence_buffer,333317,confidence_buffer,,null,,,,,,,,,,,,,,,,,,
2110.7000000001863,,recognition_phase,335431,US_Cities_List/mm_peoria.png,,51,,,,,,new,1,0.6764705882352942,,,,,,,,,,
null,,confidence_buffer,335535,confidence_buffer,,null,,,,,,,,,,,,,,,,,,
null,,thebreak,336037,break,,null,,,,,,,,,,,,,,,,,,
597.5,,realistic_rating,336638,US_Cities_List/nat_sitka.png,,52,US_Cities_List/nat_sitka.png,NAT,4,,,,,,,,,,,,,,,
null,,confidence_buffer,336741,confidence_buffer,,null,,,,,,,,,,,,,,,,,,
462.3999999994412,,pt2_unique_rating,337206,US_Cities_List/nat_sitka.png,,51,,,3,,,,,,,,,,,,,,,
null,,confidence_buffer,337309,confidence_buffer,,null,,,,,,,,,,,,,,,,,,
403.29999999981374,,pt2_memorable_rating,337715,US_Cities_List/nat_sitka.png,,50,,,2,,,,,,,,,,,,,,,
null,,confidence_buffer,337816,confidence_buffer,,null,,,,,,,,,,,,,,,,,,
1867.5,,recognition_phase,339686,US_Cities_List/nat_sitka.png,,50,,,,,,old,1,0.6857142857142857,,,,,,,,,,
null,,confidence_buffer,339790,confidence_buffer,,null,,,,,,,,,,,,,,,,,,
null,,thebreak,340293,break,,null,,,,,,,,,,,,,,,,,,
661.5,,realistic_rating,340958,Fictional_Cities_List/img_manmade_07.png,,52,Fictional_Cities_List/img_manmade_07.png,MM,4,,,,,,,,,,,,,,,
null,,confidence_buffer,341061,confidence_buffer,,null,,,,,,,,,,,,,,,,,,
523.8999999994412,,pt2_unique_rating,341588,Fictional_Cities_List/img_manmade_07.png,,51,,,3,,,,,,,,,,,,,,,
null,,confidence_buffer,341690,confidence_buffer,,null,,,,,,,,,,,,,,,,,,
529.6000000005588,,pt2_memorable_rating,342222,Fictional_Cities_List/img_manmade_07.png,,50,,,2,,,,,,,,,,,,,,,
null,,confidence_buffer,342326,confidence_buffer,,null,,,,,,,,,,,,,,,,,,
1484.5999999996275,,probe_rating,343814,probe_rating,,52,,,,4,1,,,,,,,,,,,,,
null,,confidence_buffer,343917,confidence_buffer,,null,,,,,,,,,,,,,,,,,,
996.5,,recognition_phase,344916,Fictional_Cities_List/img_manmade_07.png,,51,,,,,,new,1,0.6944444444444444,,,,,,,,,,
null,,confidence_buffer,345019,confidence_buffer,,null,,,,,,,,,,,,,,,,,,
null,,thebreak,345520,break,,null,,,,,,,,,,,,,,,,,,
730.7000000001863,,realistic_rating,346254,Fictional_Cities_List/img_manmade_13.png,,52,Fictional_Cities_List/img_manmade_13.png,MM,4,,,,,,,,,,,,,,,
null,,confidence_buffer,346357,confidence_buffer,,null,,,,,,,,,,,,,,,,,,
1181.8999999994412,,pt2_unique_rating,347542,Fictional_Cities_List/img_manmade_13.png,,51,,,3,,,,,,,,,,,,,,,
null,,confidence_buffer,347646,confidence_buffer,,null,,,,,,,,,,,,,,,,,,
548.7000000001863,,pt2_memorable_rating,348198,Fictional_Cities_List/img_manmade_13.png,,50,,,2,,,,,,,,,,,,,,,
null,,confidence_buffer,348301,confidence_buffer,,null,,,,,,,,,,,,,,,,,,
1861.9000000003725,,recognition_phase,350166,Fictional_Cities_List/img_manmade_13.png,,51,,,,,,new,0,0.6756756756756757,,,,,,,,,,
null,,confidence_buffer,350282,confidence_buffer,,null,,,,,,,,,,,,,,,,,,
null,,thebreak,350783,break,,null,,,,,,,,,,,,,,,,,,
707.0999999996275,,realistic_rating,351494,US_Cities_List/mm_healdsburg.png,,52,US_Cities_List/mm_healdsburg.png,MM,4,,,,,,,,,,,,,,,
null,,confidence_buffer,351597,confidence_buffer,,null,,,,,,,,,,,,,,,,,,
494,,pt2_unique_rating,352094,US_Cities_List/mm_healdsburg.png,,51,,,3,,,,,,,,,,,,,,,
null,,confidence_buffer,352208,confidence_buffer,,null,,,,,,,,,,,,,,,,,,
1290.9000000003725,,probe_rating,353502,probe_rating,,49,,,,1,1,,,,,,,,,,,,,
null,,confidence_buffer,353605,confidence_buffer,,null,,,,,,,,,,,,,,,,,,
2686.7000000001863,,pt2_memorable_rating,356294,US_Cities_List/mm_healdsburg.png,,50,,,2,,,,,,,,,,,,,,,
null,,confidence_buffer,356398,confidence_buffer,,null,,,,,,,,,,,,,,,,,,
1397,,recognition_phase,357798,US_Cities_List/mm_healdsburg.png,,50,,,,,,old,0,0.6578947368421053,,,,,,,,,,
null,,confidence_buffer,357902,confidence_buffer,,null,,,,,,,,,,,,,,,,,,
null,,thebreak,358404,break,,null,,,,,,,,,,,,,,,,,,
1662.9000000003725,,realistic_rating,360070,US_Cities_List/mm_delawarecity.png,,53,US_Cities_List/mm_delawarecity.png,MM,5,,,,,,,,,,,,,,,
null,,confidence_buffer,360173,confidence_buffer,,null,,,,,,,,,,,,,,,,,,
389.29999999981374,,pt2_unique_rating,360566,US_Cities_List/mm_delawarecity.png,,52,,,4,,,,,,,,,,,,,,,
null,,confidence_buffer,360670,confidence_buffer,,null,,,,,,,,,,,,,,,,,,
548.6999999992549,,pt2_memorable_rating,361222,US_Cities_List/mm_delawarecity.png,,51,,,3,,,,,,,,,,,,,,,
null,,confidence_buffer,361325,confidence_buffer,,null,,,,,,,,,,,,,,,,,,
1918.2999999998137,,recognition_phase,363246,US_Cities_List/mm_delawarecity.png,,52,,,,,,new,0,0.6410256410256411,,,,,,,,,,
null,,confidence_buffer,363349,confidence_buffer,,null,,,,,,,,,,,,,,,,,,
null,,thebreak,363851,break,,null,,,,,,,,,,,,,,,,,,
735.6000000005588,,realistic_rating,364590,Fictional_Cities_List/img_manmade_09.png,,51,Fictional_Cities_List/img_manmade_09.png,MM,3,,,,,,,,,,,,,,,
null,,confidence_buffer,364693,confidence_buffer,,null,,,,,,,,,,,,,,,,,,
590.0999999996275,,pt2_unique_rating,365286,Fictional_Cities_List/img_manmade_09.png,,50,,,2,,,,,,,,,,,,,,,
null,,confidence_buffer,365388,confidence_buffer,,null,,,,,,,,,,,,,,,,,,
582,,pt2_memorable_rating,365974,Fictional_Cities_List/img_manmade_09.png,,51,,,3,,,,,,,,,,,,,,,
null,,confidence_buffer,366077,confidence_buffer,,null,,,,,,,,,,,,,,,,,,
1870.4000000003725,,recognition_phase,367950,Fictional_Cities_List/img_manmade_09.png,,51,,,,,,new,1,0.65,,,,,,,,,,
null,,confidence_buffer,368053,confidence_buffer,,null,,,,,,,,,,,,,,,,,,
null,,thebreak,368556,break,,null,,,,,,,,,,,,,,,,,,
733.9000000003725,,realistic_rating,369294,Fictional_Cities_List/img_manmade_14.png,,52,Fictional_Cities_List/img_manmade_14.png,MM,4,,,,,,,,,,,,,,,
null,,confidence_buffer,369397,confidence_buffer,,null,,,,,,,,,,,,,,,,,,
1381.5999999996275,,pt2_unique_rating,370782,Fictional_Cities_List/img_manmade_14.png,,51,,,3,,,,,,,,,,,,,,,
null,,confidence_buffer,370885,confidence_buffer,,null,,,,,,,,,,,,,,,,,,
669.2000000001863,,pt2_memorable_rating,371558,Fictional_Cities_List/img_manmade_14.png,,50,,,2,,,,,,,,,,,,,,,
null,,confidence_buffer,371661,confidence_buffer,,null,,,,,,,,,,,,,,,,,,
1621.9000000003725,,recognition_phase,373286,Fictional_Cities_List/img_manmade_14.png,,51,,,,,,new,1,0.6585365853658537,,,,,,,,,,
null,,confidence_buffer,373389,confidence_buffer,,null,,,,,,,,,,,,,,,,,,
null,,thebreak,373891,break,,null,,,,,,,,,,,,,,,,,,
1063.7999999998137,,realistic_rating,374958,US_Cities_List/mm_westpalmbeach.png,,52,US_Cities_List/mm_westpalmbeach.png,MM,4,,,,,,,,,,,,,,,
null,,confidence_buffer,375061,confidence_buffer,,null,,,,,,,,,,,,,,,,,,
734,,pt2_unique_rating,375798,US_Cities_List/mm_westpalmbeach.png,,51,,,3,,,,,,,,,,,,,,,
null,,confidence_buffer,375901,confidence_buffer,,null,,,,,,,,,,,,,,,,,,
1653.7999999998137,,probe_rating,377558,probe_rating,,52,,,,4,1,,,,,,,,,,,,,
null,,confidence_buffer,377661,confidence_buffer,,null,,,,,,,,,,,,,,,,,,
1550,,pt2_memorable_rating,379214,US_Cities_List/mm_westpalmbeach.png,,50,,,2,,,,,,,,,,,,,,,
null,,confidence_buffer,379317,confidence_buffer,,null,,,,,,,,,,,,,,,,,,
813.5,,recognition_phase,380134,US_Cities_List/mm_westpalmbeach.png,,51,,,,,,new,1,0.6666666666666666,,,,,,,,,,
null,,confidence_buffer,380237,confidence_buffer,,null,,,,,,,,,,,,,,,,,,
null,,thebreak,380739,break,,null,,,,,,,,,,,,,,,,,,
1647.5,,realistic_rating,382390,US_Cities_List/nat_cornwall.png,,52,US_Cities_List/nat_cornwall.png,NAT,4,,,,,,,,,,,,,,,
null,,confidence_buffer,382493,confidence_buffer,,null,,,,,,,,,,,,,,,,,,
597.4000000003725,,pt2_unique_rating,383094,US_Cities_List/nat_cornwall.png,,51,,,3,,,,,,,,,,,,,,,
null,,confidence_buffer,383196,confidence_buffer,,null,,,,,,,,,,,,,,,,,,
598.2999999998137,,pt2_memorable_rating,383798,US_Cities_List/nat_cornwall.png,,50,,,2,,,,,,,,,,,,,,,
null,,confidence_buffer,383901,confidence_buffer,,null,,,,,,,,,,,,,,,,,,
2357.600000000559,,recognition_phase,386262,US_Cities_List/nat_cornwall.png,,51,,,,,,new,1,0.6744186046511628,,,,,,,,,,
null,,confidence_buffer,386365,confidence_buffer,,null,,,,,,,,,,,,,,,,,,
null,,thebreak,386868,break,,null,,,,,,,,,,,,,,,,,,
608,,realistic_rating,387478,Fictional_Cities_List/img_manmade_06.png,,52,Fictional_Cities_List/img_manmade_06.png,MM,4,,,,,,,,,,,,,,,
null,,confidence_buffer,387581,confidence_buffer,,null,,,,,,,,,,,,,,,,,,
1700.800000000745,,probe_rating,389285,probe_rating,,50,,,,2,1,,,,,,,,,,,,,
null,,confidence_buffer,389387,confidence_buffer,,null,,,,,,,,,,,,,,,,,,
800,,pt2_unique_rating,390190,Fictional_Cities_List/img_manmade_06.png,,51,,,3,,,,,,,,,,,,,,,
null,,confidence_buffer,390293,confidence_buffer,,null,,,,,,,,,,,,,,,,,,
877.2999999998137,,pt2_memorable_rating,391174,Fictional_Cities_List/img_manmade_06.png,,52,,,4,,,,,,,,,,,,,,,
null,,confidence_buffer,391277,confidence_buffer,,null,,,,,,,,,,,,,,,,,,
2230.0999999996275,,recognition_phase,393510,Fictional_Cities_List/img_manmade_06.png,,50,,,,,,old,0,0.6590909090909091,,,,,,,,,,
null,,confidence_buffer,393614,confidence_buffer,,null,,,,,,,,,,,,,,,,,,
null,,thebreak,394117,break,,null,,,,,,,,,,,,,,,,,,
1637.5,,realistic_rating,395758,US_Cities_List/nat_delawarecity.png,,52,US_Cities_List/nat_delawarecity.png,NAT,4,,,,,,,,,,,,,,,
null,,confidence_buffer,395861,confidence_buffer,,null,,,,,,,,,,,,,,,,,,
453.59999999962747,,pt2_unique_rating,396318,US_Cities_List/nat_delawarecity.png,,51,,,3,,,,,,,,,,,,,,,
null,,confidence_buffer,396425,confidence_buffer,,null,,,,,,,,,,,,,,,,,,
642,,pt2_memorable_rating,397069,US_Cities_List/nat_delawarecity.png,,52,,,4,,,,,,,,,,,,,,,
null,,confidence_buffer,397173,confidence_buffer,,null,,,,,,,,,,,,,,,,,,
1534.0999999996275,,recognition_phase,398710,US_Cities_List/nat_delawarecity.png,,51,,,,,,new,1,0.6666666666666666,,,,,,,,,,
null,,confidence_buffer,398813,confidence_buffer,,null,,,,,,,,,,,,,,,,,,
null,,thebreak,399315,break,,null,,,,,,,,,,,,,,,,,,
607.5999999996275,,realistic_rating,399926,US_Cities_List/mm_cornwall.png,,52,US_Cities_List/mm_cornwall.png,MM,4,,,,,,,,,,,,,,,
null,,confidence_buffer,400029,confidence_buffer,,null,,,,,,,,,,,,,,,,,,
725.5,,pt2_unique_rating,400758,US_Cities_List/mm_cornwall.png,,51,,,3,,,,,,,,,,,,,,,
null,,confidence_buffer,400860,confidence_buffer,,null,,,,,,,,,,,,,,,,,,
622.5,,pt2_memorable_rating,401486,US_Cities_List/mm_cornwall.png,,50,,,2,,,,,,,,,,,,,,,
null,,confidence_buffer,401589,confidence_buffer,,null,,,,,,,,,,,,,,,,,,
1278.2999999998137,,probe_rating,402870,probe_rating,,50,,,,2,1,,,,,,,,,,,,,
null,,confidence_buffer,402973,confidence_buffer,,null,,,,,,,,,,,,,,,,,,
821.5999999996275,,recognition_phase,403798,US_Cities_List/mm_cornwall.png,,50,,,,,,old,1,0.6739130434782609,,,,,,,,,,
null,,confidence_buffer,403901,confidence_buffer,,null,,,,,,,,,,,,,,,,,,
null,,thebreak,404403,break,,null,,,,,,,,,,,,,,,,,,
1855.3999999994412,,realistic_rating,406262,Fictional_Cities_List/img_manmade_11.png,,52,Fictional_Cities_List/img_manmade_11.png,MM,4,,,,,,,,,,,,,,,
null,,confidence_buffer,406365,confidence_buffer,,null,,,,,,,,,,,,,,,,,,
773.2999999998137,,pt2_unique_rating,407142,Fictional_Cities_List/img_manmade_11.png,,51,,,3,,,,,,,,,,,,,,,
null,,confidence_buffer,407253,confidence_buffer,,null,,,,,,,,,,,,,,,,,,
622.5,,pt2_memorable_rating,407878,Fictional_Cities_List/img_manmade_11.png,,52,,,4,,,,,,,,,,,,,,,
null,,confidence_buffer,407982,confidence_buffer,,null,,,,,,,,,,,,,,,,,,
2124.7000000001863,,recognition_phase,410110,Fictional_Cities_List/img_manmade_11.png,,50,,,,,,old,1,0.6808510638297872,,,,,,,,,,
null,,confidence_buffer,410214,confidence_buffer,,null,,,,,,,,,,,,,,,,,,
null,,thebreak,410716,break,,null,,,,,,,,,,,,,,,,,,
1191.5,,realistic_rating,411910,US_Cities_List/nat_okoboji.png,,52,US_Cities_List/nat_okoboji.png,NAT,4,,,,,,,,,,,,,,,
null,,confidence_buffer,412013,confidence_buffer,,null,,,,,,,,,,,,,,,,,,
414,,pt2_unique_rating,412430,US_Cities_List/nat_okoboji.png,,51,,,3,,,,,,,,,,,,,,,
null,,confidence_buffer,412533,confidence_buffer,,null,,,,,,,,,,,,,,,,,,
581.2999999998137,,pt2_memorable_rating,413118,US_Cities_List/nat_okoboji.png,,50,,,2,,,,,,,,,,,,,,,
null,,confidence_buffer,413221,confidence_buffer,,null,,,,,,,,,,,,,,,,,,
1525.699999999255,,recognition_phase,414750,US_Cities_List/nat_okoboji.png,,51,,,,,,new,1,0.6875,,,,,,,,,,
null,,confidence_buffer,414852,confidence_buffer,,null,,,,,,,,,,,,,,,,,,
null,,thebreak,415354,break,,null,,,,,,,,,,,,,,,,,,
680.0999999996275,,realistic_rating,416038,Fictional_Cities_List/img_natural_06.png,,52,Fictional_Cities_List/img_natural_06.png,NAT,4,,,,,,,,,,,,,,,
null,,confidence_buffer,416142,confidence_buffer,,null,,,,,,,,,,,,,,,,,,
445.29999999981374,,pt2_unique_rating,416590,Fictional_Cities_List/img_natural_06.png,,51,,,3,,,,,,,,,,,,,,,
null,,confidence_buffer,416692,confidence_buffer,,null,,,,,,,,,,,,,,,,,,
1063.5999999996275,,pt2_memorable_rating,417758,Fictional_Cities_List/img_natural_06.png,,50,,,2,,,,,,,,,,,,,,,
null,,confidence_buffer,417861,confidence_buffer,,null,,,,,,,,,,,,,,,,,,
1125.2000000001863,,recognition_phase,418989,Fictional_Cities_List/img_natural_06.png,,49,,,,,,old,1,0.6938775510204082,,,,,,,,,,
null,,confidence_buffer,419094,confidence_buffer,,null,,,,,,,,,,,,,,,,,,
null,,thebreak,419596,break,,null,,,,,,,,,,,,,,,,,,
1230.2999999998137,,realistic_rating,420830,US_Cities_List/nat_carmel.png,,52,US_Cities_List/nat_carmel.png,NAT,4,,,,,,,,,,,,,,,
null,,confidence_buffer,420933,confidence_buffer,,null,,,,,,,,,,,,,,,,,,
429.6000000005588,,pt2_unique_rating,421366,US_Cities_List/nat_carmel.png,,51,,,3,,,,,,,,,,,,,,,
null,,confidence_buffer,421469,confidence_buffer,,null,,,,,,,,,,,,,,,,,,
774,,pt2_memorable_rating,422246,US_Cities_List/nat_carmel.png,,52,,,4,,,,,,,,,,,,,,,
null,,confidence_buffer,422350,confidence_buffer,,null,,,,,,,,,,,,,,,,,,
1285.2000000001863,,recognition_phase,423638,US_Cities_List/nat_carmel.png,,49,,,,,,old,0,0.68,,,,,,,,,,
null,,confidence_buffer,423742,confidence_buffer,,null,,,,,,,,,,,,,,,,,,
null,,thebreak,424245,break,,null,,,,,,,,,,,,,,,,,,
574,,realistic_rating,424822,US_Cities_List/nat_westpalmbeach.png,,52,US_Cities_List/nat_westpalmbeach.png,NAT,4,,,,,,,,,,,,,,,
null,,confidence_buffer,424925,confidence_buffer,,null,,,,,,,,,,,,,,,,,,
534,,pt2_unique_rating,425462,US_Cities_List/nat_westpalmbeach.png,,51,,,3,,,,,,,,,,,,,,,
null,,confidence_buffer,425565,confidence_buffer,,null,,,,,,,,,,,,,,,,,,
1413.6000000005588,,pt2_memorable_rating,426982,US_Cities_List/nat_westpalmbeach.png,,50,,,2,,,,,,,,,,,,,,,
null,,confidence_buffer,427085,confidence_buffer,,null,,,,,,,,,,,,,,,,,,
1206,,recognition_phase,428294,US_Cities_List/nat_westpalmbeach.png,,51,,,,,,new,0,0.6666666666666666,,,,,,,,,,
null,,confidence_buffer,428397,confidence_buffer,,null,,,,,,,,,,,,,,,,,,
null,,thebreak,428899,break,,null,,,,,,,,,,,,,,,,,,
703.1999999992549,,realistic_rating,429605,Fictional_Cities_List/img_manmade_02.png,,52,Fictional_Cities_List/img_manmade_02.png,MM,4,,,,,,,,,,,,,,,
null,,confidence_buffer,429709,confidence_buffer,,null,,,,,,,,,,,,,,,,,,
381.6000000005588,,pt2_unique_rating,430094,Fictional_Cities_List/img_manmade_02.png,,51,,,3,,,,,,,,,,,,,,,
null,,confidence_buffer,430199,confidence_buffer,,null,,,,,,,,,,,,,,,,,,
547.5,,pt2_memorable_rating,430750,Fictional_Cities_List/img_manmade_02.png,,50,,,2,,,,,,,,,,,,,,,
null,,confidence_buffer,430853,confidence_buffer,,null,,,,,,,,,,,,,,,,,,
2406.2000000001863,,recognition_phase,433262,Fictional_Cities_List/img_manmade_02.png,,49,,,,,,old,1,0.6730769230769231,,,,,,,,,,
null,,confidence_buffer,433365,confidence_buffer,,null,,,,,,,,,,,,,,,,,,
null,,thebreak,433868,break,,null,,,,,,,,,,,,,,,,,,
631,,realistic_rating,434502,Fictional_Cities_List/img_manmade_05.png,,52,Fictional_Cities_List/img_manmade_05.png,MM,4,,,,,,,,,,,,,,,
null,,confidence_buffer,434605,confidence_buffer,,null,,,,,,,,,,,,,,,,,,
1797.6000000005588,,probe_rating,436406,probe_rating,,52,,,,4,1,,,,,,,,,,,,,
null,,confidence_buffer,436510,confidence_buffer,,null,,,,,,,,,,,,,,,,,,
1124.2999999998137,,pt2_unique_rating,437638,Fictional_Cities_List/img_manmade_05.png,,51,,,3,,,,,,,,,,,,,,,
null,,confidence_buffer,437742,confidence_buffer,,null,,,,,,,,,,,,,,,,,,
692.8999999994412,,pt2_memorable_rating,438438,Fictional_Cities_List/img_manmade_05.png,,52,,,4,,,,,,,,,,,,,,,
null,,confidence_buffer,438541,confidence_buffer,,null,,,,,,,,,,,,,,,,,,
2245.399999999441,,recognition_phase,440790,Fictional_Cities_List/img_manmade_05.png,,49,,,,,,old,1,0.6792452830188679,,,,,,,,,,
null,,confidence_buffer,440893,confidence_buffer,,null,,,,,,,,,,,,,,,,,,
null,,thebreak,441395,break,,null,,,,,,,,,,,,,,,,,,
655.8999999994412,,realistic_rating,442053,US_Cities_List/nat_peoria.png,,52,US_Cities_List/nat_peoria.png,NAT,4,,,,,,,,,,,,,,,
null,,confidence_buffer,442156,confidence_buffer,,null,,,,,,,,,,,,,,,,,,
814.5999999996275,,pt2_unique_rating,442974,US_Cities_List/nat_peoria.png,,51,,,3,,,,,,,,,,,,,,,
null,,confidence_buffer,443077,confidence_buffer,,null,,,,,,,,,,,,,,,,,,
461.79999999981374,,pt2_memorable_rating,443542,US_Cities_List/nat_peoria.png,,52,,,4,,,,,,,,,,,,,,,
null,,confidence_buffer,443645,confidence_buffer,,null,,,,,,,,,,,,,,,,,,
1317.9000000003725,,recognition_phase,444966,US_Cities_List/nat_peoria.png,,49,,,,,,old,0,0.6666666666666666,,,,,,,,,,
null,,confidence_buffer,445070,confidence_buffer,,null,,,,,,,,,,,,,,,,,,
null,,thebreak,445571,break,,null,,,,,,,,,,,,,,,,,,
975.3999999994412,,realistic_rating,446550,US_Cities_List/nat_athens.png,,52,US_Cities_List/nat_athens.png,NAT,4,,,,,,,,,,,,,,,
null,,confidence_buffer,446653,confidence_buffer,,null,,,,,,,,,,,,,,,,,,
493.8999999994412,,pt2_unique_rating,447150,US_Cities_List/nat_athens.png,,51,,,3,,,,,,,,,,,,,,,
null,,confidence_buffer,447253,confidence_buffer,,null,,,,,,,,,,,,,,,,,,
1197,,pt2_memorable_rating,448454,US_Cities_List/nat_athens.png,,50,,,2,,,,,,,,,,,,,,,
null,,confidence_buffer,448556,confidence_buffer,,null,,,,,,,,,,,,,,,,,,
2814.9000000003725,,recognition_phase,451374,US_Cities_List/nat_athens.png,,50,,,,,,old,1,0.6727272727272727,,,,,,,,,,
null,,confidence_buffer,451477,confidence_buffer,,null,,,,,,,,,,,,,,,,,,
null,,thebreak,451980,break,,null,,,,,,,,,,,,,,,,,,
726.7999999998137,,realistic_rating,452709,Fictional_Cities_List/img_manmade_15.png,,52,Fictional_Cities_List/img_manmade_15.png,MM,4,,,,,,,,,,,,,,,
null,,confidence_buffer,452813,confidence_buffer,,null,,,,,,,,,,,,,,,,,,
781.7999999998137,,pt2_unique_rating,453598,Fictional_Cities_List/img_manmade_15.png,,51,,,3,,,,,,,,,,,,,,,
null,,confidence_buffer,453701,confidence_buffer,,null,,,,,,,,,,,,,,,,,,
597.7999999998137,,pt2_memorable_rating,454302,Fictional_Cities_List/img_manmade_15.png,,50,,,2,,,,,,,,,,,,,,,
null,,confidence_buffer,454405,confidence_buffer,,null,,,,,,,,,,,,,,,,,,
1244.5999999996275,,recognition_phase,455651,Fictional_Cities_List/img_manmade_15.png,,50,,,,,,old,0,0.6607142857142857,,,,,,,,,,
null,,confidence_buffer,455753,confidence_buffer,,null,,,,,,,,,,,,,,,,,,
null,,thebreak,456256,break,,null,,,,,,,,,,,,,,,,,,
1716,,realistic_rating,457975,US_Cities_List/nat_boulder.png,,53,US_Cities_List/nat_boulder.png,NAT,5,,,,,,,,,,,,,,,
null,,confidence_buffer,458080,confidence_buffer,,null,,,,,,,,,,,,,,,,,,
402.79999999981374,,pt2_unique_rating,458486,US_Cities_List/nat_boulder.png,,52,,,4,,,,,,,,,,,,,,,
null,,confidence_buffer,458590,confidence_buffer,,null,,,,,,,,,,,,,,,,,,
1508.8999999994412,,probe_rating,460102,probe_rating,,52,,,,4,1,,,,,,,,,,,,,
null,,confidence_buffer,460205,confidence_buffer,,null,,,,,,,,,,,,,,,,,,
1142.9000000003725,,pt2_memorable_rating,461350,US_Cities_List/nat_boulder.png,,51,,,3,,,,,,,,,,,,,,,
null,,confidence_buffer,461454,confidence_buffer,,null,,,,,,,,,,,,,,,,,,
748.2000000001863,,recognition_phase,462206,US_Cities_List/nat_boulder.png,,52,,,,,,new,0,0.6491228070175439,,,,,,,,,,
null,,confidence_buffer,462310,confidence_buffer,,null,,,,,,,,,,,,,,,,,,
null,,thebreak,462811,break,,null,,,,,,,,,,,,,,,,,,
847.2999999998137,,realistic_rating,463662,US_Cities_List/mm_coeurdalene.png,,52,US_Cities_List/mm_coeurdalene.png,MM,4,,,,,,,,,,,,,,,
null,,confidence_buffer,463765,confidence_buffer,,null,,,,,,,,,,,,,,,,,,
501.29999999981374,,pt2_unique_rating,464270,US_Cities_List/mm_coeurdalene.png,,51,,,3,,,,,,,,,,,,,,,
null,,confidence_buffer,464372,confidence_buffer,,null,,,,,,,,,,,,,,,,,,
502.70000000018626,,pt2_memorable_rating,464878,US_Cities_List/mm_coeurdalene.png,,50,,,2,,,,,,,,,,,,,,,
null,,confidence_buffer,464981,confidence_buffer,,null,,,,,,,,,,,,,,,,,,
1309.5999999996275,,recognition_phase,466294,US_Cities_List/mm_coeurdalene.png,,50,,,,,,old,0,0.6379310344827587,,,,,,,,,,
null,,confidence_buffer,466397,confidence_buffer,,null,,,,,,,,,,,,,,,,,,
null,,thebreak,466899,break,,null,,,,,,,,,,,,,,,,,,
1671.5,,realistic_rating,468574,US_Cities_List/nat_coeurdalene.png,,52,US_Cities_List/nat_coeurdalene.png,NAT,4,,,,,,,,,,,,,,,
null,,confidence_buffer,468677,confidence_buffer,,null,,,,,,,,,,,,,,,,,,
445.59999999962747,,pt2_unique_rating,469126,US_Cities_List/nat_coeurdalene.png,,51,,,3,,,,,,,,,,,,,,,
null,,confidence_buffer,469228,confidence_buffer,,null,,,,,,,,,,,,,,,,,,
1677.7999999998137,,pt2_memorable_rating,470910,US_Cities_List/nat_coeurdalene.png,,52,,,4,,,,,,,,,,,,,,,
null,,confidence_buffer,471014,confidence_buffer,,null,,,,,,,,,,,,,,,,,,
1428.5,,recognition_phase,472446,US_Cities_List/nat_coeurdalene.png,,51,,,,,,new,1,0.6440677966101694,,,,,,,,,,
null,,confidence_buffer,472550,confidence_buffer,,null,,,,,,,,,,,,,,,,,,
null,,thebreak,473052,break,,null,,,,,,,,,,,,,,,,,,
1143.0999999996275,,realistic_rating,474198,Fictional_Cities_List/img_natural_02.png,,52,Fictional_Cities_List/img_natural_02.png,NAT,4,,,,,,,,,,,,,,,
null,,confidence_buffer,474301,confidence_buffer,,null,,,,,,,,,,,,,,,,,,
509.70000000018626,,pt2_unique_rating,474814,Fictional_Cities_List/img_natural_02.png,,51,,,3,,,,,,,,,,,,,,,
null,,confidence_buffer,474923,confidence_buffer,,null,,,,,,,,,,,,,,,,,,
1791.8999999994412,,probe_rating,476718,probe_rating,,52,,,,4,1,,,,,,,,,,,,,
null,,confidence_buffer,476821,confidence_buffer,,null,,,,,,,,,,,,,,,,,,
1421,,pt2_memorable_rating,478246,Fictional_Cities_List/img_natural_02.png,,51,,,3,,,,,,,,,,,,,,,
null,,confidence_buffer,478348,confidence_buffer,,null,,,,,,,,,,,,,,,,,,
1614.5,,recognition_phase,479966,Fictional_Cities_List/img_natural_02.png,,51,,,,,,new,1,0.65,,,,,,,,,,
null,,confidence_buffer,480069,confidence_buffer,,null,,,,,,,,,,,,,,,,,,
null,,thebreak,480581,break,,null,,,,,,,,,,,,,,,,,,
,,survey,609953,survey-questions,,,,,,,,,,,,0,No,Using color and unique features in the pictures ,Ever seen in life,Easy to recall ,Distinct features,Look natural ,No,No
