rt,responses,trial_type,time_elapsed,stimulus,button_pressed,key_press,name_trial,city_type,rating,probe,probe_accuracy,response,correct,accuracy,problems,smooth,distraction,strategies,familiar,memorable,unique,realistic,similar,comments
21411.70000001788,{worker_id:558d8d71fdf99b534f79b352},id_enter,21412,,,,,,,,,,,,,,,,,,,,,
14665.40000000596,,fullscreen,36080,fullscreen,0,,,,,,,,,,,,,,,,,,,
6655.9000000059605,,intro_0,42737,instruct,,32,,,,,,,,,,,,,,,,,,
11479.59999999404,,intro_1,54217,instruct,,32,,,,,,,,,,,,,,,,,,
5879.5999999940395,,intro_2,60097,instruct,,32,,,,,,,,,,,,,,,,,,
null,,instruct_dir_4,61598,instruct,,null,,,,,,,,,,,,,,,,,,
null,,thebreak,62105,break,,null,,,,,,,,,,,,,,,,,,
6295.4000000059605,,familiar_rating,68401,Fictional_Cities_List/img_manmade_40.png,,51,Fictional_Cities_List/img_manmade_40.png,MM,3,,,,,,,,,,,,,,,
null,,confidence_buffer,68502,confidence_buffer,,null,,,,,,,,,,,,,,,,,,
4626.800000011921,,unique_rating,73129,Fictional_Cities_List/img_manmade_40.png,,52,,,4,,,,,,,,,,,,,,,
null,,confidence_buffer,73231,confidence_buffer,,null,,,,,,,,,,,,,,,,,,
7858,,memorable_rating,81089,Fictional_Cities_List/img_manmade_40.png,,52,,,4,,,,,,,,,,,,,,,
null,,confidence_buffer,81191,confidence_buffer,,null,,,,,,,,,,,,,,,,,,
null,,thebreak,81692,break,,null,,,,,,,,,,,,,,,,,,
4237,,familiar_rating,85929,US_Cities_List/nat_carmel.png,,49,US_Cities_List/nat_carmel.png,NAT,1,,,,,,,,,,,,,,,
null,,confidence_buffer,86033,confidence_buffer,,null,,,,,,,,,,,,,,,,,,
4279.800000011921,,unique_rating,90313,US_Cities_List/nat_carmel.png,,50,,,2,,,,,,,,,,,,,,,
null,,confidence_buffer,90415,confidence_buffer,,null,,,,,,,,,,,,,,,,,,
2386.699999988079,,memorable_rating,92802,US_Cities_List/nat_carmel.png,,49,,,1,,,,,,,,,,,,,,,
null,,confidence_buffer,92903,confidence_buffer,,null,,,,,,,,,,,,,,,,,,
null,,thebreak,93403,break,,null,,,,,,,,,,,,,,,,,,
7813.9000000059605,,familiar_rating,101218,US_Cities_List/nat_cornwall.png,,49,US_Cities_List/nat_cornwall.png,NAT,1,,,,,,,,,,,,,,,
null,,confidence_buffer,101318,confidence_buffer,,null,,,,,,,,,,,,,,,,,,
3658.7999999821186,,unique_rating,104978,US_Cities_List/nat_cornwall.png,,49,,,1,,,,,,,,,,,,,,,
null,,confidence_buffer,105078,confidence_buffer,,null,,,,,,,,,,,,,,,,,,
5298.9000000059605,,memorable_rating,110378,US_Cities_List/nat_cornwall.png,,50,,,2,,,,,,,,,,,,,,,
null,,confidence_buffer,110478,confidence_buffer,,null,,,,,,,,,,,,,,,,,,
null,,thebreak,110979,break,,null,,,,,,,,,,,,,,,,,,
3734,,familiar_rating,114714,US_Cities_List/nat_boulder.png,,49,US_Cities_List/nat_boulder.png,NAT,1,,,,,,,,,,,,,,,
null,,confidence_buffer,114814,confidence_buffer,,null,,,,,,,,,,,,,,,,,,
2771,,probe_rating,117586,probe_rating,,49,,,,1,1,,,,,,,,,,,,,
null,,confidence_buffer,117687,confidence_buffer,,null,,,,,,,,,,,,,,,,,,
6378.800000011921,,unique_rating,124066,US_Cities_List/nat_boulder.png,,49,,,1,,,,,,,,,,,,,,,
null,,confidence_buffer,124167,confidence_buffer,,null,,,,,,,,,,,,,,,,,,
4979,,memorable_rating,129146,US_Cities_List/nat_boulder.png,,49,,,1,,,,,,,,,,,,,,,
null,,confidence_buffer,129247,confidence_buffer,,null,,,,,,,,,,,,,,,,,,
null,,thebreak,129750,break,,null,,,,,,,,,,,,,,,,,,
4852.199999988079,,familiar_rating,134602,Fictional_Cities_List/img_manmade_48.png,,50,Fictional_Cities_List/img_manmade_48.png,MM,2,,,,,,,,,,,,,,,
null,,confidence_buffer,134703,confidence_buffer,,null,,,,,,,,,,,,,,,,,,
10739.299999982119,,unique_rating,145443,Fictional_Cities_List/img_manmade_48.png,,49,,,1,,,,,,,,,,,,,,,
null,,confidence_buffer,145545,confidence_buffer,,null,,,,,,,,,,,,,,,,,,
1786,,memorable_rating,147331,Fictional_Cities_List/img_manmade_48.png,,50,,,2,,,,,,,,,,,,,,,
null,,confidence_buffer,147433,confidence_buffer,,null,,,,,,,,,,,,,,,,,,
null,,thebreak,147934,break,,null,,,,,,,,,,,,,,,,,,
5852.5999999940395,,familiar_rating,153787,US_Cities_List/nat_hilo.png,,50,US_Cities_List/nat_hilo.png,NAT,2,,,,,,,,,,,,,,,
null,,confidence_buffer,153889,confidence_buffer,,null,,,,,,,,,,,,,,,,,,
3193.699999988079,,unique_rating,157083,US_Cities_List/nat_hilo.png,,49,,,1,,,,,,,,,,,,,,,
null,,confidence_buffer,157184,confidence_buffer,,null,,,,,,,,,,,,,,,,,,
3938.9000000059605,,memorable_rating,161123,US_Cities_List/nat_hilo.png,,49,,,1,,,,,,,,,,,,,,,
null,,confidence_buffer,161225,confidence_buffer,,null,,,,,,,,,,,,,,,,,,
null,,thebreak,161725,break,,null,,,,,,,,,,,,,,,,,,
5893.5,,familiar_rating,167619,US_Cities_List/mm_carmel.png,,50,US_Cities_List/mm_carmel.png,MM,2,,,,,,,,,,,,,,,
null,,confidence_buffer,167721,confidence_buffer,,null,,,,,,,,,,,,,,,,,,
2897.699999988079,,unique_rating,170619,US_Cities_List/mm_carmel.png,,51,,,3,,,,,,,,,,,,,,,
null,,confidence_buffer,170720,confidence_buffer,,null,,,,,,,,,,,,,,,,,,
3554.899999976158,,memorable_rating,174275,US_Cities_List/mm_carmel.png,,52,,,4,,,,,,,,,,,,,,,
null,,confidence_buffer,174376,confidence_buffer,,null,,,,,,,,,,,,,,,,,,
null,,thebreak,174876,break,,null,,,,,,,,,,,,,,,,,,
5295.0999999940395,,familiar_rating,180171,Fictional_Cities_List/img_natural_03.png,,49,Fictional_Cities_List/img_natural_03.png,NAT,1,,,,,,,,,,,,,,,
null,,confidence_buffer,180273,confidence_buffer,,null,,,,,,,,,,,,,,,,,,
4241.5,,unique_rating,184515,Fictional_Cities_List/img_natural_03.png,,53,,,5,,,,,,,,,,,,,,,
null,,confidence_buffer,184616,confidence_buffer,,null,,,,,,,,,,,,,,,,,,
4890.600000023842,,memorable_rating,189507,Fictional_Cities_List/img_natural_03.png,,52,,,4,,,,,,,,,,,,,,,
null,,confidence_buffer,189608,confidence_buffer,,null,,,,,,,,,,,,,,,,,,
null,,thebreak,190109,break,,null,,,,,,,,,,,,,,,,,,
5230.199999988079,,familiar_rating,195340,Fictional_Cities_List/img_manmade_15.png,,49,Fictional_Cities_List/img_manmade_15.png,MM,1,,,,,,,,,,,,,,,
null,,confidence_buffer,195443,confidence_buffer,,null,,,,,,,,,,,,,,,,,,
4407.899999976158,,unique_rating,199852,Fictional_Cities_List/img_manmade_15.png,,51,,,3,,,,,,,,,,,,,,,
null,,confidence_buffer,199953,confidence_buffer,,null,,,,,,,,,,,,,,,,,,
12019.300000011921,,memorable_rating,211972,Fictional_Cities_List/img_manmade_15.png,,51,,,3,,,,,,,,,,,,,,,
null,,confidence_buffer,212075,confidence_buffer,,null,,,,,,,,,,,,,,,,,,
null,,thebreak,212575,break,,null,,,,,,,,,,,,,,,,,,
7684.4000000059605,,familiar_rating,220260,US_Cities_List/mm_boulder.png,,49,US_Cities_List/mm_boulder.png,MM,1,,,,,,,,,,,,,,,
null,,confidence_buffer,220364,confidence_buffer,,null,,,,,,,,,,,,,,,,,,
5175.899999976158,,unique_rating,225540,US_Cities_List/mm_boulder.png,,51,,,3,,,,,,,,,,,,,,,
null,,confidence_buffer,225641,confidence_buffer,,null,,,,,,,,,,,,,,,,,,
3715,,memorable_rating,229356,US_Cities_List/mm_boulder.png,,50,,,2,,,,,,,,,,,,,,,
null,,confidence_buffer,229457,confidence_buffer,,null,,,,,,,,,,,,,,,,,,
null,,thebreak,229958,break,,null,,,,,,,,,,,,,,,,,,
4061.5999999940395,,familiar_rating,234020,US_Cities_List/nat_sitka.png,,50,US_Cities_List/nat_sitka.png,NAT,2,,,,,,,,,,,,,,,
null,,confidence_buffer,234121,confidence_buffer,,null,,,,,,,,,,,,,,,,,,
2795.4000000059605,,unique_rating,236917,US_Cities_List/nat_sitka.png,,49,,,1,,,,,,,,,,,,,,,
null,,confidence_buffer,237017,confidence_buffer,,null,,,,,,,,,,,,,,,,,,
3506.800000011921,,memorable_rating,240525,US_Cities_List/nat_sitka.png,,49,,,1,,,,,,,,,,,,,,,
null,,confidence_buffer,240627,confidence_buffer,,null,,,,,,,,,,,,,,,,,,
null,,thebreak,241128,break,,null,,,,,,,,,,,,,,,,,,
3900.5,,familiar_rating,245029,Fictional_Cities_List/img_natural_42.png,,49,Fictional_Cities_List/img_natural_42.png,NAT,1,,,,,,,,,,,,,,,
null,,confidence_buffer,245130,confidence_buffer,,null,,,,,,,,,,,,,,,,,,
3506.5,,unique_rating,248637,Fictional_Cities_List/img_natural_42.png,,50,,,2,,,,,,,,,,,,,,,
null,,confidence_buffer,248737,confidence_buffer,,null,,,,,,,,,,,,,,,,,,
2851.300000011921,,memorable_rating,251589,Fictional_Cities_List/img_natural_42.png,,49,,,1,,,,,,,,,,,,,,,
null,,confidence_buffer,251689,confidence_buffer,,null,,,,,,,,,,,,,,,,,,
null,,thebreak,252191,break,,null,,,,,,,,,,,,,,,,,,
3213.5,,familiar_rating,255405,Fictional_Cities_List/img_natural_48.png,,49,Fictional_Cities_List/img_natural_48.png,NAT,1,,,,,,,,,,,,,,,
null,,confidence_buffer,255506,confidence_buffer,,null,,,,,,,,,,,,,,,,,,
3818.300000011921,,probe_rating,259325,probe_rating,,51,,,,3,1,,,,,,,,,,,,,
null,,confidence_buffer,259426,confidence_buffer,,null,,,,,,,,,,,,,,,,,,
13355.200000017881,,unique_rating,272782,Fictional_Cities_List/img_natural_48.png,,50,,,2,,,,,,,,,,,,,,,
null,,confidence_buffer,272882,confidence_buffer,,null,,,,,,,,,,,,,,,,,,
2994.699999988079,,memorable_rating,275877,Fictional_Cities_List/img_natural_48.png,,50,,,2,,,,,,,,,,,,,,,
null,,confidence_buffer,275978,confidence_buffer,,null,,,,,,,,,,,,,,,,,,
null,,thebreak,276479,break,,null,,,,,,,,,,,,,,,,,,
7822,,familiar_rating,284302,US_Cities_List/mm_cornwall.png,,49,US_Cities_List/mm_cornwall.png,MM,1,,,,,,,,,,,,,,,
null,,confidence_buffer,284403,confidence_buffer,,null,,,,,,,,,,,,,,,,,,
4698.0999999940395,,unique_rating,289102,US_Cities_List/mm_cornwall.png,,50,,,2,,,,,,,,,,,,,,,
null,,confidence_buffer,289203,confidence_buffer,,null,,,,,,,,,,,,,,,,,,
6538.100000023842,,probe_rating,295742,probe_rating,,50,,,,2,1,,,,,,,,,,,,,
null,,confidence_buffer,295843,confidence_buffer,,null,,,,,,,,,,,,,,,,,,
5298.800000011921,,memorable_rating,301142,US_Cities_List/mm_cornwall.png,,50,,,2,,,,,,,,,,,,,,,
null,,confidence_buffer,301242,confidence_buffer,,null,,,,,,,,,,,,,,,,,,
null,,thebreak,301746,break,,null,,,,,,,,,,,,,,,,,,
5363.800000011921,,familiar_rating,307110,US_Cities_List/mm_peoria.png,,50,US_Cities_List/mm_peoria.png,MM,2,,,,,,,,,,,,,,,
null,,confidence_buffer,307211,confidence_buffer,,null,,,,,,,,,,,,,,,,,,
5762.4000000059605,,unique_rating,312974,US_Cities_List/mm_peoria.png,,52,,,4,,,,,,,,,,,,,,,
null,,confidence_buffer,313075,confidence_buffer,,null,,,,,,,,,,,,,,,,,,
3651.199999988079,,probe_rating,316726,probe_rating,,49,,,,1,1,,,,,,,,,,,,,
null,,confidence_buffer,316827,confidence_buffer,,null,,,,,,,,,,,,,,,,,,
4130.899999976158,,memorable_rating,320958,US_Cities_List/mm_peoria.png,,51,,,3,,,,,,,,,,,,,,,
null,,confidence_buffer,321059,confidence_buffer,,null,,,,,,,,,,,,,,,,,,
null,,thebreak,321561,break,,null,,,,,,,,,,,,,,,,,,
6365.699999988079,,familiar_rating,327927,Fictional_Cities_List/img_natural_39.png,,49,Fictional_Cities_List/img_natural_39.png,NAT,1,,,,,,,,,,,,,,,
null,,confidence_buffer,328027,confidence_buffer,,null,,,,,,,,,,,,,,,,,,
2978.9000000059605,,unique_rating,331007,Fictional_Cities_List/img_natural_39.png,,49,,,1,,,,,,,,,,,,,,,
null,,confidence_buffer,331107,confidence_buffer,,null,,,,,,,,,,,,,,,,,,
3483.0999999940395,,memorable_rating,334591,Fictional_Cities_List/img_natural_39.png,,49,,,1,,,,,,,,,,,,,,,
null,,confidence_buffer,334692,confidence_buffer,,null,,,,,,,,,,,,,,,,,,
null,,thebreak,335194,break,,null,,,,,,,,,,,,,,,,,,
4036.5999999940395,,familiar_rating,339231,Fictional_Cities_List/img_natural_01.png,,51,Fictional_Cities_List/img_natural_01.png,NAT,3,,,,,,,,,,,,,,,
null,,confidence_buffer,339332,confidence_buffer,,null,,,,,,,,,,,,,,,,,,
4882.9000000059605,,unique_rating,344215,Fictional_Cities_List/img_natural_01.png,,49,,,1,,,,,,,,,,,,,,,
null,,confidence_buffer,344316,confidence_buffer,,null,,,,,,,,,,,,,,,,,,
3890.800000011921,,memorable_rating,348207,Fictional_Cities_List/img_natural_01.png,,52,,,4,,,,,,,,,,,,,,,
null,,confidence_buffer,348308,confidence_buffer,,null,,,,,,,,,,,,,,,,,,
null,,thebreak,348809,break,,null,,,,,,,,,,,,,,,,,,
4566.200000017881,,familiar_rating,353375,Fictional_Cities_List/img_manmade_43.png,,50,Fictional_Cities_List/img_manmade_43.png,MM,2,,,,,,,,,,,,,,,
null,,confidence_buffer,353476,confidence_buffer,,null,,,,,,,,,,,,,,,,,,
8930.600000023842,,unique_rating,362407,Fictional_Cities_List/img_manmade_43.png,,51,,,3,,,,,,,,,,,,,,,
null,,confidence_buffer,362508,confidence_buffer,,null,,,,,,,,,,,,,,,,,,
7451,,memorable_rating,369960,Fictional_Cities_List/img_manmade_43.png,,50,,,2,,,,,,,,,,,,,,,
null,,confidence_buffer,370061,confidence_buffer,,null,,,,,,,,,,,,,,,,,,
2330.9000000059605,,probe_rating,372392,probe_rating,,49,,,,1,1,,,,,,,,,,,,,
null,,confidence_buffer,372498,confidence_buffer,,null,,,,,,,,,,,,,,,,,,
null,,thebreak,372998,break,,null,,,,,,,,,,,,,,,,,,
6769.399999976158,,familiar_rating,379768,Fictional_Cities_List/img_manmade_02.png,,50,Fictional_Cities_List/img_manmade_02.png,MM,2,,,,,,,,,,,,,,,
null,,confidence_buffer,379869,confidence_buffer,,null,,,,,,,,,,,,,,,,,,
2226.199999988079,,unique_rating,382096,Fictional_Cities_List/img_manmade_02.png,,49,,,1,,,,,,,,,,,,,,,
null,,confidence_buffer,382197,confidence_buffer,,null,,,,,,,,,,,,,,,,,,
2810.199999988079,,memorable_rating,385008,Fictional_Cities_List/img_manmade_02.png,,49,,,1,,,,,,,,,,,,,,,
null,,confidence_buffer,385109,confidence_buffer,,null,,,,,,,,,,,,,,,,,,
null,,thebreak,385611,break,,null,,,,,,,,,,,,,,,,,,
4708.700000017881,,familiar_rating,390320,US_Cities_List/nat_hotsprings.png,,49,US_Cities_List/nat_hotsprings.png,NAT,1,,,,,,,,,,,,,,,
null,,confidence_buffer,390421,confidence_buffer,,null,,,,,,,,,,,,,,,,,,
10435,,unique_rating,400856,US_Cities_List/nat_hotsprings.png,,50,,,2,,,,,,,,,,,,,,,
null,,confidence_buffer,400958,confidence_buffer,,null,,,,,,,,,,,,,,,,,,
4297.200000017881,,memorable_rating,405256,US_Cities_List/nat_hotsprings.png,,49,,,1,,,,,,,,,,,,,,,
null,,confidence_buffer,405357,confidence_buffer,,null,,,,,,,,,,,,,,,,,,
null,,thebreak,405859,break,,null,,,,,,,,,,,,,,,,,,
11957.59999999404,,familiar_rating,417817,Fictional_Cities_List/img_manmade_42.png,,49,Fictional_Cities_List/img_manmade_42.png,MM,1,,,,,,,,,,,,,,,
null,,confidence_buffer,417919,confidence_buffer,,null,,,,,,,,,,,,,,,,,,
4545.600000023842,,unique_rating,422465,Fictional_Cities_List/img_manmade_42.png,,51,,,3,,,,,,,,,,,,,,,
null,,confidence_buffer,422565,confidence_buffer,,null,,,,,,,,,,,,,,,,,,
3347,,probe_rating,425913,probe_rating,,51,,,,3,1,,,,,,,,,,,,,
null,,confidence_buffer,426015,confidence_buffer,,null,,,,,,,,,,,,,,,,,,
4161.5999999940395,,memorable_rating,430177,Fictional_Cities_List/img_manmade_42.png,,51,,,3,,,,,,,,,,,,,,,
null,,confidence_buffer,430278,confidence_buffer,,null,,,,,,,,,,,,,,,,,,
null,,thebreak,430779,break,,null,,,,,,,,,,,,,,,,,,
4341.799999982119,,familiar_rating,435121,Fictional_Cities_List/img_manmade_05.png,,53,Fictional_Cities_List/img_manmade_05.png,MM,5,,,,,,,,,,,,,,,
null,,confidence_buffer,435222,confidence_buffer,,null,,,,,,,,,,,,,,,,,,
6498.9000000059605,,unique_rating,441721,Fictional_Cities_List/img_manmade_05.png,,53,,,5,,,,,,,,,,,,,,,
null,,confidence_buffer,441822,confidence_buffer,,null,,,,,,,,,,,,,,,,,,
4058.7000000178814,,memorable_rating,445881,Fictional_Cities_List/img_manmade_05.png,,53,,,5,,,,,,,,,,,,,,,
null,,confidence_buffer,445983,confidence_buffer,,null,,,,,,,,,,,,,,,,,,
null,,thebreak,446484,break,,null,,,,,,,,,,,,,,,,,,
6245.299999982119,,familiar_rating,452729,US_Cities_List/mm_hilo.png,,50,US_Cities_List/mm_hilo.png,MM,2,,,,,,,,,,,,,,,
null,,confidence_buffer,452831,confidence_buffer,,null,,,,,,,,,,,,,,,,,,
5714.600000023842,,unique_rating,458546,US_Cities_List/mm_hilo.png,,50,,,2,,,,,,,,,,,,,,,
null,,confidence_buffer,458646,confidence_buffer,,null,,,,,,,,,,,,,,,,,,
3474.699999988079,,memorable_rating,462122,US_Cities_List/mm_hilo.png,,49,,,1,,,,,,,,,,,,,,,
null,,confidence_buffer,462224,confidence_buffer,,null,,,,,,,,,,,,,,,,,,
null,,thebreak,462725,break,,null,,,,,,,,,,,,,,,,,,
3252.5,,familiar_rating,465978,Fictional_Cities_List/img_natural_49.png,,49,Fictional_Cities_List/img_natural_49.png,NAT,1,,,,,,,,,,,,,,,
null,,confidence_buffer,466079,confidence_buffer,,null,,,,,,,,,,,,,,,,,,
7931.100000023842,,unique_rating,474010,Fictional_Cities_List/img_natural_49.png,,49,,,1,,,,,,,,,,,,,,,
null,,confidence_buffer,474112,confidence_buffer,,null,,,,,,,,,,,,,,,,,,
2906.2000000178814,,memorable_rating,477018,Fictional_Cities_List/img_natural_49.png,,50,,,2,,,,,,,,,,,,,,,
null,,confidence_buffer,477119,confidence_buffer,,null,,,,,,,,,,,,,,,,,,
null,,thebreak,477621,break,,null,,,,,,,,,,,,,,,,,,
6444.4000000059605,,familiar_rating,484066,Fictional_Cities_List/img_natural_40.png,,49,Fictional_Cities_List/img_natural_40.png,NAT,1,,,,,,,,,,,,,,,
null,,confidence_buffer,484167,confidence_buffer,,null,,,,,,,,,,,,,,,,,,
2986.5,,probe_rating,487154,probe_rating,,52,,,,4,1,,,,,,,,,,,,,
null,,confidence_buffer,487255,confidence_buffer,,null,,,,,,,,,,,,,,,,,,
5674.700000017881,,unique_rating,492930,Fictional_Cities_List/img_natural_40.png,,49,,,1,,,,,,,,,,,,,,,
null,,confidence_buffer,493031,confidence_buffer,,null,,,,,,,,,,,,,,,,,,
3075.100000023842,,memorable_rating,496106,Fictional_Cities_List/img_natural_40.png,,50,,,2,,,,,,,,,,,,,,,
null,,confidence_buffer,496207,confidence_buffer,,null,,,,,,,,,,,,,,,,,,
null,,thebreak,496708,break,,null,,,,,,,,,,,,,,,,,,
4414.299999982119,,familiar_rating,501123,US_Cities_List/mm_bisbee.png,,49,US_Cities_List/mm_bisbee.png,MM,1,,,,,,,,,,,,,,,
null,,confidence_buffer,501224,confidence_buffer,,null,,,,,,,,,,,,,,,,,,
2874.2999999821186,,probe_rating,504098,probe_rating,,50,,,,2,1,,,,,,,,,,,,,
null,,confidence_buffer,504199,confidence_buffer,,null,,,,,,,,,,,,,,,,,,
7259.300000011921,,unique_rating,511459,US_Cities_List/mm_bisbee.png,,49,,,1,,,,,,,,,,,,,,,
null,,confidence_buffer,511560,confidence_buffer,,null,,,,,,,,,,,,,,,,,,
2634.0999999940395,,memorable_rating,514195,US_Cities_List/mm_bisbee.png,,49,,,1,,,,,,,,,,,,,,,
null,,confidence_buffer,514297,confidence_buffer,,null,,,,,,,,,,,,,,,,,,
null,,thebreak,514808,break,,null,,,,,,,,,,,,,,,,,,
10714.59999999404,,familiar_rating,525523,US_Cities_List/nat_athens.png,,50,US_Cities_List/nat_athens.png,NAT,2,,,,,,,,,,,,,,,
null,,confidence_buffer,525625,confidence_buffer,,null,,,,,,,,,,,,,,,,,,
3913.9000000059605,,unique_rating,529539,US_Cities_List/nat_athens.png,,49,,,1,,,,,,,,,,,,,,,
null,,confidence_buffer,529640,confidence_buffer,,null,,,,,,,,,,,,,,,,,,
4578.5,,memorable_rating,534219,US_Cities_List/nat_athens.png,,50,,,2,,,,,,,,,,,,,,,
null,,confidence_buffer,534320,confidence_buffer,,null,,,,,,,,,,,,,,,,,,
null,,thebreak,534821,break,,null,,,,,,,,,,,,,,,,,,
3533.9000000059605,,familiar_rating,538355,US_Cities_List/mm_abilene.png,,49,US_Cities_List/mm_abilene.png,MM,1,,,,,,,,,,,,,,,
null,,confidence_buffer,538456,confidence_buffer,,null,,,,,,,,,,,,,,,,,,
6490.5999999940395,,unique_rating,544947,US_Cities_List/mm_abilene.png,,51,,,3,,,,,,,,,,,,,,,
null,,confidence_buffer,545049,confidence_buffer,,null,,,,,,,,,,,,,,,,,,
4442.5999999940395,,memorable_rating,549492,US_Cities_List/mm_abilene.png,,51,,,3,,,,,,,,,,,,,,,
null,,confidence_buffer,549592,confidence_buffer,,null,,,,,,,,,,,,,,,,,,
null,,thebreak,550094,break,,null,,,,,,,,,,,,,,,,,,
4365,,familiar_rating,554460,Fictional_Cities_List/img_natural_15.png,,49,Fictional_Cities_List/img_natural_15.png,NAT,1,,,,,,,,,,,,,,,
null,,confidence_buffer,554560,confidence_buffer,,null,,,,,,,,,,,,,,,,,,
3771.0999999940395,,unique_rating,558332,Fictional_Cities_List/img_natural_15.png,,52,,,4,,,,,,,,,,,,,,,
null,,confidence_buffer,558432,confidence_buffer,,null,,,,,,,,,,,,,,,,,,
2283,,probe_rating,560716,probe_rating,,53,,,,5,1,,,,,,,,,,,,,
null,,confidence_buffer,560817,confidence_buffer,,null,,,,,,,,,,,,,,,,,,
3635.199999988079,,memorable_rating,564452,Fictional_Cities_List/img_natural_15.png,,52,,,4,,,,,,,,,,,,,,,
null,,confidence_buffer,564553,confidence_buffer,,null,,,,,,,,,,,,,,,,,,
null,,thebreak,565054,break,,null,,,,,,,,,,,,,,,,,,
6405.9000000059605,,familiar_rating,571460,US_Cities_List/mm_athens.png,,51,US_Cities_List/mm_athens.png,MM,3,,,,,,,,,,,,,,,
null,,confidence_buffer,571562,confidence_buffer,,null,,,,,,,,,,,,,,,,,,
4777.799999982119,,unique_rating,576340,US_Cities_List/mm_athens.png,,49,,,1,,,,,,,,,,,,,,,
null,,confidence_buffer,576441,confidence_buffer,,null,,,,,,,,,,,,,,,,,,
3962.699999988079,,memorable_rating,580404,US_Cities_List/mm_athens.png,,52,,,4,,,,,,,,,,,,,,,
null,,confidence_buffer,580505,confidence_buffer,,null,,,,,,,,,,,,,,,,,,
null,,thebreak,581015,break,,null,,,,,,,,,,,,,,,,,,
7732.800000011921,,intro_0,588748,instruct,,32,,,,,,,,,,,,,,,,,,
7679.699999988079,,intro_1,596429,instruct,,32,,,,,,,,,,,,,,,,,,
15816,,intro_2,612245,instruct,,32,,,,,,,,,,,,,,,,,,
null,,instruct_dir_4,613746,instruct,,null,,,,,,,,,,,,,,,,,,
8890.5,,pt2_realistic_rating,622637,US_Cities_List/nat_hilo.png,,49,US_Cities_List/nat_hilo.png,NAT,1,,,,,,,,,,,,,,,
null,,confidence_buffer,622738,confidence_buffer,,null,,,,,,,,,,,,,,,,,,
7547,,pt2_unique_rating,630285,US_Cities_List/nat_hilo.png,,49,,,1,,,,,,,,,,,,,,,
null,,confidence_buffer,630388,confidence_buffer,,null,,,,,,,,,,,,,,,,,,
4305.4000000059605,,pt2_memorable_rating,634693,US_Cities_List/nat_hilo.png,,49,,,1,,,,,,,,,,,,,,,
null,,confidence_buffer,634794,confidence_buffer,,null,,,,,,,,,,,,,,,,,,
3098.699999988079,,probe_rating,637893,probe_rating,,52,,,,4,1,,,,,,,,,,,,,
null,,confidence_buffer,637995,confidence_buffer,,null,,,,,,,,,,,,,,,,,,
4201.699999988079,,recognition_phase,642198,US_Cities_List/nat_hilo.png,,49,,,,,,old,1,1,,,,,,,,,,
null,,confidence_buffer,642298,confidence_buffer,,null,,,,,,,,,,,,,,,,,,
null,,thebreak,642799,break,,null,,,,,,,,,,,,,,,,,,
10654.59999999404,,pt2_realistic_rating,653454,Fictional_Cities_List/img_natural_10.png,,50,Fictional_Cities_List/img_natural_10.png,NAT,2,,,,,,,,,,,,,,,
null,,confidence_buffer,653555,confidence_buffer,,null,,,,,,,,,,,,,,,,,,
5042.5,,pt2_unique_rating,658598,Fictional_Cities_List/img_natural_10.png,,51,,,3,,,,,,,,,,,,,,,
null,,confidence_buffer,658699,confidence_buffer,,null,,,,,,,,,,,,,,,,,,
3011.199999988079,,pt2_memorable_rating,661711,Fictional_Cities_List/img_natural_10.png,,50,,,2,,,,,,,,,,,,,,,
null,,confidence_buffer,661812,confidence_buffer,,null,,,,,,,,,,,,,,,,,,
1513.199999988079,,probe_rating,663326,probe_rating,,49,,,,1,1,,,,,,,,,,,,,
null,,confidence_buffer,663427,confidence_buffer,,null,,,,,,,,,,,,,,,,,,
2475.0999999940395,,recognition_phase,665902,Fictional_Cities_List/img_natural_10.png,,52,,,,,,new,1,1,,,,,,,,,,
null,,confidence_buffer,666003,confidence_buffer,,null,,,,,,,,,,,,,,,,,,
null,,thebreak,666504,break,,null,,,,,,,,,,,,,,,,,,
5477.799999982119,,pt2_realistic_rating,671982,US_Cities_List/mm_okoboji.png,,53,US_Cities_List/mm_okoboji.png,MM,5,,,,,,,,,,,,,,,
null,,confidence_buffer,672083,confidence_buffer,,null,,,,,,,,,,,,,,,,,,
3466.7000000178814,,pt2_unique_rating,675550,US_Cities_List/mm_okoboji.png,,50,,,2,,,,,,,,,,,,,,,
null,,confidence_buffer,675651,confidence_buffer,,null,,,,,,,,,,,,,,,,,,
2970.800000011921,,pt2_memorable_rating,678622,US_Cities_List/mm_okoboji.png,,50,,,2,,,,,,,,,,,,,,,
null,,confidence_buffer,678724,confidence_buffer,,null,,,,,,,,,,,,,,,,,,
2634.0999999940395,,recognition_phase,681358,US_Cities_List/mm_okoboji.png,,52,,,,,,new,1,1,,,,,,,,,,
null,,confidence_buffer,681459,confidence_buffer,,null,,,,,,,,,,,,,,,,,,
null,,thebreak,681960,break,,null,,,,,,,,,,,,,,,,,,
7389.699999988079,,pt2_realistic_rating,689351,Fictional_Cities_List/img_manmade_10.png,,52,Fictional_Cities_List/img_manmade_10.png,MM,4,,,,,,,,,,,,,,,
null,,confidence_buffer,689451,confidence_buffer,,null,,,,,,,,,,,,,,,,,,
6978.799999982119,,pt2_unique_rating,696431,Fictional_Cities_List/img_manmade_10.png,,51,,,3,,,,,,,,,,,,,,,
null,,confidence_buffer,696532,confidence_buffer,,null,,,,,,,,,,,,,,,,,,
3562.899999976158,,pt2_memorable_rating,700095,Fictional_Cities_List/img_manmade_10.png,,53,,,5,,,,,,,,,,,,,,,
null,,confidence_buffer,700196,confidence_buffer,,null,,,,,,,,,,,,,,,,,,
2194.100000023842,,recognition_phase,702391,Fictional_Cities_List/img_manmade_10.png,,52,,,,,,new,1,1,,,,,,,,,,
null,,confidence_buffer,702492,confidence_buffer,,null,,,,,,,,,,,,,,,,,,
null,,thebreak,702993,break,,null,,,,,,,,,,,,,,,,,,
6285.9000000059605,,pt2_realistic_rating,709279,Fictional_Cities_List/img_natural_40.png,,53,Fictional_Cities_List/img_natural_40.png,NAT,5,,,,,,,,,,,,,,,
null,,confidence_buffer,709380,confidence_buffer,,null,,,,,,,,,,,,,,,,,,
4954.4000000059605,,pt2_unique_rating,714335,Fictional_Cities_List/img_natural_40.png,,49,,,1,,,,,,,,,,,,,,,
null,,confidence_buffer,714436,confidence_buffer,,null,,,,,,,,,,,,,,,,,,
2130.9000000059605,,probe_rating,716567,probe_rating,,52,,,,4,1,,,,,,,,,,,,,
null,,confidence_buffer,716668,confidence_buffer,,null,,,,,,,,,,,,,,,,,,
4986.5999999940395,,pt2_memorable_rating,721655,Fictional_Cities_List/img_natural_40.png,,50,,,2,,,,,,,,,,,,,,,
null,,confidence_buffer,721756,confidence_buffer,,null,,,,,,,,,,,,,,,,,,
1731.2000000178814,,recognition_phase,723487,Fictional_Cities_List/img_natural_40.png,,49,,,,,,old,1,1,,,,,,,,,,
null,,confidence_buffer,723588,confidence_buffer,,null,,,,,,,,,,,,,,,,,,
null,,thebreak,724100,break,,null,,,,,,,,,,,,,,,,,,
10675,,pt2_realistic_rating,734776,Fictional_Cities_List/img_manmade_42.png,,52,Fictional_Cities_List/img_manmade_42.png,MM,4,,,,,,,,,,,,,,,
null,,confidence_buffer,734877,confidence_buffer,,null,,,,,,,,,,,,,,,,,,
3122.5999999940395,,pt2_unique_rating,738000,Fictional_Cities_List/img_manmade_42.png,,51,,,3,,,,,,,,,,,,,,,
null,,confidence_buffer,738100,confidence_buffer,,null,,,,,,,,,,,,,,,,,,
5195.299999982119,,pt2_memorable_rating,743296,Fictional_Cities_List/img_manmade_42.png,,52,,,4,,,,,,,,,,,,,,,
null,,confidence_buffer,743398,confidence_buffer,,null,,,,,,,,,,,,,,,,,,
1961.800000011921,,recognition_phase,745360,Fictional_Cities_List/img_manmade_42.png,,49,,,,,,old,1,1,,,,,,,,,,
null,,confidence_buffer,745462,confidence_buffer,,null,,,,,,,,,,,,,,,,,,
null,,thebreak,745963,break,,null,,,,,,,,,,,,,,,,,,
7924.4000000059605,,pt2_realistic_rating,753888,US_Cities_List/mm_healdsburg.png,,53,US_Cities_List/mm_healdsburg.png,MM,5,,,,,,,,,,,,,,,
null,,confidence_buffer,753989,confidence_buffer,,null,,,,,,,,,,,,,,,,,,
6739.399999976158,,pt2_unique_rating,760728,US_Cities_List/mm_healdsburg.png,,50,,,2,,,,,,,,,,,,,,,
null,,confidence_buffer,760830,confidence_buffer,,null,,,,,,,,,,,,,,,,,,
5794.199999988079,,pt2_memorable_rating,766624,US_Cities_List/mm_healdsburg.png,,50,,,2,,,,,,,,,,,,,,,
null,,confidence_buffer,766726,confidence_buffer,,null,,,,,,,,,,,,,,,,,,
2658.100000023842,,recognition_phase,769384,US_Cities_List/mm_healdsburg.png,,52,,,,,,new,1,1,,,,,,,,,,
null,,confidence_buffer,769486,confidence_buffer,,null,,,,,,,,,,,,,,,,,,
null,,thebreak,769989,break,,null,,,,,,,,,,,,,,,,,,
8507.199999988079,,pt2_realistic_rating,778497,Fictional_Cities_List/img_manmade_15.png,,50,Fictional_Cities_List/img_manmade_15.png,MM,2,,,,,,,,,,,,,,,
null,,confidence_buffer,778598,confidence_buffer,,null,,,,,,,,,,,,,,,,,,
9250.699999988079,,pt2_unique_rating,787849,Fictional_Cities_List/img_manmade_15.png,,51,,,3,,,,,,,,,,,,,,,
null,,confidence_buffer,787950,confidence_buffer,,null,,,,,,,,,,,,,,,,,,
3098.4000000059605,,pt2_memorable_rating,791049,Fictional_Cities_List/img_manmade_15.png,,51,,,3,,,,,,,,,,,,,,,
null,,confidence_buffer,791150,confidence_buffer,,null,,,,,,,,,,,,,,,,,,
1322.800000011921,,recognition_phase,792473,Fictional_Cities_List/img_manmade_15.png,,49,,,,,,old,1,1,,,,,,,,,,
null,,confidence_buffer,792573,confidence_buffer,,null,,,,,,,,,,,,,,,,,,
null,,thebreak,793075,break,,null,,,,,,,,,,,,,,,,,,
11861.299999982119,,pt2_realistic_rating,804937,US_Cities_List/nat_coeurdalene.png,,51,US_Cities_List/nat_coeurdalene.png,NAT,3,,,,,,,,,,,,,,,
null,,confidence_buffer,805038,confidence_buffer,,null,,,,,,,,,,,,,,,,,,
3706.5999999940395,,pt2_unique_rating,808745,US_Cities_List/nat_coeurdalene.png,,49,,,1,,,,,,,,,,,,,,,
null,,confidence_buffer,808847,confidence_buffer,,null,,,,,,,,,,,,,,,,,,
4857.600000023842,,pt2_memorable_rating,813705,US_Cities_List/nat_coeurdalene.png,,49,,,1,,,,,,,,,,,,,,,
null,,confidence_buffer,813806,confidence_buffer,,null,,,,,,,,,,,,,,,,,,
1898.9000000059605,,recognition_phase,815706,US_Cities_List/nat_coeurdalene.png,,52,,,,,,new,1,1,,,,,,,,,,
null,,confidence_buffer,815806,confidence_buffer,,null,,,,,,,,,,,,,,,,,,
null,,thebreak,816308,break,,null,,,,,,,,,,,,,,,,,,
6117.5999999940395,,pt2_realistic_rating,822426,Fictional_Cities_List/img_manmade_38.png,,53,Fictional_Cities_List/img_manmade_38.png,MM,5,,,,,,,,,,,,,,,
null,,confidence_buffer,822527,confidence_buffer,,null,,,,,,,,,,,,,,,,,,
6034,,pt2_unique_rating,828562,Fictional_Cities_List/img_manmade_38.png,,50,,,2,,,,,,,,,,,,,,,
null,,confidence_buffer,828662,confidence_buffer,,null,,,,,,,,,,,,,,,,,,
13131.59999999404,,pt2_memorable_rating,841794,Fictional_Cities_List/img_manmade_38.png,,50,,,2,,,,,,,,,,,,,,,
null,,confidence_buffer,841895,confidence_buffer,,null,,,,,,,,,,,,,,,,,,
1682.7000000178814,,recognition_phase,843578,Fictional_Cities_List/img_manmade_38.png,,52,,,,,,new,1,1,,,,,,,,,,
null,,confidence_buffer,843679,confidence_buffer,,null,,,,,,,,,,,,,,,,,,
null,,thebreak,844181,break,,null,,,,,,,,,,,,,,,,,,
29797.59999999404,,pt2_realistic_rating,873979,US_Cities_List/mm_sitka.png,,50,US_Cities_List/mm_sitka.png,MM,2,,,,,,,,,,,,,,,
null,,confidence_buffer,874081,confidence_buffer,,null,,,,,,,,,,,,,,,,,,
23225.899999976158,,pt2_unique_rating,897307,US_Cities_List/mm_sitka.png,,51,,,3,,,,,,,,,,,,,,,
null,,confidence_buffer,897408,confidence_buffer,,null,,,,,,,,,,,,,,,,,,
3859,,pt2_memorable_rating,901267,US_Cities_List/mm_sitka.png,,49,,,1,,,,,,,,,,,,,,,
null,,confidence_buffer,901368,confidence_buffer,,null,,,,,,,,,,,,,,,,,,
1835,,recognition_phase,903203,US_Cities_List/mm_sitka.png,,52,,,,,,new,1,1,,,,,,,,,,
null,,confidence_buffer,903304,confidence_buffer,,null,,,,,,,,,,,,,,,,,,
null,,thebreak,903805,break,,null,,,,,,,,,,,,,,,,,,
16414.30000001192,,pt2_realistic_rating,920220,US_Cities_List/nat_abilene.png,,52,US_Cities_List/nat_abilene.png,NAT,4,,,,,,,,,,,,,,,
null,,confidence_buffer,920321,confidence_buffer,,null,,,,,,,,,,,,,,,,,,
6330.299999982119,,pt2_unique_rating,926652,US_Cities_List/nat_abilene.png,,51,,,3,,,,,,,,,,,,,,,
null,,confidence_buffer,926753,confidence_buffer,,null,,,,,,,,,,,,,,,,,,
5491,,pt2_memorable_rating,932244,US_Cities_List/nat_abilene.png,,51,,,3,,,,,,,,,,,,,,,
null,,confidence_buffer,932344,confidence_buffer,,null,,,,,,,,,,,,,,,,,,
1459.2000000178814,,recognition_phase,933804,US_Cities_List/nat_abilene.png,,52,,,,,,new,1,1,,,,,,,,,,
null,,confidence_buffer,933904,confidence_buffer,,null,,,,,,,,,,,,,,,,,,
null,,thebreak,934405,break,,null,,,,,,,,,,,,,,,,,,
13855.09999999404,,pt2_realistic_rating,948261,Fictional_Cities_List/img_manmade_40.png,,52,Fictional_Cities_List/img_manmade_40.png,MM,4,,,,,,,,,,,,,,,
null,,confidence_buffer,948361,confidence_buffer,,null,,,,,,,,,,,,,,,,,,
7770.800000011921,,pt2_unique_rating,956132,Fictional_Cities_List/img_manmade_40.png,,52,,,4,,,,,,,,,,,,,,,
null,,confidence_buffer,956234,confidence_buffer,,null,,,,,,,,,,,,,,,,,,
5898.5999999940395,,pt2_memorable_rating,962133,Fictional_Cities_List/img_manmade_40.png,,52,,,4,,,,,,,,,,,,,,,
null,,confidence_buffer,962234,confidence_buffer,,null,,,,,,,,,,,,,,,,,,
5850.199999988079,,recognition_phase,968085,Fictional_Cities_List/img_manmade_40.png,,49,,,,,,old,1,1,,,,,,,,,,
null,,confidence_buffer,968186,confidence_buffer,,null,,,,,,,,,,,,,,,,,,
null,,thebreak,968687,break,,null,,,,,,,,,,,,,,,,,,
17406,,pt2_realistic_rating,986093,Fictional_Cities_List/img_natural_49.png,,51,Fictional_Cities_List/img_natural_49.png,NAT,3,,,,,,,,,,,,,,,
null,,confidence_buffer,986194,confidence_buffer,,null,,,,,,,,,,,,,,,,,,
4442.5,,pt2_unique_rating,990637,Fictional_Cities_List/img_natural_49.png,,50,,,2,,,,,,,,,,,,,,,
null,,confidence_buffer,990738,confidence_buffer,,null,,,,,,,,,,,,,,,,,,
3283,,pt2_memorable_rating,994021,Fictional_Cities_List/img_natural_49.png,,50,,,2,,,,,,,,,,,,,,,
null,,confidence_buffer,994122,confidence_buffer,,null,,,,,,,,,,,,,,,,,,
1818.7999999821186,,recognition_phase,995941,Fictional_Cities_List/img_natural_49.png,,49,,,,,,old,1,1,,,,,,,,,,
null,,confidence_buffer,996043,confidence_buffer,,null,,,,,,,,,,,,,,,,,,
null,,thebreak,996546,break,,null,,,,,,,,,,,,,,,,,,
9723.800000011921,,pt2_realistic_rating,1006270,US_Cities_List/nat_okoboji.png,,50,US_Cities_List/nat_okoboji.png,NAT,2,,,,,,,,,,,,,,,
null,,confidence_buffer,1006371,confidence_buffer,,null,,,,,,,,,,,,,,,,,,
2098.5,,pt2_unique_rating,1008470,US_Cities_List/nat_okoboji.png,,49,,,1,,,,,,,,,,,,,,,
null,,confidence_buffer,1008571,confidence_buffer,,null,,,,,,,,,,,,,,,,,,
2522.0999999940395,,pt2_memorable_rating,1011094,US_Cities_List/nat_okoboji.png,,49,,,1,,,,,,,,,,,,,,,
null,,confidence_buffer,1011195,confidence_buffer,,null,,,,,,,,,,,,,,,,,,
2682.699999988079,,recognition_phase,1013878,US_Cities_List/nat_okoboji.png,,52,,,,,,new,1,1,,,,,,,,,,
null,,confidence_buffer,1013980,confidence_buffer,,null,,,,,,,,,,,,,,,,,,
null,,thebreak,1014481,break,,null,,,,,,,,,,,,,,,,,,
7588.4000000059605,,pt2_realistic_rating,1022070,Fictional_Cities_List/img_manmade_04.png,,51,Fictional_Cities_List/img_manmade_04.png,MM,3,,,,,,,,,,,,,,,
null,,confidence_buffer,1022172,confidence_buffer,,null,,,,,,,,,,,,,,,,,,
4833.300000011921,,pt2_unique_rating,1027006,Fictional_Cities_List/img_manmade_04.png,,51,,,3,,,,,,,,,,,,,,,
null,,confidence_buffer,1027107,confidence_buffer,,null,,,,,,,,,,,,,,,,,,
3658.9000000059605,,pt2_memorable_rating,1030766,Fictional_Cities_List/img_manmade_04.png,,52,,,4,,,,,,,,,,,,,,,
null,,confidence_buffer,1030867,confidence_buffer,,null,,,,,,,,,,,,,,,,,,
1467.300000011921,,recognition_phase,1032334,Fictional_Cities_List/img_manmade_04.png,,52,,,,,,new,1,1,,,,,,,,,,
null,,confidence_buffer,1032436,confidence_buffer,,null,,,,,,,,,,,,,,,,,,
null,,thebreak,1032937,break,,null,,,,,,,,,,,,,,,,,,
8892.90000000596,,pt2_realistic_rating,1041830,Fictional_Cities_List/img_natural_04.png,,52,Fictional_Cities_List/img_natural_04.png,NAT,4,,,,,,,,,,,,,,,
null,,confidence_buffer,1041931,confidence_buffer,,null,,,,,,,,,,,,,,,,,,
3795.0999999940395,,pt2_unique_rating,1045727,Fictional_Cities_List/img_natural_04.png,,50,,,2,,,,,,,,,,,,,,,
null,,confidence_buffer,1045828,confidence_buffer,,null,,,,,,,,,,,,,,,,,,
5178.4000000059605,,pt2_memorable_rating,1051007,Fictional_Cities_List/img_natural_04.png,,51,,,3,,,,,,,,,,,,,,,
null,,confidence_buffer,1051108,confidence_buffer,,null,,,,,,,,,,,,,,,,,,
1994.4000000059605,,recognition_phase,1053103,Fictional_Cities_List/img_natural_04.png,,52,,,,,,new,1,1,,,,,,,,,,
null,,confidence_buffer,1053204,confidence_buffer,,null,,,,,,,,,,,,,,,,,,
null,,thebreak,1053705,break,,null,,,,,,,,,,,,,,,,,,
3333.199999988079,,pt2_realistic_rating,1057039,US_Cities_List/nat_athens.png,,53,US_Cities_List/nat_athens.png,NAT,5,,,,,,,,,,,,,,,
null,,confidence_buffer,1057141,confidence_buffer,,null,,,,,,,,,,,,,,,,,,
5673.299999982119,,pt2_unique_rating,1062815,US_Cities_List/nat_athens.png,,49,,,1,,,,,,,,,,,,,,,
null,,confidence_buffer,1062915,confidence_buffer,,null,,,,,,,,,,,,,,,,,,
3835.4000000059605,,pt2_memorable_rating,1066751,US_Cities_List/nat_athens.png,,50,,,2,,,,,,,,,,,,,,,
null,,confidence_buffer,1066852,confidence_buffer,,null,,,,,,,,,,,,,,,,,,
1499.2000000178814,,recognition_phase,1068351,US_Cities_List/nat_athens.png,,49,,,,,,old,1,1,,,,,,,,,,
null,,confidence_buffer,1068454,confidence_buffer,,null,,,,,,,,,,,,,,,,,,
null,,thebreak,1068954,break,,null,,,,,,,,,,,,,,,,,,
6700.300000011921,,pt2_realistic_rating,1075655,Fictional_Cities_List/img_manmade_50.png,,53,Fictional_Cities_List/img_manmade_50.png,MM,5,,,,,,,,,,,,,,,
null,,confidence_buffer,1075756,confidence_buffer,,null,,,,,,,,,,,,,,,,,,
2843,,pt2_unique_rating,1078599,Fictional_Cities_List/img_manmade_50.png,,49,,,1,,,,,,,,,,,,,,,
null,,confidence_buffer,1078701,confidence_buffer,,null,,,,,,,,,,,,,,,,,,
4402.0999999940395,,pt2_memorable_rating,1083103,Fictional_Cities_List/img_manmade_50.png,,49,,,1,,,,,,,,,,,,,,,
null,,confidence_buffer,1083204,confidence_buffer,,null,,,,,,,,,,,,,,,,,,
3099,,recognition_phase,1086303,Fictional_Cities_List/img_manmade_50.png,,52,,,,,,new,1,1,,,,,,,,,,
null,,confidence_buffer,1086405,confidence_buffer,,null,,,,,,,,,,,,,,,,,,
null,,thebreak,1086907,break,,null,,,,,,,,,,,,,,,,,,
14940.90000000596,,pt2_realistic_rating,1101848,US_Cities_List/mm_abilene.png,,50,US_Cities_List/mm_abilene.png,MM,2,,,,,,,,,,,,,,,
null,,confidence_buffer,1101949,confidence_buffer,,null,,,,,,,,,,,,,,,,,,
4258.699999988079,,pt2_unique_rating,1106208,US_Cities_List/mm_abilene.png,,51,,,3,,,,,,,,,,,,,,,
null,,confidence_buffer,1106309,confidence_buffer,,null,,,,,,,,,,,,,,,,,,
4530.9000000059605,,pt2_memorable_rating,1110840,US_Cities_List/mm_abilene.png,,50,,,2,,,,,,,,,,,,,,,
null,,confidence_buffer,1110940,confidence_buffer,,null,,,,,,,,,,,,,,,,,,
1611.4000000059605,,recognition_phase,1112552,US_Cities_List/mm_abilene.png,,49,,,,,,old,1,1,,,,,,,,,,
null,,confidence_buffer,1112653,confidence_buffer,,null,,,,,,,,,,,,,,,,,,
null,,thebreak,1113155,break,,null,,,,,,,,,,,,,,,,,,
12492.59999999404,,pt2_realistic_rating,1125648,Fictional_Cities_List/img_natural_42.png,,51,Fictional_Cities_List/img_natural_42.png,NAT,3,,,,,,,,,,,,,,,
null,,confidence_buffer,1125749,confidence_buffer,,null,,,,,,,,,,,,,,,,,,
3690.9000000059605,,pt2_unique_rating,1129440,Fictional_Cities_List/img_natural_42.png,,50,,,2,,,,,,,,,,,,,,,
null,,confidence_buffer,1129542,confidence_buffer,,null,,,,,,,,,,,,,,,,,,
2561.699999988079,,pt2_memorable_rating,1132104,Fictional_Cities_List/img_natural_42.png,,50,,,2,,,,,,,,,,,,,,,
null,,confidence_buffer,1132205,confidence_buffer,,null,,,,,,,,,,,,,,,,,,
1258.5,,recognition_phase,1133464,Fictional_Cities_List/img_natural_42.png,,49,,,,,,old,1,1,,,,,,,,,,
null,,confidence_buffer,1133565,confidence_buffer,,null,,,,,,,,,,,,,,,,,,
null,,thebreak,1134066,break,,null,,,,,,,,,,,,,,,,,,
16287,,pt2_realistic_rating,1150353,Fictional_Cities_List/img_manmade_03.png,,51,Fictional_Cities_List/img_manmade_03.png,MM,3,,,,,,,,,,,,,,,
null,,confidence_buffer,1150454,confidence_buffer,,null,,,,,,,,,,,,,,,,,,
7690.799999982119,,pt2_unique_rating,1158145,Fictional_Cities_List/img_manmade_03.png,,51,,,3,,,,,,,,,,,,,,,
null,,confidence_buffer,1158247,confidence_buffer,,null,,,,,,,,,,,,,,,,,,
4162.200000017881,,pt2_memorable_rating,1162409,Fictional_Cities_List/img_manmade_03.png,,53,,,5,,,,,,,,,,,,,,,
null,,confidence_buffer,1162510,confidence_buffer,,null,,,,,,,,,,,,,,,,,,
2138.899999976158,,recognition_phase,1164649,Fictional_Cities_List/img_manmade_03.png,,52,,,,,,new,1,1,,,,,,,,,,
null,,confidence_buffer,1164751,confidence_buffer,,null,,,,,,,,,,,,,,,,,,
null,,thebreak,1165252,break,,null,,,,,,,,,,,,,,,,,,
9612.699999988079,,pt2_realistic_rating,1174866,US_Cities_List/mm_boulder.png,,50,US_Cities_List/mm_boulder.png,MM,2,,,,,,,,,,,,,,,
null,,confidence_buffer,1174968,confidence_buffer,,null,,,,,,,,,,,,,,,,,,
5121,,pt2_unique_rating,1180089,US_Cities_List/mm_boulder.png,,50,,,2,,,,,,,,,,,,,,,
null,,confidence_buffer,1180192,confidence_buffer,,null,,,,,,,,,,,,,,,,,,
9313,,pt2_memorable_rating,1189506,US_Cities_List/mm_boulder.png,,51,,,3,,,,,,,,,,,,,,,
null,,confidence_buffer,1189607,confidence_buffer,,null,,,,,,,,,,,,,,,,,,
1074.0999999940395,,recognition_phase,1190682,US_Cities_List/mm_boulder.png,,49,,,,,,old,1,1,,,,,,,,,,
null,,confidence_buffer,1190782,confidence_buffer,,null,,,,,,,,,,,,,,,,,,
null,,thebreak,1191283,break,,null,,,,,,,,,,,,,,,,,,
14326.40000000596,,pt2_realistic_rating,1205610,US_Cities_List/nat_bisbee.png,,50,US_Cities_List/nat_bisbee.png,NAT,2,,,,,,,,,,,,,,,
null,,confidence_buffer,1205711,confidence_buffer,,null,,,,,,,,,,,,,,,,,,
3082.2999999821186,,probe_rating,1208794,probe_rating,,53,,,,5,1,,,,,,,,,,,,,
null,,confidence_buffer,1208895,confidence_buffer,,null,,,,,,,,,,,,,,,,,,
2306.899999976158,,pt2_unique_rating,1211202,US_Cities_List/nat_bisbee.png,,49,,,1,,,,,,,,,,,,,,,
null,,confidence_buffer,1211303,confidence_buffer,,null,,,,,,,,,,,,,,,,,,
2411,,pt2_memorable_rating,1213714,US_Cities_List/nat_bisbee.png,,49,,,1,,,,,,,,,,,,,,,
null,,confidence_buffer,1213815,confidence_buffer,,null,,,,,,,,,,,,,,,,,,
3491.0999999940395,,recognition_phase,1217306,US_Cities_List/nat_bisbee.png,,51,,,,,,new,1,1,,,,,,,,,,
null,,confidence_buffer,1217407,confidence_buffer,,null,,,,,,,,,,,,,,,,,,
null,,thebreak,1217909,break,,null,,,,,,,,,,,,,,,,,,
11901.600000023842,,pt2_realistic_rating,1229811,US_Cities_List/nat_delawarecity.png,,50,US_Cities_List/nat_delawarecity.png,NAT,2,,,,,,,,,,,,,,,
null,,confidence_buffer,1229913,confidence_buffer,,null,,,,,,,,,,,,,,,,,,
2913.600000023842,,pt2_unique_rating,1232827,US_Cities_List/nat_delawarecity.png,,49,,,1,,,,,,,,,,,,,,,
null,,confidence_buffer,1232927,confidence_buffer,,null,,,,,,,,,,,,,,,,,,
2507.100000023842,,probe_rating,1235435,probe_rating,,49,,,,1,1,,,,,,,,,,,,,
null,,confidence_buffer,1235535,confidence_buffer,,null,,,,,,,,,,,,,,,,,,
2010.7000000178814,,pt2_memorable_rating,1237547,US_Cities_List/nat_delawarecity.png,,49,,,1,,,,,,,,,,,,,,,
null,,confidence_buffer,1237647,confidence_buffer,,null,,,,,,,,,,,,,,,,,,
2018.9000000059605,,recognition_phase,1239667,US_Cities_List/nat_delawarecity.png,,52,,,,,,new,1,1,,,,,,,,,,
null,,confidence_buffer,1239768,confidence_buffer,,null,,,,,,,,,,,,,,,,,,
null,,thebreak,1240269,break,,null,,,,,,,,,,,,,,,,,,
8389.199999988079,,pt2_realistic_rating,1248659,US_Cities_List/nat_carmel.png,,52,US_Cities_List/nat_carmel.png,NAT,4,,,,,,,,,,,,,,,
null,,confidence_buffer,1248760,confidence_buffer,,null,,,,,,,,,,,,,,,,,,
5882.699999988079,,pt2_unique_rating,1254643,US_Cities_List/nat_carmel.png,,50,,,2,,,,,,,,,,,,,,,
null,,confidence_buffer,1254743,confidence_buffer,,null,,,,,,,,,,,,,,,,,,
4235.4000000059605,,pt2_memorable_rating,1258979,US_Cities_List/nat_carmel.png,,50,,,2,,,,,,,,,,,,,,,
null,,confidence_buffer,1259080,confidence_buffer,,null,,,,,,,,,,,,,,,,,,
1218.6000000238419,,recognition_phase,1260299,US_Cities_List/nat_carmel.png,,49,,,,,,old,1,1,,,,,,,,,,
null,,confidence_buffer,1260400,confidence_buffer,,null,,,,,,,,,,,,,,,,,,
null,,thebreak,1260902,break,,null,,,,,,,,,,,,,,,,,,
7492.9000000059605,,pt2_realistic_rating,1268395,Fictional_Cities_List/img_manmade_48.png,,52,Fictional_Cities_List/img_manmade_48.png,MM,4,,,,,,,,,,,,,,,
null,,confidence_buffer,1268496,confidence_buffer,,null,,,,,,,,,,,,,,,,,,
4058.9000000059605,,pt2_unique_rating,1272556,Fictional_Cities_List/img_manmade_48.png,,51,,,3,,,,,,,,,,,,,,,
null,,confidence_buffer,1272656,confidence_buffer,,null,,,,,,,,,,,,,,,,,,
2370.7999999821186,,pt2_memorable_rating,1275028,Fictional_Cities_List/img_manmade_48.png,,51,,,3,,,,,,,,,,,,,,,
null,,confidence_buffer,1275128,confidence_buffer,,null,,,,,,,,,,,,,,,,,,
1330.699999988079,,recognition_phase,1276460,Fictional_Cities_List/img_manmade_48.png,,49,,,,,,old,1,1,,,,,,,,,,
null,,confidence_buffer,1276561,confidence_buffer,,null,,,,,,,,,,,,,,,,,,
null,,thebreak,1277068,break,,null,,,,,,,,,,,,,,,,,,
5679.5,,pt2_realistic_rating,1282748,US_Cities_List/mm_peoria.png,,53,US_Cities_List/mm_peoria.png,MM,5,,,,,,,,,,,,,,,
null,,confidence_buffer,1282849,confidence_buffer,,null,,,,,,,,,,,,,,,,,,
5090.800000011921,,pt2_unique_rating,1287940,US_Cities_List/mm_peoria.png,,52,,,4,,,,,,,,,,,,,,,
null,,confidence_buffer,1288041,confidence_buffer,,null,,,,,,,,,,,,,,,,,,
3787,,pt2_memorable_rating,1291828,US_Cities_List/mm_peoria.png,,52,,,4,,,,,,,,,,,,,,,
null,,confidence_buffer,1291929,confidence_buffer,,null,,,,,,,,,,,,,,,,,,
1106.3999999761581,,recognition_phase,1293036,US_Cities_List/mm_peoria.png,,49,,,,,,old,1,1,,,,,,,,,,
null,,confidence_buffer,1293137,confidence_buffer,,null,,,,,,,,,,,,,,,,,,
null,,thebreak,1293638,break,,null,,,,,,,,,,,,,,,,,,
10301.5,,pt2_realistic_rating,1303940,US_Cities_List/mm_westpalmbeach.png,,51,US_Cities_List/mm_westpalmbeach.png,MM,3,,,,,,,,,,,,,,,
null,,confidence_buffer,1304041,confidence_buffer,,null,,,,,,,,,,,,,,,,,,
5586.4000000059605,,pt2_unique_rating,1309628,US_Cities_List/mm_westpalmbeach.png,,50,,,2,,,,,,,,,,,,,,,
null,,confidence_buffer,1309729,confidence_buffer,,null,,,,,,,,,,,,,,,,,,
4139.0999999940395,,pt2_memorable_rating,1313868,US_Cities_List/mm_westpalmbeach.png,,50,,,2,,,,,,,,,,,,,,,
null,,confidence_buffer,1313969,confidence_buffer,,null,,,,,,,,,,,,,,,,,,
1602.7999999821186,,recognition_phase,1315573,US_Cities_List/mm_westpalmbeach.png,,52,,,,,,new,1,1,,,,,,,,,,
null,,confidence_buffer,1315673,confidence_buffer,,null,,,,,,,,,,,,,,,,,,
null,,thebreak,1316175,break,,null,,,,,,,,,,,,,,,,,,
12261.300000011921,,pt2_realistic_rating,1328437,Fictional_Cities_List/img_natural_38.png,,53,Fictional_Cities_List/img_natural_38.png,NAT,5,,,,,,,,,,,,,,,
null,,confidence_buffer,1328538,confidence_buffer,,null,,,,,,,,,,,,,,,,,,
2442.2000000178814,,probe_rating,1330981,probe_rating,,50,,,,2,1,,,,,,,,,,,,,
null,,confidence_buffer,1331082,confidence_buffer,,null,,,,,,,,,,,,,,,,,,
2330.4000000059605,,pt2_unique_rating,1333413,Fictional_Cities_List/img_natural_38.png,,49,,,1,,,,,,,,,,,,,,,
null,,confidence_buffer,1333514,confidence_buffer,,null,,,,,,,,,,,,,,,,,,
2802.7000000178814,,pt2_memorable_rating,1336317,Fictional_Cities_List/img_natural_38.png,,49,,,1,,,,,,,,,,,,,,,
null,,confidence_buffer,1336418,confidence_buffer,,null,,,,,,,,,,,,,,,,,,
1354.699999988079,,recognition_phase,1337773,Fictional_Cities_List/img_natural_38.png,,49,,,,,,old,0,0.9666666666666667,,,,,,,,,,
null,,confidence_buffer,1337873,confidence_buffer,,null,,,,,,,,,,,,,,,,,,
null,,thebreak,1338375,break,,null,,,,,,,,,,,,,,,,,,
5542.4000000059605,,pt2_realistic_rating,1343917,US_Cities_List/mm_athens.png,,53,US_Cities_List/mm_athens.png,MM,5,,,,,,,,,,,,,,,
null,,confidence_buffer,1344019,confidence_buffer,,null,,,,,,,,,,,,,,,,,,
2610.199999988079,,pt2_unique_rating,1346629,US_Cities_List/mm_athens.png,,49,,,1,,,,,,,,,,,,,,,
null,,confidence_buffer,1346730,confidence_buffer,,null,,,,,,,,,,,,,,,,,,
1458.199999988079,,pt2_memorable_rating,1348189,US_Cities_List/mm_athens.png,,49,,,1,,,,,,,,,,,,,,,
null,,confidence_buffer,1348290,confidence_buffer,,null,,,,,,,,,,,,,,,,,,
1450.5,,recognition_phase,1349741,US_Cities_List/mm_athens.png,,49,,,,,,old,1,0.967741935483871,,,,,,,,,,
null,,confidence_buffer,1349842,confidence_buffer,,null,,,,,,,,,,,,,,,,,,
null,,thebreak,1350343,break,,null,,,,,,,,,,,,,,,,,,
15694,,pt2_realistic_rating,1366038,Fictional_Cities_List/img_natural_05.png,,49,Fictional_Cities_List/img_natural_05.png,NAT,1,,,,,,,,,,,,,,,
null,,confidence_buffer,1366138,confidence_buffer,,null,,,,,,,,,,,,,,,,,,
5075,,pt2_unique_rating,1371214,Fictional_Cities_List/img_natural_05.png,,52,,,4,,,,,,,,,,,,,,,
null,,confidence_buffer,1371316,confidence_buffer,,null,,,,,,,,,,,,,,,,,,
5537.5999999940395,,pt2_memorable_rating,1376854,Fictional_Cities_List/img_natural_05.png,,53,,,5,,,,,,,,,,,,,,,
null,,confidence_buffer,1376955,confidence_buffer,,null,,,,,,,,,,,,,,,,,,
3114.5,,recognition_phase,1380070,Fictional_Cities_List/img_natural_05.png,,51,,,,,,new,1,0.96875,,,,,,,,,,
null,,confidence_buffer,1380171,confidence_buffer,,null,,,,,,,,,,,,,,,,,,
null,,thebreak,1380672,break,,null,,,,,,,,,,,,,,,,,,
5981.800000011921,,pt2_realistic_rating,1386654,Fictional_Cities_List/img_natural_39.png,,53,Fictional_Cities_List/img_natural_39.png,NAT,5,,,,,,,,,,,,,,,
null,,confidence_buffer,1386757,confidence_buffer,,null,,,,,,,,,,,,,,,,,,
3697.199999988079,,pt2_unique_rating,1390454,Fictional_Cities_List/img_natural_39.png,,49,,,1,,,,,,,,,,,,,,,
null,,confidence_buffer,1390555,confidence_buffer,,null,,,,,,,,,,,,,,,,,,
1266.4000000059605,,pt2_memorable_rating,1391822,Fictional_Cities_List/img_natural_39.png,,49,,,1,,,,,,,,,,,,,,,
null,,confidence_buffer,1391924,confidence_buffer,,null,,,,,,,,,,,,,,,,,,
1329.5999999940395,,recognition_phase,1393254,Fictional_Cities_List/img_natural_39.png,,49,,,,,,old,1,0.9696969696969697,,,,,,,,,,
null,,confidence_buffer,1393355,confidence_buffer,,null,,,,,,,,,,,,,,,,,,
null,,thebreak,1393857,break,,null,,,,,,,,,,,,,,,,,,
7693,,pt2_realistic_rating,1401551,US_Cities_List/mm_hotsprings.png,,53,US_Cities_List/mm_hotsprings.png,MM,5,,,,,,,,,,,,,,,
null,,confidence_buffer,1401651,confidence_buffer,,null,,,,,,,,,,,,,,,,,,
3099,,probe_rating,1404750,probe_rating,,53,,,,5,1,,,,,,,,,,,,,
null,,confidence_buffer,1404852,confidence_buffer,,null,,,,,,,,,,,,,,,,,,
2881.5999999940395,,pt2_unique_rating,1407735,US_Cities_List/mm_hotsprings.png,,49,,,1,,,,,,,,,,,,,,,
null,,confidence_buffer,1407836,confidence_buffer,,null,,,,,,,,,,,,,,,,,,
2194.699999988079,,pt2_memorable_rating,1410031,US_Cities_List/mm_hotsprings.png,,50,,,2,,,,,,,,,,,,,,,
null,,confidence_buffer,1410131,confidence_buffer,,null,,,,,,,,,,,,,,,,,,
2219.4000000059605,,recognition_phase,1412351,US_Cities_List/mm_hotsprings.png,,52,,,,,,new,1,0.9705882352941176,,,,,,,,,,
null,,confidence_buffer,1412453,confidence_buffer,,null,,,,,,,,,,,,,,,,,,
null,,thebreak,1412954,break,,null,,,,,,,,,,,,,,,,,,
7220.299999982119,,pt2_realistic_rating,1420175,Fictional_Cities_List/img_manmade_02.png,,53,Fictional_Cities_List/img_manmade_02.png,MM,5,,,,,,,,,,,,,,,
null,,confidence_buffer,1420275,confidence_buffer,,null,,,,,,,,,,,,,,,,,,
3747.2000000178814,,pt2_unique_rating,1424023,Fictional_Cities_List/img_manmade_02.png,,49,,,1,,,,,,,,,,,,,,,
null,,confidence_buffer,1424124,confidence_buffer,,null,,,,,,,,,,,,,,,,,,
1138.2000000178814,,pt2_memorable_rating,1425263,Fictional_Cities_List/img_manmade_02.png,,49,,,1,,,,,,,,,,,,,,,
null,,confidence_buffer,1425364,confidence_buffer,,null,,,,,,,,,,,,,,,,,,
1370.5999999940395,,recognition_phase,1426735,Fictional_Cities_List/img_manmade_02.png,,49,,,,,,old,1,0.9714285714285714,,,,,,,,,,
null,,confidence_buffer,1426836,confidence_buffer,,null,,,,,,,,,,,,,,,,,,
null,,thebreak,1427337,break,,null,,,,,,,,,,,,,,,,,,
10238.200000017881,,pt2_realistic_rating,1437576,Fictional_Cities_List/img_manmade_39.png,,52,Fictional_Cities_List/img_manmade_39.png,MM,4,,,,,,,,,,,,,,,
null,,confidence_buffer,1437677,confidence_buffer,,null,,,,,,,,,,,,,,,,,,
1737.8999999761581,,pt2_unique_rating,1439415,Fictional_Cities_List/img_manmade_39.png,,49,,,1,,,,,,,,,,,,,,,
null,,confidence_buffer,1439516,confidence_buffer,,null,,,,,,,,,,,,,,,,,,
1794.5999999940395,,pt2_memorable_rating,1441311,Fictional_Cities_List/img_manmade_39.png,,49,,,1,,,,,,,,,,,,,,,
null,,confidence_buffer,1441412,confidence_buffer,,null,,,,,,,,,,,,,,,,,,
1874.5,,recognition_phase,1443287,Fictional_Cities_List/img_manmade_39.png,,52,,,,,,new,1,0.9722222222222222,,,,,,,,,,
null,,confidence_buffer,1443389,confidence_buffer,,null,,,,,,,,,,,,,,,,,,
null,,thebreak,1443889,break,,null,,,,,,,,,,,,,,,,,,
4533.5999999940395,,pt2_realistic_rating,1448423,Fictional_Cities_List/img_natural_15.png,,49,Fictional_Cities_List/img_natural_15.png,NAT,1,,,,,,,,,,,,,,,
null,,confidence_buffer,1448524,confidence_buffer,,null,,,,,,,,,,,,,,,,,,
3531.199999988079,,pt2_unique_rating,1452055,Fictional_Cities_List/img_natural_15.png,,52,,,4,,,,,,,,,,,,,,,
null,,confidence_buffer,1452158,confidence_buffer,,null,,,,,,,,,,,,,,,,,,
2793.199999988079,,pt2_memorable_rating,1454952,Fictional_Cities_List/img_natural_15.png,,52,,,4,,,,,,,,,,,,,,,
null,,confidence_buffer,1455052,confidence_buffer,,null,,,,,,,,,,,,,,,,,,
1315.199999988079,,recognition_phase,1456368,Fictional_Cities_List/img_natural_15.png,,49,,,,,,old,1,0.972972972972973,,,,,,,,,,
null,,confidence_buffer,1456470,confidence_buffer,,null,,,,,,,,,,,,,,,,,,
null,,thebreak,1456971,break,,null,,,,,,,,,,,,,,,,,,
7948.4000000059605,,pt2_realistic_rating,1464920,Fictional_Cities_List/img_manmade_43.png,,52,Fictional_Cities_List/img_manmade_43.png,MM,4,,,,,,,,,,,,,,,
null,,confidence_buffer,1465020,confidence_buffer,,null,,,,,,,,,,,,,,,,,,
2995.2000000178814,,pt2_unique_rating,1468016,Fictional_Cities_List/img_manmade_43.png,,50,,,2,,,,,,,,,,,,,,,
null,,confidence_buffer,1468117,confidence_buffer,,null,,,,,,,,,,,,,,,,,,
2658.5,,probe_rating,1470776,probe_rating,,51,,,,3,1,,,,,,,,,,,,,
null,,confidence_buffer,1470877,confidence_buffer,,null,,,,,,,,,,,,,,,,,,
1778.2000000178814,,pt2_memorable_rating,1472656,Fictional_Cities_List/img_manmade_43.png,,50,,,2,,,,,,,,,,,,,,,
null,,confidence_buffer,1472756,confidence_buffer,,null,,,,,,,,,,,,,,,,,,
1283.0999999940395,,recognition_phase,1474040,Fictional_Cities_List/img_manmade_43.png,,49,,,,,,old,1,0.9736842105263158,,,,,,,,,,
null,,confidence_buffer,1474141,confidence_buffer,,null,,,,,,,,,,,,,,,,,,
null,,thebreak,1474642,break,,null,,,,,,,,,,,,,,,,,,
9309.699999988079,,pt2_realistic_rating,1483952,US_Cities_List/mm_hilo.png,,52,US_Cities_List/mm_hilo.png,MM,4,,,,,,,,,,,,,,,
null,,confidence_buffer,1484053,confidence_buffer,,null,,,,,,,,,,,,,,,,,,
2539.300000011921,,probe_rating,1486592,probe_rating,,52,,,,4,1,,,,,,,,,,,,,
null,,confidence_buffer,1486693,confidence_buffer,,null,,,,,,,,,,,,,,,,,,
1682.4000000059605,,pt2_unique_rating,1488376,US_Cities_List/mm_hilo.png,,49,,,1,,,,,,,,,,,,,,,
null,,confidence_buffer,1488477,confidence_buffer,,null,,,,,,,,,,,,,,,,,,
3226.9000000059605,,pt2_memorable_rating,1491704,US_Cities_List/mm_hilo.png,,50,,,2,,,,,,,,,,,,,,,
null,,confidence_buffer,1491806,confidence_buffer,,null,,,,,,,,,,,,,,,,,,
913.2999999821186,,recognition_phase,1492720,US_Cities_List/mm_hilo.png,,49,,,,,,old,1,0.9743589743589743,,,,,,,,,,
null,,confidence_buffer,1492821,confidence_buffer,,null,,,,,,,,,,,,,,,,,,
null,,thebreak,1493322,break,,null,,,,,,,,,,,,,,,,,,
5285.9000000059605,,pt2_realistic_rating,1498609,US_Cities_List/nat_sitka.png,,53,US_Cities_List/nat_sitka.png,NAT,5,,,,,,,,,,,,,,,
null,,confidence_buffer,1498711,confidence_buffer,,null,,,,,,,,,,,,,,,,,,
1401.800000011921,,pt2_unique_rating,1500113,US_Cities_List/nat_sitka.png,,49,,,1,,,,,,,,,,,,,,,
null,,confidence_buffer,1500215,confidence_buffer,,null,,,,,,,,,,,,,,,,,,
1889.5999999940395,,pt2_memorable_rating,1502105,US_Cities_List/nat_sitka.png,,49,,,1,,,,,,,,,,,,,,,
null,,confidence_buffer,1502206,confidence_buffer,,null,,,,,,,,,,,,,,,,,,
1530.4000000059605,,recognition_phase,1503736,US_Cities_List/nat_sitka.png,,49,,,,,,old,1,0.975,,,,,,,,,,
null,,confidence_buffer,1503838,confidence_buffer,,null,,,,,,,,,,,,,,,,,,
null,,thebreak,1504339,break,,null,,,,,,,,,,,,,,,,,,
9157.700000017881,,pt2_realistic_rating,1513497,Fictional_Cities_List/img_manmade_01.png,,50,Fictional_Cities_List/img_manmade_01.png,MM,2,,,,,,,,,,,,,,,
null,,confidence_buffer,1513597,confidence_buffer,,null,,,,,,,,,,,,,,,,,,
2171,,probe_rating,1515769,probe_rating,,51,,,,3,1,,,,,,,,,,,,,
null,,confidence_buffer,1515869,confidence_buffer,,null,,,,,,,,,,,,,,,,,,
9027.40000000596,,pt2_unique_rating,1524897,Fictional_Cities_List/img_manmade_01.png,,49,,,1,,,,,,,,,,,,,,,
null,,confidence_buffer,1524998,confidence_buffer,,null,,,,,,,,,,,,,,,,,,
2179,,pt2_memorable_rating,1527177,Fictional_Cities_List/img_manmade_01.png,,50,,,2,,,,,,,,,,,,,,,
null,,confidence_buffer,1527278,confidence_buffer,,null,,,,,,,,,,,,,,,,,,
1386.7999999821186,,recognition_phase,1528665,Fictional_Cities_List/img_manmade_01.png,,52,,,,,,new,1,0.975609756097561,,,,,,,,,,
null,,confidence_buffer,1528766,confidence_buffer,,null,,,,,,,,,,,,,,,,,,
null,,thebreak,1529268,break,,null,,,,,,,,,,,,,,,,,,
10421.199999988079,,pt2_realistic_rating,1539690,US_Cities_List/mm_carmel.png,,52,US_Cities_List/mm_carmel.png,MM,4,,,,,,,,,,,,,,,
null,,confidence_buffer,1539790,confidence_buffer,,null,,,,,,,,,,,,,,,,,,
3850.800000011921,,pt2_unique_rating,1543642,US_Cities_List/mm_carmel.png,,51,,,3,,,,,,,,,,,,,,,
null,,confidence_buffer,1543743,confidence_buffer,,null,,,,,,,,,,,,,,,,,,
2442.5,,pt2_memorable_rating,1546186,US_Cities_List/mm_carmel.png,,51,,,3,,,,,,,,,,,,,,,
null,,confidence_buffer,1546286,confidence_buffer,,null,,,,,,,,,,,,,,,,,,
1018.8000000119209,,recognition_phase,1547306,US_Cities_List/mm_carmel.png,,49,,,,,,old,1,0.9761904761904762,,,,,,,,,,
null,,confidence_buffer,1547406,confidence_buffer,,null,,,,,,,,,,,,,,,,,,
null,,thebreak,1547907,break,,null,,,,,,,,,,,,,,,,,,
5814.4000000059605,,pt2_realistic_rating,1553722,Fictional_Cities_List/img_manmade_05.png,,53,Fictional_Cities_List/img_manmade_05.png,MM,5,,,,,,,,,,,,,,,
null,,confidence_buffer,1553823,confidence_buffer,,null,,,,,,,,,,,,,,,,,,
2514.800000011921,,pt2_unique_rating,1556338,Fictional_Cities_List/img_manmade_05.png,,53,,,5,,,,,,,,,,,,,,,
null,,confidence_buffer,1556439,confidence_buffer,,null,,,,,,,,,,,,,,,,,,
2722.899999976158,,pt2_memorable_rating,1559162,Fictional_Cities_List/img_manmade_05.png,,53,,,5,,,,,,,,,,,,,,,
null,,confidence_buffer,1559263,confidence_buffer,,null,,,,,,,,,,,,,,,,,,
1578.699999988079,,recognition_phase,1560842,Fictional_Cities_List/img_manmade_05.png,,49,,,,,,old,1,0.9767441860465116,,,,,,,,,,
null,,confidence_buffer,1560943,confidence_buffer,,null,,,,,,,,,,,,,,,,,,
null,,thebreak,1561444,break,,null,,,,,,,,,,,,,,,,,,
9637.799999982119,,pt2_realistic_rating,1571082,US_Cities_List/nat_cornwall.png,,52,US_Cities_List/nat_cornwall.png,NAT,4,,,,,,,,,,,,,,,
null,,confidence_buffer,1571194,confidence_buffer,,null,,,,,,,,,,,,,,,,,,
1632.1000000238419,,pt2_unique_rating,1572827,US_Cities_List/nat_cornwall.png,,49,,,1,,,,,,,,,,,,,,,
null,,confidence_buffer,1572928,confidence_buffer,,null,,,,,,,,,,,,,,,,,,
1281.4000000059605,,pt2_memorable_rating,1574210,US_Cities_List/nat_cornwall.png,,49,,,1,,,,,,,,,,,,,,,
null,,confidence_buffer,1574311,confidence_buffer,,null,,,,,,,,,,,,,,,,,,
1155,,recognition_phase,1575466,US_Cities_List/nat_cornwall.png,,49,,,,,,old,1,0.9772727272727273,,,,,,,,,,
null,,confidence_buffer,1575568,confidence_buffer,,null,,,,,,,,,,,,,,,,,,
null,,thebreak,1576069,break,,null,,,,,,,,,,,,,,,,,,
5093.800000011921,,pt2_realistic_rating,1581163,US_Cities_List/mm_cornwall.png,,53,US_Cities_List/mm_cornwall.png,MM,5,,,,,,,,,,,,,,,
null,,confidence_buffer,1581266,confidence_buffer,,null,,,,,,,,,,,,,,,,,,
5744.5,,pt2_unique_rating,1587010,US_Cities_List/mm_cornwall.png,,49,,,1,,,,,,,,,,,,,,,
null,,confidence_buffer,1587111,confidence_buffer,,null,,,,,,,,,,,,,,,,,,
1674.800000011921,,pt2_memorable_rating,1588786,US_Cities_List/mm_cornwall.png,,50,,,2,,,,,,,,,,,,,,,
null,,confidence_buffer,1588888,confidence_buffer,,null,,,,,,,,,,,,,,,,,,
1210.4000000059605,,recognition_phase,1590099,US_Cities_List/mm_cornwall.png,,49,,,,,,old,1,0.9777777777777777,,,,,,,,,,
null,,confidence_buffer,1590200,confidence_buffer,,null,,,,,,,,,,,,,,,,,,
null,,thebreak,1590701,break,,null,,,,,,,,,,,,,,,,,,
6741.799999982119,,pt2_realistic_rating,1597443,US_Cities_List/mm_coeurdalene.png,,53,US_Cities_List/mm_coeurdalene.png,MM,5,,,,,,,,,,,,,,,
null,,confidence_buffer,1597545,confidence_buffer,,null,,,,,,,,,,,,,,,,,,
2289.2999999821186,,pt2_unique_rating,1599835,US_Cities_List/mm_coeurdalene.png,,49,,,1,,,,,,,,,,,,,,,
null,,confidence_buffer,1599936,confidence_buffer,,null,,,,,,,,,,,,,,,,,,
2091,,pt2_memorable_rating,1602027,US_Cities_List/mm_coeurdalene.png,,49,,,1,,,,,,,,,,,,,,,
null,,confidence_buffer,1602128,confidence_buffer,,null,,,,,,,,,,,,,,,,,,
2106.199999988079,,recognition_phase,1604235,US_Cities_List/mm_coeurdalene.png,,52,,,,,,new,1,0.9782608695652174,,,,,,,,,,
null,,confidence_buffer,1604335,confidence_buffer,,null,,,,,,,,,,,,,,,,,,
null,,thebreak,1604837,break,,null,,,,,,,,,,,,,,,,,,
9525.90000000596,,pt2_realistic_rating,1614363,US_Cities_List/nat_healdsburg.png,,52,US_Cities_List/nat_healdsburg.png,NAT,4,,,,,,,,,,,,,,,
null,,confidence_buffer,1614464,confidence_buffer,,null,,,,,,,,,,,,,,,,,,
3162.4000000059605,,pt2_unique_rating,1617627,US_Cities_List/nat_healdsburg.png,,49,,,1,,,,,,,,,,,,,,,
null,,confidence_buffer,1617728,confidence_buffer,,null,,,,,,,,,,,,,,,,,,
1178.7999999821186,,pt2_memorable_rating,1618907,US_Cities_List/nat_healdsburg.png,,49,,,1,,,,,,,,,,,,,,,
null,,confidence_buffer,1619008,confidence_buffer,,null,,,,,,,,,,,,,,,,,,
1891.2999999821186,,recognition_phase,1620900,US_Cities_List/nat_healdsburg.png,,51,,,,,,new,1,0.9787234042553191,,,,,,,,,,
null,,confidence_buffer,1621002,confidence_buffer,,null,,,,,,,,,,,,,,,,,,
null,,thebreak,1621503,break,,null,,,,,,,,,,,,,,,,,,
13644.199999988079,,pt2_realistic_rating,1635148,US_Cities_List/nat_westpalmbeach.png,,52,US_Cities_List/nat_westpalmbeach.png,NAT,4,,,,,,,,,,,,,,,
null,,confidence_buffer,1635249,confidence_buffer,,null,,,,,,,,,,,,,,,,,,
3802.5,,pt2_unique_rating,1639052,US_Cities_List/nat_westpalmbeach.png,,50,,,2,,,,,,,,,,,,,,,
null,,confidence_buffer,1639153,confidence_buffer,,null,,,,,,,,,,,,,,,,,,
3130.5999999940395,,pt2_memorable_rating,1642284,US_Cities_List/nat_westpalmbeach.png,,52,,,4,,,,,,,,,,,,,,,
null,,confidence_buffer,1642385,confidence_buffer,,null,,,,,,,,,,,,,,,,,,
2130.2999999821186,,recognition_phase,1644516,US_Cities_List/nat_westpalmbeach.png,,52,,,,,,new,1,0.9791666666666666,,,,,,,,,,
null,,confidence_buffer,1644616,confidence_buffer,,null,,,,,,,,,,,,,,,,,,
null,,thebreak,1645117,break,,null,,,,,,,,,,,,,,,,,,
7958.200000017881,,pt2_realistic_rating,1653076,US_Cities_List/mm_delawarecity.png,,53,US_Cities_List/mm_delawarecity.png,MM,5,,,,,,,,,,,,,,,
null,,confidence_buffer,1653177,confidence_buffer,,null,,,,,,,,,,,,,,,,,,
2858.5999999940395,,pt2_unique_rating,1656036,US_Cities_List/mm_delawarecity.png,,49,,,1,,,,,,,,,,,,,,,
null,,confidence_buffer,1656137,confidence_buffer,,null,,,,,,,,,,,,,,,,,,
2347.0999999940395,,pt2_memorable_rating,1658484,US_Cities_List/mm_delawarecity.png,,50,,,2,,,,,,,,,,,,,,,
null,,confidence_buffer,1658585,confidence_buffer,,null,,,,,,,,,,,,,,,,,,
1970.6000000238419,,recognition_phase,1660556,US_Cities_List/mm_delawarecity.png,,52,,,,,,new,1,0.9795918367346939,,,,,,,,,,
null,,confidence_buffer,1660657,confidence_buffer,,null,,,,,,,,,,,,,,,,,,
null,,thebreak,1661158,break,,null,,,,,,,,,,,,,,,,,,
9862,,pt2_realistic_rating,1671021,Fictional_Cities_List/img_manmade_49.png,,53,Fictional_Cities_List/img_manmade_49.png,MM,5,,,,,,,,,,,,,,,
null,,confidence_buffer,1671121,confidence_buffer,,null,,,,,,,,,,,,,,,,,,
5867,,pt2_unique_rating,1676989,Fictional_Cities_List/img_manmade_49.png,,49,,,1,,,,,,,,,,,,,,,
null,,confidence_buffer,1677090,confidence_buffer,,null,,,,,,,,,,,,,,,,,,
1818,,pt2_memorable_rating,1678908,Fictional_Cities_List/img_manmade_49.png,,50,,,2,,,,,,,,,,,,,,,
null,,confidence_buffer,1679010,confidence_buffer,,null,,,,,,,,,,,,,,,,,,
1746.5999999940395,,recognition_phase,1680757,Fictional_Cities_List/img_manmade_49.png,,52,,,,,,new,1,0.98,,,,,,,,,,
null,,confidence_buffer,1680857,confidence_buffer,,null,,,,,,,,,,,,,,,,,,
null,,thebreak,1681359,break,,null,,,,,,,,,,,,,,,,,,
10309.899999976158,,pt2_realistic_rating,1691669,Fictional_Cities_List/img_natural_50.png,,50,Fictional_Cities_List/img_natural_50.png,NAT,2,,,,,,,,,,,,,,,
null,,confidence_buffer,1691770,confidence_buffer,,null,,,,,,,,,,,,,,,,,,
2858.199999988079,,pt2_unique_rating,1694629,Fictional_Cities_List/img_natural_50.png,,50,,,2,,,,,,,,,,,,,,,
null,,confidence_buffer,1694729,confidence_buffer,,null,,,,,,,,,,,,,,,,,,
2363.4000000059605,,pt2_memorable_rating,1697093,Fictional_Cities_List/img_natural_50.png,,49,,,1,,,,,,,,,,,,,,,
null,,confidence_buffer,1697194,confidence_buffer,,null,,,,,,,,,,,,,,,,,,
1426.300000011921,,recognition_phase,1698621,Fictional_Cities_List/img_natural_50.png,,50,,,,,,old,0,0.9607843137254902,,,,,,,,,,
null,,confidence_buffer,1698722,confidence_buffer,,null,,,,,,,,,,,,,,,,,,
null,,thebreak,1699223,break,,null,,,,,,,,,,,,,,,,,,
7861.799999982119,,pt2_realistic_rating,1707085,Fictional_Cities_List/img_natural_02.png,,50,Fictional_Cities_List/img_natural_02.png,NAT,2,,,,,,,,,,,,,,,
null,,confidence_buffer,1707187,confidence_buffer,,null,,,,,,,,,,,,,,,,,,
3786.0999999940395,,pt2_unique_rating,1710973,Fictional_Cities_List/img_natural_02.png,,50,,,2,,,,,,,,,,,,,,,
null,,confidence_buffer,1711074,confidence_buffer,,null,,,,,,,,,,,,,,,,,,
2819.0999999940395,,pt2_memorable_rating,1713893,Fictional_Cities_List/img_natural_02.png,,50,,,2,,,,,,,,,,,,,,,
null,,confidence_buffer,1713995,confidence_buffer,,null,,,,,,,,,,,,,,,,,,
3314.300000011921,,recognition_phase,1717309,Fictional_Cities_List/img_natural_02.png,,52,,,,,,new,1,0.9615384615384616,,,,,,,,,,
null,,confidence_buffer,1717410,confidence_buffer,,null,,,,,,,,,,,,,,,,,,
null,,thebreak,1717912,break,,null,,,,,,,,,,,,,,,,,,
8068.9000000059605,,pt2_realistic_rating,1725982,Fictional_Cities_List/img_natural_03.png,,50,Fictional_Cities_List/img_natural_03.png,NAT,2,,,,,,,,,,,,,,,
null,,confidence_buffer,1726083,confidence_buffer,,null,,,,,,,,,,,,,,,,,,
2962.5,,probe_rating,1729046,probe_rating,,50,,,,2,1,,,,,,,,,,,,,
null,,confidence_buffer,1729146,confidence_buffer,,null,,,,,,,,,,,,,,,,,,
4203,,pt2_unique_rating,1733350,Fictional_Cities_List/img_natural_03.png,,51,,,3,,,,,,,,,,,,,,,
null,,confidence_buffer,1733451,confidence_buffer,,null,,,,,,,,,,,,,,,,,,
1922.5999999940395,,pt2_memorable_rating,1735374,Fictional_Cities_List/img_natural_03.png,,51,,,3,,,,,,,,,,,,,,,
null,,confidence_buffer,1735475,confidence_buffer,,null,,,,,,,,,,,,,,,,,,
1138.5999999940395,,recognition_phase,1736614,Fictional_Cities_List/img_natural_03.png,,49,,,,,,old,1,0.9622641509433962,,,,,,,,,,
null,,confidence_buffer,1736716,confidence_buffer,,null,,,,,,,,,,,,,,,,,,
null,,thebreak,1737231,break,,null,,,,,,,,,,,,,,,,,,
5151,,pt2_realistic_rating,1742382,Fictional_Cities_List/img_natural_01.png,,53,Fictional_Cities_List/img_natural_01.png,NAT,5,,,,,,,,,,,,,,,
null,,confidence_buffer,1742483,confidence_buffer,,null,,,,,,,,,,,,,,,,,,
1594.9000000059605,,pt2_unique_rating,1744078,Fictional_Cities_List/img_natural_01.png,,49,,,1,,,,,,,,,,,,,,,
null,,confidence_buffer,1744180,confidence_buffer,,null,,,,,,,,,,,,,,,,,,
2034,,pt2_memorable_rating,1746214,Fictional_Cities_List/img_natural_01.png,,49,,,1,,,,,,,,,,,,,,,
null,,confidence_buffer,1746315,confidence_buffer,,null,,,,,,,,,,,,,,,,,,
1194.1000000238419,,recognition_phase,1747510,Fictional_Cities_List/img_natural_01.png,,49,,,,,,old,1,0.9629629629629629,,,,,,,,,,
null,,confidence_buffer,1747611,confidence_buffer,,null,,,,,,,,,,,,,,,,,,
null,,thebreak,1748112,break,,null,,,,,,,,,,,,,,,,,,
3981.300000011921,,pt2_realistic_rating,1752094,US_Cities_List/nat_peoria.png,,53,US_Cities_List/nat_peoria.png,NAT,5,,,,,,,,,,,,,,,
null,,confidence_buffer,1752195,confidence_buffer,,null,,,,,,,,,,,,,,,,,,
2035.2999999821186,,pt2_unique_rating,1754230,US_Cities_List/nat_peoria.png,,49,,,1,,,,,,,,,,,,,,,
null,,confidence_buffer,1754332,confidence_buffer,,null,,,,,,,,,,,,,,,,,,
2802,,pt2_memorable_rating,1757134,US_Cities_List/nat_peoria.png,,49,,,1,,,,,,,,,,,,,,,
null,,confidence_buffer,1757235,confidence_buffer,,null,,,,,,,,,,,,,,,,,,
2642.800000011921,,recognition_phase,1759878,US_Cities_List/nat_peoria.png,,52,,,,,,new,1,0.9636363636363636,,,,,,,,,,
null,,confidence_buffer,1759979,confidence_buffer,,null,,,,,,,,,,,,,,,,,,
null,,thebreak,1760481,break,,null,,,,,,,,,,,,,,,,,,
7021.300000011921,,pt2_realistic_rating,1767503,US_Cities_List/nat_hotsprings.png,,50,US_Cities_List/nat_hotsprings.png,NAT,2,,,,,,,,,,,,,,,
null,,confidence_buffer,1767603,confidence_buffer,,null,,,,,,,,,,,,,,,,,,
1835.1000000238419,,pt2_unique_rating,1769438,US_Cities_List/nat_hotsprings.png,,49,,,1,,,,,,,,,,,,,,,
null,,confidence_buffer,1769541,confidence_buffer,,null,,,,,,,,,,,,,,,,,,
1609.2000000178814,,pt2_memorable_rating,1771151,US_Cities_List/nat_hotsprings.png,,49,,,1,,,,,,,,,,,,,,,
null,,confidence_buffer,1771252,confidence_buffer,,null,,,,,,,,,,,,,,,,,,
1538,,recognition_phase,1772791,US_Cities_List/nat_hotsprings.png,,49,,,,,,old,1,0.9642857142857143,,,,,,,,,,
null,,confidence_buffer,1772893,confidence_buffer,,null,,,,,,,,,,,,,,,,,,
null,,thebreak,1773394,break,,null,,,,,,,,,,,,,,,,,,
7972.0999999940395,,pt2_realistic_rating,1781367,US_Cities_List/nat_boulder.png,,50,US_Cities_List/nat_boulder.png,NAT,2,,,,,,,,,,,,,,,
null,,confidence_buffer,1781467,confidence_buffer,,null,,,,,,,,,,,,,,,,,,
1595.0999999940395,,pt2_unique_rating,1783063,US_Cities_List/nat_boulder.png,,49,,,1,,,,,,,,,,,,,,,
null,,confidence_buffer,1783163,confidence_buffer,,null,,,,,,,,,,,,,,,,,,
1987,,pt2_memorable_rating,1785151,US_Cities_List/nat_boulder.png,,49,,,1,,,,,,,,,,,,,,,
null,,confidence_buffer,1785251,confidence_buffer,,null,,,,,,,,,,,,,,,,,,
1451,,recognition_phase,1786703,US_Cities_List/nat_boulder.png,,49,,,,,,old,1,0.9649122807017544,,,,,,,,,,
null,,confidence_buffer,1786803,confidence_buffer,,null,,,,,,,,,,,,,,,,,,
null,,thebreak,1787304,break,,null,,,,,,,,,,,,,,,,,,
14038.800000011921,,pt2_realistic_rating,1801344,Fictional_Cities_List/img_natural_43.png,,50,Fictional_Cities_List/img_natural_43.png,NAT,2,,,,,,,,,,,,,,,
null,,confidence_buffer,1801445,confidence_buffer,,null,,,,,,,,,,,,,,,,,,
3898.199999988079,,pt2_unique_rating,1805343,Fictional_Cities_List/img_natural_43.png,,50,,,2,,,,,,,,,,,,,,,
null,,confidence_buffer,1805445,confidence_buffer,,null,,,,,,,,,,,,,,,,,,
3178.5,,pt2_memorable_rating,1808623,Fictional_Cities_List/img_natural_43.png,,49,,,1,,,,,,,,,,,,,,,
null,,confidence_buffer,1808724,confidence_buffer,,null,,,,,,,,,,,,,,,,,,
1434.699999988079,,recognition_phase,1810159,Fictional_Cities_List/img_natural_43.png,,52,,,,,,new,1,0.9655172413793104,,,,,,,,,,
null,,confidence_buffer,1810260,confidence_buffer,,null,,,,,,,,,,,,,,,,,,
null,,thebreak,1810761,break,,null,,,,,,,,,,,,,,,,,,
4950.0999999940395,,pt2_realistic_rating,1815712,US_Cities_List/mm_bisbee.png,,53,US_Cities_List/mm_bisbee.png,MM,5,,,,,,,,,,,,,,,
null,,confidence_buffer,1815812,confidence_buffer,,null,,,,,,,,,,,,,,,,,,
2226.7999999821186,,probe_rating,1818039,probe_rating,,49,,,,1,1,,,,,,,,,,,,,
null,,confidence_buffer,1818140,confidence_buffer,,null,,,,,,,,,,,,,,,,,,
3531,,pt2_unique_rating,1821672,US_Cities_List/mm_bisbee.png,,49,,,1,,,,,,,,,,,,,,,
null,,confidence_buffer,1821773,confidence_buffer,,null,,,,,,,,,,,,,,,,,,
1706.6000000238419,,pt2_memorable_rating,1823480,US_Cities_List/mm_bisbee.png,,49,,,1,,,,,,,,,,,,,,,
null,,confidence_buffer,1823581,confidence_buffer,,null,,,,,,,,,,,,,,,,,,
1258.300000011921,,recognition_phase,1824840,US_Cities_List/mm_bisbee.png,,49,,,,,,old,1,0.9661016949152542,,,,,,,,,,
null,,confidence_buffer,1824941,confidence_buffer,,null,,,,,,,,,,,,,,,,,,
null,,thebreak,1825442,break,,null,,,,,,,,,,,,,,,,,,
7605.799999982119,,pt2_realistic_rating,1833048,Fictional_Cities_List/img_natural_48.png,,52,Fictional_Cities_List/img_natural_48.png,NAT,4,,,,,,,,,,,,,,,
null,,confidence_buffer,1833149,confidence_buffer,,null,,,,,,,,,,,,,,,,,,
2754.800000011921,,pt2_unique_rating,1835904,Fictional_Cities_List/img_natural_48.png,,49,,,1,,,,,,,,,,,,,,,
null,,confidence_buffer,1836005,confidence_buffer,,null,,,,,,,,,,,,,,,,,,
3586.899999976158,,pt2_memorable_rating,1839592,Fictional_Cities_List/img_natural_48.png,,50,,,2,,,,,,,,,,,,,,,
null,,confidence_buffer,1839692,confidence_buffer,,null,,,,,,,,,,,,,,,,,,
1547.2000000178814,,recognition_phase,1841240,Fictional_Cities_List/img_natural_48.png,,50,,,,,,old,1,0.9666666666666667,,,,,,,,,,
null,,confidence_buffer,1841341,confidence_buffer,,null,,,,,,,,,,,,,,,,,,
null,,thebreak,1841842,break,,null,,,,,,,,,,,,,,,,,,
,,survey,3049138,survey-questions,,,,,,,,,,,none,high,I wasn't doing anything else during the experiment.,I didn't really rely on any strategy for memorizing each picture.  I simply relied on my memory and what I felt that I've seen before.,With this category, I focused on whether or not I recognize the image somewhere.  If I'm not familiar with it at all, then I selected that option.  Outside of that, I deducted points based on how familiar I am with said image.,I primarily focused on what I felt was most memorable. Elements such as: vibrant colors, stylization, and unique themes tend to stick out more and become more memorable to me.  Generic elements, such as nature tends to be not memorable unless some type of event is happening within nature, i.e. volcano eruption.,Uniqueness is similar to the memorable category for me, since both tends to compliment with each other.  The only factor that I'd add for uniqueness is my personal taste.  I tend to ask the question: If I were to place this item along side others of a similar theme, how well would these item stand out?  And then base my rating on how I felt about the answer to this question.,The category of realism would have point deduction for any element that is stylized, generic, or have a smoothed appearance.  Stylization can be considered the conceptual opposite of realism. And due to the randomness of nature, you'll rarely find objects that look very similar to each other or multiple large object with similar smoothed appearance.  Outside of the elements, nature shots tends to more realistic.,I don't remember taking a similar study to this one.,
