rt,responses,trial_type,time_elapsed,stimulus,button_pressed,key_press,name_trial,city_type,rating,probe,probe_accuracy,response,correct,accuracy,problems,smooth,distraction,strategies,familiar,memorable,unique,realistic,similar,comments
5854.699999809265,{worker_id:57541379f5000a0006b06ab4},id_enter,5857,,,,,,,,,,,,,,,,,,,,,
9992.300000190735,,fullscreen,15856,fullscreen,0,,,,,,,,,,,,,,,,,,,
4722.900000095367,,intro_0,20580,instruct,,32,,,,,,,,,,,,,,,,,,
7138.099999904633,,intro_1,27721,instruct,,32,,,,,,,,,,,,,,,,,,
5806,,intro_2,33528,instruct,,32,,,,,,,,,,,,,,,,,,
null,,instruct_dir_4,35030,instruct,,null,,,,,,,,,,,,,,,,,,
null,,thebreak,35531,break,,null,,,,,,,,,,,,,,,,,,
6346.900000095367,,familiar_rating,41879,Fictional_Cities_List/img_natural_35.png,,50,Fictional_Cities_List/img_natural_35.png,NAT,2,,,,,,,,,,,,,,,
null,,confidence_buffer,41982,confidence_buffer,,null,,,,,,,,,,,,,,,,,,
5765.800000190735,,unique_rating,47748,Fictional_Cities_List/img_natural_35.png,,52,,,4,,,,,,,,,,,,,,,
null,,confidence_buffer,47850,confidence_buffer,,null,,,,,,,,,,,,,,,,,,
1716.5,,probe_rating,49568,probe_rating,,52,,,,4,0,,,,,,,,,,,,,
null,,confidence_buffer,49670,confidence_buffer,,null,,,,,,,,,,,,,,,,,,
4039.4000000953674,,memorable_rating,53710,Fictional_Cities_List/img_natural_35.png,,53,,,5,,,,,,,,,,,,,,,
null,,confidence_buffer,53812,confidence_buffer,,null,,,,,,,,,,,,,,,,,,
null,,thebreak,54314,break,,null,,,,,,,,,,,,,,,,,,
5709.60000038147,,familiar_rating,60025,Fictional_Cities_List/img_manmade_17.png,,51,Fictional_Cities_List/img_manmade_17.png,MM,3,,,,,,,,,,,,,,,
null,,confidence_buffer,60128,confidence_buffer,,null,,,,,,,,,,,,,,,,,,
3065.300000190735,,unique_rating,63194,Fictional_Cities_List/img_manmade_17.png,,50,,,2,,,,,,,,,,,,,,,
null,,confidence_buffer,63296,confidence_buffer,,null,,,,,,,,,,,,,,,,,,
3261.199999809265,,memorable_rating,66559,Fictional_Cities_List/img_manmade_17.png,,51,,,3,,,,,,,,,,,,,,,
null,,confidence_buffer,66660,confidence_buffer,,null,,,,,,,,,,,,,,,,,,
null,,thebreak,67162,break,,null,,,,,,,,,,,,,,,,,,
4330.699999809265,,familiar_rating,71494,US_Cities_List/nat_hilo.png,,50,US_Cities_List/nat_hilo.png,NAT,2,,,,,,,,,,,,,,,
null,,confidence_buffer,71595,confidence_buffer,,null,,,,,,,,,,,,,,,,,,
2176.3999996185303,,unique_rating,73772,US_Cities_List/nat_hilo.png,,50,,,2,,,,,,,,,,,,,,,
null,,confidence_buffer,73875,confidence_buffer,,null,,,,,,,,,,,,,,,,,,
1894.7999997138977,,memorable_rating,75771,US_Cities_List/nat_hilo.png,,51,,,3,,,,,,,,,,,,,,,
null,,confidence_buffer,75873,confidence_buffer,,null,,,,,,,,,,,,,,,,,,
null,,thebreak,76374,break,,null,,,,,,,,,,,,,,,,,,
3401.0999999046326,,familiar_rating,79776,US_Cities_List/nat_athens.png,,53,US_Cities_List/nat_athens.png,NAT,5,,,,,,,,,,,,,,,
null,,confidence_buffer,79878,confidence_buffer,,null,,,,,,,,,,,,,,,,,,
2419.2000002861023,,unique_rating,82299,US_Cities_List/nat_athens.png,,50,,,2,,,,,,,,,,,,,,,
null,,confidence_buffer,82400,confidence_buffer,,null,,,,,,,,,,,,,,,,,,
4866.800000190735,,memorable_rating,87268,US_Cities_List/nat_athens.png,,51,,,3,,,,,,,,,,,,,,,
null,,confidence_buffer,87369,confidence_buffer,,null,,,,,,,,,,,,,,,,,,
null,,thebreak,87871,break,,null,,,,,,,,,,,,,,,,,,
4332,,familiar_rating,92203,US_Cities_List/nat_abilene.png,,50,US_Cities_List/nat_abilene.png,NAT,2,,,,,,,,,,,,,,,
null,,confidence_buffer,92310,confidence_buffer,,null,,,,,,,,,,,,,,,,,,
1730.1000003814697,,unique_rating,94041,US_Cities_List/nat_abilene.png,,50,,,2,,,,,,,,,,,,,,,
null,,confidence_buffer,94143,confidence_buffer,,null,,,,,,,,,,,,,,,,,,
2750.7999997138977,,probe_rating,96894,probe_rating,,52,,,,4,1,,,,,,,,,,,,,
null,,confidence_buffer,96997,confidence_buffer,,null,,,,,,,,,,,,,,,,,,
2337.4000000953674,,memorable_rating,99336,US_Cities_List/nat_abilene.png,,51,,,3,,,,,,,,,,,,,,,
null,,confidence_buffer,99438,confidence_buffer,,null,,,,,,,,,,,,,,,,,,
null,,thebreak,99939,break,,null,,,,,,,,,,,,,,,,,,
3869.9000000953674,,familiar_rating,103810,US_Cities_List/mm_healdsburg.png,,51,US_Cities_List/mm_healdsburg.png,MM,3,,,,,,,,,,,,,,,
null,,confidence_buffer,103912,confidence_buffer,,null,,,,,,,,,,,,,,,,,,
3444.0999999046326,,unique_rating,107357,US_Cities_List/mm_healdsburg.png,,53,,,5,,,,,,,,,,,,,,,
null,,confidence_buffer,107459,confidence_buffer,,null,,,,,,,,,,,,,,,,,,
1023.6999998092651,,memorable_rating,108483,US_Cities_List/mm_healdsburg.png,,53,,,5,,,,,,,,,,,,,,,
null,,confidence_buffer,108586,confidence_buffer,,null,,,,,,,,,,,,,,,,,,
null,,thebreak,109087,break,,null,,,,,,,,,,,,,,,,,,
6285.099999904633,,familiar_rating,115373,Fictional_Cities_List/img_manmade_05.png,,50,Fictional_Cities_List/img_manmade_05.png,MM,2,,,,,,,,,,,,,,,
null,,confidence_buffer,115486,confidence_buffer,,null,,,,,,,,,,,,,,,,,,
2884.7999997138977,,unique_rating,118372,Fictional_Cities_List/img_manmade_05.png,,52,,,4,,,,,,,,,,,,,,,
null,,confidence_buffer,118473,confidence_buffer,,null,,,,,,,,,,,,,,,,,,
1609.5,,memorable_rating,120084,Fictional_Cities_List/img_manmade_05.png,,53,,,5,,,,,,,,,,,,,,,
null,,confidence_buffer,120187,confidence_buffer,,null,,,,,,,,,,,,,,,,,,
null,,thebreak,120689,break,,null,,,,,,,,,,,,,,,,,,
3915.5999999046326,,familiar_rating,124605,US_Cities_List/nat_cornwall.png,,52,US_Cities_List/nat_cornwall.png,NAT,4,,,,,,,,,,,,,,,
null,,confidence_buffer,124707,confidence_buffer,,null,,,,,,,,,,,,,,,,,,
2896.300000190735,,unique_rating,127604,US_Cities_List/nat_cornwall.png,,52,,,4,,,,,,,,,,,,,,,
null,,confidence_buffer,127706,confidence_buffer,,null,,,,,,,,,,,,,,,,,,
2357.800000190735,,memorable_rating,130066,US_Cities_List/nat_cornwall.png,,53,,,5,,,,,,,,,,,,,,,
null,,confidence_buffer,130167,confidence_buffer,,null,,,,,,,,,,,,,,,,,,
null,,thebreak,130669,break,,null,,,,,,,,,,,,,,,,,,
3601.5999999046326,,familiar_rating,134272,Fictional_Cities_List/img_manmade_35.png,,51,Fictional_Cities_List/img_manmade_35.png,MM,3,,,,,,,,,,,,,,,
null,,confidence_buffer,134381,confidence_buffer,,null,,,,,,,,,,,,,,,,,,
1638.9000000953674,,unique_rating,136021,Fictional_Cities_List/img_manmade_35.png,,52,,,4,,,,,,,,,,,,,,,
null,,confidence_buffer,136123,confidence_buffer,,null,,,,,,,,,,,,,,,,,,
1736.4000000953674,,memorable_rating,137860,Fictional_Cities_List/img_manmade_35.png,,53,,,5,,,,,,,,,,,,,,,
null,,confidence_buffer,137962,confidence_buffer,,null,,,,,,,,,,,,,,,,,,
null,,thebreak,138464,break,,null,,,,,,,,,,,,,,,,,,
3016.4000000953674,,familiar_rating,141481,US_Cities_List/mm_hotsprings.png,,50,US_Cities_List/mm_hotsprings.png,MM,2,,,,,,,,,,,,,,,
null,,confidence_buffer,141583,confidence_buffer,,null,,,,,,,,,,,,,,,,,,
2187.4000000953674,,probe_rating,143772,probe_rating,,53,,,,5,1,,,,,,,,,,,,,
null,,confidence_buffer,143873,confidence_buffer,,null,,,,,,,,,,,,,,,,,,
3183,,unique_rating,147057,US_Cities_List/mm_hotsprings.png,,53,,,5,,,,,,,,,,,,,,,
null,,confidence_buffer,147159,confidence_buffer,,null,,,,,,,,,,,,,,,,,,
1763.7999997138977,,memorable_rating,148924,US_Cities_List/mm_hotsprings.png,,53,,,5,,,,,,,,,,,,,,,
null,,confidence_buffer,149030,confidence_buffer,,null,,,,,,,,,,,,,,,,,,
null,,thebreak,149531,break,,null,,,,,,,,,,,,,,,,,,
3897.699999809265,,familiar_rating,153430,US_Cities_List/nat_westpalmbeach.png,,50,US_Cities_List/nat_westpalmbeach.png,NAT,2,,,,,,,,,,,,,,,
null,,confidence_buffer,153531,confidence_buffer,,null,,,,,,,,,,,,,,,,,,
1522.7000002861023,,unique_rating,155055,US_Cities_List/nat_westpalmbeach.png,,51,,,3,,,,,,,,,,,,,,,
null,,confidence_buffer,155156,confidence_buffer,,null,,,,,,,,,,,,,,,,,,
2052.4000000953674,,memorable_rating,157209,US_Cities_List/nat_westpalmbeach.png,,52,,,4,,,,,,,,,,,,,,,
null,,confidence_buffer,157311,confidence_buffer,,null,,,,,,,,,,,,,,,,,,
null,,thebreak,157812,break,,null,,,,,,,,,,,,,,,,,,
3812.300000190735,,familiar_rating,161625,Fictional_Cities_List/img_manmade_48.png,,49,Fictional_Cities_List/img_manmade_48.png,MM,1,,,,,,,,,,,,,,,
null,,confidence_buffer,161727,confidence_buffer,,null,,,,,,,,,,,,,,,,,,
2130.300000190735,,unique_rating,163859,Fictional_Cities_List/img_manmade_48.png,,53,,,5,,,,,,,,,,,,,,,
null,,confidence_buffer,163960,confidence_buffer,,null,,,,,,,,,,,,,,,,,,
1860.7000002861023,,memorable_rating,165821,Fictional_Cities_List/img_manmade_48.png,,53,,,5,,,,,,,,,,,,,,,
null,,confidence_buffer,165923,confidence_buffer,,null,,,,,,,,,,,,,,,,,,
null,,thebreak,166425,break,,null,,,,,,,,,,,,,,,,,,
3467.1000003814697,,familiar_rating,169893,US_Cities_List/mm_carmel.png,,49,US_Cities_List/mm_carmel.png,MM,1,,,,,,,,,,,,,,,
null,,confidence_buffer,170001,confidence_buffer,,null,,,,,,,,,,,,,,,,,,
1637.7999997138977,,unique_rating,171639,US_Cities_List/mm_carmel.png,,51,,,3,,,,,,,,,,,,,,,
null,,confidence_buffer,171741,confidence_buffer,,null,,,,,,,,,,,,,,,,,,
3985.9000000953674,,memorable_rating,175728,US_Cities_List/mm_carmel.png,,52,,,4,,,,,,,,,,,,,,,
null,,confidence_buffer,175830,confidence_buffer,,null,,,,,,,,,,,,,,,,,,
null,,thebreak,176333,break,,null,,,,,,,,,,,,,,,,,,
2902.6000003814697,,familiar_rating,179237,Fictional_Cities_List/img_manmade_14.png,,50,Fictional_Cities_List/img_manmade_14.png,MM,2,,,,,,,,,,,,,,,
null,,confidence_buffer,179338,confidence_buffer,,null,,,,,,,,,,,,,,,,,,
1418.2999997138977,,unique_rating,180757,Fictional_Cities_List/img_manmade_14.png,,50,,,2,,,,,,,,,,,,,,,
null,,confidence_buffer,180859,confidence_buffer,,null,,,,,,,,,,,,,,,,,,
2568.5999999046326,,memorable_rating,183429,Fictional_Cities_List/img_manmade_14.png,,51,,,3,,,,,,,,,,,,,,,
null,,confidence_buffer,183530,confidence_buffer,,null,,,,,,,,,,,,,,,,,,
null,,thebreak,184032,break,,null,,,,,,,,,,,,,,,,,,
2806.0999999046326,,familiar_rating,186839,Fictional_Cities_List/img_natural_14.png,,50,Fictional_Cities_List/img_natural_14.png,NAT,2,,,,,,,,,,,,,,,
null,,confidence_buffer,186941,confidence_buffer,,null,,,,,,,,,,,,,,,,,,
1869.2000002861023,,unique_rating,188812,Fictional_Cities_List/img_natural_14.png,,50,,,2,,,,,,,,,,,,,,,
null,,confidence_buffer,188914,confidence_buffer,,null,,,,,,,,,,,,,,,,,,
2513.5999999046326,,memorable_rating,191428,Fictional_Cities_List/img_natural_14.png,,51,,,3,,,,,,,,,,,,,,,
null,,confidence_buffer,191531,confidence_buffer,,null,,,,,,,,,,,,,,,,,,
null,,thebreak,192032,break,,null,,,,,,,,,,,,,,,,,,
2622.800000190735,,familiar_rating,194656,US_Cities_List/nat_peoria.png,,51,US_Cities_List/nat_peoria.png,NAT,3,,,,,,,,,,,,,,,
null,,confidence_buffer,194758,confidence_buffer,,null,,,,,,,,,,,,,,,,,,
2689.0999999046326,,unique_rating,197448,US_Cities_List/nat_peoria.png,,51,,,3,,,,,,,,,,,,,,,
null,,confidence_buffer,197551,confidence_buffer,,null,,,,,,,,,,,,,,,,,,
2357.699999809265,,memorable_rating,199909,US_Cities_List/nat_peoria.png,,51,,,3,,,,,,,,,,,,,,,
null,,confidence_buffer,200011,confidence_buffer,,null,,,,,,,,,,,,,,,,,,
null,,thebreak,200512,break,,null,,,,,,,,,,,,,,,,,,
3545.4000000953674,,familiar_rating,204059,Fictional_Cities_List/img_natural_47.png,,51,Fictional_Cities_List/img_natural_47.png,NAT,3,,,,,,,,,,,,,,,
null,,confidence_buffer,204161,confidence_buffer,,null,,,,,,,,,,,,,,,,,,
2057,,unique_rating,206219,Fictional_Cities_List/img_natural_47.png,,52,,,4,,,,,,,,,,,,,,,
null,,confidence_buffer,206321,confidence_buffer,,null,,,,,,,,,,,,,,,,,,
2737.9000000953674,,memorable_rating,209060,Fictional_Cities_List/img_natural_47.png,,53,,,5,,,,,,,,,,,,,,,
null,,confidence_buffer,209161,confidence_buffer,,null,,,,,,,,,,,,,,,,,,
null,,thebreak,209663,break,,null,,,,,,,,,,,,,,,,,,
3151.199999809265,,familiar_rating,212815,Fictional_Cities_List/img_natural_42.png,,49,Fictional_Cities_List/img_natural_42.png,NAT,1,,,,,,,,,,,,,,,
null,,confidence_buffer,212917,confidence_buffer,,null,,,,,,,,,,,,,,,,,,
1764.0999999046326,,probe_rating,214682,probe_rating,,50,,,,2,1,,,,,,,,,,,,,
null,,confidence_buffer,214784,confidence_buffer,,null,,,,,,,,,,,,,,,,,,
2278.300000190735,,unique_rating,217064,Fictional_Cities_List/img_natural_42.png,,53,,,5,,,,,,,,,,,,,,,
null,,confidence_buffer,217166,confidence_buffer,,null,,,,,,,,,,,,,,,,,,
2522.800000190735,,memorable_rating,219690,Fictional_Cities_List/img_natural_42.png,,53,,,5,,,,,,,,,,,,,,,
null,,confidence_buffer,219791,confidence_buffer,,null,,,,,,,,,,,,,,,,,,
null,,thebreak,220292,break,,null,,,,,,,,,,,,,,,,,,
3299.199999809265,,familiar_rating,223592,Fictional_Cities_List/img_natural_24.png,,49,Fictional_Cities_List/img_natural_24.png,NAT,1,,,,,,,,,,,,,,,
null,,confidence_buffer,223699,confidence_buffer,,null,,,,,,,,,,,,,,,,,,
2057.199999809265,,unique_rating,225757,Fictional_Cities_List/img_natural_24.png,,53,,,5,,,,,,,,,,,,,,,
null,,confidence_buffer,225859,confidence_buffer,,null,,,,,,,,,,,,,,,,,,
1724.5,,memorable_rating,227585,Fictional_Cities_List/img_natural_24.png,,53,,,5,,,,,,,,,,,,,,,
null,,confidence_buffer,227687,confidence_buffer,,null,,,,,,,,,,,,,,,,,,
null,,thebreak,228189,break,,null,,,,,,,,,,,,,,,,,,
4231.800000190735,,familiar_rating,232423,US_Cities_List/mm_sitka.png,,50,US_Cities_List/mm_sitka.png,MM,2,,,,,,,,,,,,,,,
null,,confidence_buffer,232524,confidence_buffer,,null,,,,,,,,,,,,,,,,,,
2786.4000000953674,,unique_rating,235311,US_Cities_List/mm_sitka.png,,51,,,3,,,,,,,,,,,,,,,
null,,confidence_buffer,235413,confidence_buffer,,null,,,,,,,,,,,,,,,,,,
2880.5999999046326,,memorable_rating,238295,US_Cities_List/mm_sitka.png,,52,,,4,,,,,,,,,,,,,,,
null,,confidence_buffer,238398,confidence_buffer,,null,,,,,,,,,,,,,,,,,,
null,,thebreak,238899,break,,null,,,,,,,,,,,,,,,,,,
2146.7000002861023,,familiar_rating,241047,US_Cities_List/nat_coeurdalene.png,,51,US_Cities_List/nat_coeurdalene.png,NAT,3,,,,,,,,,,,,,,,
null,,confidence_buffer,241150,confidence_buffer,,null,,,,,,,,,,,,,,,,,,
2556.300000190735,,unique_rating,243707,US_Cities_List/nat_coeurdalene.png,,51,,,3,,,,,,,,,,,,,,,
null,,confidence_buffer,243809,confidence_buffer,,null,,,,,,,,,,,,,,,,,,
1727.3999996185303,,memorable_rating,245538,US_Cities_List/nat_coeurdalene.png,,53,,,5,,,,,,,,,,,,,,,
null,,confidence_buffer,245639,confidence_buffer,,null,,,,,,,,,,,,,,,,,,
null,,thebreak,246141,break,,null,,,,,,,,,,,,,,,,,,
2697.199999809265,,familiar_rating,248839,US_Cities_List/mm_coeurdalene.png,,49,US_Cities_List/mm_coeurdalene.png,MM,1,,,,,,,,,,,,,,,
null,,confidence_buffer,248941,confidence_buffer,,null,,,,,,,,,,,,,,,,,,
2879.199999809265,,unique_rating,251821,US_Cities_List/mm_coeurdalene.png,,49,,,1,,,,,,,,,,,,,,,
null,,confidence_buffer,251923,confidence_buffer,,null,,,,,,,,,,,,,,,,,,
2566.5999999046326,,memorable_rating,254490,US_Cities_List/mm_coeurdalene.png,,49,,,1,,,,,,,,,,,,,,,
null,,confidence_buffer,254592,confidence_buffer,,null,,,,,,,,,,,,,,,,,,
null,,thebreak,255094,break,,null,,,,,,,,,,,,,,,,,,
2703.5,,familiar_rating,257799,Fictional_Cities_List/img_natural_43.png,,50,Fictional_Cities_List/img_natural_43.png,NAT,2,,,,,,,,,,,,,,,
null,,confidence_buffer,257901,confidence_buffer,,null,,,,,,,,,,,,,,,,,,
2607,,unique_rating,260509,Fictional_Cities_List/img_natural_43.png,,51,,,3,,,,,,,,,,,,,,,
null,,confidence_buffer,260611,confidence_buffer,,null,,,,,,,,,,,,,,,,,,
2479.9000000953674,,memorable_rating,263092,Fictional_Cities_List/img_natural_43.png,,51,,,3,,,,,,,,,,,,,,,
null,,confidence_buffer,263194,confidence_buffer,,null,,,,,,,,,,,,,,,,,,
1970.8000001907349,,probe_rating,265165,probe_rating,,50,,,,2,1,,,,,,,,,,,,,
null,,confidence_buffer,265271,confidence_buffer,,null,,,,,,,,,,,,,,,,,,
null,,thebreak,265772,break,,null,,,,,,,,,,,,,,,,,,
3361.5999999046326,,familiar_rating,269135,Fictional_Cities_List/img_manmade_24.png,,50,Fictional_Cities_List/img_manmade_24.png,MM,2,,,,,,,,,,,,,,,
null,,confidence_buffer,269236,confidence_buffer,,null,,,,,,,,,,,,,,,,,,
1494.8999996185303,,unique_rating,270732,Fictional_Cities_List/img_manmade_24.png,,51,,,3,,,,,,,,,,,,,,,
null,,confidence_buffer,270834,confidence_buffer,,null,,,,,,,,,,,,,,,,,,
3059,,memorable_rating,273894,Fictional_Cities_List/img_manmade_24.png,,52,,,4,,,,,,,,,,,,,,,
null,,confidence_buffer,273997,confidence_buffer,,null,,,,,,,,,,,,,,,,,,
null,,thebreak,274499,break,,null,,,,,,,,,,,,,,,,,,
2355.2999997138977,,familiar_rating,276855,US_Cities_List/mm_cornwall.png,,50,US_Cities_List/mm_cornwall.png,MM,2,,,,,,,,,,,,,,,
null,,confidence_buffer,276957,confidence_buffer,,null,,,,,,,,,,,,,,,,,,
1710.6000003814697,,unique_rating,278669,US_Cities_List/mm_cornwall.png,,52,,,4,,,,,,,,,,,,,,,
null,,confidence_buffer,278770,confidence_buffer,,null,,,,,,,,,,,,,,,,,,
1658,,memorable_rating,280430,US_Cities_List/mm_cornwall.png,,53,,,5,,,,,,,,,,,,,,,
null,,confidence_buffer,280531,confidence_buffer,,null,,,,,,,,,,,,,,,,,,
null,,thebreak,281033,break,,null,,,,,,,,,,,,,,,,,,
3695,,familiar_rating,284729,US_Cities_List/mm_westpalmbeach.png,,49,US_Cities_List/mm_westpalmbeach.png,MM,1,,,,,,,,,,,,,,,
null,,confidence_buffer,284831,confidence_buffer,,null,,,,,,,,,,,,,,,,,,
1749.7000002861023,,unique_rating,286581,US_Cities_List/mm_westpalmbeach.png,,53,,,5,,,,,,,,,,,,,,,
null,,confidence_buffer,286682,confidence_buffer,,null,,,,,,,,,,,,,,,,,,
1494.7000002861023,,memorable_rating,288178,US_Cities_List/mm_westpalmbeach.png,,53,,,5,,,,,,,,,,,,,,,
null,,confidence_buffer,288280,confidence_buffer,,null,,,,,,,,,,,,,,,,,,
null,,thebreak,288782,break,,null,,,,,,,,,,,,,,,,,,
3989.699999809265,,familiar_rating,292772,Fictional_Cities_List/img_natural_05.png,,49,Fictional_Cities_List/img_natural_05.png,NAT,1,,,,,,,,,,,,,,,
null,,confidence_buffer,292874,confidence_buffer,,null,,,,,,,,,,,,,,,,,,
2327,,unique_rating,295202,Fictional_Cities_List/img_natural_05.png,,53,,,5,,,,,,,,,,,,,,,
null,,confidence_buffer,295303,confidence_buffer,,null,,,,,,,,,,,,,,,,,,
2172.9000000953674,,memorable_rating,297477,Fictional_Cities_List/img_natural_05.png,,53,,,5,,,,,,,,,,,,,,,
null,,confidence_buffer,297579,confidence_buffer,,null,,,,,,,,,,,,,,,,,,
null,,thebreak,298080,break,,null,,,,,,,,,,,,,,,,,,
2595.2000002861023,,familiar_rating,300676,Fictional_Cities_List/img_natural_49.png,,51,Fictional_Cities_List/img_natural_49.png,NAT,3,,,,,,,,,,,,,,,
null,,confidence_buffer,300779,confidence_buffer,,null,,,,,,,,,,,,,,,,,,
3317.8999996185303,,unique_rating,304098,Fictional_Cities_List/img_natural_49.png,,50,,,2,,,,,,,,,,,,,,,
null,,confidence_buffer,304200,confidence_buffer,,null,,,,,,,,,,,,,,,,,,
1683.3000001907349,,memorable_rating,305884,Fictional_Cities_List/img_natural_49.png,,52,,,4,,,,,,,,,,,,,,,
null,,confidence_buffer,305987,confidence_buffer,,null,,,,,,,,,,,,,,,,,,
null,,thebreak,306488,break,,null,,,,,,,,,,,,,,,,,,
2796.300000190735,,familiar_rating,309286,Fictional_Cities_List/img_manmade_49.png,,50,Fictional_Cities_List/img_manmade_49.png,MM,2,,,,,,,,,,,,,,,
null,,confidence_buffer,309388,confidence_buffer,,null,,,,,,,,,,,,,,,,,,
2265.699999809265,,unique_rating,311654,Fictional_Cities_List/img_manmade_49.png,,50,,,2,,,,,,,,,,,,,,,
null,,confidence_buffer,311756,confidence_buffer,,null,,,,,,,,,,,,,,,,,,
2093.5999999046326,,memorable_rating,313851,Fictional_Cities_List/img_manmade_49.png,,51,,,3,,,,,,,,,,,,,,,
null,,confidence_buffer,313954,confidence_buffer,,null,,,,,,,,,,,,,,,,,,
null,,thebreak,314455,break,,null,,,,,,,,,,,,,,,,,,
4742.900000095367,,familiar_rating,319199,US_Cities_List/mm_boulder.png,,50,US_Cities_List/mm_boulder.png,MM,2,,,,,,,,,,,,,,,
null,,confidence_buffer,319302,confidence_buffer,,null,,,,,,,,,,,,,,,,,,
2605.5999999046326,,unique_rating,321909,US_Cities_List/mm_boulder.png,,51,,,3,,,,,,,,,,,,,,,
null,,confidence_buffer,322011,confidence_buffer,,null,,,,,,,,,,,,,,,,,,
2935.0999999046326,,memorable_rating,324947,US_Cities_List/mm_boulder.png,,52,,,4,,,,,,,,,,,,,,,
null,,confidence_buffer,325048,confidence_buffer,,null,,,,,,,,,,,,,,,,,,
null,,thebreak,325550,break,,null,,,,,,,,,,,,,,,,,,
4247.5,,intro_0,329798,instruct,,32,,,,,,,,,,,,,,,,,,
6505.900000095367,,intro_1,336305,instruct,,32,,,,,,,,,,,,,,,,,,
17092.39999961853,,intro_2,353415,instruct,,32,,,,,,,,,,,,,,,,,,
null,,instruct_dir_4,354917,instruct,,null,,,,,,,,,,,,,,,,,,
3849.5,,pt2_realistic_rating,358768,Fictional_Cities_List/img_manmade_31.png,,50,Fictional_Cities_List/img_manmade_31.png,MM,2,,,,,,,,,,,,,,,
null,,confidence_buffer,358870,confidence_buffer,,null,,,,,,,,,,,,,,,,,,
2795.7999997138977,,pt2_unique_rating,361667,Fictional_Cities_List/img_manmade_31.png,,51,,,3,,,,,,,,,,,,,,,
null,,confidence_buffer,361769,confidence_buffer,,null,,,,,,,,,,,,,,,,,,
3742.6000003814697,,pt2_memorable_rating,365513,Fictional_Cities_List/img_manmade_31.png,,52,,,4,,,,,,,,,,,,,,,
null,,confidence_buffer,365614,confidence_buffer,,null,,,,,,,,,,,,,,,,,,
3328,,recognition_phase,368944,Fictional_Cities_List/img_manmade_31.png,,51,,,,,,new,1,1,,,,,,,,,,
null,,confidence_buffer,369052,confidence_buffer,,null,,,,,,,,,,,,,,,,,,
null,,thebreak,369553,break,,null,,,,,,,,,,,,,,,,,,
6022.699999809265,,pt2_realistic_rating,375576,Fictional_Cities_List/img_manmade_21.png,,49,Fictional_Cities_List/img_manmade_21.png,MM,1,,,,,,,,,,,,,,,
null,,confidence_buffer,375679,confidence_buffer,,null,,,,,,,,,,,,,,,,,,
2484.5999999046326,,pt2_unique_rating,378164,Fictional_Cities_List/img_manmade_21.png,,51,,,3,,,,,,,,,,,,,,,
null,,confidence_buffer,378266,confidence_buffer,,null,,,,,,,,,,,,,,,,,,
1796,,probe_rating,380063,probe_rating,,49,,,,1,1,,,,,,,,,,,,,
null,,confidence_buffer,380164,confidence_buffer,,null,,,,,,,,,,,,,,,,,,
5495.300000190735,,pt2_memorable_rating,385661,Fictional_Cities_List/img_manmade_21.png,,52,,,4,,,,,,,,,,,,,,,
null,,confidence_buffer,385762,confidence_buffer,,null,,,,,,,,,,,,,,,,,,
3940.300000190735,,recognition_phase,389704,Fictional_Cities_List/img_manmade_21.png,,52,,,,,,new,1,1,,,,,,,,,,
null,,confidence_buffer,389805,confidence_buffer,,null,,,,,,,,,,,,,,,,,,
null,,thebreak,390307,break,,null,,,,,,,,,,,,,,,,,,
6820.400000095367,,pt2_realistic_rating,397129,Fictional_Cities_List/img_natural_49.png,,53,Fictional_Cities_List/img_natural_49.png,NAT,5,,,,,,,,,,,,,,,
null,,confidence_buffer,397231,confidence_buffer,,null,,,,,,,,,,,,,,,,,,
3673.800000190735,,pt2_unique_rating,400906,Fictional_Cities_List/img_natural_49.png,,51,,,3,,,,,,,,,,,,,,,
null,,confidence_buffer,401008,confidence_buffer,,null,,,,,,,,,,,,,,,,,,
2351.9000000953674,,pt2_memorable_rating,403361,Fictional_Cities_List/img_natural_49.png,,52,,,4,,,,,,,,,,,,,,,
null,,confidence_buffer,403462,confidence_buffer,,null,,,,,,,,,,,,,,,,,,
2333.5,,recognition_phase,405797,Fictional_Cities_List/img_natural_49.png,,49,,,,,,old,1,1,,,,,,,,,,
null,,confidence_buffer,405899,confidence_buffer,,null,,,,,,,,,,,,,,,,,,
null,,thebreak,406400,break,,null,,,,,,,,,,,,,,,,,,
3569.2999997138977,,pt2_realistic_rating,409970,Fictional_Cities_List/img_manmade_48.png,,50,Fictional_Cities_List/img_manmade_48.png,MM,2,,,,,,,,,,,,,,,
null,,confidence_buffer,410073,confidence_buffer,,null,,,,,,,,,,,,,,,,,,
2068.5999999046326,,pt2_unique_rating,412143,Fictional_Cities_List/img_manmade_48.png,,53,,,5,,,,,,,,,,,,,,,
null,,confidence_buffer,412244,confidence_buffer,,null,,,,,,,,,,,,,,,,,,
1443.1999998092651,,pt2_memorable_rating,413689,Fictional_Cities_List/img_manmade_48.png,,53,,,5,,,,,,,,,,,,,,,
null,,confidence_buffer,413791,confidence_buffer,,null,,,,,,,,,,,,,,,,,,
1951.2999997138977,,recognition_phase,415743,Fictional_Cities_List/img_manmade_48.png,,49,,,,,,old,1,1,,,,,,,,,,
null,,confidence_buffer,415846,confidence_buffer,,null,,,,,,,,,,,,,,,,,,
null,,thebreak,416348,break,,null,,,,,,,,,,,,,,,,,,
3878.7999997138977,,pt2_realistic_rating,420228,US_Cities_List/nat_coeurdalene.png,,53,US_Cities_List/nat_coeurdalene.png,NAT,5,,,,,,,,,,,,,,,
null,,confidence_buffer,420330,confidence_buffer,,null,,,,,,,,,,,,,,,,,,
1816.8000001907349,,pt2_unique_rating,422148,US_Cities_List/nat_coeurdalene.png,,52,,,4,,,,,,,,,,,,,,,
null,,confidence_buffer,422251,confidence_buffer,,null,,,,,,,,,,,,,,,,,,
1655.8000001907349,,pt2_memorable_rating,423908,US_Cities_List/nat_coeurdalene.png,,53,,,5,,,,,,,,,,,,,,,
null,,confidence_buffer,424009,confidence_buffer,,null,,,,,,,,,,,,,,,,,,
3589.6000003814697,,recognition_phase,427600,US_Cities_List/nat_coeurdalene.png,,50,,,,,,old,1,1,,,,,,,,,,
null,,confidence_buffer,427701,confidence_buffer,,null,,,,,,,,,,,,,,,,,,
null,,thebreak,428202,break,,null,,,,,,,,,,,,,,,,,,
3500.9000000953674,,pt2_realistic_rating,431704,US_Cities_List/mm_hilo.png,,51,US_Cities_List/mm_hilo.png,MM,3,,,,,,,,,,,,,,,
null,,confidence_buffer,431809,confidence_buffer,,null,,,,,,,,,,,,,,,,,,
2450.300000190735,,pt2_unique_rating,434260,US_Cities_List/mm_hilo.png,,51,,,3,,,,,,,,,,,,,,,
null,,confidence_buffer,434361,confidence_buffer,,null,,,,,,,,,,,,,,,,,,
3533.199999809265,,pt2_memorable_rating,437896,US_Cities_List/mm_hilo.png,,53,,,5,,,,,,,,,,,,,,,
null,,confidence_buffer,437997,confidence_buffer,,null,,,,,,,,,,,,,,,,,,
2421.7999997138977,,recognition_phase,440420,US_Cities_List/mm_hilo.png,,52,,,,,,new,1,1,,,,,,,,,,
null,,confidence_buffer,440522,confidence_buffer,,null,,,,,,,,,,,,,,,,,,
null,,thebreak,441024,break,,null,,,,,,,,,,,,,,,,,,
4930.60000038147,,pt2_realistic_rating,445955,Fictional_Cities_List/img_manmade_05.png,,52,Fictional_Cities_List/img_manmade_05.png,MM,4,,,,,,,,,,,,,,,
null,,confidence_buffer,446057,confidence_buffer,,null,,,,,,,,,,,,,,,,,,
3108.0999999046326,,pt2_unique_rating,449166,Fictional_Cities_List/img_manmade_05.png,,53,,,5,,,,,,,,,,,,,,,
null,,confidence_buffer,449268,confidence_buffer,,null,,,,,,,,,,,,,,,,,,
1504.5,,pt2_memorable_rating,450774,Fictional_Cities_List/img_manmade_05.png,,53,,,5,,,,,,,,,,,,,,,
null,,confidence_buffer,450877,confidence_buffer,,null,,,,,,,,,,,,,,,,,,
1861.3000001907349,,recognition_phase,452739,Fictional_Cities_List/img_manmade_05.png,,49,,,,,,old,1,1,,,,,,,,,,
null,,confidence_buffer,452841,confidence_buffer,,null,,,,,,,,,,,,,,,,,,
null,,thebreak,453341,break,,null,,,,,,,,,,,,,,,,,,
4488.5,,pt2_realistic_rating,457831,Fictional_Cities_List/img_natural_48.png,,53,Fictional_Cities_List/img_natural_48.png,NAT,5,,,,,,,,,,,,,,,
null,,confidence_buffer,457932,confidence_buffer,,null,,,,,,,,,,,,,,,,,,
2035.1000003814697,,pt2_unique_rating,459969,Fictional_Cities_List/img_natural_48.png,,52,,,4,,,,,,,,,,,,,,,
null,,confidence_buffer,460070,confidence_buffer,,null,,,,,,,,,,,,,,,,,,
1658.4000000953674,,probe_rating,461730,probe_rating,,53,,,,5,1,,,,,,,,,,,,,
null,,confidence_buffer,461832,confidence_buffer,,null,,,,,,,,,,,,,,,,,,
2279.7999997138977,,pt2_memorable_rating,464113,Fictional_Cities_List/img_natural_48.png,,53,,,5,,,,,,,,,,,,,,,
null,,confidence_buffer,464215,confidence_buffer,,null,,,,,,,,,,,,,,,,,,
1927.7000002861023,,recognition_phase,466144,Fictional_Cities_List/img_natural_48.png,,52,,,,,,new,1,1,,,,,,,,,,
null,,confidence_buffer,466245,confidence_buffer,,null,,,,,,,,,,,,,,,,,,
null,,thebreak,466746,break,,null,,,,,,,,,,,,,,,,,,
3054.5,,pt2_realistic_rating,469801,Fictional_Cities_List/img_natural_42.png,,51,Fictional_Cities_List/img_natural_42.png,NAT,3,,,,,,,,,,,,,,,
null,,confidence_buffer,469904,confidence_buffer,,null,,,,,,,,,,,,,,,,,,
3479.7000002861023,,pt2_unique_rating,473385,Fictional_Cities_List/img_natural_42.png,,53,,,5,,,,,,,,,,,,,,,
null,,confidence_buffer,473486,confidence_buffer,,null,,,,,,,,,,,,,,,,,,
1938.7000002861023,,pt2_memorable_rating,475426,Fictional_Cities_List/img_natural_42.png,,53,,,5,,,,,,,,,,,,,,,
null,,confidence_buffer,475528,confidence_buffer,,null,,,,,,,,,,,,,,,,,,
1847.1999998092651,,recognition_phase,477376,Fictional_Cities_List/img_natural_42.png,,49,,,,,,old,1,1,,,,,,,,,,
null,,confidence_buffer,477478,confidence_buffer,,null,,,,,,,,,,,,,,,,,,
null,,thebreak,477981,break,,null,,,,,,,,,,,,,,,,,,
2874.800000190735,,pt2_realistic_rating,480857,Fictional_Cities_List/img_manmade_24.png,,53,Fictional_Cities_List/img_manmade_24.png,MM,5,,,,,,,,,,,,,,,
null,,confidence_buffer,480959,confidence_buffer,,null,,,,,,,,,,,,,,,,,,
2825.5999999046326,,pt2_unique_rating,483785,Fictional_Cities_List/img_manmade_24.png,,52,,,4,,,,,,,,,,,,,,,
null,,confidence_buffer,483886,confidence_buffer,,null,,,,,,,,,,,,,,,,,,
3183.5,,pt2_memorable_rating,487071,Fictional_Cities_List/img_manmade_24.png,,52,,,4,,,,,,,,,,,,,,,
null,,confidence_buffer,487172,confidence_buffer,,null,,,,,,,,,,,,,,,,,,
2040,,recognition_phase,489213,Fictional_Cities_List/img_manmade_24.png,,49,,,,,,old,1,1,,,,,,,,,,
null,,confidence_buffer,489322,confidence_buffer,,null,,,,,,,,,,,,,,,,,,
null,,thebreak,489823,break,,null,,,,,,,,,,,,,,,,,,
7102,,pt2_realistic_rating,496926,US_Cities_List/mm_cornwall.png,,53,US_Cities_List/mm_cornwall.png,MM,5,,,,,,,,,,,,,,,
null,,confidence_buffer,497028,confidence_buffer,,null,,,,,,,,,,,,,,,,,,
2534.300000190735,,pt2_unique_rating,499564,US_Cities_List/mm_cornwall.png,,52,,,4,,,,,,,,,,,,,,,
null,,confidence_buffer,499665,confidence_buffer,,null,,,,,,,,,,,,,,,,,,
2374.6000003814697,,pt2_memorable_rating,502041,US_Cities_List/mm_cornwall.png,,52,,,4,,,,,,,,,,,,,,,
null,,confidence_buffer,502142,confidence_buffer,,null,,,,,,,,,,,,,,,,,,
3271.199999809265,,recognition_phase,505414,US_Cities_List/mm_cornwall.png,,51,,,,,,new,0,0.9090909090909091,,,,,,,,,,
null,,confidence_buffer,505525,confidence_buffer,,null,,,,,,,,,,,,,,,,,,
null,,thebreak,506028,break,,null,,,,,,,,,,,,,,,,,,
4004,,pt2_realistic_rating,510033,US_Cities_List/mm_hotsprings.png,,52,US_Cities_List/mm_hotsprings.png,MM,4,,,,,,,,,,,,,,,
null,,confidence_buffer,510134,confidence_buffer,,null,,,,,,,,,,,,,,,,,,
2102.7000002861023,,pt2_unique_rating,512238,US_Cities_List/mm_hotsprings.png,,52,,,4,,,,,,,,,,,,,,,
null,,confidence_buffer,512339,confidence_buffer,,null,,,,,,,,,,,,,,,,,,
3373.2999997138977,,pt2_memorable_rating,515714,US_Cities_List/mm_hotsprings.png,,52,,,4,,,,,,,,,,,,,,,
null,,confidence_buffer,515825,confidence_buffer,,null,,,,,,,,,,,,,,,,,,
1954.8999996185303,,recognition_phase,517781,US_Cities_List/mm_hotsprings.png,,49,,,,,,old,1,0.9166666666666666,,,,,,,,,,
null,,confidence_buffer,517883,confidence_buffer,,null,,,,,,,,,,,,,,,,,,
null,,thebreak,518384,break,,null,,,,,,,,,,,,,,,,,,
3959.699999809265,,pt2_realistic_rating,522345,Fictional_Cities_List/img_natural_28.png,,50,Fictional_Cities_List/img_natural_28.png,NAT,2,,,,,,,,,,,,,,,
null,,confidence_buffer,522448,confidence_buffer,,null,,,,,,,,,,,,,,,,,,
1381.9000000953674,,probe_rating,523831,probe_rating,,49,,,,1,1,,,,,,,,,,,,,
null,,confidence_buffer,523934,confidence_buffer,,null,,,,,,,,,,,,,,,,,,
3137,,pt2_unique_rating,527072,Fictional_Cities_List/img_natural_28.png,,52,,,4,,,,,,,,,,,,,,,
null,,confidence_buffer,527174,confidence_buffer,,null,,,,,,,,,,,,,,,,,,
1672.1000003814697,,pt2_memorable_rating,528847,Fictional_Cities_List/img_natural_28.png,,52,,,4,,,,,,,,,,,,,,,
null,,confidence_buffer,528948,confidence_buffer,,null,,,,,,,,,,,,,,,,,,
2390.300000190735,,recognition_phase,531340,Fictional_Cities_List/img_natural_28.png,,52,,,,,,new,1,0.9230769230769231,,,,,,,,,,
null,,confidence_buffer,531441,confidence_buffer,,null,,,,,,,,,,,,,,,,,,
null,,thebreak,531942,break,,null,,,,,,,,,,,,,,,,,,
3651.800000190735,,pt2_realistic_rating,535595,Fictional_Cities_List/img_natural_15.png,,50,Fictional_Cities_List/img_natural_15.png,NAT,2,,,,,,,,,,,,,,,
null,,confidence_buffer,535698,confidence_buffer,,null,,,,,,,,,,,,,,,,,,
2039.1999998092651,,pt2_unique_rating,537738,Fictional_Cities_List/img_natural_15.png,,52,,,4,,,,,,,,,,,,,,,
null,,confidence_buffer,537840,confidence_buffer,,null,,,,,,,,,,,,,,,,,,
2297.4000000953674,,pt2_memorable_rating,540138,Fictional_Cities_List/img_natural_15.png,,53,,,5,,,,,,,,,,,,,,,
null,,confidence_buffer,540240,confidence_buffer,,null,,,,,,,,,,,,,,,,,,
2574.0999999046326,,recognition_phase,542815,Fictional_Cities_List/img_natural_15.png,,52,,,,,,new,1,0.9285714285714286,,,,,,,,,,
null,,confidence_buffer,542918,confidence_buffer,,null,,,,,,,,,,,,,,,,,,
null,,thebreak,543419,break,,null,,,,,,,,,,,,,,,,,,
3463.199999809265,,pt2_realistic_rating,546883,Fictional_Cities_List/img_manmade_17.png,,50,Fictional_Cities_List/img_manmade_17.png,MM,2,,,,,,,,,,,,,,,
null,,confidence_buffer,546985,confidence_buffer,,null,,,,,,,,,,,,,,,,,,
2752.5,,pt2_unique_rating,549739,Fictional_Cities_List/img_manmade_17.png,,52,,,4,,,,,,,,,,,,,,,
null,,confidence_buffer,549840,confidence_buffer,,null,,,,,,,,,,,,,,,,,,
2045.5,,pt2_memorable_rating,551886,Fictional_Cities_List/img_manmade_17.png,,53,,,5,,,,,,,,,,,,,,,
null,,confidence_buffer,551988,confidence_buffer,,null,,,,,,,,,,,,,,,,,,
1761,,recognition_phase,553750,Fictional_Cities_List/img_manmade_17.png,,49,,,,,,old,1,0.9333333333333333,,,,,,,,,,
null,,confidence_buffer,553852,confidence_buffer,,null,,,,,,,,,,,,,,,,,,
null,,thebreak,554353,break,,null,,,,,,,,,,,,,,,,,,
3994,,pt2_realistic_rating,558348,US_Cities_List/nat_hilo.png,,51,US_Cities_List/nat_hilo.png,NAT,3,,,,,,,,,,,,,,,
null,,confidence_buffer,558450,confidence_buffer,,null,,,,,,,,,,,,,,,,,,
4653.099999904633,,pt2_unique_rating,563104,US_Cities_List/nat_hilo.png,,51,,,3,,,,,,,,,,,,,,,
null,,confidence_buffer,563205,confidence_buffer,,null,,,,,,,,,,,,,,,,,,
1908.0999999046326,,pt2_memorable_rating,565115,US_Cities_List/nat_hilo.png,,52,,,4,,,,,,,,,,,,,,,
null,,confidence_buffer,565217,confidence_buffer,,null,,,,,,,,,,,,,,,,,,
1987.0999999046326,,recognition_phase,567205,US_Cities_List/nat_hilo.png,,49,,,,,,old,1,0.9375,,,,,,,,,,
null,,confidence_buffer,567307,confidence_buffer,,null,,,,,,,,,,,,,,,,,,
null,,thebreak,567808,break,,null,,,,,,,,,,,,,,,,,,
2787.5,,pt2_realistic_rating,570596,US_Cities_List/mm_abilene.png,,51,US_Cities_List/mm_abilene.png,MM,3,,,,,,,,,,,,,,,
null,,confidence_buffer,570699,confidence_buffer,,null,,,,,,,,,,,,,,,,,,
4657.099999904633,,pt2_unique_rating,575358,US_Cities_List/mm_abilene.png,,52,,,4,,,,,,,,,,,,,,,
null,,confidence_buffer,575460,confidence_buffer,,null,,,,,,,,,,,,,,,,,,
2128.1000003814697,,pt2_memorable_rating,577590,US_Cities_List/mm_abilene.png,,52,,,4,,,,,,,,,,,,,,,
null,,confidence_buffer,577691,confidence_buffer,,null,,,,,,,,,,,,,,,,,,
2753.0999999046326,,recognition_phase,580446,US_Cities_List/mm_abilene.png,,52,,,,,,new,1,0.9411764705882353,,,,,,,,,,
null,,confidence_buffer,580548,confidence_buffer,,null,,,,,,,,,,,,,,,,,,
null,,thebreak,581049,break,,null,,,,,,,,,,,,,,,,,,
4252.900000095367,,pt2_realistic_rating,585304,Fictional_Cities_List/img_natural_35.png,,52,Fictional_Cities_List/img_natural_35.png,NAT,4,,,,,,,,,,,,,,,
null,,confidence_buffer,585405,confidence_buffer,,null,,,,,,,,,,,,,,,,,,
2127,,pt2_unique_rating,587533,Fictional_Cities_List/img_natural_35.png,,52,,,4,,,,,,,,,,,,,,,
null,,confidence_buffer,587644,confidence_buffer,,null,,,,,,,,,,,,,,,,,,
2026.4000000953674,,pt2_memorable_rating,589671,Fictional_Cities_List/img_natural_35.png,,53,,,5,,,,,,,,,,,,,,,
null,,confidence_buffer,589774,confidence_buffer,,null,,,,,,,,,,,,,,,,,,
3639.2000002861023,,recognition_phase,593414,Fictional_Cities_List/img_natural_35.png,,52,,,,,,new,0,0.8888888888888888,,,,,,,,,,
null,,confidence_buffer,593517,confidence_buffer,,null,,,,,,,,,,,,,,,,,,
null,,thebreak,594019,break,,null,,,,,,,,,,,,,,,,,,
3492.800000190735,,pt2_realistic_rating,597513,Fictional_Cities_List/img_natural_14.png,,52,Fictional_Cities_List/img_natural_14.png,NAT,4,,,,,,,,,,,,,,,
null,,confidence_buffer,597614,confidence_buffer,,null,,,,,,,,,,,,,,,,,,
1763.6999998092651,,pt2_unique_rating,599379,Fictional_Cities_List/img_natural_14.png,,52,,,4,,,,,,,,,,,,,,,
null,,confidence_buffer,599481,confidence_buffer,,null,,,,,,,,,,,,,,,,,,
1601.5,,pt2_memorable_rating,601084,Fictional_Cities_List/img_natural_14.png,,53,,,5,,,,,,,,,,,,,,,
null,,confidence_buffer,601195,confidence_buffer,,null,,,,,,,,,,,,,,,,,,
1506.5999999046326,,recognition_phase,602702,Fictional_Cities_List/img_natural_14.png,,49,,,,,,old,1,0.8947368421052632,,,,,,,,,,
null,,confidence_buffer,602805,confidence_buffer,,null,,,,,,,,,,,,,,,,,,
null,,thebreak,603306,break,,null,,,,,,,,,,,,,,,,,,
4521.900000095367,,pt2_realistic_rating,607829,US_Cities_List/nat_abilene.png,,53,US_Cities_List/nat_abilene.png,NAT,5,,,,,,,,,,,,,,,
null,,confidence_buffer,607930,confidence_buffer,,null,,,,,,,,,,,,,,,,,,
1734.7999997138977,,pt2_unique_rating,609667,US_Cities_List/nat_abilene.png,,52,,,4,,,,,,,,,,,,,,,
null,,confidence_buffer,609769,confidence_buffer,,null,,,,,,,,,,,,,,,,,,
2277.8999996185303,,pt2_memorable_rating,612048,US_Cities_List/nat_abilene.png,,52,,,4,,,,,,,,,,,,,,,
null,,confidence_buffer,612149,confidence_buffer,,null,,,,,,,,,,,,,,,,,,
1367.6999998092651,,recognition_phase,613518,US_Cities_List/nat_abilene.png,,49,,,,,,old,1,0.9,,,,,,,,,,
null,,confidence_buffer,613619,confidence_buffer,,null,,,,,,,,,,,,,,,,,,
null,,thebreak,614121,break,,null,,,,,,,,,,,,,,,,,,
2713.5,,pt2_realistic_rating,616835,US_Cities_List/mm_healdsburg.png,,52,US_Cities_List/mm_healdsburg.png,MM,4,,,,,,,,,,,,,,,
null,,confidence_buffer,616938,confidence_buffer,,null,,,,,,,,,,,,,,,,,,
2270.2000002861023,,pt2_unique_rating,619209,US_Cities_List/mm_healdsburg.png,,53,,,5,,,,,,,,,,,,,,,
null,,confidence_buffer,619312,confidence_buffer,,null,,,,,,,,,,,,,,,,,,
1969.7000002861023,,pt2_memorable_rating,621283,US_Cities_List/mm_healdsburg.png,,53,,,5,,,,,,,,,,,,,,,
null,,confidence_buffer,621385,confidence_buffer,,null,,,,,,,,,,,,,,,,,,
1578.5,,recognition_phase,622965,US_Cities_List/mm_healdsburg.png,,49,,,,,,old,1,0.9047619047619048,,,,,,,,,,
null,,confidence_buffer,623066,confidence_buffer,,null,,,,,,,,,,,,,,,,,,
null,,thebreak,623567,break,,null,,,,,,,,,,,,,,,,,,
2728,,pt2_realistic_rating,626296,Fictional_Cities_List/img_natural_31.png,,50,Fictional_Cities_List/img_natural_31.png,NAT,2,,,,,,,,,,,,,,,
null,,confidence_buffer,626398,confidence_buffer,,null,,,,,,,,,,,,,,,,,,
2706.5,,pt2_unique_rating,629106,Fictional_Cities_List/img_natural_31.png,,52,,,4,,,,,,,,,,,,,,,
null,,confidence_buffer,629208,confidence_buffer,,null,,,,,,,,,,,,,,,,,,
1856.5,,pt2_memorable_rating,631066,Fictional_Cities_List/img_natural_31.png,,53,,,5,,,,,,,,,,,,,,,
null,,confidence_buffer,631168,confidence_buffer,,null,,,,,,,,,,,,,,,,,,
1929.1000003814697,,recognition_phase,633099,Fictional_Cities_List/img_natural_31.png,,52,,,,,,new,1,0.9090909090909091,,,,,,,,,,
null,,confidence_buffer,633201,confidence_buffer,,null,,,,,,,,,,,,,,,,,,
null,,thebreak,633702,break,,null,,,,,,,,,,,,,,,,,,
4712.599999904633,,pt2_realistic_rating,638416,Fictional_Cities_List/img_manmade_47.png,,53,Fictional_Cities_List/img_manmade_47.png,MM,5,,,,,,,,,,,,,,,
null,,confidence_buffer,638518,confidence_buffer,,null,,,,,,,,,,,,,,,,,,
1745.8000001907349,,pt2_unique_rating,640265,Fictional_Cities_List/img_manmade_47.png,,52,,,4,,,,,,,,,,,,,,,
null,,confidence_buffer,640366,confidence_buffer,,null,,,,,,,,,,,,,,,,,,
1678.9000000953674,,pt2_memorable_rating,642046,Fictional_Cities_List/img_manmade_47.png,,53,,,5,,,,,,,,,,,,,,,
null,,confidence_buffer,642148,confidence_buffer,,null,,,,,,,,,,,,,,,,,,
2014.9000000953674,,recognition_phase,644164,Fictional_Cities_List/img_manmade_47.png,,52,,,,,,new,1,0.9130434782608695,,,,,,,,,,
null,,confidence_buffer,644274,confidence_buffer,,null,,,,,,,,,,,,,,,,,,
null,,thebreak,644776,break,,null,,,,,,,,,,,,,,,,,,
4306.599999904633,,pt2_realistic_rating,649084,US_Cities_List/mm_okoboji.png,,50,US_Cities_List/mm_okoboji.png,MM,2,,,,,,,,,,,,,,,
null,,confidence_buffer,649186,confidence_buffer,,null,,,,,,,,,,,,,,,,,,
2169.5,,pt2_unique_rating,651357,US_Cities_List/mm_okoboji.png,,52,,,4,,,,,,,,,,,,,,,
null,,confidence_buffer,651458,confidence_buffer,,null,,,,,,,,,,,,,,,,,,
2325.5,,pt2_memorable_rating,653785,US_Cities_List/mm_okoboji.png,,53,,,5,,,,,,,,,,,,,,,
null,,confidence_buffer,653886,confidence_buffer,,null,,,,,,,,,,,,,,,,,,
2145.9000000953674,,recognition_phase,656033,US_Cities_List/mm_okoboji.png,,52,,,,,,new,1,0.9166666666666666,,,,,,,,,,
null,,confidence_buffer,656135,confidence_buffer,,null,,,,,,,,,,,,,,,,,,
null,,thebreak,656637,break,,null,,,,,,,,,,,,,,,,,,
3157.699999809265,,pt2_realistic_rating,659796,US_Cities_List/nat_delawarecity.png,,53,US_Cities_List/nat_delawarecity.png,NAT,5,,,,,,,,,,,,,,,
null,,confidence_buffer,659898,confidence_buffer,,null,,,,,,,,,,,,,,,,,,
1573.5999999046326,,probe_rating,661473,probe_rating,,51,,,,3,1,,,,,,,,,,,,,
null,,confidence_buffer,661575,confidence_buffer,,null,,,,,,,,,,,,,,,,,,
3263.699999809265,,pt2_unique_rating,664839,US_Cities_List/nat_delawarecity.png,,51,,,3,,,,,,,,,,,,,,,
null,,confidence_buffer,664941,confidence_buffer,,null,,,,,,,,,,,,,,,,,,
2267.7000002861023,,pt2_memorable_rating,667210,US_Cities_List/nat_delawarecity.png,,52,,,4,,,,,,,,,,,,,,,
null,,confidence_buffer,667312,confidence_buffer,,null,,,,,,,,,,,,,,,,,,
1924.5,,recognition_phase,669238,US_Cities_List/nat_delawarecity.png,,52,,,,,,new,1,0.92,,,,,,,,,,
null,,confidence_buffer,669339,confidence_buffer,,null,,,,,,,,,,,,,,,,,,
null,,thebreak,669841,break,,null,,,,,,,,,,,,,,,,,,
3522.2999997138977,,pt2_realistic_rating,673364,Fictional_Cities_List/img_natural_36.png,,52,Fictional_Cities_List/img_natural_36.png,NAT,4,,,,,,,,,,,,,,,
null,,confidence_buffer,673465,confidence_buffer,,null,,,,,,,,,,,,,,,,,,
2154.9000000953674,,pt2_unique_rating,675622,Fictional_Cities_List/img_natural_36.png,,52,,,4,,,,,,,,,,,,,,,
null,,confidence_buffer,675723,confidence_buffer,,null,,,,,,,,,,,,,,,,,,
1462.2000002861023,,probe_rating,677187,probe_rating,,50,,,,2,1,,,,,,,,,,,,,
null,,confidence_buffer,677288,confidence_buffer,,null,,,,,,,,,,,,,,,,,,
2494.699999809265,,pt2_memorable_rating,679784,Fictional_Cities_List/img_natural_36.png,,52,,,4,,,,,,,,,,,,,,,
null,,confidence_buffer,679886,confidence_buffer,,null,,,,,,,,,,,,,,,,,,
3132.0999999046326,,recognition_phase,683019,Fictional_Cities_List/img_natural_36.png,,51,,,,,,new,1,0.9230769230769231,,,,,,,,,,
null,,confidence_buffer,683121,confidence_buffer,,null,,,,,,,,,,,,,,,,,,
null,,thebreak,683623,break,,null,,,,,,,,,,,,,,,,,,
4542.699999809265,,pt2_realistic_rating,688166,US_Cities_List/mm_delawarecity.png,,52,US_Cities_List/mm_delawarecity.png,MM,4,,,,,,,,,,,,,,,
null,,confidence_buffer,688269,confidence_buffer,,null,,,,,,,,,,,,,,,,,,
3081.9000000953674,,pt2_unique_rating,691352,US_Cities_List/mm_delawarecity.png,,51,,,3,,,,,,,,,,,,,,,
null,,confidence_buffer,691454,confidence_buffer,,null,,,,,,,,,,,,,,,,,,
1966.5999999046326,,pt2_memorable_rating,693422,US_Cities_List/mm_delawarecity.png,,52,,,4,,,,,,,,,,,,,,,
null,,confidence_buffer,693524,confidence_buffer,,null,,,,,,,,,,,,,,,,,,
2391.5999999046326,,recognition_phase,695917,US_Cities_List/mm_delawarecity.png,,49,,,,,,old,0,0.8888888888888888,,,,,,,,,,
null,,confidence_buffer,696018,confidence_buffer,,null,,,,,,,,,,,,,,,,,,
null,,thebreak,696520,break,,null,,,,,,,,,,,,,,,,,,
5103.5,,pt2_realistic_rating,701625,US_Cities_List/nat_bisbee.png,,53,US_Cities_List/nat_bisbee.png,NAT,5,,,,,,,,,,,,,,,
null,,confidence_buffer,701727,confidence_buffer,,null,,,,,,,,,,,,,,,,,,
3050.0999999046326,,pt2_unique_rating,704778,US_Cities_List/nat_bisbee.png,,51,,,3,,,,,,,,,,,,,,,
null,,confidence_buffer,704879,confidence_buffer,,null,,,,,,,,,,,,,,,,,,
2594.699999809265,,pt2_memorable_rating,707474,US_Cities_List/nat_bisbee.png,,52,,,4,,,,,,,,,,,,,,,
null,,confidence_buffer,707576,confidence_buffer,,null,,,,,,,,,,,,,,,,,,
2710,,recognition_phase,710287,US_Cities_List/nat_bisbee.png,,51,,,,,,new,1,0.8928571428571429,,,,,,,,,,
null,,confidence_buffer,710389,confidence_buffer,,null,,,,,,,,,,,,,,,,,,
null,,thebreak,710890,break,,null,,,,,,,,,,,,,,,,,,
3507.7999997138977,,pt2_realistic_rating,714399,US_Cities_List/nat_westpalmbeach.png,,52,US_Cities_List/nat_westpalmbeach.png,NAT,4,,,,,,,,,,,,,,,
null,,confidence_buffer,714501,confidence_buffer,,null,,,,,,,,,,,,,,,,,,
1708.9000000953674,,pt2_unique_rating,716211,US_Cities_List/nat_westpalmbeach.png,,52,,,4,,,,,,,,,,,,,,,
null,,confidence_buffer,716313,confidence_buffer,,null,,,,,,,,,,,,,,,,,,
3266.5999999046326,,pt2_memorable_rating,719580,US_Cities_List/nat_westpalmbeach.png,,52,,,4,,,,,,,,,,,,,,,
null,,confidence_buffer,719682,confidence_buffer,,null,,,,,,,,,,,,,,,,,,
1983,,probe_rating,721667,probe_rating,,53,,,,5,1,,,,,,,,,,,,,
null,,confidence_buffer,721769,confidence_buffer,,null,,,,,,,,,,,,,,,,,,
1754,,recognition_phase,723524,US_Cities_List/nat_westpalmbeach.png,,49,,,,,,old,1,0.896551724137931,,,,,,,,,,
null,,confidence_buffer,723628,confidence_buffer,,null,,,,,,,,,,,,,,,,,,
null,,thebreak,724130,break,,null,,,,,,,,,,,,,,,,,,
2680.5999999046326,,pt2_realistic_rating,726812,US_Cities_List/nat_cornwall.png,,52,US_Cities_List/nat_cornwall.png,NAT,4,,,,,,,,,,,,,,,
null,,confidence_buffer,726914,confidence_buffer,,null,,,,,,,,,,,,,,,,,,
2926.699999809265,,pt2_unique_rating,729842,US_Cities_List/nat_cornwall.png,,52,,,4,,,,,,,,,,,,,,,
null,,confidence_buffer,729944,confidence_buffer,,null,,,,,,,,,,,,,,,,,,
1228.5,,pt2_memorable_rating,731173,US_Cities_List/nat_cornwall.png,,53,,,5,,,,,,,,,,,,,,,
null,,confidence_buffer,731286,confidence_buffer,,null,,,,,,,,,,,,,,,,,,
3318.7000002861023,,recognition_phase,734606,US_Cities_List/nat_cornwall.png,,52,,,,,,new,0,0.8666666666666667,,,,,,,,,,
null,,confidence_buffer,734708,confidence_buffer,,null,,,,,,,,,,,,,,,,,,
null,,thebreak,735210,break,,null,,,,,,,,,,,,,,,,,,
2502.5,,pt2_realistic_rating,737714,US_Cities_List/nat_athens.png,,53,US_Cities_List/nat_athens.png,NAT,5,,,,,,,,,,,,,,,
null,,confidence_buffer,737816,confidence_buffer,,null,,,,,,,,,,,,,,,,,,
2761.7999997138977,,pt2_unique_rating,740578,US_Cities_List/nat_athens.png,,51,,,3,,,,,,,,,,,,,,,
null,,confidence_buffer,740680,confidence_buffer,,null,,,,,,,,,,,,,,,,,,
1810.4000000953674,,pt2_memorable_rating,742492,US_Cities_List/nat_athens.png,,52,,,4,,,,,,,,,,,,,,,
null,,confidence_buffer,742594,confidence_buffer,,null,,,,,,,,,,,,,,,,,,
1731.4000000953674,,recognition_phase,744327,US_Cities_List/nat_athens.png,,49,,,,,,old,1,0.8709677419354839,,,,,,,,,,
null,,confidence_buffer,744428,confidence_buffer,,null,,,,,,,,,,,,,,,,,,
null,,thebreak,744930,break,,null,,,,,,,,,,,,,,,,,,
3209.2999997138977,,pt2_realistic_rating,748140,US_Cities_List/nat_peoria.png,,52,US_Cities_List/nat_peoria.png,NAT,4,,,,,,,,,,,,,,,
null,,confidence_buffer,748241,confidence_buffer,,null,,,,,,,,,,,,,,,,,,
1876.0999999046326,,pt2_unique_rating,750118,US_Cities_List/nat_peoria.png,,52,,,4,,,,,,,,,,,,,,,
null,,confidence_buffer,750220,confidence_buffer,,null,,,,,,,,,,,,,,,,,,
1945.3000001907349,,pt2_memorable_rating,752167,US_Cities_List/nat_peoria.png,,52,,,4,,,,,,,,,,,,,,,
null,,confidence_buffer,752269,confidence_buffer,,null,,,,,,,,,,,,,,,,,,
1617.7000002861023,,recognition_phase,753888,US_Cities_List/nat_peoria.png,,49,,,,,,old,1,0.875,,,,,,,,,,
null,,confidence_buffer,753990,confidence_buffer,,null,,,,,,,,,,,,,,,,,,
null,,thebreak,754491,break,,null,,,,,,,,,,,,,,,,,,
5474,,pt2_realistic_rating,759966,US_Cities_List/mm_westpalmbeach.png,,50,US_Cities_List/mm_westpalmbeach.png,MM,2,,,,,,,,,,,,,,,
null,,confidence_buffer,760068,confidence_buffer,,null,,,,,,,,,,,,,,,,,,
2434.199999809265,,pt2_unique_rating,762504,US_Cities_List/mm_westpalmbeach.png,,53,,,5,,,,,,,,,,,,,,,
null,,confidence_buffer,762605,confidence_buffer,,null,,,,,,,,,,,,,,,,,,
1394.0999999046326,,pt2_memorable_rating,764000,US_Cities_List/mm_westpalmbeach.png,,53,,,5,,,,,,,,,,,,,,,
null,,confidence_buffer,764102,confidence_buffer,,null,,,,,,,,,,,,,,,,,,
2006.0999999046326,,recognition_phase,766109,US_Cities_List/mm_westpalmbeach.png,,49,,,,,,old,1,0.8787878787878788,,,,,,,,,,
null,,confidence_buffer,766211,confidence_buffer,,null,,,,,,,,,,,,,,,,,,
null,,thebreak,766712,break,,null,,,,,,,,,,,,,,,,,,
3447.2000002861023,,pt2_realistic_rating,770161,Fictional_Cities_List/img_natural_43.png,,52,Fictional_Cities_List/img_natural_43.png,NAT,4,,,,,,,,,,,,,,,
null,,confidence_buffer,770263,confidence_buffer,,null,,,,,,,,,,,,,,,,,,
2009.3000001907349,,pt2_unique_rating,772273,Fictional_Cities_List/img_natural_43.png,,52,,,4,,,,,,,,,,,,,,,
null,,confidence_buffer,772374,confidence_buffer,,null,,,,,,,,,,,,,,,,,,
2242.5,,pt2_memorable_rating,774618,Fictional_Cities_List/img_natural_43.png,,53,,,5,,,,,,,,,,,,,,,
null,,confidence_buffer,774720,confidence_buffer,,null,,,,,,,,,,,,,,,,,,
1490.2000002861023,,recognition_phase,776211,Fictional_Cities_List/img_natural_43.png,,49,,,,,,old,1,0.8823529411764706,,,,,,,,,,
null,,confidence_buffer,776312,confidence_buffer,,null,,,,,,,,,,,,,,,,,,
null,,thebreak,776814,break,,null,,,,,,,,,,,,,,,,,,
2651.6000003814697,,pt2_realistic_rating,779467,Fictional_Cities_List/img_natural_17.png,,52,Fictional_Cities_List/img_natural_17.png,NAT,4,,,,,,,,,,,,,,,
null,,confidence_buffer,779569,confidence_buffer,,null,,,,,,,,,,,,,,,,,,
2566.5,,pt2_unique_rating,782137,Fictional_Cities_List/img_natural_17.png,,52,,,4,,,,,,,,,,,,,,,
null,,confidence_buffer,782239,confidence_buffer,,null,,,,,,,,,,,,,,,,,,
3736.5999999046326,,pt2_memorable_rating,785977,Fictional_Cities_List/img_natural_17.png,,52,,,4,,,,,,,,,,,,,,,
null,,confidence_buffer,786079,confidence_buffer,,null,,,,,,,,,,,,,,,,,,
3894.0999999046326,,recognition_phase,789974,Fictional_Cities_List/img_natural_17.png,,50,,,,,,old,0,0.8571428571428571,,,,,,,,,,
null,,confidence_buffer,790081,confidence_buffer,,null,,,,,,,,,,,,,,,,,,
null,,thebreak,790583,break,,null,,,,,,,,,,,,,,,,,,
2715.5999999046326,,pt2_realistic_rating,793300,US_Cities_List/mm_sitka.png,,51,US_Cities_List/mm_sitka.png,MM,3,,,,,,,,,,,,,,,
null,,confidence_buffer,793403,confidence_buffer,,null,,,,,,,,,,,,,,,,,,
1878.0999999046326,,pt2_unique_rating,795282,US_Cities_List/mm_sitka.png,,52,,,4,,,,,,,,,,,,,,,
null,,confidence_buffer,795384,confidence_buffer,,null,,,,,,,,,,,,,,,,,,
1566.6999998092651,,probe_rating,796952,probe_rating,,52,,,,4,1,,,,,,,,,,,,,
null,,confidence_buffer,797053,confidence_buffer,,null,,,,,,,,,,,,,,,,,,
2298.5999999046326,,pt2_memorable_rating,799353,US_Cities_List/mm_sitka.png,,53,,,5,,,,,,,,,,,,,,,
null,,confidence_buffer,799463,confidence_buffer,,null,,,,,,,,,,,,,,,,,,
1379.5,,recognition_phase,800844,US_Cities_List/mm_sitka.png,,49,,,,,,old,1,0.8611111111111112,,,,,,,,,,
null,,confidence_buffer,800945,confidence_buffer,,null,,,,,,,,,,,,,,,,,,
null,,thebreak,801447,break,,null,,,,,,,,,,,,,,,,,,
3022.5,,pt2_realistic_rating,804471,US_Cities_List/nat_sitka.png,,53,US_Cities_List/nat_sitka.png,NAT,5,,,,,,,,,,,,,,,
null,,confidence_buffer,804572,confidence_buffer,,null,,,,,,,,,,,,,,,,,,
2363.4000000953674,,pt2_unique_rating,806936,US_Cities_List/nat_sitka.png,,51,,,3,,,,,,,,,,,,,,,
null,,confidence_buffer,807038,confidence_buffer,,null,,,,,,,,,,,,,,,,,,
2085,,pt2_memorable_rating,809124,US_Cities_List/nat_sitka.png,,52,,,4,,,,,,,,,,,,,,,
null,,confidence_buffer,809226,confidence_buffer,,null,,,,,,,,,,,,,,,,,,
2271.1000003814697,,recognition_phase,811498,US_Cities_List/nat_sitka.png,,52,,,,,,new,1,0.8648648648648649,,,,,,,,,,
null,,confidence_buffer,811599,confidence_buffer,,null,,,,,,,,,,,,,,,,,,
null,,thebreak,812102,break,,null,,,,,,,,,,,,,,,,,,
6742,,pt2_realistic_rating,818845,Fictional_Cities_List/img_natural_24.png,,49,Fictional_Cities_List/img_natural_24.png,NAT,1,,,,,,,,,,,,,,,
null,,confidence_buffer,818947,confidence_buffer,,null,,,,,,,,,,,,,,,,,,
1581.8000001907349,,pt2_unique_rating,820530,Fictional_Cities_List/img_natural_24.png,,53,,,5,,,,,,,,,,,,,,,
null,,confidence_buffer,820632,confidence_buffer,,null,,,,,,,,,,,,,,,,,,
1858.5,,pt2_memorable_rating,822492,Fictional_Cities_List/img_natural_24.png,,53,,,5,,,,,,,,,,,,,,,
null,,confidence_buffer,822594,confidence_buffer,,null,,,,,,,,,,,,,,,,,,
1516.4000000953674,,recognition_phase,824111,Fictional_Cities_List/img_natural_24.png,,49,,,,,,old,1,0.868421052631579,,,,,,,,,,
null,,confidence_buffer,824213,confidence_buffer,,null,,,,,,,,,,,,,,,,,,
null,,thebreak,824715,break,,null,,,,,,,,,,,,,,,,,,
4010.699999809265,,pt2_realistic_rating,828727,Fictional_Cities_List/img_manmade_28.png,,50,Fictional_Cities_List/img_manmade_28.png,MM,2,,,,,,,,,,,,,,,
null,,confidence_buffer,828829,confidence_buffer,,null,,,,,,,,,,,,,,,,,,
1925.1999998092651,,pt2_unique_rating,830755,Fictional_Cities_List/img_manmade_28.png,,51,,,3,,,,,,,,,,,,,,,
null,,confidence_buffer,830856,confidence_buffer,,null,,,,,,,,,,,,,,,,,,
4408.900000095367,,pt2_memorable_rating,835266,Fictional_Cities_List/img_manmade_28.png,,52,,,4,,,,,,,,,,,,,,,
null,,confidence_buffer,835368,confidence_buffer,,null,,,,,,,,,,,,,,,,,,
1660.7999997138977,,recognition_phase,837030,Fictional_Cities_List/img_manmade_28.png,,50,,,,,,old,0,0.8461538461538461,,,,,,,,,,
null,,confidence_buffer,837132,confidence_buffer,,null,,,,,,,,,,,,,,,,,,
null,,thebreak,837633,break,,null,,,,,,,,,,,,,,,,,,
6126.300000190735,,pt2_realistic_rating,843761,Fictional_Cities_List/img_manmade_15.png,,52,Fictional_Cities_List/img_manmade_15.png,MM,4,,,,,,,,,,,,,,,
null,,confidence_buffer,843862,confidence_buffer,,null,,,,,,,,,,,,,,,,,,
3378.2999997138977,,pt2_unique_rating,847242,Fictional_Cities_List/img_manmade_15.png,,51,,,3,,,,,,,,,,,,,,,
null,,confidence_buffer,847343,confidence_buffer,,null,,,,,,,,,,,,,,,,,,
2447.6000003814697,,pt2_memorable_rating,849792,Fictional_Cities_List/img_manmade_15.png,,53,,,5,,,,,,,,,,,,,,,
null,,confidence_buffer,849894,confidence_buffer,,null,,,,,,,,,,,,,,,,,,
1888.4000000953674,,recognition_phase,851783,Fictional_Cities_List/img_manmade_15.png,,52,,,,,,new,1,0.85,,,,,,,,,,
null,,confidence_buffer,851885,confidence_buffer,,null,,,,,,,,,,,,,,,,,,
null,,thebreak,852388,break,,null,,,,,,,,,,,,,,,,,,
2436.7000002861023,,pt2_realistic_rating,854825,US_Cities_List/nat_healdsburg.png,,52,US_Cities_List/nat_healdsburg.png,NAT,4,,,,,,,,,,,,,,,
null,,confidence_buffer,854927,confidence_buffer,,null,,,,,,,,,,,,,,,,,,
2204.5,,pt2_unique_rating,857132,US_Cities_List/nat_healdsburg.png,,51,,,3,,,,,,,,,,,,,,,
null,,confidence_buffer,857234,confidence_buffer,,null,,,,,,,,,,,,,,,,,,
2869.6000003814697,,pt2_memorable_rating,860105,US_Cities_List/nat_healdsburg.png,,51,,,3,,,,,,,,,,,,,,,
null,,confidence_buffer,860207,confidence_buffer,,null,,,,,,,,,,,,,,,,,,
1914.1999998092651,,recognition_phase,862122,US_Cities_List/nat_healdsburg.png,,52,,,,,,new,1,0.8536585365853658,,,,,,,,,,
null,,confidence_buffer,862224,confidence_buffer,,null,,,,,,,,,,,,,,,,,,
null,,thebreak,862726,break,,null,,,,,,,,,,,,,,,,,,
6165,,pt2_realistic_rating,868892,Fictional_Cities_List/img_manmade_43.png,,53,Fictional_Cities_List/img_manmade_43.png,MM,5,,,,,,,,,,,,,,,
null,,confidence_buffer,868994,confidence_buffer,,null,,,,,,,,,,,,,,,,,,
2695.2999997138977,,pt2_unique_rating,871691,Fictional_Cities_List/img_manmade_43.png,,53,,,5,,,,,,,,,,,,,,,
null,,confidence_buffer,871793,confidence_buffer,,null,,,,,,,,,,,,,,,,,,
1282.4000000953674,,pt2_memorable_rating,873077,Fictional_Cities_List/img_manmade_43.png,,53,,,5,,,,,,,,,,,,,,,
null,,confidence_buffer,873179,confidence_buffer,,null,,,,,,,,,,,,,,,,,,
2141.199999809265,,recognition_phase,875321,Fictional_Cities_List/img_manmade_43.png,,52,,,,,,new,1,0.8571428571428571,,,,,,,,,,
null,,confidence_buffer,875422,confidence_buffer,,null,,,,,,,,,,,,,,,,,,
null,,thebreak,875924,break,,null,,,,,,,,,,,,,,,,,,
3290.7000002861023,,pt2_realistic_rating,879216,Fictional_Cities_List/img_manmade_42.png,,52,Fictional_Cities_List/img_manmade_42.png,MM,4,,,,,,,,,,,,,,,
null,,confidence_buffer,879318,confidence_buffer,,null,,,,,,,,,,,,,,,,,,
2832.4000000953674,,pt2_unique_rating,882152,Fictional_Cities_List/img_manmade_42.png,,53,,,5,,,,,,,,,,,,,,,
null,,confidence_buffer,882253,confidence_buffer,,null,,,,,,,,,,,,,,,,,,
1761.0999999046326,,pt2_memorable_rating,884015,Fictional_Cities_List/img_manmade_42.png,,53,,,5,,,,,,,,,,,,,,,
null,,confidence_buffer,884118,confidence_buffer,,null,,,,,,,,,,,,,,,,,,
2072.9000000953674,,recognition_phase,886191,Fictional_Cities_List/img_manmade_42.png,,52,,,,,,new,1,0.8604651162790697,,,,,,,,,,
null,,confidence_buffer,886293,confidence_buffer,,null,,,,,,,,,,,,,,,,,,
null,,thebreak,886800,break,,null,,,,,,,,,,,,,,,,,,
3618.699999809265,,pt2_realistic_rating,890420,US_Cities_List/nat_boulder.png,,53,US_Cities_List/nat_boulder.png,NAT,5,,,,,,,,,,,,,,,
null,,confidence_buffer,890522,confidence_buffer,,null,,,,,,,,,,,,,,,,,,
1741.5999999046326,,pt2_unique_rating,892265,US_Cities_List/nat_boulder.png,,53,,,5,,,,,,,,,,,,,,,
null,,confidence_buffer,892367,confidence_buffer,,null,,,,,,,,,,,,,,,,,,
1666.8000001907349,,pt2_memorable_rating,894035,US_Cities_List/nat_boulder.png,,53,,,5,,,,,,,,,,,,,,,
null,,confidence_buffer,894137,confidence_buffer,,null,,,,,,,,,,,,,,,,,,
1511,,recognition_phase,895649,US_Cities_List/nat_boulder.png,,52,,,,,,new,1,0.8636363636363636,,,,,,,,,,
null,,confidence_buffer,895750,confidence_buffer,,null,,,,,,,,,,,,,,,,,,
null,,thebreak,896252,break,,null,,,,,,,,,,,,,,,,,,
4514.5,,pt2_realistic_rating,900767,US_Cities_List/mm_carmel.png,,51,US_Cities_List/mm_carmel.png,MM,3,,,,,,,,,,,,,,,
null,,confidence_buffer,900869,confidence_buffer,,null,,,,,,,,,,,,,,,,,,
2313.0999999046326,,pt2_unique_rating,903183,US_Cities_List/mm_carmel.png,,52,,,4,,,,,,,,,,,,,,,
null,,confidence_buffer,903285,confidence_buffer,,null,,,,,,,,,,,,,,,,,,
1634.4000000953674,,pt2_memorable_rating,904920,US_Cities_List/mm_carmel.png,,53,,,5,,,,,,,,,,,,,,,
null,,confidence_buffer,905022,confidence_buffer,,null,,,,,,,,,,,,,,,,,,
1474.0999999046326,,recognition_phase,906497,US_Cities_List/mm_carmel.png,,49,,,,,,old,1,0.8666666666666667,,,,,,,,,,
null,,confidence_buffer,906599,confidence_buffer,,null,,,,,,,,,,,,,,,,,,
null,,thebreak,907100,break,,null,,,,,,,,,,,,,,,,,,
4105.60000038147,,pt2_realistic_rating,911207,Fictional_Cities_List/img_manmade_35.png,,50,Fictional_Cities_List/img_manmade_35.png,MM,2,,,,,,,,,,,,,,,
null,,confidence_buffer,911309,confidence_buffer,,null,,,,,,,,,,,,,,,,,,
2769.0999999046326,,pt2_unique_rating,914079,Fictional_Cities_List/img_manmade_35.png,,52,,,4,,,,,,,,,,,,,,,
null,,confidence_buffer,914181,confidence_buffer,,null,,,,,,,,,,,,,,,,,,
1197.9000000953674,,pt2_memorable_rating,915380,Fictional_Cities_List/img_manmade_35.png,,53,,,5,,,,,,,,,,,,,,,
null,,confidence_buffer,915481,confidence_buffer,,null,,,,,,,,,,,,,,,,,,
1268.6999998092651,,recognition_phase,916751,Fictional_Cities_List/img_manmade_35.png,,49,,,,,,old,1,0.8695652173913043,,,,,,,,,,
null,,confidence_buffer,916852,confidence_buffer,,null,,,,,,,,,,,,,,,,,,
null,,thebreak,917354,break,,null,,,,,,,,,,,,,,,,,,
2382.6000003814697,,pt2_realistic_rating,919738,Fictional_Cities_List/img_natural_05.png,,50,Fictional_Cities_List/img_natural_05.png,NAT,2,,,,,,,,,,,,,,,
null,,confidence_buffer,919840,confidence_buffer,,null,,,,,,,,,,,,,,,,,,
2046.6999998092651,,pt2_unique_rating,921887,Fictional_Cities_List/img_natural_05.png,,52,,,4,,,,,,,,,,,,,,,
null,,confidence_buffer,921989,confidence_buffer,,null,,,,,,,,,,,,,,,,,,
1340.2999997138977,,pt2_memorable_rating,923331,Fictional_Cities_List/img_natural_05.png,,53,,,5,,,,,,,,,,,,,,,
null,,confidence_buffer,923434,confidence_buffer,,null,,,,,,,,,,,,,,,,,,
1226.3000001907349,,recognition_phase,924661,Fictional_Cities_List/img_natural_05.png,,49,,,,,,old,1,0.8723404255319149,,,,,,,,,,
null,,confidence_buffer,924763,confidence_buffer,,null,,,,,,,,,,,,,,,,,,
null,,thebreak,925264,break,,null,,,,,,,,,,,,,,,,,,
5529.800000190735,,pt2_realistic_rating,930795,US_Cities_List/mm_peoria.png,,50,US_Cities_List/mm_peoria.png,MM,2,,,,,,,,,,,,,,,
null,,confidence_buffer,930897,confidence_buffer,,null,,,,,,,,,,,,,,,,,,
2375.7000002861023,,pt2_unique_rating,933274,US_Cities_List/mm_peoria.png,,52,,,4,,,,,,,,,,,,,,,
null,,confidence_buffer,933379,confidence_buffer,,null,,,,,,,,,,,,,,,,,,
2181,,pt2_memorable_rating,935562,US_Cities_List/mm_peoria.png,,51,,,3,,,,,,,,,,,,,,,
null,,confidence_buffer,935664,confidence_buffer,,null,,,,,,,,,,,,,,,,,,
1720.5,,recognition_phase,937386,US_Cities_List/mm_peoria.png,,52,,,,,,new,1,0.875,,,,,,,,,,
null,,confidence_buffer,937488,confidence_buffer,,null,,,,,,,,,,,,,,,,,,
null,,thebreak,937990,break,,null,,,,,,,,,,,,,,,,,,
2592,,pt2_realistic_rating,940583,US_Cities_List/nat_okoboji.png,,52,US_Cities_List/nat_okoboji.png,NAT,4,,,,,,,,,,,,,,,
null,,confidence_buffer,940685,confidence_buffer,,null,,,,,,,,,,,,,,,,,,
2337,,pt2_unique_rating,943023,US_Cities_List/nat_okoboji.png,,51,,,3,,,,,,,,,,,,,,,
null,,confidence_buffer,943129,confidence_buffer,,null,,,,,,,,,,,,,,,,,,
2161.8999996185303,,pt2_memorable_rating,945292,US_Cities_List/nat_okoboji.png,,51,,,3,,,,,,,,,,,,,,,
null,,confidence_buffer,945393,confidence_buffer,,null,,,,,,,,,,,,,,,,,,
2230.300000190735,,recognition_phase,947625,US_Cities_List/nat_okoboji.png,,52,,,,,,new,1,0.8775510204081632,,,,,,,,,,
null,,confidence_buffer,947726,confidence_buffer,,null,,,,,,,,,,,,,,,,,,
null,,thebreak,948228,break,,null,,,,,,,,,,,,,,,,,,
2445.7000002861023,,pt2_realistic_rating,950675,Fictional_Cities_List/img_manmade_49.png,,52,Fictional_Cities_List/img_manmade_49.png,MM,4,,,,,,,,,,,,,,,
null,,confidence_buffer,950778,confidence_buffer,,null,,,,,,,,,,,,,,,,,,
2384.9000000953674,,pt2_unique_rating,953164,Fictional_Cities_List/img_manmade_49.png,,51,,,3,,,,,,,,,,,,,,,
null,,confidence_buffer,953274,confidence_buffer,,null,,,,,,,,,,,,,,,,,,
2548.4000000953674,,pt2_memorable_rating,955824,Fictional_Cities_List/img_manmade_49.png,,51,,,3,,,,,,,,,,,,,,,
null,,confidence_buffer,955933,confidence_buffer,,null,,,,,,,,,,,,,,,,,,
1234.7000002861023,,recognition_phase,957168,Fictional_Cities_List/img_manmade_49.png,,49,,,,,,old,1,0.88,,,,,,,,,,
null,,confidence_buffer,957270,confidence_buffer,,null,,,,,,,,,,,,,,,,,,
null,,thebreak,957772,break,,null,,,,,,,,,,,,,,,,,,
4307.400000095367,,pt2_realistic_rating,962080,Fictional_Cities_List/img_natural_47.png,,51,Fictional_Cities_List/img_natural_47.png,NAT,3,,,,,,,,,,,,,,,
null,,confidence_buffer,962182,confidence_buffer,,null,,,,,,,,,,,,,,,,,,
2297.5999999046326,,pt2_unique_rating,964480,Fictional_Cities_List/img_natural_47.png,,52,,,4,,,,,,,,,,,,,,,
null,,confidence_buffer,964582,confidence_buffer,,null,,,,,,,,,,,,,,,,,,
2452.0999999046326,,pt2_memorable_rating,967035,Fictional_Cities_List/img_natural_47.png,,52,,,4,,,,,,,,,,,,,,,
null,,confidence_buffer,967137,confidence_buffer,,null,,,,,,,,,,,,,,,,,,
1291.0999999046326,,recognition_phase,968429,Fictional_Cities_List/img_natural_47.png,,49,,,,,,old,1,0.8823529411764706,,,,,,,,,,
null,,confidence_buffer,968530,confidence_buffer,,null,,,,,,,,,,,,,,,,,,
null,,thebreak,969032,break,,null,,,,,,,,,,,,,,,,,,
3233.800000190735,,pt2_realistic_rating,972267,US_Cities_List/mm_bisbee.png,,53,US_Cities_List/mm_bisbee.png,MM,5,,,,,,,,,,,,,,,
null,,confidence_buffer,972369,confidence_buffer,,null,,,,,,,,,,,,,,,,,,
2441.800000190735,,pt2_unique_rating,974812,US_Cities_List/mm_bisbee.png,,52,,,4,,,,,,,,,,,,,,,
null,,confidence_buffer,974913,confidence_buffer,,null,,,,,,,,,,,,,,,,,,
1968.5,,pt2_memorable_rating,976883,US_Cities_List/mm_bisbee.png,,52,,,4,,,,,,,,,,,,,,,
null,,confidence_buffer,976985,confidence_buffer,,null,,,,,,,,,,,,,,,,,,
1770.4000000953674,,recognition_phase,978756,US_Cities_List/mm_bisbee.png,,52,,,,,,new,1,0.8846153846153846,,,,,,,,,,
null,,confidence_buffer,978858,confidence_buffer,,null,,,,,,,,,,,,,,,,,,
null,,thebreak,979360,break,,null,,,,,,,,,,,,,,,,,,
3432.9000000953674,,pt2_realistic_rating,982794,US_Cities_List/nat_carmel.png,,53,US_Cities_List/nat_carmel.png,NAT,5,,,,,,,,,,,,,,,
null,,confidence_buffer,982896,confidence_buffer,,null,,,,,,,,,,,,,,,,,,
1926.7999997138977,,pt2_unique_rating,984823,US_Cities_List/nat_carmel.png,,51,,,3,,,,,,,,,,,,,,,
null,,confidence_buffer,984924,confidence_buffer,,null,,,,,,,,,,,,,,,,,,
2111.0999999046326,,pt2_memorable_rating,987036,US_Cities_List/nat_carmel.png,,52,,,4,,,,,,,,,,,,,,,
null,,confidence_buffer,987139,confidence_buffer,,null,,,,,,,,,,,,,,,,,,
1816.5,,recognition_phase,988956,US_Cities_List/nat_carmel.png,,52,,,,,,new,1,0.8867924528301887,,,,,,,,,,
null,,confidence_buffer,989058,confidence_buffer,,null,,,,,,,,,,,,,,,,,,
null,,thebreak,989559,break,,null,,,,,,,,,,,,,,,,,,
2988,,pt2_realistic_rating,992548,US_Cities_List/mm_athens.png,,53,US_Cities_List/mm_athens.png,MM,5,,,,,,,,,,,,,,,
null,,confidence_buffer,992650,confidence_buffer,,null,,,,,,,,,,,,,,,,,,
2578,,pt2_unique_rating,995228,US_Cities_List/mm_athens.png,,51,,,3,,,,,,,,,,,,,,,
null,,confidence_buffer,995330,confidence_buffer,,null,,,,,,,,,,,,,,,,,,
1611.5,,probe_rating,996943,probe_rating,,50,,,,2,1,,,,,,,,,,,,,
null,,confidence_buffer,997045,confidence_buffer,,null,,,,,,,,,,,,,,,,,,
1917.9000000953674,,pt2_memorable_rating,998964,US_Cities_List/mm_athens.png,,51,,,3,,,,,,,,,,,,,,,
null,,confidence_buffer,999066,confidence_buffer,,null,,,,,,,,,,,,,,,,,,
2317.5,,recognition_phase,1001385,US_Cities_List/mm_athens.png,,52,,,,,,new,1,0.8888888888888888,,,,,,,,,,
null,,confidence_buffer,1001487,confidence_buffer,,null,,,,,,,,,,,,,,,,,,
null,,thebreak,1001989,break,,null,,,,,,,,,,,,,,,,,,
3755,,pt2_realistic_rating,1005745,US_Cities_List/mm_coeurdalene.png,,53,US_Cities_List/mm_coeurdalene.png,MM,5,,,,,,,,,,,,,,,
null,,confidence_buffer,1005848,confidence_buffer,,null,,,,,,,,,,,,,,,,,,
2714.199999809265,,pt2_unique_rating,1008563,US_Cities_List/mm_coeurdalene.png,,51,,,3,,,,,,,,,,,,,,,
null,,confidence_buffer,1008664,confidence_buffer,,null,,,,,,,,,,,,,,,,,,
1610.4000000953674,,pt2_memorable_rating,1010276,US_Cities_List/mm_coeurdalene.png,,51,,,3,,,,,,,,,,,,,,,
null,,confidence_buffer,1010378,confidence_buffer,,null,,,,,,,,,,,,,,,,,,
1625.6000003814697,,recognition_phase,1012004,US_Cities_List/mm_coeurdalene.png,,49,,,,,,old,1,0.8909090909090909,,,,,,,,,,
null,,confidence_buffer,1012106,confidence_buffer,,null,,,,,,,,,,,,,,,,,,
null,,thebreak,1012608,break,,null,,,,,,,,,,,,,,,,,,
2588.2000002861023,,pt2_realistic_rating,1015197,Fictional_Cities_List/img_natural_21.png,,53,Fictional_Cities_List/img_natural_21.png,NAT,5,,,,,,,,,,,,,,,
null,,confidence_buffer,1015299,confidence_buffer,,null,,,,,,,,,,,,,,,,,,
2343,,pt2_unique_rating,1017643,Fictional_Cities_List/img_natural_21.png,,50,,,2,,,,,,,,,,,,,,,
null,,confidence_buffer,1017757,confidence_buffer,,null,,,,,,,,,,,,,,,,,,
1955.5,,pt2_memorable_rating,1019714,Fictional_Cities_List/img_natural_21.png,,51,,,3,,,,,,,,,,,,,,,
null,,confidence_buffer,1019826,confidence_buffer,,null,,,,,,,,,,,,,,,,,,
2190.300000190735,,recognition_phase,1022018,Fictional_Cities_List/img_natural_21.png,,51,,,,,,new,1,0.8928571428571429,,,,,,,,,,
null,,confidence_buffer,1022120,confidence_buffer,,null,,,,,,,,,,,,,,,,,,
null,,thebreak,1022622,break,,null,,,,,,,,,,,,,,,,,,
5226.60000038147,,pt2_realistic_rating,1027849,US_Cities_List/mm_boulder.png,,53,US_Cities_List/mm_boulder.png,MM,5,,,,,,,,,,,,,,,
null,,confidence_buffer,1027952,confidence_buffer,,null,,,,,,,,,,,,,,,,,,
1525.6999998092651,,pt2_unique_rating,1029478,US_Cities_List/mm_boulder.png,,52,,,4,,,,,,,,,,,,,,,
null,,confidence_buffer,1029580,confidence_buffer,,null,,,,,,,,,,,,,,,,,,
4052.0999999046326,,pt2_memorable_rating,1033633,US_Cities_List/mm_boulder.png,,52,,,4,,,,,,,,,,,,,,,
null,,confidence_buffer,1033735,confidence_buffer,,null,,,,,,,,,,,,,,,,,,
1737.2999997138977,,recognition_phase,1035473,US_Cities_List/mm_boulder.png,,49,,,,,,old,1,0.8947368421052632,,,,,,,,,,
null,,confidence_buffer,1035575,confidence_buffer,,null,,,,,,,,,,,,,,,,,,
null,,thebreak,1036076,break,,null,,,,,,,,,,,,,,,,,,
4818.099999904633,,pt2_realistic_rating,1040895,Fictional_Cities_List/img_manmade_36.png,,50,Fictional_Cities_List/img_manmade_36.png,MM,2,,,,,,,,,,,,,,,
null,,confidence_buffer,1040998,confidence_buffer,,null,,,,,,,,,,,,,,,,,,
1882.3000001907349,,pt2_unique_rating,1042882,Fictional_Cities_List/img_manmade_36.png,,52,,,4,,,,,,,,,,,,,,,
null,,confidence_buffer,1042984,confidence_buffer,,null,,,,,,,,,,,,,,,,,,
3332.800000190735,,pt2_memorable_rating,1046318,Fictional_Cities_List/img_manmade_36.png,,53,,,5,,,,,,,,,,,,,,,
null,,confidence_buffer,1046419,confidence_buffer,,null,,,,,,,,,,,,,,,,,,
2770.699999809265,,recognition_phase,1049191,Fictional_Cities_List/img_manmade_36.png,,51,,,,,,new,1,0.896551724137931,,,,,,,,,,
null,,confidence_buffer,1049294,confidence_buffer,,null,,,,,,,,,,,,,,,,,,
null,,thebreak,1049795,break,,null,,,,,,,,,,,,,,,,,,
4953.10000038147,,pt2_realistic_rating,1054750,US_Cities_List/nat_hotsprings.png,,51,US_Cities_List/nat_hotsprings.png,NAT,3,,,,,,,,,,,,,,,
null,,confidence_buffer,1054851,confidence_buffer,,null,,,,,,,,,,,,,,,,,,
2565,,pt2_unique_rating,1057418,US_Cities_List/nat_hotsprings.png,,51,,,3,,,,,,,,,,,,,,,
null,,confidence_buffer,1057519,confidence_buffer,,null,,,,,,,,,,,,,,,,,,
1489,,pt2_memorable_rating,1059010,US_Cities_List/nat_hotsprings.png,,52,,,4,,,,,,,,,,,,,,,
null,,confidence_buffer,1059111,confidence_buffer,,null,,,,,,,,,,,,,,,,,,
2921.699999809265,,recognition_phase,1062034,US_Cities_List/nat_hotsprings.png,,52,,,,,,new,1,0.8983050847457628,,,,,,,,,,
null,,confidence_buffer,1062135,confidence_buffer,,null,,,,,,,,,,,,,,,,,,
null,,thebreak,1062637,break,,null,,,,,,,,,,,,,,,,,,
2366,,pt2_realistic_rating,1065004,Fictional_Cities_List/img_manmade_14.png,,52,Fictional_Cities_List/img_manmade_14.png,MM,4,,,,,,,,,,,,,,,
null,,confidence_buffer,1065106,confidence_buffer,,null,,,,,,,,,,,,,,,,,,
1989.2999997138977,,probe_rating,1067097,probe_rating,,52,,,,4,1,,,,,,,,,,,,,
null,,confidence_buffer,1067199,confidence_buffer,,null,,,,,,,,,,,,,,,,,,
2916.6000003814697,,pt2_unique_rating,1070117,Fictional_Cities_List/img_manmade_14.png,,52,,,4,,,,,,,,,,,,,,,
null,,confidence_buffer,1070219,confidence_buffer,,null,,,,,,,,,,,,,,,,,,
3106.9000000953674,,pt2_memorable_rating,1073326,Fictional_Cities_List/img_manmade_14.png,,53,,,5,,,,,,,,,,,,,,,
null,,confidence_buffer,1073428,confidence_buffer,,null,,,,,,,,,,,,,,,,,,
1044.9000000953674,,recognition_phase,1074474,Fictional_Cities_List/img_manmade_14.png,,49,,,,,,old,1,0.9,,,,,,,,,,
null,,confidence_buffer,1074576,confidence_buffer,,null,,,,,,,,,,,,,,,,,,
null,,thebreak,1075078,break,,null,,,,,,,,,,,,,,,,,,
,,survey,1411243,survey-questions,,,,,,,,,,,none,high,I did not,I did not use any strategies per se; some pictures were quite nice so they were easy to remember.,There were many pictures that reminded me of places I've visited or lived or experienced,Some pictures were memorable because of the feelings evoked in me.,Unique to me if I had not encountered anything like it before,while some were very realistic, e.g., flowers in the field, some were obvious, at least to me, that they were  AI or at least digitally enhanced in the dark room,I have never done a similar study,I enjoyed it very much, not boring at all
