rt,responses,trial_type,time_elapsed,stimulus,button_pressed,key_press,name_trial,city_type,rating,probe,probe_accuracy,response,correct,accuracy,problems,smooth,distraction,strategies,familiar,memorable,unique,realistic,similar,comments
10948.100000143051,{worker_id:5b757a03976ecb0001b1168f},id_enter,10950,,,,,,,,,,,,,,,,,,,,,
5726.200000047684,,fullscreen,16680,fullscreen,0,,,,,,,,,,,,,,,,,,,
5536.599999904633,,intro_0,22220,instruct,,32,,,,,,,,,,,,,,,,,,
7128.200000047684,,intro_1,29350,instruct,,32,,,,,,,,,,,,,,,,,,
5347.299999952316,,intro_2,34698,instruct,,32,,,,,,,,,,,,,,,,,,
null,,instruct_dir_4,36200,instruct,,null,,,,,,,,,,,,,,,,,,
null,,thebreak,36703,break,,null,,,,,,,,,,,,,,,,,,
8709,,familiar_rating,45413,Fictional_Cities_List/img_manmade_42.png,,51,Fictional_Cities_List/img_manmade_42.png,MM,3,,,,,,,,,,,,,,,
null,,confidence_buffer,45515,confidence_buffer,,null,,,,,,,,,,,,,,,,,,
6331.400000095367,,unique_rating,51848,Fictional_Cities_List/img_manmade_42.png,,52,,,4,,,,,,,,,,,,,,,
null,,confidence_buffer,51949,confidence_buffer,,null,,,,,,,,,,,,,,,,,,
4648.299999952316,,memorable_rating,56599,Fictional_Cities_List/img_manmade_42.png,,53,,,5,,,,,,,,,,,,,,,
null,,confidence_buffer,56701,confidence_buffer,,null,,,,,,,,,,,,,,,,,,
null,,thebreak,57202,break,,null,,,,,,,,,,,,,,,,,,
4831.400000095367,,familiar_rating,62035,Fictional_Cities_List/img_natural_21.png,,50,Fictional_Cities_List/img_natural_21.png,NAT,2,,,,,,,,,,,,,,,
null,,confidence_buffer,62136,confidence_buffer,,null,,,,,,,,,,,,,,,,,,
5209.599999904633,,unique_rating,67347,Fictional_Cities_List/img_natural_21.png,,50,,,2,,,,,,,,,,,,,,,
null,,confidence_buffer,67448,confidence_buffer,,null,,,,,,,,,,,,,,,,,,
3069.899999856949,,memorable_rating,70519,Fictional_Cities_List/img_natural_21.png,,52,,,4,,,,,,,,,,,,,,,
null,,confidence_buffer,70621,confidence_buffer,,null,,,,,,,,,,,,,,,,,,
null,,thebreak,71123,break,,null,,,,,,,,,,,,,,,,,,
5689.200000047684,,familiar_rating,76813,Fictional_Cities_List/img_manmade_26.png,,49,Fictional_Cities_List/img_manmade_26.png,MM,1,,,,,,,,,,,,,,,
null,,confidence_buffer,76914,confidence_buffer,,null,,,,,,,,,,,,,,,,,,
3814.5,,probe_rating,80729,probe_rating,,51,,,,3,1,,,,,,,,,,,,,
null,,confidence_buffer,80832,confidence_buffer,,null,,,,,,,,,,,,,,,,,,
4159,,unique_rating,84992,Fictional_Cities_List/img_manmade_26.png,,51,,,3,,,,,,,,,,,,,,,
null,,confidence_buffer,85094,confidence_buffer,,null,,,,,,,,,,,,,,,,,,
3236,,memorable_rating,88330,Fictional_Cities_List/img_manmade_26.png,,52,,,4,,,,,,,,,,,,,,,
null,,confidence_buffer,88432,confidence_buffer,,null,,,,,,,,,,,,,,,,,,
null,,thebreak,88933,break,,null,,,,,,,,,,,,,,,,,,
11678.599999904633,,familiar_rating,100613,US_Cities_List/mm_newport.png,,49,US_Cities_List/mm_newport.png,MM,1,,,,,,,,,,,,,,,
null,,confidence_buffer,100715,confidence_buffer,,null,,,,,,,,,,,,,,,,,,
4538,,unique_rating,105254,US_Cities_List/mm_newport.png,,53,,,5,,,,,,,,,,,,,,,
null,,confidence_buffer,105356,confidence_buffer,,null,,,,,,,,,,,,,,,,,,
2225,,memorable_rating,107583,US_Cities_List/mm_newport.png,,53,,,5,,,,,,,,,,,,,,,
null,,confidence_buffer,107685,confidence_buffer,,null,,,,,,,,,,,,,,,,,,
null,,thebreak,108186,break,,null,,,,,,,,,,,,,,,,,,
3416.800000190735,,familiar_rating,111604,Fictional_Cities_List/img_natural_08.png,,51,Fictional_Cities_List/img_natural_08.png,NAT,3,,,,,,,,,,,,,,,
null,,confidence_buffer,111705,confidence_buffer,,null,,,,,,,,,,,,,,,,,,
4969.400000095367,,unique_rating,116675,Fictional_Cities_List/img_natural_08.png,,50,,,2,,,,,,,,,,,,,,,
null,,confidence_buffer,116777,confidence_buffer,,null,,,,,,,,,,,,,,,,,,
3070.5999999046326,,memorable_rating,119848,Fictional_Cities_List/img_natural_08.png,,51,,,3,,,,,,,,,,,,,,,
null,,confidence_buffer,119950,confidence_buffer,,null,,,,,,,,,,,,,,,,,,
null,,thebreak,120452,break,,null,,,,,,,,,,,,,,,,,,
5660.900000095367,,familiar_rating,126114,US_Cities_List/mm_assateagueisland.png,,49,US_Cities_List/mm_assateagueisland.png,MM,1,,,,,,,,,,,,,,,
null,,confidence_buffer,126215,confidence_buffer,,null,,,,,,,,,,,,,,,,,,
3824.0999999046326,,unique_rating,130040,US_Cities_List/mm_assateagueisland.png,,51,,,3,,,,,,,,,,,,,,,
null,,confidence_buffer,130142,confidence_buffer,,null,,,,,,,,,,,,,,,,,,
3688.9000000953674,,memorable_rating,133832,US_Cities_List/mm_assateagueisland.png,,52,,,4,,,,,,,,,,,,,,,
null,,confidence_buffer,133935,confidence_buffer,,null,,,,,,,,,,,,,,,,,,
null,,thebreak,134436,break,,null,,,,,,,,,,,,,,,,,,
2734.5,,familiar_rating,137171,US_Cities_List/mm_livingston.png,,49,US_Cities_List/mm_livingston.png,MM,1,,,,,,,,,,,,,,,
null,,confidence_buffer,137274,confidence_buffer,,null,,,,,,,,,,,,,,,,,,
2856.7000000476837,,unique_rating,140132,US_Cities_List/mm_livingston.png,,50,,,2,,,,,,,,,,,,,,,
null,,confidence_buffer,140234,confidence_buffer,,null,,,,,,,,,,,,,,,,,,
1880.7999999523163,,memorable_rating,142115,US_Cities_List/mm_livingston.png,,50,,,2,,,,,,,,,,,,,,,
null,,confidence_buffer,142217,confidence_buffer,,null,,,,,,,,,,,,,,,,,,
null,,thebreak,142718,break,,null,,,,,,,,,,,,,,,,,,
6639.800000190735,,familiar_rating,149359,Fictional_Cities_List/img_natural_45.png,,51,Fictional_Cities_List/img_natural_45.png,NAT,3,,,,,,,,,,,,,,,
null,,confidence_buffer,149461,confidence_buffer,,null,,,,,,,,,,,,,,,,,,
4217.299999952316,,unique_rating,153679,Fictional_Cities_List/img_natural_45.png,,52,,,4,,,,,,,,,,,,,,,
null,,confidence_buffer,153780,confidence_buffer,,null,,,,,,,,,,,,,,,,,,
3460.5999999046326,,memorable_rating,157242,Fictional_Cities_List/img_natural_45.png,,51,,,3,,,,,,,,,,,,,,,
null,,confidence_buffer,157344,confidence_buffer,,null,,,,,,,,,,,,,,,,,,
null,,thebreak,157846,break,,null,,,,,,,,,,,,,,,,,,
4986.299999952316,,familiar_rating,162833,US_Cities_List/mm_manistee.png,,49,US_Cities_List/mm_manistee.png,MM,1,,,,,,,,,,,,,,,
null,,confidence_buffer,162934,confidence_buffer,,null,,,,,,,,,,,,,,,,,,
5634.199999809265,,unique_rating,168569,US_Cities_List/mm_manistee.png,,50,,,2,,,,,,,,,,,,,,,
null,,confidence_buffer,168678,confidence_buffer,,null,,,,,,,,,,,,,,,,,,
1565.2999999523163,,memorable_rating,170244,US_Cities_List/mm_manistee.png,,51,,,3,,,,,,,,,,,,,,,
null,,confidence_buffer,170345,confidence_buffer,,null,,,,,,,,,,,,,,,,,,
null,,thebreak,170847,break,,null,,,,,,,,,,,,,,,,,,
7305.700000047684,,familiar_rating,178154,Fictional_Cities_List/img_natural_22.png,,49,Fictional_Cities_List/img_natural_22.png,NAT,1,,,,,,,,,,,,,,,
null,,confidence_buffer,178255,confidence_buffer,,null,,,,,,,,,,,,,,,,,,
5307.5,,unique_rating,183563,Fictional_Cities_List/img_natural_22.png,,51,,,3,,,,,,,,,,,,,,,
null,,confidence_buffer,183665,confidence_buffer,,null,,,,,,,,,,,,,,,,,,
3134.9000000953674,,memorable_rating,186801,Fictional_Cities_List/img_natural_22.png,,50,,,2,,,,,,,,,,,,,,,
null,,confidence_buffer,186903,confidence_buffer,,null,,,,,,,,,,,,,,,,,,
null,,thebreak,187413,break,,null,,,,,,,,,,,,,,,,,,
3014.5,,familiar_rating,190428,US_Cities_List/nat_parkcity.png,,51,US_Cities_List/nat_parkcity.png,NAT,3,,,,,,,,,,,,,,,
null,,confidence_buffer,190529,confidence_buffer,,null,,,,,,,,,,,,,,,,,,
2499,,probe_rating,193029,probe_rating,,51,,,,3,1,,,,,,,,,,,,,
null,,confidence_buffer,193130,confidence_buffer,,null,,,,,,,,,,,,,,,,,,
2369.5999999046326,,unique_rating,195501,US_Cities_List/nat_parkcity.png,,50,,,2,,,,,,,,,,,,,,,
null,,confidence_buffer,195608,confidence_buffer,,null,,,,,,,,,,,,,,,,,,
1941.5999999046326,,memorable_rating,197551,US_Cities_List/nat_parkcity.png,,50,,,2,,,,,,,,,,,,,,,
null,,confidence_buffer,197652,confidence_buffer,,null,,,,,,,,,,,,,,,,,,
null,,thebreak,198154,break,,null,,,,,,,,,,,,,,,,,,
4407.599999904633,,familiar_rating,202562,Fictional_Cities_List/img_manmade_22.png,,49,Fictional_Cities_List/img_manmade_22.png,MM,1,,,,,,,,,,,,,,,
null,,confidence_buffer,202664,confidence_buffer,,null,,,,,,,,,,,,,,,,,,
3819.9000000953674,,unique_rating,206485,Fictional_Cities_List/img_manmade_22.png,,53,,,5,,,,,,,,,,,,,,,
null,,confidence_buffer,206586,confidence_buffer,,null,,,,,,,,,,,,,,,,,,
2922.9000000953674,,memorable_rating,209510,Fictional_Cities_List/img_manmade_22.png,,53,,,5,,,,,,,,,,,,,,,
null,,confidence_buffer,209613,confidence_buffer,,null,,,,,,,,,,,,,,,,,,
null,,thebreak,210114,break,,null,,,,,,,,,,,,,,,,,,
7122.5,,familiar_rating,217237,US_Cities_List/nat_newhope.png,,50,US_Cities_List/nat_newhope.png,NAT,2,,,,,,,,,,,,,,,
null,,confidence_buffer,217339,confidence_buffer,,null,,,,,,,,,,,,,,,,,,
2932.600000143051,,unique_rating,220273,US_Cities_List/nat_newhope.png,,50,,,2,,,,,,,,,,,,,,,
null,,confidence_buffer,220375,confidence_buffer,,null,,,,,,,,,,,,,,,,,,
1604.1000001430511,,memorable_rating,221980,US_Cities_List/nat_newhope.png,,51,,,3,,,,,,,,,,,,,,,
null,,confidence_buffer,222082,confidence_buffer,,null,,,,,,,,,,,,,,,,,,
2048.5,,probe_rating,224131,probe_rating,,53,,,,5,1,,,,,,,,,,,,,
null,,confidence_buffer,224238,confidence_buffer,,null,,,,,,,,,,,,,,,,,,
null,,thebreak,224739,break,,null,,,,,,,,,,,,,,,,,,
4228.700000047684,,familiar_rating,228969,Fictional_Cities_List/img_natural_34.png,,50,Fictional_Cities_List/img_natural_34.png,NAT,2,,,,,,,,,,,,,,,
null,,confidence_buffer,229071,confidence_buffer,,null,,,,,,,,,,,,,,,,,,
2838,,unique_rating,231910,Fictional_Cities_List/img_natural_34.png,,50,,,2,,,,,,,,,,,,,,,
null,,confidence_buffer,232012,confidence_buffer,,null,,,,,,,,,,,,,,,,,,
2397.4000000953674,,memorable_rating,234410,Fictional_Cities_List/img_natural_34.png,,50,,,2,,,,,,,,,,,,,,,
null,,confidence_buffer,234512,confidence_buffer,,null,,,,,,,,,,,,,,,,,,
null,,thebreak,235013,break,,null,,,,,,,,,,,,,,,,,,
10574.5,,familiar_rating,245589,Fictional_Cities_List/img_natural_28.png,,50,Fictional_Cities_List/img_natural_28.png,NAT,2,,,,,,,,,,,,,,,
null,,confidence_buffer,245691,confidence_buffer,,null,,,,,,,,,,,,,,,,,,
2371.699999809265,,unique_rating,248063,Fictional_Cities_List/img_natural_28.png,,51,,,3,,,,,,,,,,,,,,,
null,,confidence_buffer,248166,confidence_buffer,,null,,,,,,,,,,,,,,,,,,
2544.5,,memorable_rating,250711,Fictional_Cities_List/img_natural_28.png,,51,,,3,,,,,,,,,,,,,,,
null,,confidence_buffer,250813,confidence_buffer,,null,,,,,,,,,,,,,,,,,,
null,,thebreak,251328,break,,null,,,,,,,,,,,,,,,,,,
6915.400000095367,,familiar_rating,258244,US_Cities_List/mm_follybeach.png,,49,US_Cities_List/mm_follybeach.png,MM,1,,,,,,,,,,,,,,,
null,,confidence_buffer,258345,confidence_buffer,,null,,,,,,,,,,,,,,,,,,
4117.5,,unique_rating,262464,US_Cities_List/mm_follybeach.png,,51,,,3,,,,,,,,,,,,,,,
null,,confidence_buffer,262566,confidence_buffer,,null,,,,,,,,,,,,,,,,,,
2986.2999999523163,,memorable_rating,265553,US_Cities_List/mm_follybeach.png,,52,,,4,,,,,,,,,,,,,,,
null,,confidence_buffer,265655,confidence_buffer,,null,,,,,,,,,,,,,,,,,,
null,,thebreak,266156,break,,null,,,,,,,,,,,,,,,,,,
2306,,familiar_rating,268463,US_Cities_List/nat_albuquerque.png,,49,US_Cities_List/nat_albuquerque.png,NAT,1,,,,,,,,,,,,,,,
null,,confidence_buffer,268564,confidence_buffer,,null,,,,,,,,,,,,,,,,,,
3335.2999999523163,,unique_rating,271900,US_Cities_List/nat_albuquerque.png,,50,,,2,,,,,,,,,,,,,,,
null,,confidence_buffer,272003,confidence_buffer,,null,,,,,,,,,,,,,,,,,,
1856.7999999523163,,memorable_rating,273861,US_Cities_List/nat_albuquerque.png,,50,,,2,,,,,,,,,,,,,,,
null,,confidence_buffer,273962,confidence_buffer,,null,,,,,,,,,,,,,,,,,,
null,,thebreak,274464,break,,null,,,,,,,,,,,,,,,,,,
2599.5,,familiar_rating,277065,Fictional_Cities_List/img_manmade_34.png,,49,Fictional_Cities_List/img_manmade_34.png,MM,1,,,,,,,,,,,,,,,
null,,confidence_buffer,277167,confidence_buffer,,null,,,,,,,,,,,,,,,,,,
2116.199999809265,,unique_rating,279284,Fictional_Cities_List/img_manmade_34.png,,50,,,2,,,,,,,,,,,,,,,
null,,confidence_buffer,279386,confidence_buffer,,null,,,,,,,,,,,,,,,,,,
2925.9000000953674,,memorable_rating,282312,Fictional_Cities_List/img_manmade_34.png,,51,,,3,,,,,,,,,,,,,,,
null,,confidence_buffer,282414,confidence_buffer,,null,,,,,,,,,,,,,,,,,,
null,,thebreak,282914,break,,null,,,,,,,,,,,,,,,,,,
3578.5,,familiar_rating,286494,Fictional_Cities_List/img_manmade_48.png,,49,Fictional_Cities_List/img_manmade_48.png,MM,1,,,,,,,,,,,,,,,
null,,confidence_buffer,286596,confidence_buffer,,null,,,,,,,,,,,,,,,,,,
3301.5999999046326,,unique_rating,289898,Fictional_Cities_List/img_manmade_48.png,,50,,,2,,,,,,,,,,,,,,,
null,,confidence_buffer,290001,confidence_buffer,,null,,,,,,,,,,,,,,,,,,
1917.4000000953674,,memorable_rating,291920,Fictional_Cities_List/img_manmade_48.png,,50,,,2,,,,,,,,,,,,,,,
null,,confidence_buffer,292026,confidence_buffer,,null,,,,,,,,,,,,,,,,,,
null,,thebreak,292528,break,,null,,,,,,,,,,,,,,,,,,
2137.7999999523163,,familiar_rating,294666,US_Cities_List/nat_newport.png,,49,US_Cities_List/nat_newport.png,NAT,1,,,,,,,,,,,,,,,
null,,confidence_buffer,294768,confidence_buffer,,null,,,,,,,,,,,,,,,,,,
3320.899999856949,,unique_rating,298090,US_Cities_List/nat_newport.png,,50,,,2,,,,,,,,,,,,,,,
null,,confidence_buffer,298206,confidence_buffer,,null,,,,,,,,,,,,,,,,,,
1163.7999999523163,,memorable_rating,299371,US_Cities_List/nat_newport.png,,50,,,2,,,,,,,,,,,,,,,
null,,confidence_buffer,299473,confidence_buffer,,null,,,,,,,,,,,,,,,,,,
null,,thebreak,299975,break,,null,,,,,,,,,,,,,,,,,,
3001.5999999046326,,familiar_rating,302978,US_Cities_List/nat_shreveport.png,,49,US_Cities_List/nat_shreveport.png,NAT,1,,,,,,,,,,,,,,,
null,,confidence_buffer,303080,confidence_buffer,,null,,,,,,,,,,,,,,,,,,
4535.599999904633,,unique_rating,307616,US_Cities_List/nat_shreveport.png,,49,,,1,,,,,,,,,,,,,,,
null,,confidence_buffer,307718,confidence_buffer,,null,,,,,,,,,,,,,,,,,,
2545,,memorable_rating,310263,US_Cities_List/nat_shreveport.png,,50,,,2,,,,,,,,,,,,,,,
null,,confidence_buffer,310366,confidence_buffer,,null,,,,,,,,,,,,,,,,,,
null,,thebreak,310868,break,,null,,,,,,,,,,,,,,,,,,
4021.5,,familiar_rating,314890,Fictional_Cities_List/img_natural_25.png,,50,Fictional_Cities_List/img_natural_25.png,NAT,2,,,,,,,,,,,,,,,
null,,confidence_buffer,314992,confidence_buffer,,null,,,,,,,,,,,,,,,,,,
2823.2999999523163,,unique_rating,317817,Fictional_Cities_List/img_natural_25.png,,52,,,4,,,,,,,,,,,,,,,
null,,confidence_buffer,317918,confidence_buffer,,null,,,,,,,,,,,,,,,,,,
3969.5,,memorable_rating,321888,Fictional_Cities_List/img_natural_25.png,,52,,,4,,,,,,,,,,,,,,,
null,,confidence_buffer,321991,confidence_buffer,,null,,,,,,,,,,,,,,,,,,
null,,thebreak,322493,break,,null,,,,,,,,,,,,,,,,,,
5053.799999952316,,familiar_rating,327547,Fictional_Cities_List/img_manmade_28.png,,49,Fictional_Cities_List/img_manmade_28.png,MM,1,,,,,,,,,,,,,,,
null,,confidence_buffer,327649,confidence_buffer,,null,,,,,,,,,,,,,,,,,,
1757.7999999523163,,unique_rating,329408,Fictional_Cities_List/img_manmade_28.png,,50,,,2,,,,,,,,,,,,,,,
null,,confidence_buffer,329510,confidence_buffer,,null,,,,,,,,,,,,,,,,,,
1373.5999999046326,,memorable_rating,330885,Fictional_Cities_List/img_manmade_28.png,,50,,,2,,,,,,,,,,,,,,,
null,,confidence_buffer,330985,confidence_buffer,,null,,,,,,,,,,,,,,,,,,
null,,thebreak,331487,break,,null,,,,,,,,,,,,,,,,,,
2921.5,,familiar_rating,334409,US_Cities_List/mm_abilene.png,,49,US_Cities_List/mm_abilene.png,MM,1,,,,,,,,,,,,,,,
null,,confidence_buffer,334512,confidence_buffer,,null,,,,,,,,,,,,,,,,,,
2752.199999809265,,unique_rating,337266,US_Cities_List/mm_abilene.png,,52,,,4,,,,,,,,,,,,,,,
null,,confidence_buffer,337367,confidence_buffer,,null,,,,,,,,,,,,,,,,,,
2572.2999999523163,,memorable_rating,339941,US_Cities_List/mm_abilene.png,,52,,,4,,,,,,,,,,,,,,,
null,,confidence_buffer,340055,confidence_buffer,,null,,,,,,,,,,,,,,,,,,
null,,thebreak,340556,break,,null,,,,,,,,,,,,,,,,,,
3150.899999856949,,familiar_rating,343708,Fictional_Cities_List/img_natural_20.png,,49,Fictional_Cities_List/img_natural_20.png,NAT,1,,,,,,,,,,,,,,,
null,,confidence_buffer,343810,confidence_buffer,,null,,,,,,,,,,,,,,,,,,
2582,,unique_rating,346393,Fictional_Cities_List/img_natural_20.png,,52,,,4,,,,,,,,,,,,,,,
null,,confidence_buffer,346494,confidence_buffer,,null,,,,,,,,,,,,,,,,,,
1535.1000001430511,,memorable_rating,348030,Fictional_Cities_List/img_natural_20.png,,52,,,4,,,,,,,,,,,,,,,
null,,confidence_buffer,348142,confidence_buffer,,null,,,,,,,,,,,,,,,,,,
null,,thebreak,348644,break,,null,,,,,,,,,,,,,,,,,,
2443.7999999523163,,familiar_rating,351089,US_Cities_List/nat_cornwall.png,,50,US_Cities_List/nat_cornwall.png,NAT,2,,,,,,,,,,,,,,,
null,,confidence_buffer,351190,confidence_buffer,,null,,,,,,,,,,,,,,,,,,
3101.5,,unique_rating,354292,US_Cities_List/nat_cornwall.png,,50,,,2,,,,,,,,,,,,,,,
null,,confidence_buffer,354394,confidence_buffer,,null,,,,,,,,,,,,,,,,,,
1660.9000000953674,,memorable_rating,356056,US_Cities_List/nat_cornwall.png,,50,,,2,,,,,,,,,,,,,,,
null,,confidence_buffer,356157,confidence_buffer,,null,,,,,,,,,,,,,,,,,,
null,,thebreak,356658,break,,null,,,,,,,,,,,,,,,,,,
4375.700000047684,,familiar_rating,361035,US_Cities_List/nat_yukon.png,,50,US_Cities_List/nat_yukon.png,NAT,2,,,,,,,,,,,,,,,
null,,confidence_buffer,361137,confidence_buffer,,null,,,,,,,,,,,,,,,,,,
2513.0999999046326,,unique_rating,363651,US_Cities_List/nat_yukon.png,,50,,,2,,,,,,,,,,,,,,,
null,,confidence_buffer,363752,confidence_buffer,,null,,,,,,,,,,,,,,,,,,
1748,,memorable_rating,365501,US_Cities_List/nat_yukon.png,,50,,,2,,,,,,,,,,,,,,,
null,,confidence_buffer,365604,confidence_buffer,,null,,,,,,,,,,,,,,,,,,
null,,thebreak,366106,break,,null,,,,,,,,,,,,,,,,,,
3745,,familiar_rating,369852,US_Cities_List/mm_newhope.png,,49,US_Cities_List/mm_newhope.png,MM,1,,,,,,,,,,,,,,,
null,,confidence_buffer,369955,confidence_buffer,,null,,,,,,,,,,,,,,,,,,
2771.5,,unique_rating,372728,US_Cities_List/mm_newhope.png,,49,,,1,,,,,,,,,,,,,,,
null,,confidence_buffer,372830,confidence_buffer,,null,,,,,,,,,,,,,,,,,,
1646.5999999046326,,memorable_rating,374478,US_Cities_List/mm_newhope.png,,50,,,2,,,,,,,,,,,,,,,
null,,confidence_buffer,374580,confidence_buffer,,null,,,,,,,,,,,,,,,,,,
null,,thebreak,375081,break,,null,,,,,,,,,,,,,,,,,,
3799.7999999523163,,familiar_rating,378882,Fictional_Cities_List/img_manmade_20.png,,49,Fictional_Cities_List/img_manmade_20.png,MM,1,,,,,,,,,,,,,,,
null,,confidence_buffer,378984,confidence_buffer,,null,,,,,,,,,,,,,,,,,,
2143.699999809265,,unique_rating,381129,Fictional_Cities_List/img_manmade_20.png,,50,,,2,,,,,,,,,,,,,,,
null,,confidence_buffer,381230,confidence_buffer,,null,,,,,,,,,,,,,,,,,,
1516,,memorable_rating,382747,Fictional_Cities_List/img_manmade_20.png,,50,,,2,,,,,,,,,,,,,,,
null,,confidence_buffer,382849,confidence_buffer,,null,,,,,,,,,,,,,,,,,,
null,,thebreak,383350,break,,null,,,,,,,,,,,,,,,,,,
4618.5,,familiar_rating,387969,US_Cities_List/mm_cody.png,,51,US_Cities_List/mm_cody.png,MM,3,,,,,,,,,,,,,,,
null,,confidence_buffer,388072,confidence_buffer,,null,,,,,,,,,,,,,,,,,,
4372.700000047684,,unique_rating,392446,US_Cities_List/mm_cody.png,,52,,,4,,,,,,,,,,,,,,,
null,,confidence_buffer,392547,confidence_buffer,,null,,,,,,,,,,,,,,,,,,
2500.7999999523163,,memorable_rating,395049,US_Cities_List/mm_cody.png,,53,,,5,,,,,,,,,,,,,,,
null,,confidence_buffer,395161,confidence_buffer,,null,,,,,,,,,,,,,,,,,,
null,,thebreak,395663,break,,null,,,,,,,,,,,,,,,,,,
5369.599999904633,,intro_0,401033,instruct,,32,,,,,,,,,,,,,,,,,,
7868.099999904633,,intro_1,408902,instruct,,32,,,,,,,,,,,,,,,,,,
20941.700000047684,,intro_2,429845,instruct,,32,,,,,,,,,,,,,,,,,,
null,,instruct_dir_4,431347,instruct,,null,,,,,,,,,,,,,,,,,,
11094.100000143051,,pt2_realistic_rating,442442,Fictional_Cities_List/img_natural_48.png,,52,Fictional_Cities_List/img_natural_48.png,NAT,4,,,,,,,,,,,,,,,
null,,confidence_buffer,442544,confidence_buffer,,null,,,,,,,,,,,,,,,,,,
4225.5,,pt2_unique_rating,446771,Fictional_Cities_List/img_natural_48.png,,51,,,3,,,,,,,,,,,,,,,
null,,confidence_buffer,446872,confidence_buffer,,null,,,,,,,,,,,,,,,,,,
4286,,pt2_memorable_rating,451159,Fictional_Cities_List/img_natural_48.png,,51,,,3,,,,,,,,,,,,,,,
null,,confidence_buffer,451260,confidence_buffer,,null,,,,,,,,,,,,,,,,,,
4394.599999904633,,recognition_phase,455656,Fictional_Cities_List/img_natural_48.png,,52,,,,,,new,1,1,,,,,,,,,,
null,,confidence_buffer,455758,confidence_buffer,,null,,,,,,,,,,,,,,,,,,
null,,thebreak,456260,break,,null,,,,,,,,,,,,,,,,,,
4572.199999809265,,pt2_realistic_rating,460833,Fictional_Cities_List/img_manmade_08.png,,49,Fictional_Cities_List/img_manmade_08.png,MM,1,,,,,,,,,,,,,,,
null,,confidence_buffer,460935,confidence_buffer,,null,,,,,,,,,,,,,,,,,,
4431,,pt2_unique_rating,465368,Fictional_Cities_List/img_manmade_08.png,,53,,,5,,,,,,,,,,,,,,,
null,,confidence_buffer,465470,confidence_buffer,,null,,,,,,,,,,,,,,,,,,
2283.2999999523163,,pt2_memorable_rating,467754,Fictional_Cities_List/img_manmade_08.png,,52,,,4,,,,,,,,,,,,,,,
null,,confidence_buffer,467858,confidence_buffer,,null,,,,,,,,,,,,,,,,,,
3262.9000000953674,,recognition_phase,471122,Fictional_Cities_List/img_manmade_08.png,,52,,,,,,new,1,1,,,,,,,,,,
null,,confidence_buffer,471239,confidence_buffer,,null,,,,,,,,,,,,,,,,,,
null,,thebreak,471739,break,,null,,,,,,,,,,,,,,,,,,
6166,,pt2_realistic_rating,477906,US_Cities_List/nat_carmel.png,,52,US_Cities_List/nat_carmel.png,NAT,4,,,,,,,,,,,,,,,
null,,confidence_buffer,478007,confidence_buffer,,null,,,,,,,,,,,,,,,,,,
2936.5999999046326,,pt2_unique_rating,480944,US_Cities_List/nat_carmel.png,,49,,,1,,,,,,,,,,,,,,,
null,,confidence_buffer,481047,confidence_buffer,,null,,,,,,,,,,,,,,,,,,
2469.7999999523163,,pt2_memorable_rating,483518,US_Cities_List/nat_carmel.png,,49,,,1,,,,,,,,,,,,,,,
null,,confidence_buffer,483619,confidence_buffer,,null,,,,,,,,,,,,,,,,,,
2372.7999999523163,,recognition_phase,485993,US_Cities_List/nat_carmel.png,,52,,,,,,new,1,1,,,,,,,,,,
null,,confidence_buffer,486094,confidence_buffer,,null,,,,,,,,,,,,,,,,,,
null,,thebreak,486596,break,,null,,,,,,,,,,,,,,,,,,
3665.7000000476837,,pt2_realistic_rating,490263,Fictional_Cities_List/img_manmade_48.png,,49,Fictional_Cities_List/img_manmade_48.png,MM,1,,,,,,,,,,,,,,,
null,,confidence_buffer,490365,confidence_buffer,,null,,,,,,,,,,,,,,,,,,
3846.100000143051,,pt2_unique_rating,494212,Fictional_Cities_List/img_manmade_48.png,,49,,,1,,,,,,,,,,,,,,,
null,,confidence_buffer,494315,confidence_buffer,,null,,,,,,,,,,,,,,,,,,
2378.9000000953674,,pt2_memorable_rating,496695,Fictional_Cities_List/img_manmade_48.png,,50,,,2,,,,,,,,,,,,,,,
null,,confidence_buffer,496797,confidence_buffer,,null,,,,,,,,,,,,,,,,,,
2871.2000000476837,,recognition_phase,499669,Fictional_Cities_List/img_manmade_48.png,,49,,,,,,old,1,1,,,,,,,,,,
null,,confidence_buffer,499771,confidence_buffer,,null,,,,,,,,,,,,,,,,,,
null,,thebreak,500272,break,,null,,,,,,,,,,,,,,,,,,
4680.700000047684,,pt2_realistic_rating,504953,US_Cities_List/nat_duck.png,,53,US_Cities_List/nat_duck.png,NAT,5,,,,,,,,,,,,,,,
null,,confidence_buffer,505056,confidence_buffer,,null,,,,,,,,,,,,,,,,,,
4114.099999904633,,pt2_unique_rating,509175,US_Cities_List/nat_duck.png,,50,,,2,,,,,,,,,,,,,,,
null,,confidence_buffer,509277,confidence_buffer,,null,,,,,,,,,,,,,,,,,,
1888.9000000953674,,pt2_memorable_rating,511167,US_Cities_List/nat_duck.png,,50,,,2,,,,,,,,,,,,,,,
null,,confidence_buffer,511269,confidence_buffer,,null,,,,,,,,,,,,,,,,,,
2478.399999856949,,recognition_phase,513748,US_Cities_List/nat_duck.png,,52,,,,,,new,1,1,,,,,,,,,,
null,,confidence_buffer,513850,confidence_buffer,,null,,,,,,,,,,,,,,,,,,
null,,thebreak,514352,break,,null,,,,,,,,,,,,,,,,,,
3568.600000143051,,pt2_realistic_rating,517921,Fictional_Cities_List/img_manmade_42.png,,53,Fictional_Cities_List/img_manmade_42.png,MM,5,,,,,,,,,,,,,,,
null,,confidence_buffer,518023,confidence_buffer,,null,,,,,,,,,,,,,,,,,,
5101.199999809265,,pt2_unique_rating,523125,Fictional_Cities_List/img_manmade_42.png,,51,,,3,,,,,,,,,,,,,,,
null,,confidence_buffer,523226,confidence_buffer,,null,,,,,,,,,,,,,,,,,,
2287.2000000476837,,pt2_memorable_rating,525514,Fictional_Cities_List/img_manmade_42.png,,52,,,4,,,,,,,,,,,,,,,
null,,confidence_buffer,525617,confidence_buffer,,null,,,,,,,,,,,,,,,,,,
2962.2999999523163,,recognition_phase,528580,Fictional_Cities_List/img_manmade_42.png,,49,,,,,,old,1,1,,,,,,,,,,
null,,confidence_buffer,528682,confidence_buffer,,null,,,,,,,,,,,,,,,,,,
null,,thebreak,529183,break,,null,,,,,,,,,,,,,,,,,,
3167.0999999046326,,pt2_realistic_rating,532351,Fictional_Cities_List/img_manmade_34.png,,53,Fictional_Cities_List/img_manmade_34.png,MM,5,,,,,,,,,,,,,,,
null,,confidence_buffer,532457,confidence_buffer,,null,,,,,,,,,,,,,,,,,,
3412.9000000953674,,pt2_unique_rating,535871,Fictional_Cities_List/img_manmade_34.png,,51,,,3,,,,,,,,,,,,,,,
null,,confidence_buffer,535973,confidence_buffer,,null,,,,,,,,,,,,,,,,,,
4192.299999952316,,pt2_memorable_rating,540166,Fictional_Cities_List/img_manmade_34.png,,51,,,3,,,,,,,,,,,,,,,
null,,confidence_buffer,540268,confidence_buffer,,null,,,,,,,,,,,,,,,,,,
2002.4000000953674,,recognition_phase,542271,Fictional_Cities_List/img_manmade_34.png,,49,,,,,,old,1,1,,,,,,,,,,
null,,confidence_buffer,542374,confidence_buffer,,null,,,,,,,,,,,,,,,,,,
null,,thebreak,542875,break,,null,,,,,,,,,,,,,,,,,,
4857.199999809265,,pt2_realistic_rating,547734,US_Cities_List/mm_gloucester.png,,52,US_Cities_List/mm_gloucester.png,MM,4,,,,,,,,,,,,,,,
null,,confidence_buffer,547836,confidence_buffer,,null,,,,,,,,,,,,,,,,,,
1676.2999999523163,,probe_rating,549513,probe_rating,,50,,,,2,1,,,,,,,,,,,,,
null,,confidence_buffer,549616,confidence_buffer,,null,,,,,,,,,,,,,,,,,,
5568.100000143051,,pt2_unique_rating,555185,US_Cities_List/mm_gloucester.png,,51,,,3,,,,,,,,,,,,,,,
null,,confidence_buffer,555286,confidence_buffer,,null,,,,,,,,,,,,,,,,,,
3010.5,,pt2_memorable_rating,558297,US_Cities_List/mm_gloucester.png,,53,,,5,,,,,,,,,,,,,,,
null,,confidence_buffer,558400,confidence_buffer,,null,,,,,,,,,,,,,,,,,,
3414.100000143051,,recognition_phase,561815,US_Cities_List/mm_gloucester.png,,52,,,,,,new,1,1,,,,,,,,,,
null,,confidence_buffer,561918,confidence_buffer,,null,,,,,,,,,,,,,,,,,,
null,,thebreak,562418,break,,null,,,,,,,,,,,,,,,,,,
7307.100000143051,,pt2_realistic_rating,569726,Fictional_Cities_List/img_natural_25.png,,51,Fictional_Cities_List/img_natural_25.png,NAT,3,,,,,,,,,,,,,,,
null,,confidence_buffer,569828,confidence_buffer,,null,,,,,,,,,,,,,,,,,,
2308.4000000953674,,pt2_unique_rating,572137,Fictional_Cities_List/img_natural_25.png,,51,,,3,,,,,,,,,,,,,,,
null,,confidence_buffer,572238,confidence_buffer,,null,,,,,,,,,,,,,,,,,,
1759.6000001430511,,pt2_memorable_rating,573999,Fictional_Cities_List/img_natural_25.png,,51,,,3,,,,,,,,,,,,,,,
null,,confidence_buffer,574100,confidence_buffer,,null,,,,,,,,,,,,,,,,,,
1900.2000000476837,,recognition_phase,576001,Fictional_Cities_List/img_natural_25.png,,49,,,,,,old,1,1,,,,,,,,,,
null,,confidence_buffer,576103,confidence_buffer,,null,,,,,,,,,,,,,,,,,,
null,,thebreak,576605,break,,null,,,,,,,,,,,,,,,,,,
6076.900000095367,,pt2_realistic_rating,582682,Fictional_Cities_List/img_natural_13.png,,50,Fictional_Cities_List/img_natural_13.png,NAT,2,,,,,,,,,,,,,,,
null,,confidence_buffer,582784,confidence_buffer,,null,,,,,,,,,,,,,,,,,,
5826.399999856949,,pt2_unique_rating,588612,Fictional_Cities_List/img_natural_13.png,,51,,,3,,,,,,,,,,,,,,,
null,,confidence_buffer,588713,confidence_buffer,,null,,,,,,,,,,,,,,,,,,
3964.399999856949,,pt2_memorable_rating,592679,Fictional_Cities_List/img_natural_13.png,,52,,,4,,,,,,,,,,,,,,,
null,,confidence_buffer,592781,confidence_buffer,,null,,,,,,,,,,,,,,,,,,
4254.399999856949,,recognition_phase,597036,Fictional_Cities_List/img_natural_13.png,,52,,,,,,new,1,1,,,,,,,,,,
null,,confidence_buffer,597138,confidence_buffer,,null,,,,,,,,,,,,,,,,,,
null,,thebreak,597640,break,,null,,,,,,,,,,,,,,,,,,
4433.899999856949,,pt2_realistic_rating,602075,Fictional_Cities_List/img_manmade_21.png,,53,Fictional_Cities_List/img_manmade_21.png,MM,5,,,,,,,,,,,,,,,
null,,confidence_buffer,602177,confidence_buffer,,null,,,,,,,,,,,,,,,,,,
2606.0999999046326,,pt2_unique_rating,604784,Fictional_Cities_List/img_manmade_21.png,,52,,,4,,,,,,,,,,,,,,,
null,,confidence_buffer,604886,confidence_buffer,,null,,,,,,,,,,,,,,,,,,
2469.2000000476837,,pt2_memorable_rating,607356,Fictional_Cities_List/img_manmade_21.png,,52,,,4,,,,,,,,,,,,,,,
null,,confidence_buffer,607458,confidence_buffer,,null,,,,,,,,,,,,,,,,,,
3305.4000000953674,,recognition_phase,610764,Fictional_Cities_List/img_manmade_21.png,,52,,,,,,new,1,1,,,,,,,,,,
null,,confidence_buffer,610866,confidence_buffer,,null,,,,,,,,,,,,,,,,,,
null,,thebreak,611367,break,,null,,,,,,,,,,,,,,,,,,
3370.2999999523163,,pt2_realistic_rating,614739,US_Cities_List/nat_westpalmbeach.png,,50,US_Cities_List/nat_westpalmbeach.png,NAT,2,,,,,,,,,,,,,,,
null,,confidence_buffer,614841,confidence_buffer,,null,,,,,,,,,,,,,,,,,,
2751.7000000476837,,pt2_unique_rating,617594,US_Cities_List/nat_westpalmbeach.png,,50,,,2,,,,,,,,,,,,,,,
null,,confidence_buffer,617697,confidence_buffer,,null,,,,,,,,,,,,,,,,,,
5364.200000047684,,pt2_memorable_rating,623062,US_Cities_List/nat_westpalmbeach.png,,49,,,1,,,,,,,,,,,,,,,
null,,confidence_buffer,623163,confidence_buffer,,null,,,,,,,,,,,,,,,,,,
1879.2000000476837,,recognition_phase,625043,US_Cities_List/nat_westpalmbeach.png,,52,,,,,,new,1,1,,,,,,,,,,
null,,confidence_buffer,625145,confidence_buffer,,null,,,,,,,,,,,,,,,,,,
null,,thebreak,625646,break,,null,,,,,,,,,,,,,,,,,,
3373.600000143051,,pt2_realistic_rating,629020,Fictional_Cities_List/img_natural_21.png,,52,Fictional_Cities_List/img_natural_21.png,NAT,4,,,,,,,,,,,,,,,
null,,confidence_buffer,629122,confidence_buffer,,null,,,,,,,,,,,,,,,,,,
3139.5,,pt2_unique_rating,632263,Fictional_Cities_List/img_natural_21.png,,50,,,2,,,,,,,,,,,,,,,
null,,confidence_buffer,632364,confidence_buffer,,null,,,,,,,,,,,,,,,,,,
2428.4000000953674,,pt2_memorable_rating,634794,Fictional_Cities_List/img_natural_21.png,,50,,,2,,,,,,,,,,,,,,,
null,,confidence_buffer,634896,confidence_buffer,,null,,,,,,,,,,,,,,,,,,
1704.2000000476837,,recognition_phase,636601,Fictional_Cities_List/img_natural_21.png,,49,,,,,,old,1,1,,,,,,,,,,
null,,confidence_buffer,636703,confidence_buffer,,null,,,,,,,,,,,,,,,,,,
null,,thebreak,637204,break,,null,,,,,,,,,,,,,,,,,,
5853.699999809265,,pt2_realistic_rating,643059,US_Cities_List/mm_cody.png,,52,US_Cities_List/mm_cody.png,MM,4,,,,,,,,,,,,,,,
null,,confidence_buffer,643161,confidence_buffer,,null,,,,,,,,,,,,,,,,,,
2818.2999999523163,,pt2_unique_rating,645981,US_Cities_List/mm_cody.png,,52,,,4,,,,,,,,,,,,,,,
null,,confidence_buffer,646088,confidence_buffer,,null,,,,,,,,,,,,,,,,,,
2118.0999999046326,,pt2_memorable_rating,648208,US_Cities_List/mm_cody.png,,53,,,5,,,,,,,,,,,,,,,
null,,confidence_buffer,648309,confidence_buffer,,null,,,,,,,,,,,,,,,,,,
2212.899999856949,,probe_rating,650523,probe_rating,,53,,,,5,1,,,,,,,,,,,,,
null,,confidence_buffer,650626,confidence_buffer,,null,,,,,,,,,,,,,,,,,,
2176.800000190735,,recognition_phase,652804,US_Cities_List/mm_cody.png,,49,,,,,,old,1,1,,,,,,,,,,
null,,confidence_buffer,652907,confidence_buffer,,null,,,,,,,,,,,,,,,,,,
null,,thebreak,653408,break,,null,,,,,,,,,,,,,,,,,,
7554,,pt2_realistic_rating,660963,Fictional_Cities_List/img_natural_28.png,,50,Fictional_Cities_List/img_natural_28.png,NAT,2,,,,,,,,,,,,,,,
null,,confidence_buffer,661064,confidence_buffer,,null,,,,,,,,,,,,,,,,,,
3107.2000000476837,,pt2_unique_rating,664172,Fictional_Cities_List/img_natural_28.png,,52,,,4,,,,,,,,,,,,,,,
null,,confidence_buffer,664275,confidence_buffer,,null,,,,,,,,,,,,,,,,,,
1429.4000000953674,,pt2_memorable_rating,665706,Fictional_Cities_List/img_natural_28.png,,51,,,3,,,,,,,,,,,,,,,
null,,confidence_buffer,665808,confidence_buffer,,null,,,,,,,,,,,,,,,,,,
4067.2000000476837,,recognition_phase,669877,Fictional_Cities_List/img_natural_28.png,,51,,,,,,new,0,0.9333333333333333,,,,,,,,,,
null,,confidence_buffer,669979,confidence_buffer,,null,,,,,,,,,,,,,,,,,,
null,,thebreak,670481,break,,null,,,,,,,,,,,,,,,,,,
3790.199999809265,,pt2_realistic_rating,674273,US_Cities_List/nat_parkcity.png,,53,US_Cities_List/nat_parkcity.png,NAT,5,,,,,,,,,,,,,,,
null,,confidence_buffer,674374,confidence_buffer,,null,,,,,,,,,,,,,,,,,,
2650.7999999523163,,pt2_unique_rating,677026,US_Cities_List/nat_parkcity.png,,51,,,3,,,,,,,,,,,,,,,
null,,confidence_buffer,677127,confidence_buffer,,null,,,,,,,,,,,,,,,,,,
1500.7999999523163,,pt2_memorable_rating,678628,US_Cities_List/nat_parkcity.png,,51,,,3,,,,,,,,,,,,,,,
null,,confidence_buffer,678730,confidence_buffer,,null,,,,,,,,,,,,,,,,,,
2236.9000000953674,,recognition_phase,680968,US_Cities_List/nat_parkcity.png,,49,,,,,,old,1,0.9375,,,,,,,,,,
null,,confidence_buffer,681070,confidence_buffer,,null,,,,,,,,,,,,,,,,,,
null,,thebreak,681572,break,,null,,,,,,,,,,,,,,,,,,
8170.299999952316,,pt2_realistic_rating,689743,Fictional_Cities_List/img_manmade_26.png,,50,Fictional_Cities_List/img_manmade_26.png,MM,2,,,,,,,,,,,,,,,
null,,confidence_buffer,689845,confidence_buffer,,null,,,,,,,,,,,,,,,,,,
3379.899999856949,,pt2_unique_rating,693226,Fictional_Cities_List/img_manmade_26.png,,51,,,3,,,,,,,,,,,,,,,
null,,confidence_buffer,693329,confidence_buffer,,null,,,,,,,,,,,,,,,,,,
1995.2999999523163,,pt2_memorable_rating,695325,Fictional_Cities_List/img_manmade_26.png,,51,,,3,,,,,,,,,,,,,,,
null,,confidence_buffer,695427,confidence_buffer,,null,,,,,,,,,,,,,,,,,,
2888.7999999523163,,recognition_phase,698316,Fictional_Cities_List/img_manmade_26.png,,49,,,,,,old,1,0.9411764705882353,,,,,,,,,,
null,,confidence_buffer,698417,confidence_buffer,,null,,,,,,,,,,,,,,,,,,
null,,thebreak,698919,break,,null,,,,,,,,,,,,,,,,,,
4998.700000047684,,pt2_realistic_rating,703919,US_Cities_List/mm_follybeach.png,,53,US_Cities_List/mm_follybeach.png,MM,5,,,,,,,,,,,,,,,
null,,confidence_buffer,704020,confidence_buffer,,null,,,,,,,,,,,,,,,,,,
4059.9000000953674,,pt2_unique_rating,708081,US_Cities_List/mm_follybeach.png,,51,,,3,,,,,,,,,,,,,,,
null,,confidence_buffer,708183,confidence_buffer,,null,,,,,,,,,,,,,,,,,,
3245.7000000476837,,pt2_memorable_rating,711430,US_Cities_List/mm_follybeach.png,,51,,,3,,,,,,,,,,,,,,,
null,,confidence_buffer,711531,confidence_buffer,,null,,,,,,,,,,,,,,,,,,
2146.2999999523163,,recognition_phase,713678,US_Cities_List/mm_follybeach.png,,49,,,,,,old,1,0.9444444444444444,,,,,,,,,,
null,,confidence_buffer,713787,confidence_buffer,,null,,,,,,,,,,,,,,,,,,
null,,thebreak,714288,break,,null,,,,,,,,,,,,,,,,,,
4413.399999856949,,pt2_realistic_rating,718702,US_Cities_List/mm_hilo.png,,51,US_Cities_List/mm_hilo.png,MM,3,,,,,,,,,,,,,,,
null,,confidence_buffer,718803,confidence_buffer,,null,,,,,,,,,,,,,,,,,,
2349.4000000953674,,pt2_unique_rating,721154,US_Cities_List/mm_hilo.png,,50,,,2,,,,,,,,,,,,,,,
null,,confidence_buffer,721257,confidence_buffer,,null,,,,,,,,,,,,,,,,,,
1953.0999999046326,,pt2_memorable_rating,723211,US_Cities_List/mm_hilo.png,,50,,,2,,,,,,,,,,,,,,,
null,,confidence_buffer,723313,confidence_buffer,,null,,,,,,,,,,,,,,,,,,
2434.2000000476837,,recognition_phase,725748,US_Cities_List/mm_hilo.png,,52,,,,,,new,1,0.9473684210526315,,,,,,,,,,
null,,confidence_buffer,725850,confidence_buffer,,null,,,,,,,,,,,,,,,,,,
null,,thebreak,726356,break,,null,,,,,,,,,,,,,,,,,,
8288.700000047684,,pt2_realistic_rating,734646,Fictional_Cities_List/img_natural_45.png,,51,Fictional_Cities_List/img_natural_45.png,NAT,3,,,,,,,,,,,,,,,
null,,confidence_buffer,734748,confidence_buffer,,null,,,,,,,,,,,,,,,,,,
1581.7000000476837,,pt2_unique_rating,736330,Fictional_Cities_List/img_natural_45.png,,51,,,3,,,,,,,,,,,,,,,
null,,confidence_buffer,736432,confidence_buffer,,null,,,,,,,,,,,,,,,,,,
2117.100000143051,,pt2_memorable_rating,738550,Fictional_Cities_List/img_natural_45.png,,50,,,2,,,,,,,,,,,,,,,
null,,confidence_buffer,738653,confidence_buffer,,null,,,,,,,,,,,,,,,,,,
3350.4000000953674,,recognition_phase,742004,Fictional_Cities_List/img_natural_45.png,,50,,,,,,old,1,0.95,,,,,,,,,,
null,,confidence_buffer,742106,confidence_buffer,,null,,,,,,,,,,,,,,,,,,
null,,thebreak,742608,break,,null,,,,,,,,,,,,,,,,,,
4263.5,,pt2_realistic_rating,746872,Fictional_Cities_List/img_natural_42.png,,52,Fictional_Cities_List/img_natural_42.png,NAT,4,,,,,,,,,,,,,,,
null,,confidence_buffer,746975,confidence_buffer,,null,,,,,,,,,,,,,,,,,,
3853.5,,pt2_unique_rating,750829,Fictional_Cities_List/img_natural_42.png,,52,,,4,,,,,,,,,,,,,,,
null,,confidence_buffer,750932,confidence_buffer,,null,,,,,,,,,,,,,,,,,,
1972.2000000476837,,pt2_memorable_rating,752906,Fictional_Cities_List/img_natural_42.png,,52,,,4,,,,,,,,,,,,,,,
null,,confidence_buffer,753008,confidence_buffer,,null,,,,,,,,,,,,,,,,,,
1732.7000000476837,,probe_rating,754741,probe_rating,,51,,,,3,1,,,,,,,,,,,,,
null,,confidence_buffer,754845,confidence_buffer,,null,,,,,,,,,,,,,,,,,,
2927.7000000476837,,recognition_phase,757774,Fictional_Cities_List/img_natural_42.png,,52,,,,,,new,1,0.9523809523809523,,,,,,,,,,
null,,confidence_buffer,757876,confidence_buffer,,null,,,,,,,,,,,,,,,,,,
null,,thebreak,758378,break,,null,,,,,,,,,,,,,,,,,,
4637.799999952316,,pt2_realistic_rating,763017,US_Cities_List/nat_alliance.png,,52,US_Cities_List/nat_alliance.png,NAT,4,,,,,,,,,,,,,,,
null,,confidence_buffer,763120,confidence_buffer,,null,,,,,,,,,,,,,,,,,,
2568.0999999046326,,pt2_unique_rating,765689,US_Cities_List/nat_alliance.png,,51,,,3,,,,,,,,,,,,,,,
null,,confidence_buffer,765800,confidence_buffer,,null,,,,,,,,,,,,,,,,,,
1364.7000000476837,,pt2_memorable_rating,767166,US_Cities_List/nat_alliance.png,,51,,,3,,,,,,,,,,,,,,,
null,,confidence_buffer,767268,confidence_buffer,,null,,,,,,,,,,,,,,,,,,
2600.199999809265,,recognition_phase,769870,US_Cities_List/nat_alliance.png,,52,,,,,,new,1,0.9545454545454546,,,,,,,,,,
null,,confidence_buffer,769972,confidence_buffer,,null,,,,,,,,,,,,,,,,,,
null,,thebreak,770474,break,,null,,,,,,,,,,,,,,,,,,
6438.899999856949,,pt2_realistic_rating,776913,Fictional_Cities_List/img_manmade_45.png,,53,Fictional_Cities_List/img_manmade_45.png,MM,5,,,,,,,,,,,,,,,
null,,confidence_buffer,777014,confidence_buffer,,null,,,,,,,,,,,,,,,,,,
2354,,pt2_unique_rating,779369,Fictional_Cities_List/img_manmade_45.png,,50,,,2,,,,,,,,,,,,,,,
null,,confidence_buffer,779470,confidence_buffer,,null,,,,,,,,,,,,,,,,,,
2821.399999856949,,pt2_memorable_rating,782293,Fictional_Cities_List/img_manmade_45.png,,50,,,2,,,,,,,,,,,,,,,
null,,confidence_buffer,782395,confidence_buffer,,null,,,,,,,,,,,,,,,,,,
3705.7999999523163,,recognition_phase,786102,Fictional_Cities_List/img_manmade_45.png,,52,,,,,,new,1,0.9565217391304348,,,,,,,,,,
null,,confidence_buffer,786204,confidence_buffer,,null,,,,,,,,,,,,,,,,,,
null,,thebreak,786705,break,,null,,,,,,,,,,,,,,,,,,
9184.799999952316,,pt2_realistic_rating,795891,US_Cities_List/mm_manistee.png,,51,US_Cities_List/mm_manistee.png,MM,3,,,,,,,,,,,,,,,
null,,confidence_buffer,795992,confidence_buffer,,null,,,,,,,,,,,,,,,,,,
3563.2000000476837,,pt2_unique_rating,799556,US_Cities_List/mm_manistee.png,,50,,,2,,,,,,,,,,,,,,,
null,,confidence_buffer,799658,confidence_buffer,,null,,,,,,,,,,,,,,,,,,
2527.7000000476837,,pt2_memorable_rating,802187,US_Cities_List/mm_manistee.png,,50,,,2,,,,,,,,,,,,,,,
null,,confidence_buffer,802288,confidence_buffer,,null,,,,,,,,,,,,,,,,,,
1867.0999999046326,,recognition_phase,804156,US_Cities_List/mm_manistee.png,,49,,,,,,old,1,0.9583333333333334,,,,,,,,,,
null,,confidence_buffer,804257,confidence_buffer,,null,,,,,,,,,,,,,,,,,,
null,,thebreak,804763,break,,null,,,,,,,,,,,,,,,,,,
3149.5,,pt2_realistic_rating,807913,US_Cities_List/nat_cornwall.png,,52,US_Cities_List/nat_cornwall.png,NAT,4,,,,,,,,,,,,,,,
null,,confidence_buffer,808016,confidence_buffer,,null,,,,,,,,,,,,,,,,,,
2129.5,,pt2_unique_rating,810146,US_Cities_List/nat_cornwall.png,,50,,,2,,,,,,,,,,,,,,,
null,,confidence_buffer,810248,confidence_buffer,,null,,,,,,,,,,,,,,,,,,
2261.2999999523163,,pt2_memorable_rating,812510,US_Cities_List/nat_cornwall.png,,50,,,2,,,,,,,,,,,,,,,
null,,confidence_buffer,812622,confidence_buffer,,null,,,,,,,,,,,,,,,,,,
2233.9000000953674,,probe_rating,814857,probe_rating,,53,,,,5,1,,,,,,,,,,,,,
null,,confidence_buffer,814960,confidence_buffer,,null,,,,,,,,,,,,,,,,,,
2057.2999999523163,,recognition_phase,817018,US_Cities_List/nat_cornwall.png,,49,,,,,,old,1,0.96,,,,,,,,,,
null,,confidence_buffer,817120,confidence_buffer,,null,,,,,,,,,,,,,,,,,,
null,,thebreak,817621,break,,null,,,,,,,,,,,,,,,,,,
3720.100000143051,,pt2_realistic_rating,821342,US_Cities_List/nat_athens.png,,53,US_Cities_List/nat_athens.png,NAT,5,,,,,,,,,,,,,,,
null,,confidence_buffer,821444,confidence_buffer,,null,,,,,,,,,,,,,,,,,,
3392,,pt2_unique_rating,824837,US_Cities_List/nat_athens.png,,49,,,1,,,,,,,,,,,,,,,
null,,confidence_buffer,824938,confidence_buffer,,null,,,,,,,,,,,,,,,,,,
1651.8000001907349,,pt2_memorable_rating,826591,US_Cities_List/nat_athens.png,,50,,,2,,,,,,,,,,,,,,,
null,,confidence_buffer,826694,confidence_buffer,,null,,,,,,,,,,,,,,,,,,
1879.7000000476837,,probe_rating,828575,probe_rating,,49,,,,1,1,,,,,,,,,,,,,
null,,confidence_buffer,828677,confidence_buffer,,null,,,,,,,,,,,,,,,,,,
2469.4000000953674,,recognition_phase,831147,US_Cities_List/nat_athens.png,,52,,,,,,new,1,0.9615384615384616,,,,,,,,,,
null,,confidence_buffer,831248,confidence_buffer,,null,,,,,,,,,,,,,,,,,,
null,,thebreak,831749,break,,null,,,,,,,,,,,,,,,,,,
6473,,pt2_realistic_rating,838223,US_Cities_List/nat_medora.png,,52,US_Cities_List/nat_medora.png,NAT,4,,,,,,,,,,,,,,,
null,,confidence_buffer,838325,confidence_buffer,,null,,,,,,,,,,,,,,,,,,
4724,,pt2_unique_rating,843050,US_Cities_List/nat_medora.png,,50,,,2,,,,,,,,,,,,,,,
null,,confidence_buffer,843153,confidence_buffer,,null,,,,,,,,,,,,,,,,,,
1785.6000001430511,,pt2_memorable_rating,844939,US_Cities_List/nat_medora.png,,49,,,1,,,,,,,,,,,,,,,
null,,confidence_buffer,845041,confidence_buffer,,null,,,,,,,,,,,,,,,,,,
2838.0999999046326,,recognition_phase,847880,US_Cities_List/nat_medora.png,,51,,,,,,new,1,0.9629629629629629,,,,,,,,,,
null,,confidence_buffer,847983,confidence_buffer,,null,,,,,,,,,,,,,,,,,,
null,,thebreak,848485,break,,null,,,,,,,,,,,,,,,,,,
8437.299999952316,,pt2_realistic_rating,856923,US_Cities_List/mm_gardnerville.png,,50,US_Cities_List/mm_gardnerville.png,MM,2,,,,,,,,,,,,,,,
null,,confidence_buffer,857025,confidence_buffer,,null,,,,,,,,,,,,,,,,,,
4569.100000143051,,pt2_unique_rating,861595,US_Cities_List/mm_gardnerville.png,,53,,,5,,,,,,,,,,,,,,,
null,,confidence_buffer,861695,confidence_buffer,,null,,,,,,,,,,,,,,,,,,
2257,,pt2_memorable_rating,863953,US_Cities_List/mm_gardnerville.png,,53,,,5,,,,,,,,,,,,,,,
null,,confidence_buffer,864055,confidence_buffer,,null,,,,,,,,,,,,,,,,,,
2498.2999999523163,,recognition_phase,866555,US_Cities_List/mm_gardnerville.png,,52,,,,,,new,1,0.9642857142857143,,,,,,,,,,
null,,confidence_buffer,866657,confidence_buffer,,null,,,,,,,,,,,,,,,,,,
null,,thebreak,867160,break,,null,,,,,,,,,,,,,,,,,,
5523.199999809265,,pt2_realistic_rating,872685,US_Cities_List/nat_yukon.png,,52,US_Cities_List/nat_yukon.png,NAT,4,,,,,,,,,,,,,,,
null,,confidence_buffer,872786,confidence_buffer,,null,,,,,,,,,,,,,,,,,,
3879.5,,pt2_unique_rating,876666,US_Cities_List/nat_yukon.png,,50,,,2,,,,,,,,,,,,,,,
null,,confidence_buffer,876768,confidence_buffer,,null,,,,,,,,,,,,,,,,,,
2752.100000143051,,pt2_memorable_rating,879521,US_Cities_List/nat_yukon.png,,50,,,2,,,,,,,,,,,,,,,
null,,confidence_buffer,879623,confidence_buffer,,null,,,,,,,,,,,,,,,,,,
2778.5,,recognition_phase,882402,US_Cities_List/nat_yukon.png,,49,,,,,,old,1,0.9655172413793104,,,,,,,,,,
null,,confidence_buffer,882504,confidence_buffer,,null,,,,,,,,,,,,,,,,,,
null,,thebreak,883006,break,,null,,,,,,,,,,,,,,,,,,
5317.5,,pt2_realistic_rating,888324,Fictional_Cities_List/img_manmade_07.png,,53,Fictional_Cities_List/img_manmade_07.png,MM,5,,,,,,,,,,,,,,,
null,,confidence_buffer,888427,confidence_buffer,,null,,,,,,,,,,,,,,,,,,
708.1000001430511,,probe_rating,889135,probe_rating,,53,,,,5,1,,,,,,,,,,,,,
null,,confidence_buffer,889236,confidence_buffer,,null,,,,,,,,,,,,,,,,,,
4409.900000095367,,pt2_unique_rating,893647,Fictional_Cities_List/img_manmade_07.png,,50,,,2,,,,,,,,,,,,,,,
null,,confidence_buffer,893750,confidence_buffer,,null,,,,,,,,,,,,,,,,,,
1562,,pt2_memorable_rating,895313,Fictional_Cities_List/img_manmade_07.png,,50,,,2,,,,,,,,,,,,,,,
null,,confidence_buffer,895414,confidence_buffer,,null,,,,,,,,,,,,,,,,,,
2149.600000143051,,recognition_phase,897564,Fictional_Cities_List/img_manmade_07.png,,52,,,,,,new,1,0.9666666666666667,,,,,,,,,,
null,,confidence_buffer,897666,confidence_buffer,,null,,,,,,,,,,,,,,,,,,
null,,thebreak,898167,break,,null,,,,,,,,,,,,,,,,,,
7923.200000047684,,pt2_realistic_rating,906092,US_Cities_List/mm_orr.png,,51,US_Cities_List/mm_orr.png,MM,3,,,,,,,,,,,,,,,
null,,confidence_buffer,906194,confidence_buffer,,null,,,,,,,,,,,,,,,,,,
3453.399999856949,,pt2_unique_rating,909649,US_Cities_List/mm_orr.png,,52,,,4,,,,,,,,,,,,,,,
null,,confidence_buffer,909752,confidence_buffer,,null,,,,,,,,,,,,,,,,,,
2339.5,,pt2_memorable_rating,912093,US_Cities_List/mm_orr.png,,53,,,5,,,,,,,,,,,,,,,
null,,confidence_buffer,912194,confidence_buffer,,null,,,,,,,,,,,,,,,,,,
2800.5999999046326,,recognition_phase,914996,US_Cities_List/mm_orr.png,,52,,,,,,new,1,0.967741935483871,,,,,,,,,,
null,,confidence_buffer,915096,confidence_buffer,,null,,,,,,,,,,,,,,,,,,
null,,thebreak,915598,break,,null,,,,,,,,,,,,,,,,,,
5202.600000143051,,pt2_realistic_rating,920802,US_Cities_List/mm_assateagueisland.png,,51,US_Cities_List/mm_assateagueisland.png,MM,3,,,,,,,,,,,,,,,
null,,confidence_buffer,920905,confidence_buffer,,null,,,,,,,,,,,,,,,,,,
3064.600000143051,,pt2_unique_rating,923971,US_Cities_List/mm_assateagueisland.png,,51,,,3,,,,,,,,,,,,,,,
null,,confidence_buffer,924072,confidence_buffer,,null,,,,,,,,,,,,,,,,,,
2393.4000000953674,,pt2_memorable_rating,926466,US_Cities_List/mm_assateagueisland.png,,51,,,3,,,,,,,,,,,,,,,
null,,confidence_buffer,926568,confidence_buffer,,null,,,,,,,,,,,,,,,,,,
1720.6000001430511,,recognition_phase,928289,US_Cities_List/mm_assateagueisland.png,,49,,,,,,old,1,0.96875,,,,,,,,,,
null,,confidence_buffer,928391,confidence_buffer,,null,,,,,,,,,,,,,,,,,,
null,,thebreak,928892,break,,null,,,,,,,,,,,,,,,,,,
5525.300000190735,,pt2_realistic_rating,934418,US_Cities_List/nat_sitka.png,,53,US_Cities_List/nat_sitka.png,NAT,5,,,,,,,,,,,,,,,
null,,confidence_buffer,934520,confidence_buffer,,null,,,,,,,,,,,,,,,,,,
3642.2999999523163,,pt2_unique_rating,938164,US_Cities_List/nat_sitka.png,,51,,,3,,,,,,,,,,,,,,,
null,,confidence_buffer,938266,confidence_buffer,,null,,,,,,,,,,,,,,,,,,
1922.2000000476837,,pt2_memorable_rating,940189,US_Cities_List/nat_sitka.png,,51,,,3,,,,,,,,,,,,,,,
null,,confidence_buffer,940304,confidence_buffer,,null,,,,,,,,,,,,,,,,,,
1960.2000000476837,,probe_rating,942265,probe_rating,,53,,,,5,1,,,,,,,,,,,,,
null,,confidence_buffer,942367,confidence_buffer,,null,,,,,,,,,,,,,,,,,,
2890.100000143051,,recognition_phase,945257,US_Cities_List/nat_sitka.png,,52,,,,,,new,1,0.9696969696969697,,,,,,,,,,
null,,confidence_buffer,945360,confidence_buffer,,null,,,,,,,,,,,,,,,,,,
null,,thebreak,945862,break,,null,,,,,,,,,,,,,,,,,,
3826.2000000476837,,pt2_realistic_rating,949689,Fictional_Cities_List/img_manmade_22.png,,50,Fictional_Cities_List/img_manmade_22.png,MM,2,,,,,,,,,,,,,,,
null,,confidence_buffer,949791,confidence_buffer,,null,,,,,,,,,,,,,,,,,,
5179.5,,pt2_unique_rating,954971,Fictional_Cities_List/img_manmade_22.png,,52,,,4,,,,,,,,,,,,,,,
null,,confidence_buffer,955085,confidence_buffer,,null,,,,,,,,,,,,,,,,,,
2629.0999999046326,,pt2_memorable_rating,957715,Fictional_Cities_List/img_manmade_22.png,,53,,,5,,,,,,,,,,,,,,,
null,,confidence_buffer,957816,confidence_buffer,,null,,,,,,,,,,,,,,,,,,
2477.600000143051,,recognition_phase,960295,Fictional_Cities_List/img_manmade_22.png,,49,,,,,,old,1,0.9705882352941176,,,,,,,,,,
null,,confidence_buffer,960397,confidence_buffer,,null,,,,,,,,,,,,,,,,,,
null,,thebreak,960900,break,,null,,,,,,,,,,,,,,,,,,
5840.599999904633,,pt2_realistic_rating,966741,US_Cities_List/nat_albuquerque.png,,53,US_Cities_List/nat_albuquerque.png,NAT,5,,,,,,,,,,,,,,,
null,,confidence_buffer,966844,confidence_buffer,,null,,,,,,,,,,,,,,,,,,
2703.4000000953674,,pt2_unique_rating,969548,US_Cities_List/nat_albuquerque.png,,50,,,2,,,,,,,,,,,,,,,
null,,confidence_buffer,969649,confidence_buffer,,null,,,,,,,,,,,,,,,,,,
1486.4000000953674,,pt2_memorable_rating,971136,US_Cities_List/nat_albuquerque.png,,50,,,2,,,,,,,,,,,,,,,
null,,confidence_buffer,971239,confidence_buffer,,null,,,,,,,,,,,,,,,,,,
3343.7000000476837,,recognition_phase,974583,US_Cities_List/nat_albuquerque.png,,50,,,,,,old,1,0.9714285714285714,,,,,,,,,,
null,,confidence_buffer,974686,confidence_buffer,,null,,,,,,,,,,,,,,,,,,
null,,thebreak,975188,break,,null,,,,,,,,,,,,,,,,,,
5220.799999952316,,pt2_realistic_rating,980410,Fictional_Cities_List/img_manmade_38.png,,52,Fictional_Cities_List/img_manmade_38.png,MM,4,,,,,,,,,,,,,,,
null,,confidence_buffer,980512,confidence_buffer,,null,,,,,,,,,,,,,,,,,,
2177.800000190735,,pt2_unique_rating,982691,Fictional_Cities_List/img_manmade_38.png,,53,,,5,,,,,,,,,,,,,,,
null,,confidence_buffer,982796,confidence_buffer,,null,,,,,,,,,,,,,,,,,,
1535.6999998092651,,pt2_memorable_rating,984333,Fictional_Cities_List/img_manmade_38.png,,53,,,5,,,,,,,,,,,,,,,
null,,confidence_buffer,984435,confidence_buffer,,null,,,,,,,,,,,,,,,,,,
2335.7000000476837,,recognition_phase,986772,Fictional_Cities_List/img_manmade_38.png,,52,,,,,,new,1,0.9722222222222222,,,,,,,,,,
null,,confidence_buffer,986875,confidence_buffer,,null,,,,,,,,,,,,,,,,,,
null,,thebreak,987376,break,,null,,,,,,,,,,,,,,,,,,
4461.799999952316,,pt2_realistic_rating,991838,US_Cities_List/mm_newport.png,,52,US_Cities_List/mm_newport.png,MM,4,,,,,,,,,,,,,,,
null,,confidence_buffer,991940,confidence_buffer,,null,,,,,,,,,,,,,,,,,,
2773.5,,pt2_unique_rating,994714,US_Cities_List/mm_newport.png,,52,,,4,,,,,,,,,,,,,,,
null,,confidence_buffer,994816,confidence_buffer,,null,,,,,,,,,,,,,,,,,,
1480.8999998569489,,pt2_memorable_rating,996298,US_Cities_List/mm_newport.png,,52,,,4,,,,,,,,,,,,,,,
null,,confidence_buffer,996400,confidence_buffer,,null,,,,,,,,,,,,,,,,,,
1791.6000001430511,,recognition_phase,998194,US_Cities_List/mm_newport.png,,49,,,,,,old,1,0.972972972972973,,,,,,,,,,
null,,confidence_buffer,998296,confidence_buffer,,null,,,,,,,,,,,,,,,,,,
null,,thebreak,998803,break,,null,,,,,,,,,,,,,,,,,,
5724.399999856949,,pt2_realistic_rating,1004529,Fictional_Cities_List/img_natural_50.png,,52,Fictional_Cities_List/img_natural_50.png,NAT,4,,,,,,,,,,,,,,,
null,,confidence_buffer,1004630,confidence_buffer,,null,,,,,,,,,,,,,,,,,,
2570.5999999046326,,pt2_unique_rating,1007202,Fictional_Cities_List/img_natural_50.png,,50,,,2,,,,,,,,,,,,,,,
null,,confidence_buffer,1007304,confidence_buffer,,null,,,,,,,,,,,,,,,,,,
1876,,pt2_memorable_rating,1009181,Fictional_Cities_List/img_natural_50.png,,50,,,2,,,,,,,,,,,,,,,
null,,confidence_buffer,1009282,confidence_buffer,,null,,,,,,,,,,,,,,,,,,
1925.0999999046326,,recognition_phase,1011208,Fictional_Cities_List/img_natural_50.png,,52,,,,,,new,1,0.9736842105263158,,,,,,,,,,
null,,confidence_buffer,1011309,confidence_buffer,,null,,,,,,,,,,,,,,,,,,
null,,thebreak,1011810,break,,null,,,,,,,,,,,,,,,,,,
3884.7000000476837,,pt2_realistic_rating,1015696,US_Cities_List/nat_newport.png,,53,US_Cities_List/nat_newport.png,NAT,5,,,,,,,,,,,,,,,
null,,confidence_buffer,1015798,confidence_buffer,,null,,,,,,,,,,,,,,,,,,
2502.9000000953674,,pt2_unique_rating,1018303,US_Cities_List/nat_newport.png,,50,,,2,,,,,,,,,,,,,,,
null,,confidence_buffer,1018406,confidence_buffer,,null,,,,,,,,,,,,,,,,,,
2166,,pt2_memorable_rating,1020573,US_Cities_List/nat_newport.png,,51,,,3,,,,,,,,,,,,,,,
null,,confidence_buffer,1020674,confidence_buffer,,null,,,,,,,,,,,,,,,,,,
45.799999952316284,,probe_rating,1020721,probe_rating,,51,,,,3,0,,,,,,,,,,,,,
null,,confidence_buffer,1020824,confidence_buffer,,null,,,,,,,,,,,,,,,,,,
2611.7000000476837,,recognition_phase,1023436,US_Cities_List/nat_newport.png,,49,,,,,,old,1,0.9743589743589743,,,,,,,,,,
null,,confidence_buffer,1023538,confidence_buffer,,null,,,,,,,,,,,,,,,,,,
null,,thebreak,1024040,break,,null,,,,,,,,,,,,,,,,,,
9916.799999952316,,pt2_realistic_rating,1033958,Fictional_Cities_List/img_natural_20.png,,50,Fictional_Cities_List/img_natural_20.png,NAT,2,,,,,,,,,,,,,,,
null,,confidence_buffer,1034060,confidence_buffer,,null,,,,,,,,,,,,,,,,,,
5683.599999904633,,pt2_unique_rating,1039744,Fictional_Cities_List/img_natural_20.png,,53,,,5,,,,,,,,,,,,,,,
null,,confidence_buffer,1039847,confidence_buffer,,null,,,,,,,,,,,,,,,,,,
7058.5,,pt2_memorable_rating,1046907,Fictional_Cities_List/img_natural_20.png,,53,,,5,,,,,,,,,,,,,,,
null,,confidence_buffer,1047009,confidence_buffer,,null,,,,,,,,,,,,,,,,,,
3126.7000000476837,,recognition_phase,1050136,Fictional_Cities_List/img_natural_20.png,,52,,,,,,new,0,0.95,,,,,,,,,,
null,,confidence_buffer,1050239,confidence_buffer,,null,,,,,,,,,,,,,,,,,,
null,,thebreak,1050740,break,,null,,,,,,,,,,,,,,,,,,
7455.799999952316,,pt2_realistic_rating,1058196,Fictional_Cities_List/img_natural_26.png,,50,Fictional_Cities_List/img_natural_26.png,NAT,2,,,,,,,,,,,,,,,
null,,confidence_buffer,1058299,confidence_buffer,,null,,,,,,,,,,,,,,,,,,
2702,,pt2_unique_rating,1061001,Fictional_Cities_List/img_natural_26.png,,52,,,4,,,,,,,,,,,,,,,
null,,confidence_buffer,1061114,confidence_buffer,,null,,,,,,,,,,,,,,,,,,
2043.6999998092651,,pt2_memorable_rating,1063158,Fictional_Cities_List/img_natural_26.png,,52,,,4,,,,,,,,,,,,,,,
null,,confidence_buffer,1063260,confidence_buffer,,null,,,,,,,,,,,,,,,,,,
2065.2000000476837,,recognition_phase,1065328,Fictional_Cities_List/img_natural_26.png,,52,,,,,,new,1,0.9512195121951219,,,,,,,,,,
null,,confidence_buffer,1065430,confidence_buffer,,null,,,,,,,,,,,,,,,,,,
null,,thebreak,1065931,break,,null,,,,,,,,,,,,,,,,,,
7462.299999952316,,pt2_realistic_rating,1073395,US_Cities_List/nat_shreveport.png,,53,US_Cities_List/nat_shreveport.png,NAT,5,,,,,,,,,,,,,,,
null,,confidence_buffer,1073496,confidence_buffer,,null,,,,,,,,,,,,,,,,,,
3267.399999856949,,pt2_unique_rating,1076764,US_Cities_List/nat_shreveport.png,,50,,,2,,,,,,,,,,,,,,,
null,,confidence_buffer,1076865,confidence_buffer,,null,,,,,,,,,,,,,,,,,,
1708.0999999046326,,pt2_memorable_rating,1078574,US_Cities_List/nat_shreveport.png,,51,,,3,,,,,,,,,,,,,,,
null,,confidence_buffer,1078675,confidence_buffer,,null,,,,,,,,,,,,,,,,,,
1843.8000001907349,,recognition_phase,1080519,US_Cities_List/nat_shreveport.png,,49,,,,,,old,1,0.9523809523809523,,,,,,,,,,
null,,confidence_buffer,1080636,confidence_buffer,,null,,,,,,,,,,,,,,,,,,
null,,thebreak,1081137,break,,null,,,,,,,,,,,,,,,,,,
5387.399999856949,,pt2_realistic_rating,1086526,Fictional_Cities_List/img_natural_07.png,,53,Fictional_Cities_List/img_natural_07.png,NAT,5,,,,,,,,,,,,,,,
null,,confidence_buffer,1086627,confidence_buffer,,null,,,,,,,,,,,,,,,,,,
3799,,pt2_unique_rating,1090428,Fictional_Cities_List/img_natural_07.png,,51,,,3,,,,,,,,,,,,,,,
null,,confidence_buffer,1090530,confidence_buffer,,null,,,,,,,,,,,,,,,,,,
2780.7999999523163,,pt2_memorable_rating,1093312,Fictional_Cities_List/img_natural_07.png,,51,,,3,,,,,,,,,,,,,,,
null,,confidence_buffer,1093413,confidence_buffer,,null,,,,,,,,,,,,,,,,,,
4009,,recognition_phase,1097424,Fictional_Cities_List/img_natural_07.png,,52,,,,,,new,1,0.9534883720930233,,,,,,,,,,
null,,confidence_buffer,1097525,confidence_buffer,,null,,,,,,,,,,,,,,,,,,
null,,thebreak,1098026,break,,null,,,,,,,,,,,,,,,,,,
3775.2000000476837,,pt2_realistic_rating,1101803,Fictional_Cities_List/img_manmade_20.png,,53,Fictional_Cities_List/img_manmade_20.png,MM,5,,,,,,,,,,,,,,,
null,,confidence_buffer,1101905,confidence_buffer,,null,,,,,,,,,,,,,,,,,,
2834.100000143051,,pt2_unique_rating,1104740,Fictional_Cities_List/img_manmade_20.png,,51,,,3,,,,,,,,,,,,,,,
null,,confidence_buffer,1104841,confidence_buffer,,null,,,,,,,,,,,,,,,,,,
1566.7999999523163,,pt2_memorable_rating,1106408,Fictional_Cities_List/img_manmade_20.png,,51,,,3,,,,,,,,,,,,,,,
null,,confidence_buffer,1106510,confidence_buffer,,null,,,,,,,,,,,,,,,,,,
1599.2000000476837,,recognition_phase,1108110,Fictional_Cities_List/img_manmade_20.png,,49,,,,,,old,1,0.9545454545454546,,,,,,,,,,
null,,confidence_buffer,1108211,confidence_buffer,,null,,,,,,,,,,,,,,,,,,
null,,thebreak,1108712,break,,null,,,,,,,,,,,,,,,,,,
4713.199999809265,,pt2_realistic_rating,1113426,Fictional_Cities_List/img_natural_38.png,,51,Fictional_Cities_List/img_natural_38.png,NAT,3,,,,,,,,,,,,,,,
null,,confidence_buffer,1113528,confidence_buffer,,null,,,,,,,,,,,,,,,,,,
4433.400000095367,,pt2_unique_rating,1117963,Fictional_Cities_List/img_natural_38.png,,51,,,3,,,,,,,,,,,,,,,
null,,confidence_buffer,1118064,confidence_buffer,,null,,,,,,,,,,,,,,,,,,
1820.5999999046326,,pt2_memorable_rating,1119885,Fictional_Cities_List/img_natural_38.png,,50,,,2,,,,,,,,,,,,,,,
null,,confidence_buffer,1119986,confidence_buffer,,null,,,,,,,,,,,,,,,,,,
3342.600000143051,,recognition_phase,1123330,Fictional_Cities_List/img_natural_38.png,,50,,,,,,old,0,0.9333333333333333,,,,,,,,,,
null,,confidence_buffer,1123431,confidence_buffer,,null,,,,,,,,,,,,,,,,,,
null,,thebreak,1123933,break,,null,,,,,,,,,,,,,,,,,,
3250.600000143051,,pt2_realistic_rating,1127184,US_Cities_List/mm_natchez.png,,53,US_Cities_List/mm_natchez.png,MM,5,,,,,,,,,,,,,,,
null,,confidence_buffer,1127285,confidence_buffer,,null,,,,,,,,,,,,,,,,,,
2927.5,,pt2_unique_rating,1130214,US_Cities_List/mm_natchez.png,,50,,,2,,,,,,,,,,,,,,,
null,,confidence_buffer,1130317,confidence_buffer,,null,,,,,,,,,,,,,,,,,,
1474.0999999046326,,pt2_memorable_rating,1131792,US_Cities_List/mm_natchez.png,,51,,,3,,,,,,,,,,,,,,,
null,,confidence_buffer,1131893,confidence_buffer,,null,,,,,,,,,,,,,,,,,,
1833.2000000476837,,probe_rating,1133727,probe_rating,,51,,,,3,1,,,,,,,,,,,,,
null,,confidence_buffer,1133828,confidence_buffer,,null,,,,,,,,,,,,,,,,,,
2878.2999999523163,,recognition_phase,1136707,US_Cities_List/mm_natchez.png,,52,,,,,,new,1,0.9347826086956522,,,,,,,,,,
null,,confidence_buffer,1136809,confidence_buffer,,null,,,,,,,,,,,,,,,,,,
null,,thebreak,1137310,break,,null,,,,,,,,,,,,,,,,,,
5127.200000047684,,pt2_realistic_rating,1142438,US_Cities_List/mm_abilene.png,,51,US_Cities_List/mm_abilene.png,MM,3,,,,,,,,,,,,,,,
null,,confidence_buffer,1142540,confidence_buffer,,null,,,,,,,,,,,,,,,,,,
3817.600000143051,,pt2_unique_rating,1146359,US_Cities_List/mm_abilene.png,,52,,,4,,,,,,,,,,,,,,,
null,,confidence_buffer,1146472,confidence_buffer,,null,,,,,,,,,,,,,,,,,,
1475.2000000476837,,pt2_memorable_rating,1147948,US_Cities_List/mm_abilene.png,,52,,,4,,,,,,,,,,,,,,,
null,,confidence_buffer,1148050,confidence_buffer,,null,,,,,,,,,,,,,,,,,,
2016.9000000953674,,recognition_phase,1150068,US_Cities_List/mm_abilene.png,,49,,,,,,old,1,0.9361702127659575,,,,,,,,,,
null,,confidence_buffer,1150170,confidence_buffer,,null,,,,,,,,,,,,,,,,,,
null,,thebreak,1150673,break,,null,,,,,,,,,,,,,,,,,,
5110.099999904633,,pt2_realistic_rating,1155784,Fictional_Cities_List/img_manmade_28.png,,50,Fictional_Cities_List/img_manmade_28.png,MM,2,,,,,,,,,,,,,,,
null,,confidence_buffer,1155886,confidence_buffer,,null,,,,,,,,,,,,,,,,,,
3445.5,,pt2_unique_rating,1159332,Fictional_Cities_List/img_manmade_28.png,,51,,,3,,,,,,,,,,,,,,,
null,,confidence_buffer,1159435,confidence_buffer,,null,,,,,,,,,,,,,,,,,,
2467.7000000476837,,pt2_memorable_rating,1161904,Fictional_Cities_List/img_manmade_28.png,,50,,,2,,,,,,,,,,,,,,,
null,,confidence_buffer,1162005,confidence_buffer,,null,,,,,,,,,,,,,,,,,,
1407.2999999523163,,recognition_phase,1163414,Fictional_Cities_List/img_manmade_28.png,,49,,,,,,old,1,0.9375,,,,,,,,,,
null,,confidence_buffer,1163516,confidence_buffer,,null,,,,,,,,,,,,,,,,,,
null,,thebreak,1164018,break,,null,,,,,,,,,,,,,,,,,,
4371.5,,pt2_realistic_rating,1168390,US_Cities_List/mm_capemay.png,,53,US_Cities_List/mm_capemay.png,MM,5,,,,,,,,,,,,,,,
null,,confidence_buffer,1168492,confidence_buffer,,null,,,,,,,,,,,,,,,,,,
3868.5,,pt2_unique_rating,1172362,US_Cities_List/mm_capemay.png,,50,,,2,,,,,,,,,,,,,,,
null,,confidence_buffer,1172463,confidence_buffer,,null,,,,,,,,,,,,,,,,,,
1528.5,,probe_rating,1173993,probe_rating,,49,,,,1,1,,,,,,,,,,,,,
null,,confidence_buffer,1174095,confidence_buffer,,null,,,,,,,,,,,,,,,,,,
2781,,pt2_memorable_rating,1176876,US_Cities_List/mm_capemay.png,,51,,,3,,,,,,,,,,,,,,,
null,,confidence_buffer,1176978,confidence_buffer,,null,,,,,,,,,,,,,,,,,,
1871,,recognition_phase,1178851,US_Cities_List/mm_capemay.png,,52,,,,,,new,1,0.9387755102040817,,,,,,,,,,
null,,confidence_buffer,1178958,confidence_buffer,,null,,,,,,,,,,,,,,,,,,
null,,thebreak,1179459,break,,null,,,,,,,,,,,,,,,,,,
3472.7000000476837,,pt2_realistic_rating,1182933,Fictional_Cities_List/img_manmade_25.png,,50,Fictional_Cities_List/img_manmade_25.png,MM,2,,,,,,,,,,,,,,,
null,,confidence_buffer,1183035,confidence_buffer,,null,,,,,,,,,,,,,,,,,,
2856.800000190735,,pt2_unique_rating,1185893,Fictional_Cities_List/img_manmade_25.png,,52,,,4,,,,,,,,,,,,,,,
null,,confidence_buffer,1185994,confidence_buffer,,null,,,,,,,,,,,,,,,,,,
2404.300000190735,,pt2_memorable_rating,1188400,Fictional_Cities_List/img_manmade_25.png,,51,,,3,,,,,,,,,,,,,,,
null,,confidence_buffer,1188511,confidence_buffer,,null,,,,,,,,,,,,,,,,,,
1808.9000000953674,,recognition_phase,1190320,Fictional_Cities_List/img_manmade_25.png,,52,,,,,,new,1,0.94,,,,,,,,,,
null,,confidence_buffer,1190423,confidence_buffer,,null,,,,,,,,,,,,,,,,,,
null,,thebreak,1190924,break,,null,,,,,,,,,,,,,,,,,,
3522,,pt2_realistic_rating,1194447,US_Cities_List/nat_newhope.png,,52,US_Cities_List/nat_newhope.png,NAT,4,,,,,,,,,,,,,,,
null,,confidence_buffer,1194548,confidence_buffer,,null,,,,,,,,,,,,,,,,,,
3277.7000000476837,,pt2_unique_rating,1197826,US_Cities_List/nat_newhope.png,,51,,,3,,,,,,,,,,,,,,,
null,,confidence_buffer,1197929,confidence_buffer,,null,,,,,,,,,,,,,,,,,,
4466.600000143051,,pt2_memorable_rating,1202396,US_Cities_List/nat_newhope.png,,51,,,3,,,,,,,,,,,,,,,
null,,confidence_buffer,1202498,confidence_buffer,,null,,,,,,,,,,,,,,,,,,
1772.2000000476837,,recognition_phase,1204271,US_Cities_List/nat_newhope.png,,49,,,,,,old,1,0.9411764705882353,,,,,,,,,,
null,,confidence_buffer,1204378,confidence_buffer,,null,,,,,,,,,,,,,,,,,,
null,,thebreak,1204879,break,,null,,,,,,,,,,,,,,,,,,
3883.4000000953674,,pt2_realistic_rating,1208765,Fictional_Cities_List/img_natural_22.png,,50,Fictional_Cities_List/img_natural_22.png,NAT,2,,,,,,,,,,,,,,,
null,,confidence_buffer,1208866,confidence_buffer,,null,,,,,,,,,,,,,,,,,,
4307.299999952316,,pt2_unique_rating,1213175,Fictional_Cities_List/img_natural_22.png,,52,,,4,,,,,,,,,,,,,,,
null,,confidence_buffer,1213277,confidence_buffer,,null,,,,,,,,,,,,,,,,,,
1906.2000000476837,,pt2_memorable_rating,1215184,Fictional_Cities_List/img_natural_22.png,,52,,,4,,,,,,,,,,,,,,,
null,,confidence_buffer,1215287,confidence_buffer,,null,,,,,,,,,,,,,,,,,,
6069.299999952316,,recognition_phase,1221357,Fictional_Cities_List/img_natural_22.png,,49,,,,,,old,1,0.9423076923076923,,,,,,,,,,
null,,confidence_buffer,1221459,confidence_buffer,,null,,,,,,,,,,,,,,,,,,
null,,thebreak,1221960,break,,null,,,,,,,,,,,,,,,,,,
7180.800000190735,,pt2_realistic_rating,1229142,Fictional_Cities_List/img_natural_34.png,,53,Fictional_Cities_List/img_natural_34.png,NAT,5,,,,,,,,,,,,,,,
null,,confidence_buffer,1229244,confidence_buffer,,null,,,,,,,,,,,,,,,,,,
2437.199999809265,,pt2_unique_rating,1231683,Fictional_Cities_List/img_natural_34.png,,50,,,2,,,,,,,,,,,,,,,
null,,confidence_buffer,1231785,confidence_buffer,,null,,,,,,,,,,,,,,,,,,
1573.8000001907349,,pt2_memorable_rating,1233359,Fictional_Cities_List/img_natural_34.png,,50,,,2,,,,,,,,,,,,,,,
null,,confidence_buffer,1233460,confidence_buffer,,null,,,,,,,,,,,,,,,,,,
1619.7999999523163,,probe_rating,1235081,probe_rating,,52,,,,4,1,,,,,,,,,,,,,
null,,confidence_buffer,1235184,confidence_buffer,,null,,,,,,,,,,,,,,,,,,
2705.7999999523163,,recognition_phase,1237891,Fictional_Cities_List/img_natural_34.png,,50,,,,,,old,1,0.9433962264150944,,,,,,,,,,
null,,confidence_buffer,1237993,confidence_buffer,,null,,,,,,,,,,,,,,,,,,
null,,thebreak,1238495,break,,null,,,,,,,,,,,,,,,,,,
4578.5,,pt2_realistic_rating,1243075,Fictional_Cities_List/img_manmade_13.png,,52,Fictional_Cities_List/img_manmade_13.png,MM,4,,,,,,,,,,,,,,,
null,,confidence_buffer,1243178,confidence_buffer,,null,,,,,,,,,,,,,,,,,,
1611.3999998569489,,pt2_unique_rating,1244791,Fictional_Cities_List/img_manmade_13.png,,51,,,3,,,,,,,,,,,,,,,
null,,confidence_buffer,1244903,confidence_buffer,,null,,,,,,,,,,,,,,,,,,
1207.5999999046326,,pt2_memorable_rating,1246112,Fictional_Cities_List/img_manmade_13.png,,51,,,3,,,,,,,,,,,,,,,
null,,confidence_buffer,1246213,confidence_buffer,,null,,,,,,,,,,,,,,,,,,
1987.8999998569489,,recognition_phase,1248201,Fictional_Cities_List/img_manmade_13.png,,52,,,,,,new,1,0.9444444444444444,,,,,,,,,,
null,,confidence_buffer,1248303,confidence_buffer,,null,,,,,,,,,,,,,,,,,,
null,,thebreak,1248804,break,,null,,,,,,,,,,,,,,,,,,
5151.5,,pt2_realistic_rating,1253956,US_Cities_List/mm_livingston.png,,52,US_Cities_List/mm_livingston.png,MM,4,,,,,,,,,,,,,,,
null,,confidence_buffer,1254058,confidence_buffer,,null,,,,,,,,,,,,,,,,,,
2183.600000143051,,pt2_unique_rating,1256243,US_Cities_List/mm_livingston.png,,50,,,2,,,,,,,,,,,,,,,
null,,confidence_buffer,1256345,confidence_buffer,,null,,,,,,,,,,,,,,,,,,
1325.2999999523163,,pt2_memorable_rating,1257672,US_Cities_List/mm_livingston.png,,50,,,2,,,,,,,,,,,,,,,
null,,confidence_buffer,1257774,confidence_buffer,,null,,,,,,,,,,,,,,,,,,
2061.4000000953674,,recognition_phase,1259836,US_Cities_List/mm_livingston.png,,49,,,,,,old,1,0.9454545454545454,,,,,,,,,,
null,,confidence_buffer,1259938,confidence_buffer,,null,,,,,,,,,,,,,,,,,,
null,,thebreak,1260439,break,,null,,,,,,,,,,,,,,,,,,
3112.5,,pt2_realistic_rating,1263553,US_Cities_List/mm_newhope.png,,53,US_Cities_List/mm_newhope.png,MM,5,,,,,,,,,,,,,,,
null,,confidence_buffer,1263655,confidence_buffer,,null,,,,,,,,,,,,,,,,,,
4140.200000047684,,pt2_unique_rating,1267795,US_Cities_List/mm_newhope.png,,49,,,1,,,,,,,,,,,,,,,
null,,confidence_buffer,1267896,confidence_buffer,,null,,,,,,,,,,,,,,,,,,
1434.2999999523163,,pt2_memorable_rating,1269331,US_Cities_List/mm_newhope.png,,50,,,2,,,,,,,,,,,,,,,
null,,confidence_buffer,1269433,confidence_buffer,,null,,,,,,,,,,,,,,,,,,
1692.2999999523163,,recognition_phase,1271126,US_Cities_List/mm_newhope.png,,49,,,,,,old,1,0.9464285714285714,,,,,,,,,,
null,,confidence_buffer,1271227,confidence_buffer,,null,,,,,,,,,,,,,,,,,,
null,,thebreak,1271729,break,,null,,,,,,,,,,,,,,,,,,
6641,,pt2_realistic_rating,1278371,Fictional_Cities_List/img_natural_08.png,,51,Fictional_Cities_List/img_natural_08.png,NAT,3,,,,,,,,,,,,,,,
null,,confidence_buffer,1278473,confidence_buffer,,null,,,,,,,,,,,,,,,,,,
1957.8999998569489,,pt2_unique_rating,1280432,Fictional_Cities_List/img_natural_08.png,,51,,,3,,,,,,,,,,,,,,,
null,,confidence_buffer,1280535,confidence_buffer,,null,,,,,,,,,,,,,,,,,,
1940.8999998569489,,pt2_memorable_rating,1282477,Fictional_Cities_List/img_natural_08.png,,51,,,3,,,,,,,,,,,,,,,
null,,confidence_buffer,1282579,confidence_buffer,,null,,,,,,,,,,,,,,,,,,
1998.3999998569489,,recognition_phase,1284578,Fictional_Cities_List/img_natural_08.png,,49,,,,,,old,1,0.9473684210526315,,,,,,,,,,
null,,confidence_buffer,1284681,confidence_buffer,,null,,,,,,,,,,,,,,,,,,
null,,thebreak,1285183,break,,null,,,,,,,,,,,,,,,,,,
4115.799999952316,,pt2_realistic_rating,1289300,US_Cities_List/nat_manistee.png,,52,US_Cities_List/nat_manistee.png,NAT,4,,,,,,,,,,,,,,,
null,,confidence_buffer,1289401,confidence_buffer,,null,,,,,,,,,,,,,,,,,,
2295.9000000953674,,pt2_unique_rating,1291698,US_Cities_List/nat_manistee.png,,50,,,2,,,,,,,,,,,,,,,
null,,confidence_buffer,1291800,confidence_buffer,,null,,,,,,,,,,,,,,,,,,
1623.9000000953674,,pt2_memorable_rating,1293424,US_Cities_List/nat_manistee.png,,51,,,3,,,,,,,,,,,,,,,
null,,confidence_buffer,1293528,confidence_buffer,,null,,,,,,,,,,,,,,,,,,
2032.5999999046326,,recognition_phase,1295561,US_Cities_List/nat_manistee.png,,52,,,,,,new,1,0.9482758620689655,,,,,,,,,,
null,,confidence_buffer,1295664,confidence_buffer,,null,,,,,,,,,,,,,,,,,,
null,,thebreak,1296166,break,,null,,,,,,,,,,,,,,,,,,
6171.100000143051,,pt2_realistic_rating,1302338,US_Cities_List/mm_berkeleysprings.png,,52,US_Cities_List/mm_berkeleysprings.png,MM,4,,,,,,,,,,,,,,,
null,,confidence_buffer,1302440,confidence_buffer,,null,,,,,,,,,,,,,,,,,,
2048.7999999523163,,pt2_unique_rating,1304490,US_Cities_List/mm_berkeleysprings.png,,52,,,4,,,,,,,,,,,,,,,
null,,confidence_buffer,1304593,confidence_buffer,,null,,,,,,,,,,,,,,,,,,
1700.2999999523163,,pt2_memorable_rating,1306294,US_Cities_List/mm_berkeleysprings.png,,52,,,4,,,,,,,,,,,,,,,
null,,confidence_buffer,1306397,confidence_buffer,,null,,,,,,,,,,,,,,,,,,
1976.2000000476837,,recognition_phase,1308374,US_Cities_List/mm_berkeleysprings.png,,50,,,,,,old,0,0.9322033898305084,,,,,,,,,,
null,,confidence_buffer,1308476,confidence_buffer,,null,,,,,,,,,,,,,,,,,,
null,,thebreak,1308990,break,,null,,,,,,,,,,,,,,,,,,
3685.5999999046326,,pt2_realistic_rating,1312676,Fictional_Cities_List/img_manmade_50.png,,53,Fictional_Cities_List/img_manmade_50.png,MM,5,,,,,,,,,,,,,,,
null,,confidence_buffer,1312778,confidence_buffer,,null,,,,,,,,,,,,,,,,,,
2360.399999856949,,pt2_unique_rating,1315139,Fictional_Cities_List/img_manmade_50.png,,50,,,2,,,,,,,,,,,,,,,
null,,confidence_buffer,1315248,confidence_buffer,,null,,,,,,,,,,,,,,,,,,
1531.2999999523163,,pt2_memorable_rating,1316780,Fictional_Cities_List/img_manmade_50.png,,50,,,2,,,,,,,,,,,,,,,
null,,confidence_buffer,1316882,confidence_buffer,,null,,,,,,,,,,,,,,,,,,
2219.2000000476837,,recognition_phase,1319102,Fictional_Cities_List/img_manmade_50.png,,52,,,,,,new,1,0.9333333333333333,,,,,,,,,,
null,,confidence_buffer,1319204,confidence_buffer,,null,,,,,,,,,,,,,,,,,,
null,,thebreak,1319706,break,,null,,,,,,,,,,,,,,,,,,
,,survey,1723821,survey-questions,,,,,,,,,,,none,high,I gave my full attention throughout,I just paid attention to each photo ,familiar is what I have seen before or similar to what I have seen or know about ,If it was different or grand in some way that I would not forget. ,unusual in that few were similar,It was what I believed to be a true or similar representation,no I have not for this type of study, but I have been shown a series of pictures and then later shown more pictures and asked whether it was a picture that I had seen earlier.,It felt engaging and seemed to go by fast
