rt,responses,trial_type,time_elapsed,stimulus,button_pressed,key_press,name_trial,city_type,rating,probe,probe_accuracy,response,correct,accuracy,problems,smooth,distraction,strategies,familiar,memorable,unique,realistic,similar,comments
14694.600000023842,{worker_id:5dc483cf74939e34e55c3619},id_enter,14698,,,,,,,,,,,,,,,,,,,,,
30712.900000035763,,fullscreen,45416,fullscreen,0,,,,,,,,,,,,,,,,,,,
10724.399999976158,,intro_0,56144,instruct,,32,,,,,,,,,,,,,,,,,,
6132.800000011921,,intro_1,62278,instruct,,32,,,,,,,,,,,,,,,,,,
4938.100000023842,,intro_2,67217,instruct,,32,,,,,,,,,,,,,,,,,,
null,,instruct_dir_4,68721,instruct,,null,,,,,,,,,,,,,,,,,,
null,,thebreak,69225,break,,null,,,,,,,,,,,,,,,,,,
4384.199999988079,,familiar_rating,73612,US_Cities_List/mm_coeurdalene.png,,50,US_Cities_List/mm_coeurdalene.png,MM,2,,,,,,,,,,,,,,,
null,,confidence_buffer,73716,confidence_buffer,,null,,,,,,,,,,,,,,,,,,
4549.200000047684,,unique_rating,78267,US_Cities_List/mm_coeurdalene.png,,49,,,1,,,,,,,,,,,,,,,
null,,confidence_buffer,78370,confidence_buffer,,null,,,,,,,,,,,,,,,,,,
2722.899999976158,,memorable_rating,81095,US_Cities_List/mm_coeurdalene.png,,49,,,1,,,,,,,,,,,,,,,
null,,confidence_buffer,81199,confidence_buffer,,null,,,,,,,,,,,,,,,,,,
null,,thebreak,81702,break,,null,,,,,,,,,,,,,,,,,,
2784.899999976158,,familiar_rating,84489,Fictional_Cities_List/img_natural_34.png,,50,Fictional_Cities_List/img_natural_34.png,NAT,2,,,,,,,,,,,,,,,
null,,confidence_buffer,84593,confidence_buffer,,null,,,,,,,,,,,,,,,,,,
5290.300000011921,,unique_rating,89885,Fictional_Cities_List/img_natural_34.png,,50,,,2,,,,,,,,,,,,,,,
null,,confidence_buffer,89989,confidence_buffer,,null,,,,,,,,,,,,,,,,,,
2969.599999964237,,probe_rating,92961,probe_rating,,50,,,,2,1,,,,,,,,,,,,,
null,,confidence_buffer,93063,confidence_buffer,,null,,,,,,,,,,,,,,,,,,
3353.5,,memorable_rating,96419,Fictional_Cities_List/img_natural_34.png,,50,,,2,,,,,,,,,,,,,,,
null,,confidence_buffer,96522,confidence_buffer,,null,,,,,,,,,,,,,,,,,,
null,,thebreak,97026,break,,null,,,,,,,,,,,,,,,,,,
4186.600000023842,,familiar_rating,101214,Fictional_Cities_List/img_natural_40.png,,51,Fictional_Cities_List/img_natural_40.png,NAT,3,,,,,,,,,,,,,,,
null,,confidence_buffer,101317,confidence_buffer,,null,,,,,,,,,,,,,,,,,,
3096.199999988079,,unique_rating,104415,Fictional_Cities_List/img_natural_40.png,,49,,,1,,,,,,,,,,,,,,,
null,,confidence_buffer,104518,confidence_buffer,,null,,,,,,,,,,,,,,,,,,
3246.5,,memorable_rating,107766,Fictional_Cities_List/img_natural_40.png,,51,,,3,,,,,,,,,,,,,,,
null,,confidence_buffer,107870,confidence_buffer,,null,,,,,,,,,,,,,,,,,,
null,,thebreak,108373,break,,null,,,,,,,,,,,,,,,,,,
2863,,familiar_rating,111237,Fictional_Cities_List/img_natural_12.png,,49,Fictional_Cities_List/img_natural_12.png,NAT,1,,,,,,,,,,,,,,,
null,,confidence_buffer,111340,confidence_buffer,,null,,,,,,,,,,,,,,,,,,
2913.800000011921,,unique_rating,114256,Fictional_Cities_List/img_natural_12.png,,51,,,3,,,,,,,,,,,,,,,
null,,confidence_buffer,114359,confidence_buffer,,null,,,,,,,,,,,,,,,,,,
2243.599999964237,,memorable_rating,116604,Fictional_Cities_List/img_natural_12.png,,51,,,3,,,,,,,,,,,,,,,
null,,confidence_buffer,116707,confidence_buffer,,null,,,,,,,,,,,,,,,,,,
2314.400000035763,,probe_rating,119022,probe_rating,,49,,,,1,1,,,,,,,,,,,,,
null,,confidence_buffer,119124,confidence_buffer,,null,,,,,,,,,,,,,,,,,,
null,,thebreak,119626,break,,null,,,,,,,,,,,,,,,,,,
10093.5,,familiar_rating,129721,Fictional_Cities_List/img_manmade_49.png,,49,Fictional_Cities_List/img_manmade_49.png,MM,1,,,,,,,,,,,,,,,
null,,confidence_buffer,129824,confidence_buffer,,null,,,,,,,,,,,,,,,,,,
2281.699999988079,,unique_rating,132107,Fictional_Cities_List/img_manmade_49.png,,49,,,1,,,,,,,,,,,,,,,
null,,confidence_buffer,132209,confidence_buffer,,null,,,,,,,,,,,,,,,,,,
1893.1000000238419,,memorable_rating,134104,Fictional_Cities_List/img_manmade_49.png,,49,,,1,,,,,,,,,,,,,,,
null,,confidence_buffer,134206,confidence_buffer,,null,,,,,,,,,,,,,,,,,,
null,,thebreak,134709,break,,null,,,,,,,,,,,,,,,,,,
3755.900000035763,,familiar_rating,138467,US_Cities_List/nat_cornwall.png,,51,US_Cities_List/nat_cornwall.png,NAT,3,,,,,,,,,,,,,,,
null,,confidence_buffer,138570,confidence_buffer,,null,,,,,,,,,,,,,,,,,,
3399.100000023842,,unique_rating,141971,US_Cities_List/nat_cornwall.png,,49,,,1,,,,,,,,,,,,,,,
null,,confidence_buffer,142074,confidence_buffer,,null,,,,,,,,,,,,,,,,,,
4062,,memorable_rating,146137,US_Cities_List/nat_cornwall.png,,50,,,2,,,,,,,,,,,,,,,
null,,confidence_buffer,146241,confidence_buffer,,null,,,,,,,,,,,,,,,,,,
null,,thebreak,146743,break,,null,,,,,,,,,,,,,,,,,,
3945,,familiar_rating,150689,US_Cities_List/mm_hilo.png,,49,US_Cities_List/mm_hilo.png,MM,1,,,,,,,,,,,,,,,
null,,confidence_buffer,150792,confidence_buffer,,null,,,,,,,,,,,,,,,,,,
2697.400000035763,,unique_rating,153491,US_Cities_List/mm_hilo.png,,50,,,2,,,,,,,,,,,,,,,
null,,confidence_buffer,153594,confidence_buffer,,null,,,,,,,,,,,,,,,,,,
2760,,memorable_rating,156356,US_Cities_List/mm_hilo.png,,50,,,2,,,,,,,,,,,,,,,
null,,confidence_buffer,156459,confidence_buffer,,null,,,,,,,,,,,,,,,,,,
null,,thebreak,156961,break,,null,,,,,,,,,,,,,,,,,,
4686.300000011921,,familiar_rating,161648,Fictional_Cities_List/img_natural_37.png,,53,Fictional_Cities_List/img_natural_37.png,NAT,5,,,,,,,,,,,,,,,
null,,confidence_buffer,161752,confidence_buffer,,null,,,,,,,,,,,,,,,,,,
5267.300000011921,,unique_rating,167020,Fictional_Cities_List/img_natural_37.png,,50,,,2,,,,,,,,,,,,,,,
null,,confidence_buffer,167122,confidence_buffer,,null,,,,,,,,,,,,,,,,,,
1767.300000011921,,probe_rating,168891,probe_rating,,50,,,,2,1,,,,,,,,,,,,,
null,,confidence_buffer,168993,confidence_buffer,,null,,,,,,,,,,,,,,,,,,
4525.099999964237,,memorable_rating,173520,Fictional_Cities_List/img_natural_37.png,,50,,,2,,,,,,,,,,,,,,,
null,,confidence_buffer,173623,confidence_buffer,,null,,,,,,,,,,,,,,,,,,
null,,thebreak,174126,break,,null,,,,,,,,,,,,,,,,,,
2536.5,,familiar_rating,176664,US_Cities_List/mm_peoria.png,,49,US_Cities_List/mm_peoria.png,MM,1,,,,,,,,,,,,,,,
null,,confidence_buffer,176767,confidence_buffer,,null,,,,,,,,,,,,,,,,,,
4178.199999988079,,unique_rating,180947,US_Cities_List/mm_peoria.png,,50,,,2,,,,,,,,,,,,,,,
null,,confidence_buffer,181050,confidence_buffer,,null,,,,,,,,,,,,,,,,,,
3161.800000011921,,memorable_rating,184214,US_Cities_List/mm_peoria.png,,50,,,2,,,,,,,,,,,,,,,
null,,confidence_buffer,184318,confidence_buffer,,null,,,,,,,,,,,,,,,,,,
null,,thebreak,184821,break,,null,,,,,,,,,,,,,,,,,,
9540.699999988079,,familiar_rating,194363,Fictional_Cities_List/img_manmade_23.png,,49,Fictional_Cities_List/img_manmade_23.png,MM,1,,,,,,,,,,,,,,,
null,,confidence_buffer,194466,confidence_buffer,,null,,,,,,,,,,,,,,,,,,
3126.5,,unique_rating,197594,Fictional_Cities_List/img_manmade_23.png,,50,,,2,,,,,,,,,,,,,,,
null,,confidence_buffer,197698,confidence_buffer,,null,,,,,,,,,,,,,,,,,,
2263.899999976158,,memorable_rating,199963,Fictional_Cities_List/img_manmade_23.png,,50,,,2,,,,,,,,,,,,,,,
null,,confidence_buffer,200065,confidence_buffer,,null,,,,,,,,,,,,,,,,,,
null,,thebreak,200567,break,,null,,,,,,,,,,,,,,,,,,
3541.399999976158,,familiar_rating,204110,US_Cities_List/nat_peoria.png,,51,US_Cities_List/nat_peoria.png,NAT,3,,,,,,,,,,,,,,,
null,,confidence_buffer,204214,confidence_buffer,,null,,,,,,,,,,,,,,,,,,
4271.900000035763,,unique_rating,208487,US_Cities_List/nat_peoria.png,,49,,,1,,,,,,,,,,,,,,,
null,,confidence_buffer,208589,confidence_buffer,,null,,,,,,,,,,,,,,,,,,
3013.300000011921,,memorable_rating,211603,US_Cities_List/nat_peoria.png,,49,,,1,,,,,,,,,,,,,,,
null,,confidence_buffer,211706,confidence_buffer,,null,,,,,,,,,,,,,,,,,,
null,,thebreak,212209,break,,null,,,,,,,,,,,,,,,,,,
5096.200000047684,,familiar_rating,217306,Fictional_Cities_List/img_manmade_37.png,,49,Fictional_Cities_List/img_manmade_37.png,MM,1,,,,,,,,,,,,,,,
null,,confidence_buffer,217408,confidence_buffer,,null,,,,,,,,,,,,,,,,,,
4018.399999976158,,unique_rating,221428,Fictional_Cities_List/img_manmade_37.png,,52,,,4,,,,,,,,,,,,,,,
null,,confidence_buffer,221531,confidence_buffer,,null,,,,,,,,,,,,,,,,,,
5881.300000011921,,memorable_rating,227414,Fictional_Cities_List/img_manmade_37.png,,51,,,3,,,,,,,,,,,,,,,
null,,confidence_buffer,227518,confidence_buffer,,null,,,,,,,,,,,,,,,,,,
null,,thebreak,228021,break,,null,,,,,,,,,,,,,,,,,,
3565.199999988079,,familiar_rating,231587,US_Cities_List/mm_okoboji.png,,50,US_Cities_List/mm_okoboji.png,MM,2,,,,,,,,,,,,,,,
null,,confidence_buffer,231690,confidence_buffer,,null,,,,,,,,,,,,,,,,,,
3772,,unique_rating,235462,US_Cities_List/mm_okoboji.png,,51,,,3,,,,,,,,,,,,,,,
null,,confidence_buffer,235566,confidence_buffer,,null,,,,,,,,,,,,,,,,,,
3244.399999976158,,memorable_rating,238812,US_Cities_List/mm_okoboji.png,,50,,,2,,,,,,,,,,,,,,,
null,,confidence_buffer,238915,confidence_buffer,,null,,,,,,,,,,,,,,,,,,
null,,thebreak,239418,break,,null,,,,,,,,,,,,,,,,,,
3050.5,,familiar_rating,242470,Fictional_Cities_List/img_manmade_11.png,,49,Fictional_Cities_List/img_manmade_11.png,MM,1,,,,,,,,,,,,,,,
null,,confidence_buffer,242573,confidence_buffer,,null,,,,,,,,,,,,,,,,,,
4126.5,,unique_rating,246701,Fictional_Cities_List/img_manmade_11.png,,51,,,3,,,,,,,,,,,,,,,
null,,confidence_buffer,246805,confidence_buffer,,null,,,,,,,,,,,,,,,,,,
10393.799999952316,,memorable_rating,257200,Fictional_Cities_List/img_manmade_11.png,,51,,,3,,,,,,,,,,,,,,,
null,,confidence_buffer,257303,confidence_buffer,,null,,,,,,,,,,,,,,,,,,
null,,thebreak,257805,break,,null,,,,,,,,,,,,,,,,,,
3090.100000023842,,familiar_rating,260896,US_Cities_List/mm_delawarecity.png,,51,US_Cities_List/mm_delawarecity.png,MM,3,,,,,,,,,,,,,,,
null,,confidence_buffer,260999,confidence_buffer,,null,,,,,,,,,,,,,,,,,,
3186.7000000476837,,unique_rating,264187,US_Cities_List/mm_delawarecity.png,,49,,,1,,,,,,,,,,,,,,,
null,,confidence_buffer,264289,confidence_buffer,,null,,,,,,,,,,,,,,,,,,
2196.100000023842,,memorable_rating,266486,US_Cities_List/mm_delawarecity.png,,49,,,1,,,,,,,,,,,,,,,
null,,confidence_buffer,266590,confidence_buffer,,null,,,,,,,,,,,,,,,,,,
null,,thebreak,267092,break,,null,,,,,,,,,,,,,,,,,,
5055.5,,familiar_rating,272150,US_Cities_List/mm_sitka.png,,49,US_Cities_List/mm_sitka.png,MM,1,,,,,,,,,,,,,,,
null,,confidence_buffer,272252,confidence_buffer,,null,,,,,,,,,,,,,,,,,,
2942.800000011921,,unique_rating,275197,US_Cities_List/mm_sitka.png,,52,,,4,,,,,,,,,,,,,,,
null,,confidence_buffer,275300,confidence_buffer,,null,,,,,,,,,,,,,,,,,,
2755.400000035763,,memorable_rating,278057,US_Cities_List/mm_sitka.png,,51,,,3,,,,,,,,,,,,,,,
null,,confidence_buffer,278159,confidence_buffer,,null,,,,,,,,,,,,,,,,,,
null,,thebreak,278662,break,,null,,,,,,,,,,,,,,,,,,
11576.199999988079,,familiar_rating,290239,Fictional_Cities_List/img_natural_31.png,,51,Fictional_Cities_List/img_natural_31.png,NAT,3,,,,,,,,,,,,,,,
null,,confidence_buffer,290341,confidence_buffer,,null,,,,,,,,,,,,,,,,,,
6837.600000023842,,unique_rating,297179,Fictional_Cities_List/img_natural_31.png,,50,,,2,,,,,,,,,,,,,,,
null,,confidence_buffer,297281,confidence_buffer,,null,,,,,,,,,,,,,,,,,,
1463.5,,memorable_rating,298747,Fictional_Cities_List/img_natural_31.png,,51,,,3,,,,,,,,,,,,,,,
null,,confidence_buffer,298850,confidence_buffer,,null,,,,,,,,,,,,,,,,,,
null,,thebreak,299352,break,,null,,,,,,,,,,,,,,,,,,
5245.199999988079,,familiar_rating,304598,Fictional_Cities_List/img_manmade_16.png,,49,Fictional_Cities_List/img_manmade_16.png,MM,1,,,,,,,,,,,,,,,
null,,confidence_buffer,304701,confidence_buffer,,null,,,,,,,,,,,,,,,,,,
2725.5,,unique_rating,307429,Fictional_Cities_List/img_manmade_16.png,,52,,,4,,,,,,,,,,,,,,,
null,,confidence_buffer,307532,confidence_buffer,,null,,,,,,,,,,,,,,,,,,
2918.800000011921,,memorable_rating,310453,Fictional_Cities_List/img_manmade_16.png,,50,,,2,,,,,,,,,,,,,,,
null,,confidence_buffer,310557,confidence_buffer,,null,,,,,,,,,,,,,,,,,,
null,,thebreak,311060,break,,null,,,,,,,,,,,,,,,,,,
3928.899999976158,,familiar_rating,314990,Fictional_Cities_List/img_manmade_28.png,,49,Fictional_Cities_List/img_manmade_28.png,MM,1,,,,,,,,,,,,,,,
null,,confidence_buffer,315094,confidence_buffer,,null,,,,,,,,,,,,,,,,,,
4221.5,,unique_rating,319317,Fictional_Cities_List/img_manmade_28.png,,51,,,3,,,,,,,,,,,,,,,
null,,confidence_buffer,319421,confidence_buffer,,null,,,,,,,,,,,,,,,,,,
2458.399999976158,,memorable_rating,321881,Fictional_Cities_List/img_manmade_28.png,,49,,,1,,,,,,,,,,,,,,,
null,,confidence_buffer,321984,confidence_buffer,,null,,,,,,,,,,,,,,,,,,
null,,thebreak,322487,break,,null,,,,,,,,,,,,,,,,,,
5456,,familiar_rating,327946,Fictional_Cities_List/img_natural_28.png,,49,Fictional_Cities_List/img_natural_28.png,NAT,1,,,,,,,,,,,,,,,
null,,confidence_buffer,328049,confidence_buffer,,null,,,,,,,,,,,,,,,,,,
5903,,unique_rating,333954,Fictional_Cities_List/img_natural_28.png,,51,,,3,,,,,,,,,,,,,,,
null,,confidence_buffer,334057,confidence_buffer,,null,,,,,,,,,,,,,,,,,,
2019.5,,memorable_rating,336078,Fictional_Cities_List/img_natural_28.png,,51,,,3,,,,,,,,,,,,,,,
null,,confidence_buffer,336182,confidence_buffer,,null,,,,,,,,,,,,,,,,,,
null,,thebreak,336686,break,,null,,,,,,,,,,,,,,,,,,
5456.599999964237,,familiar_rating,342144,US_Cities_List/nat_hilo.png,,49,US_Cities_List/nat_hilo.png,NAT,1,,,,,,,,,,,,,,,
null,,confidence_buffer,342247,confidence_buffer,,null,,,,,,,,,,,,,,,,,,
4050.5,,probe_rating,346300,probe_rating,,52,,,,4,1,,,,,,,,,,,,,
null,,confidence_buffer,346403,confidence_buffer,,null,,,,,,,,,,,,,,,,,,
7756.699999988079,,unique_rating,354162,US_Cities_List/nat_hilo.png,,50,,,2,,,,,,,,,,,,,,,
null,,confidence_buffer,354264,confidence_buffer,,null,,,,,,,,,,,,,,,,,,
1910.800000011921,,memorable_rating,356177,US_Cities_List/nat_hilo.png,,50,,,2,,,,,,,,,,,,,,,
null,,confidence_buffer,356280,confidence_buffer,,null,,,,,,,,,,,,,,,,,,
null,,thebreak,356783,break,,null,,,,,,,,,,,,,,,,,,
5857,,familiar_rating,362641,Fictional_Cities_List/img_manmade_12.png,,49,Fictional_Cities_List/img_manmade_12.png,MM,1,,,,,,,,,,,,,,,
null,,confidence_buffer,362744,confidence_buffer,,null,,,,,,,,,,,,,,,,,,
6358.900000035763,,unique_rating,369104,Fictional_Cities_List/img_manmade_12.png,,49,,,1,,,,,,,,,,,,,,,
null,,confidence_buffer,369208,confidence_buffer,,null,,,,,,,,,,,,,,,,,,
3850.900000035763,,memorable_rating,373060,Fictional_Cities_List/img_manmade_12.png,,49,,,1,,,,,,,,,,,,,,,
null,,confidence_buffer,373164,confidence_buffer,,null,,,,,,,,,,,,,,,,,,
2013.6000000238419,,probe_rating,375180,probe_rating,,49,,,,1,1,,,,,,,,,,,,,
null,,confidence_buffer,375282,confidence_buffer,,null,,,,,,,,,,,,,,,,,,
null,,thebreak,375785,break,,null,,,,,,,,,,,,,,,,,,
4299.5,,familiar_rating,380086,US_Cities_List/nat_sitka.png,,50,US_Cities_List/nat_sitka.png,NAT,2,,,,,,,,,,,,,,,
null,,confidence_buffer,380188,confidence_buffer,,null,,,,,,,,,,,,,,,,,,
2904.399999976158,,unique_rating,383093,US_Cities_List/nat_sitka.png,,49,,,1,,,,,,,,,,,,,,,
null,,confidence_buffer,383197,confidence_buffer,,null,,,,,,,,,,,,,,,,,,
1000.4000000357628,,probe_rating,384200,probe_rating,,49,,,,1,0,,,,,,,,,,,,,
null,,confidence_buffer,384303,confidence_buffer,,null,,,,,,,,,,,,,,,,,,
3286.800000011921,,memorable_rating,387592,US_Cities_List/nat_sitka.png,,49,,,1,,,,,,,,,,,,,,,
null,,confidence_buffer,387694,confidence_buffer,,null,,,,,,,,,,,,,,,,,,
null,,thebreak,388196,break,,null,,,,,,,,,,,,,,,,,,
6011.899999976158,,familiar_rating,394209,US_Cities_List/mm_carmel.png,,49,US_Cities_List/mm_carmel.png,MM,1,,,,,,,,,,,,,,,
null,,confidence_buffer,394312,confidence_buffer,,null,,,,,,,,,,,,,,,,,,
4738.199999988079,,unique_rating,399052,US_Cities_List/mm_carmel.png,,50,,,2,,,,,,,,,,,,,,,
null,,confidence_buffer,399155,confidence_buffer,,null,,,,,,,,,,,,,,,,,,
2478.300000011921,,probe_rating,401636,probe_rating,,53,,,,5,1,,,,,,,,,,,,,
null,,confidence_buffer,401739,confidence_buffer,,null,,,,,,,,,,,,,,,,,,
3513.300000011921,,memorable_rating,405254,US_Cities_List/mm_carmel.png,,50,,,2,,,,,,,,,,,,,,,
null,,confidence_buffer,405357,confidence_buffer,,null,,,,,,,,,,,,,,,,,,
null,,thebreak,405860,break,,null,,,,,,,,,,,,,,,,,,
1985.6000000238419,,familiar_rating,407848,US_Cities_List/nat_abilene.png,,49,US_Cities_List/nat_abilene.png,NAT,1,,,,,,,,,,,,,,,
null,,confidence_buffer,407951,confidence_buffer,,null,,,,,,,,,,,,,,,,,,
4059,,unique_rating,412011,US_Cities_List/nat_abilene.png,,49,,,1,,,,,,,,,,,,,,,
null,,confidence_buffer,412114,confidence_buffer,,null,,,,,,,,,,,,,,,,,,
1923,,memorable_rating,414037,US_Cities_List/nat_abilene.png,,49,,,1,,,,,,,,,,,,,,,
null,,confidence_buffer,414140,confidence_buffer,,null,,,,,,,,,,,,,,,,,,
null,,thebreak,414642,break,,null,,,,,,,,,,,,,,,,,,
3011.900000035763,,familiar_rating,417655,Fictional_Cities_List/img_natural_14.png,,49,Fictional_Cities_List/img_natural_14.png,NAT,1,,,,,,,,,,,,,,,
null,,confidence_buffer,417757,confidence_buffer,,null,,,,,,,,,,,,,,,,,,
2506.599999964237,,unique_rating,420265,Fictional_Cities_List/img_natural_14.png,,50,,,2,,,,,,,,,,,,,,,
null,,confidence_buffer,420369,confidence_buffer,,null,,,,,,,,,,,,,,,,,,
3027.2000000476837,,memorable_rating,423397,Fictional_Cities_List/img_natural_14.png,,49,,,1,,,,,,,,,,,,,,,
null,,confidence_buffer,423500,confidence_buffer,,null,,,,,,,,,,,,,,,,,,
null,,thebreak,424004,break,,null,,,,,,,,,,,,,,,,,,
4287.100000023842,,familiar_rating,428292,US_Cities_List/nat_boulder.png,,49,US_Cities_List/nat_boulder.png,NAT,1,,,,,,,,,,,,,,,
null,,confidence_buffer,428395,confidence_buffer,,null,,,,,,,,,,,,,,,,,,
8396.399999976158,,unique_rating,436792,US_Cities_List/nat_boulder.png,,51,,,3,,,,,,,,,,,,,,,
null,,confidence_buffer,436896,confidence_buffer,,null,,,,,,,,,,,,,,,,,,
3585.800000011921,,memorable_rating,440483,US_Cities_List/nat_boulder.png,,51,,,3,,,,,,,,,,,,,,,
null,,confidence_buffer,440585,confidence_buffer,,null,,,,,,,,,,,,,,,,,,
null,,thebreak,441087,break,,null,,,,,,,,,,,,,,,,,,
5019.699999988079,,familiar_rating,446108,Fictional_Cities_List/img_natural_41.png,,50,Fictional_Cities_List/img_natural_41.png,NAT,2,,,,,,,,,,,,,,,
null,,confidence_buffer,446211,confidence_buffer,,null,,,,,,,,,,,,,,,,,,
3080.900000035763,,unique_rating,449293,Fictional_Cities_List/img_natural_41.png,,49,,,1,,,,,,,,,,,,,,,
null,,confidence_buffer,449395,confidence_buffer,,null,,,,,,,,,,,,,,,,,,
1700.5,,memorable_rating,451096,Fictional_Cities_List/img_natural_41.png,,50,,,2,,,,,,,,,,,,,,,
null,,confidence_buffer,451199,confidence_buffer,,null,,,,,,,,,,,,,,,,,,
null,,thebreak,451702,break,,null,,,,,,,,,,,,,,,,,,
4415.5,,familiar_rating,456119,US_Cities_List/mm_athens.png,,51,US_Cities_List/mm_athens.png,MM,3,,,,,,,,,,,,,,,
null,,confidence_buffer,456223,confidence_buffer,,null,,,,,,,,,,,,,,,,,,
2607,,unique_rating,458832,US_Cities_List/mm_athens.png,,49,,,1,,,,,,,,,,,,,,,
null,,confidence_buffer,458935,confidence_buffer,,null,,,,,,,,,,,,,,,,,,
2296.199999988079,,probe_rating,461234,probe_rating,,50,,,,2,1,,,,,,,,,,,,,
null,,confidence_buffer,461337,confidence_buffer,,null,,,,,,,,,,,,,,,,,,
7080.800000011921,,memorable_rating,468419,US_Cities_List/mm_athens.png,,49,,,1,,,,,,,,,,,,,,,
null,,confidence_buffer,468522,confidence_buffer,,null,,,,,,,,,,,,,,,,,,
null,,thebreak,469026,break,,null,,,,,,,,,,,,,,,,,,
3252,,familiar_rating,472279,US_Cities_List/nat_delawarecity.png,,49,US_Cities_List/nat_delawarecity.png,NAT,1,,,,,,,,,,,,,,,
null,,confidence_buffer,472383,confidence_buffer,,null,,,,,,,,,,,,,,,,,,
3395.5,,unique_rating,475780,US_Cities_List/nat_delawarecity.png,,49,,,1,,,,,,,,,,,,,,,
null,,confidence_buffer,475884,confidence_buffer,,null,,,,,,,,,,,,,,,,,,
1219.5,,memorable_rating,477105,US_Cities_List/nat_delawarecity.png,,49,,,1,,,,,,,,,,,,,,,
null,,confidence_buffer,477207,confidence_buffer,,null,,,,,,,,,,,,,,,,,,
null,,thebreak,477709,break,,null,,,,,,,,,,,,,,,,,,
4202.399999976158,,intro_0,481913,instruct,,32,,,,,,,,,,,,,,,,,,
5206.300000011921,,intro_1,487121,instruct,,32,,,,,,,,,,,,,,,,,,
34512.09999996424,,intro_2,521632,instruct,,32,,,,,,,,,,,,,,,,,,
null,,instruct_dir_4,523135,instruct,,null,,,,,,,,,,,,,,,,,,
9092.800000011921,,pt2_realistic_rating,532229,US_Cities_List/nat_sitka.png,,52,US_Cities_List/nat_sitka.png,NAT,4,,,,,,,,,,,,,,,
null,,confidence_buffer,532331,confidence_buffer,,null,,,,,,,,,,,,,,,,,,
5683.900000035763,,pt2_unique_rating,538015,US_Cities_List/nat_sitka.png,,49,,,1,,,,,,,,,,,,,,,
null,,confidence_buffer,538118,confidence_buffer,,null,,,,,,,,,,,,,,,,,,
2584.5,,pt2_memorable_rating,540704,US_Cities_List/nat_sitka.png,,50,,,2,,,,,,,,,,,,,,,
null,,confidence_buffer,540808,confidence_buffer,,null,,,,,,,,,,,,,,,,,,
7483.700000047684,,recognition_phase,548293,US_Cities_List/nat_sitka.png,,50,,,,,,old,1,1,,,,,,,,,,
null,,confidence_buffer,548398,confidence_buffer,,null,,,,,,,,,,,,,,,,,,
null,,thebreak,548901,break,,null,,,,,,,,,,,,,,,,,,
7715.300000011921,,pt2_realistic_rating,556617,Fictional_Cities_List/img_manmade_31.png,,51,Fictional_Cities_List/img_manmade_31.png,MM,3,,,,,,,,,,,,,,,
null,,confidence_buffer,556720,confidence_buffer,,null,,,,,,,,,,,,,,,,,,
3559.600000023842,,pt2_unique_rating,560281,Fictional_Cities_List/img_manmade_31.png,,51,,,3,,,,,,,,,,,,,,,
null,,confidence_buffer,560383,confidence_buffer,,null,,,,,,,,,,,,,,,,,,
1860.0999999642372,,probe_rating,562244,probe_rating,,49,,,,1,1,,,,,,,,,,,,,
null,,confidence_buffer,562347,confidence_buffer,,null,,,,,,,,,,,,,,,,,,
4057.600000023842,,pt2_memorable_rating,566407,Fictional_Cities_List/img_manmade_31.png,,52,,,4,,,,,,,,,,,,,,,
null,,confidence_buffer,566510,confidence_buffer,,null,,,,,,,,,,,,,,,,,,
3497.800000011921,,recognition_phase,570009,Fictional_Cities_List/img_manmade_31.png,,49,,,,,,old,0,0.5,,,,,,,,,,
null,,confidence_buffer,570112,confidence_buffer,,null,,,,,,,,,,,,,,,,,,
null,,thebreak,570614,break,,null,,,,,,,,,,,,,,,,,,
6490.199999988079,,pt2_realistic_rating,577105,Fictional_Cities_List/img_manmade_14.png,,52,Fictional_Cities_List/img_manmade_14.png,MM,4,,,,,,,,,,,,,,,
null,,confidence_buffer,577208,confidence_buffer,,null,,,,,,,,,,,,,,,,,,
1683.699999988079,,probe_rating,578894,probe_rating,,50,,,,2,1,,,,,,,,,,,,,
null,,confidence_buffer,578997,confidence_buffer,,null,,,,,,,,,,,,,,,,,,
4612.899999976158,,pt2_unique_rating,583612,Fictional_Cities_List/img_manmade_14.png,,49,,,1,,,,,,,,,,,,,,,
null,,confidence_buffer,583715,confidence_buffer,,null,,,,,,,,,,,,,,,,,,
5950.200000047684,,pt2_memorable_rating,589667,Fictional_Cities_List/img_manmade_14.png,,51,,,3,,,,,,,,,,,,,,,
null,,confidence_buffer,589769,confidence_buffer,,null,,,,,,,,,,,,,,,,,,
5587.5,,recognition_phase,595358,Fictional_Cities_List/img_manmade_14.png,,49,,,,,,old,0,0.3333333333333333,,,,,,,,,,
null,,confidence_buffer,595461,confidence_buffer,,null,,,,,,,,,,,,,,,,,,
null,,thebreak,595964,break,,null,,,,,,,,,,,,,,,,,,
7413.799999952316,,pt2_realistic_rating,603380,Fictional_Cities_List/img_natural_49.png,,51,Fictional_Cities_List/img_natural_49.png,NAT,3,,,,,,,,,,,,,,,
null,,confidence_buffer,603484,confidence_buffer,,null,,,,,,,,,,,,,,,,,,
2697.399999976158,,pt2_unique_rating,606183,Fictional_Cities_List/img_natural_49.png,,51,,,3,,,,,,,,,,,,,,,
null,,confidence_buffer,606285,confidence_buffer,,null,,,,,,,,,,,,,,,,,,
3617.300000011921,,pt2_memorable_rating,609904,Fictional_Cities_List/img_natural_49.png,,50,,,2,,,,,,,,,,,,,,,
null,,confidence_buffer,610007,confidence_buffer,,null,,,,,,,,,,,,,,,,,,
5060.600000023842,,recognition_phase,615069,Fictional_Cities_List/img_natural_49.png,,50,,,,,,old,0,0.25,,,,,,,,,,
null,,confidence_buffer,615172,confidence_buffer,,null,,,,,,,,,,,,,,,,,,
null,,thebreak,615675,break,,null,,,,,,,,,,,,,,,,,,
3983,,pt2_realistic_rating,619659,US_Cities_List/nat_cornwall.png,,52,US_Cities_List/nat_cornwall.png,NAT,4,,,,,,,,,,,,,,,
null,,confidence_buffer,619763,confidence_buffer,,null,,,,,,,,,,,,,,,,,,
5174.899999976158,,pt2_unique_rating,624939,US_Cities_List/nat_cornwall.png,,50,,,2,,,,,,,,,,,,,,,
null,,confidence_buffer,625042,confidence_buffer,,null,,,,,,,,,,,,,,,,,,
1680.800000011921,,pt2_memorable_rating,626725,US_Cities_List/nat_cornwall.png,,50,,,2,,,,,,,,,,,,,,,
null,,confidence_buffer,626828,confidence_buffer,,null,,,,,,,,,,,,,,,,,,
3020.300000011921,,recognition_phase,629851,US_Cities_List/nat_cornwall.png,,52,,,,,,new,0,0.2,,,,,,,,,,
null,,confidence_buffer,629954,confidence_buffer,,null,,,,,,,,,,,,,,,,,,
null,,thebreak,630457,break,,null,,,,,,,,,,,,,,,,,,
4704.5,,pt2_realistic_rating,635163,Fictional_Cities_List/img_natural_37.png,,52,Fictional_Cities_List/img_natural_37.png,NAT,4,,,,,,,,,,,,,,,
null,,confidence_buffer,635265,confidence_buffer,,null,,,,,,,,,,,,,,,,,,
4814.199999988079,,pt2_unique_rating,640081,Fictional_Cities_List/img_natural_37.png,,49,,,1,,,,,,,,,,,,,,,
null,,confidence_buffer,640184,confidence_buffer,,null,,,,,,,,,,,,,,,,,,
2600.300000011921,,pt2_memorable_rating,642786,Fictional_Cities_List/img_natural_37.png,,51,,,3,,,,,,,,,,,,,,,
null,,confidence_buffer,642890,confidence_buffer,,null,,,,,,,,,,,,,,,,,,
2431.5,,recognition_phase,645323,Fictional_Cities_List/img_natural_37.png,,49,,,,,,old,1,0.3333333333333333,,,,,,,,,,
null,,confidence_buffer,645426,confidence_buffer,,null,,,,,,,,,,,,,,,,,,
null,,thebreak,645929,break,,null,,,,,,,,,,,,,,,,,,
5683,,pt2_realistic_rating,651613,Fictional_Cities_List/img_natural_31.png,,49,Fictional_Cities_List/img_natural_31.png,NAT,1,,,,,,,,,,,,,,,
null,,confidence_buffer,651716,confidence_buffer,,null,,,,,,,,,,,,,,,,,,
4391,,pt2_unique_rating,656108,Fictional_Cities_List/img_natural_31.png,,50,,,2,,,,,,,,,,,,,,,
null,,confidence_buffer,656211,confidence_buffer,,null,,,,,,,,,,,,,,,,,,
3255.699999988079,,pt2_memorable_rating,659469,Fictional_Cities_List/img_natural_31.png,,50,,,2,,,,,,,,,,,,,,,
null,,confidence_buffer,659572,confidence_buffer,,null,,,,,,,,,,,,,,,,,,
2012.8999999761581,,recognition_phase,661587,Fictional_Cities_List/img_natural_31.png,,49,,,,,,old,1,0.42857142857142855,,,,,,,,,,
null,,confidence_buffer,661689,confidence_buffer,,null,,,,,,,,,,,,,,,,,,
null,,thebreak,662192,break,,null,,,,,,,,,,,,,,,,,,
11302,,pt2_realistic_rating,673495,Fictional_Cities_List/img_manmade_37.png,,50,Fictional_Cities_List/img_manmade_37.png,MM,2,,,,,,,,,,,,,,,
null,,confidence_buffer,673598,confidence_buffer,,null,,,,,,,,,,,,,,,,,,
2280.199999988079,,probe_rating,675880,probe_rating,,52,,,,4,1,,,,,,,,,,,,,
null,,confidence_buffer,675983,confidence_buffer,,null,,,,,,,,,,,,,,,,,,
4246.300000011921,,pt2_unique_rating,680231,Fictional_Cities_List/img_manmade_37.png,,51,,,3,,,,,,,,,,,,,,,
null,,confidence_buffer,680334,confidence_buffer,,null,,,,,,,,,,,,,,,,,,
2486.300000011921,,pt2_memorable_rating,682822,Fictional_Cities_List/img_manmade_37.png,,51,,,3,,,,,,,,,,,,,,,
null,,confidence_buffer,682926,confidence_buffer,,null,,,,,,,,,,,,,,,,,,
3102.100000023842,,recognition_phase,686030,Fictional_Cities_List/img_manmade_37.png,,50,,,,,,old,1,0.5,,,,,,,,,,
null,,confidence_buffer,686134,confidence_buffer,,null,,,,,,,,,,,,,,,,,,
null,,thebreak,686637,break,,null,,,,,,,,,,,,,,,,,,
5551.800000011921,,pt2_realistic_rating,692190,Fictional_Cities_List/img_natural_23.png,,49,Fictional_Cities_List/img_natural_23.png,NAT,1,,,,,,,,,,,,,,,
null,,confidence_buffer,692293,confidence_buffer,,null,,,,,,,,,,,,,,,,,,
2016.9000000357628,,pt2_unique_rating,694312,Fictional_Cities_List/img_natural_23.png,,49,,,1,,,,,,,,,,,,,,,
null,,confidence_buffer,694416,confidence_buffer,,null,,,,,,,,,,,,,,,,,,
2908.600000023842,,pt2_memorable_rating,697326,Fictional_Cities_List/img_natural_23.png,,50,,,2,,,,,,,,,,,,,,,
null,,confidence_buffer,697429,confidence_buffer,,null,,,,,,,,,,,,,,,,,,
2732.399999976158,,recognition_phase,700163,Fictional_Cities_List/img_natural_23.png,,52,,,,,,new,1,0.5555555555555556,,,,,,,,,,
null,,confidence_buffer,700266,confidence_buffer,,null,,,,,,,,,,,,,,,,,,
null,,thebreak,700769,break,,null,,,,,,,,,,,,,,,,,,
4480.900000035763,,pt2_realistic_rating,705251,US_Cities_List/nat_peoria.png,,52,US_Cities_List/nat_peoria.png,NAT,4,,,,,,,,,,,,,,,
null,,confidence_buffer,705354,confidence_buffer,,null,,,,,,,,,,,,,,,,,,
2594.100000023842,,pt2_unique_rating,707950,US_Cities_List/nat_peoria.png,,50,,,2,,,,,,,,,,,,,,,
null,,confidence_buffer,708053,confidence_buffer,,null,,,,,,,,,,,,,,,,,,
2088.699999988079,,pt2_memorable_rating,710144,US_Cities_List/nat_peoria.png,,49,,,1,,,,,,,,,,,,,,,
null,,confidence_buffer,710247,confidence_buffer,,null,,,,,,,,,,,,,,,,,,
4051.5,,recognition_phase,714300,US_Cities_List/nat_peoria.png,,49,,,,,,old,1,0.6,,,,,,,,,,
null,,confidence_buffer,714403,confidence_buffer,,null,,,,,,,,,,,,,,,,,,
null,,thebreak,714905,break,,null,,,,,,,,,,,,,,,,,,
6125.199999988079,,pt2_realistic_rating,721032,Fictional_Cities_List/img_manmade_12.png,,51,Fictional_Cities_List/img_manmade_12.png,MM,3,,,,,,,,,,,,,,,
null,,confidence_buffer,721135,confidence_buffer,,null,,,,,,,,,,,,,,,,,,
4342.300000011921,,pt2_unique_rating,725479,Fictional_Cities_List/img_manmade_12.png,,50,,,2,,,,,,,,,,,,,,,
null,,confidence_buffer,725582,confidence_buffer,,null,,,,,,,,,,,,,,,,,,
4258.199999988079,,pt2_memorable_rating,729842,Fictional_Cities_List/img_manmade_12.png,,51,,,3,,,,,,,,,,,,,,,
null,,confidence_buffer,729943,confidence_buffer,,null,,,,,,,,,,,,,,,,,,
2375.100000023842,,recognition_phase,732320,Fictional_Cities_List/img_manmade_12.png,,49,,,,,,old,1,0.6363636363636364,,,,,,,,,,
null,,confidence_buffer,732423,confidence_buffer,,null,,,,,,,,,,,,,,,,,,
null,,thebreak,732925,break,,null,,,,,,,,,,,,,,,,,,
5091.399999976158,,pt2_realistic_rating,738019,US_Cities_List/mm_hilo.png,,50,US_Cities_List/mm_hilo.png,MM,2,,,,,,,,,,,,,,,
null,,confidence_buffer,738122,confidence_buffer,,null,,,,,,,,,,,,,,,,,,
2961.699999988079,,pt2_unique_rating,741086,US_Cities_List/mm_hilo.png,,51,,,3,,,,,,,,,,,,,,,
null,,confidence_buffer,741190,confidence_buffer,,null,,,,,,,,,,,,,,,,,,
2527.800000011921,,pt2_memorable_rating,743719,US_Cities_List/mm_hilo.png,,51,,,3,,,,,,,,,,,,,,,
null,,confidence_buffer,743822,confidence_buffer,,null,,,,,,,,,,,,,,,,,,
1499.9000000357628,,recognition_phase,745324,US_Cities_List/mm_hilo.png,,49,,,,,,old,1,0.6666666666666666,,,,,,,,,,
null,,confidence_buffer,745428,confidence_buffer,,null,,,,,,,,,,,,,,,,,,
null,,thebreak,745930,break,,null,,,,,,,,,,,,,,,,,,
6071.300000011921,,pt2_realistic_rating,752003,US_Cities_List/mm_bisbee.png,,51,US_Cities_List/mm_bisbee.png,MM,3,,,,,,,,,,,,,,,
null,,confidence_buffer,752106,confidence_buffer,,null,,,,,,,,,,,,,,,,,,
3594.399999976158,,probe_rating,755703,probe_rating,,53,,,,5,1,,,,,,,,,,,,,
null,,confidence_buffer,755807,confidence_buffer,,null,,,,,,,,,,,,,,,,,,
4888.5,,pt2_unique_rating,760698,US_Cities_List/mm_bisbee.png,,49,,,1,,,,,,,,,,,,,,,
null,,confidence_buffer,760801,confidence_buffer,,null,,,,,,,,,,,,,,,,,,
2839,,pt2_memorable_rating,763642,US_Cities_List/mm_bisbee.png,,50,,,2,,,,,,,,,,,,,,,
null,,confidence_buffer,763745,confidence_buffer,,null,,,,,,,,,,,,,,,,,,
2217.199999988079,,recognition_phase,765965,US_Cities_List/mm_bisbee.png,,52,,,,,,new,1,0.6923076923076923,,,,,,,,,,
null,,confidence_buffer,766068,confidence_buffer,,null,,,,,,,,,,,,,,,,,,
null,,thebreak,766572,break,,null,,,,,,,,,,,,,,,,,,
10346.600000023842,,pt2_realistic_rating,776920,US_Cities_List/nat_coeurdalene.png,,51,US_Cities_List/nat_coeurdalene.png,NAT,3,,,,,,,,,,,,,,,
null,,confidence_buffer,777023,confidence_buffer,,null,,,,,,,,,,,,,,,,,,
2031.7999999523163,,probe_rating,779057,probe_rating,,53,,,,5,1,,,,,,,,,,,,,
null,,confidence_buffer,779160,confidence_buffer,,null,,,,,,,,,,,,,,,,,,
7601.899999976158,,pt2_unique_rating,786764,US_Cities_List/nat_coeurdalene.png,,49,,,1,,,,,,,,,,,,,,,
null,,confidence_buffer,786866,confidence_buffer,,null,,,,,,,,,,,,,,,,,,
3799.899999976158,,pt2_memorable_rating,790668,US_Cities_List/nat_coeurdalene.png,,50,,,2,,,,,,,,,,,,,,,
null,,confidence_buffer,790771,confidence_buffer,,null,,,,,,,,,,,,,,,,,,
4633.5,,recognition_phase,795407,US_Cities_List/nat_coeurdalene.png,,52,,,,,,new,1,0.7142857142857143,,,,,,,,,,
null,,confidence_buffer,795510,confidence_buffer,,null,,,,,,,,,,,,,,,,,,
null,,thebreak,796014,break,,null,,,,,,,,,,,,,,,,,,
5716.199999988079,,pt2_realistic_rating,801731,US_Cities_List/mm_carmel.png,,50,US_Cities_List/mm_carmel.png,MM,2,,,,,,,,,,,,,,,
null,,confidence_buffer,801834,confidence_buffer,,null,,,,,,,,,,,,,,,,,,
2767,,pt2_unique_rating,804601,US_Cities_List/mm_carmel.png,,50,,,2,,,,,,,,,,,,,,,
null,,confidence_buffer,804704,confidence_buffer,,null,,,,,,,,,,,,,,,,,,
1456.9000000357628,,pt2_memorable_rating,806161,US_Cities_List/mm_carmel.png,,51,,,3,,,,,,,,,,,,,,,
null,,confidence_buffer,806265,confidence_buffer,,null,,,,,,,,,,,,,,,,,,
2762.2000000476837,,recognition_phase,809029,US_Cities_List/mm_carmel.png,,49,,,,,,old,1,0.7333333333333333,,,,,,,,,,
null,,confidence_buffer,809132,confidence_buffer,,null,,,,,,,,,,,,,,,,,,
null,,thebreak,809634,break,,null,,,,,,,,,,,,,,,,,,
5135.699999988079,,pt2_realistic_rating,814770,Fictional_Cities_List/img_manmade_19.png,,50,Fictional_Cities_List/img_manmade_19.png,MM,2,,,,,,,,,,,,,,,
null,,confidence_buffer,814873,confidence_buffer,,null,,,,,,,,,,,,,,,,,,
2413.5,,pt2_unique_rating,817289,Fictional_Cities_List/img_manmade_19.png,,49,,,1,,,,,,,,,,,,,,,
null,,confidence_buffer,817392,confidence_buffer,,null,,,,,,,,,,,,,,,,,,
4503.599999964237,,pt2_memorable_rating,821898,Fictional_Cities_List/img_manmade_19.png,,50,,,2,,,,,,,,,,,,,,,
null,,confidence_buffer,822001,confidence_buffer,,null,,,,,,,,,,,,,,,,,,
2299.600000023842,,recognition_phase,824304,Fictional_Cities_List/img_manmade_19.png,,52,,,,,,new,1,0.75,,,,,,,,,,
null,,confidence_buffer,824407,confidence_buffer,,null,,,,,,,,,,,,,,,,,,
null,,thebreak,824910,break,,null,,,,,,,,,,,,,,,,,,
3962.5,,pt2_realistic_rating,828874,Fictional_Cities_List/img_manmade_34.png,,51,Fictional_Cities_List/img_manmade_34.png,MM,3,,,,,,,,,,,,,,,
null,,confidence_buffer,828977,confidence_buffer,,null,,,,,,,,,,,,,,,,,,
2059.599999964237,,pt2_unique_rating,831039,Fictional_Cities_List/img_manmade_34.png,,49,,,1,,,,,,,,,,,,,,,
null,,confidence_buffer,831142,confidence_buffer,,null,,,,,,,,,,,,,,,,,,
2436.900000035763,,pt2_memorable_rating,833581,Fictional_Cities_List/img_manmade_34.png,,50,,,2,,,,,,,,,,,,,,,
null,,confidence_buffer,833684,confidence_buffer,,null,,,,,,,,,,,,,,,,,,
2756.699999988079,,recognition_phase,836443,Fictional_Cities_List/img_manmade_34.png,,52,,,,,,new,1,0.7647058823529411,,,,,,,,,,
null,,confidence_buffer,836546,confidence_buffer,,null,,,,,,,,,,,,,,,,,,
null,,thebreak,837050,break,,null,,,,,,,,,,,,,,,,,,
5454.100000023842,,pt2_realistic_rating,842505,Fictional_Cities_List/img_manmade_28.png,,49,Fictional_Cities_List/img_manmade_28.png,MM,1,,,,,,,,,,,,,,,
null,,confidence_buffer,842609,confidence_buffer,,null,,,,,,,,,,,,,,,,,,
3001.199999988079,,pt2_unique_rating,845612,Fictional_Cities_List/img_manmade_28.png,,50,,,2,,,,,,,,,,,,,,,
null,,confidence_buffer,845715,confidence_buffer,,null,,,,,,,,,,,,,,,,,,
2264.2000000476837,,pt2_memorable_rating,847980,Fictional_Cities_List/img_manmade_28.png,,50,,,2,,,,,,,,,,,,,,,
null,,confidence_buffer,848083,confidence_buffer,,null,,,,,,,,,,,,,,,,,,
2518.599999964237,,recognition_phase,850604,Fictional_Cities_List/img_manmade_28.png,,52,,,,,,new,0,0.7222222222222222,,,,,,,,,,
null,,confidence_buffer,850707,confidence_buffer,,null,,,,,,,,,,,,,,,,,,
null,,thebreak,851210,break,,null,,,,,,,,,,,,,,,,,,
6941.300000011921,,pt2_realistic_rating,858153,US_Cities_List/nat_athens.png,,51,US_Cities_List/nat_athens.png,NAT,3,,,,,,,,,,,,,,,
null,,confidence_buffer,858257,confidence_buffer,,null,,,,,,,,,,,,,,,,,,
5457.300000011921,,pt2_unique_rating,863716,US_Cities_List/nat_athens.png,,50,,,2,,,,,,,,,,,,,,,
null,,confidence_buffer,863819,confidence_buffer,,null,,,,,,,,,,,,,,,,,,
2542.399999976158,,pt2_memorable_rating,866363,US_Cities_List/nat_athens.png,,50,,,2,,,,,,,,,,,,,,,
null,,confidence_buffer,866467,confidence_buffer,,null,,,,,,,,,,,,,,,,,,
2754.600000023842,,recognition_phase,869224,US_Cities_List/nat_athens.png,,52,,,,,,new,1,0.7368421052631579,,,,,,,,,,
null,,confidence_buffer,869327,confidence_buffer,,null,,,,,,,,,,,,,,,,,,
null,,thebreak,869830,break,,null,,,,,,,,,,,,,,,,,,
4596.5,,pt2_realistic_rating,874427,Fictional_Cities_List/img_natural_41.png,,51,Fictional_Cities_List/img_natural_41.png,NAT,3,,,,,,,,,,,,,,,
null,,confidence_buffer,874530,confidence_buffer,,null,,,,,,,,,,,,,,,,,,
3456.800000011921,,pt2_unique_rating,877988,Fictional_Cities_List/img_natural_41.png,,49,,,1,,,,,,,,,,,,,,,
null,,confidence_buffer,878092,confidence_buffer,,null,,,,,,,,,,,,,,,,,,
2232.199999988079,,pt2_memorable_rating,880325,Fictional_Cities_List/img_natural_41.png,,49,,,1,,,,,,,,,,,,,,,
null,,confidence_buffer,880428,confidence_buffer,,null,,,,,,,,,,,,,,,,,,
2173.399999976158,,probe_rating,882604,probe_rating,,50,,,,2,1,,,,,,,,,,,,,
null,,confidence_buffer,882707,confidence_buffer,,null,,,,,,,,,,,,,,,,,,
2134.600000023842,,recognition_phase,884844,Fictional_Cities_List/img_natural_41.png,,49,,,,,,old,1,0.75,,,,,,,,,,
null,,confidence_buffer,884947,confidence_buffer,,null,,,,,,,,,,,,,,,,,,
null,,thebreak,885450,break,,null,,,,,,,,,,,,,,,,,,
5871.199999988079,,pt2_realistic_rating,891323,US_Cities_List/mm_abilene.png,,51,US_Cities_List/mm_abilene.png,MM,3,,,,,,,,,,,,,,,
null,,confidence_buffer,891426,confidence_buffer,,null,,,,,,,,,,,,,,,,,,
3553.899999976158,,pt2_unique_rating,894982,US_Cities_List/mm_abilene.png,,51,,,3,,,,,,,,,,,,,,,
null,,confidence_buffer,895086,confidence_buffer,,null,,,,,,,,,,,,,,,,,,
2308.400000035763,,probe_rating,897397,probe_rating,,53,,,,5,1,,,,,,,,,,,,,
null,,confidence_buffer,897501,confidence_buffer,,null,,,,,,,,,,,,,,,,,,
3190.899999976158,,pt2_memorable_rating,900693,US_Cities_List/mm_abilene.png,,51,,,3,,,,,,,,,,,,,,,
null,,confidence_buffer,900797,confidence_buffer,,null,,,,,,,,,,,,,,,,,,
3167.900000035763,,recognition_phase,903967,US_Cities_List/mm_abilene.png,,52,,,,,,new,1,0.7619047619047619,,,,,,,,,,
null,,confidence_buffer,904071,confidence_buffer,,null,,,,,,,,,,,,,,,,,,
null,,thebreak,904574,break,,null,,,,,,,,,,,,,,,,,,
5469.899999976158,,pt2_realistic_rating,910045,US_Cities_List/nat_carmel.png,,51,US_Cities_List/nat_carmel.png,NAT,3,,,,,,,,,,,,,,,
null,,confidence_buffer,910148,confidence_buffer,,null,,,,,,,,,,,,,,,,,,
4095.300000011921,,pt2_unique_rating,914245,US_Cities_List/nat_carmel.png,,49,,,1,,,,,,,,,,,,,,,
null,,confidence_buffer,914348,confidence_buffer,,null,,,,,,,,,,,,,,,,,,
2220.300000011921,,pt2_memorable_rating,916570,US_Cities_List/nat_carmel.png,,50,,,2,,,,,,,,,,,,,,,
null,,confidence_buffer,916673,confidence_buffer,,null,,,,,,,,,,,,,,,,,,
3459.699999988079,,recognition_phase,920135,US_Cities_List/nat_carmel.png,,49,,,,,,old,0,0.7272727272727273,,,,,,,,,,
null,,confidence_buffer,920237,confidence_buffer,,null,,,,,,,,,,,,,,,,,,
null,,thebreak,920740,break,,null,,,,,,,,,,,,,,,,,,
5210.900000035763,,pt2_realistic_rating,925953,Fictional_Cities_List/img_manmade_11.png,,49,Fictional_Cities_List/img_manmade_11.png,MM,1,,,,,,,,,,,,,,,
null,,confidence_buffer,926056,confidence_buffer,,null,,,,,,,,,,,,,,,,,,
3569.800000011921,,pt2_unique_rating,929627,Fictional_Cities_List/img_manmade_11.png,,50,,,2,,,,,,,,,,,,,,,
null,,confidence_buffer,929730,confidence_buffer,,null,,,,,,,,,,,,,,,,,,
1346.2000000476837,,pt2_memorable_rating,931078,Fictional_Cities_List/img_manmade_11.png,,50,,,2,,,,,,,,,,,,,,,
null,,confidence_buffer,931181,confidence_buffer,,null,,,,,,,,,,,,,,,,,,
3420,,recognition_phase,934602,Fictional_Cities_List/img_manmade_11.png,,49,,,,,,old,1,0.7391304347826086,,,,,,,,,,
null,,confidence_buffer,934705,confidence_buffer,,null,,,,,,,,,,,,,,,,,,
null,,thebreak,935207,break,,null,,,,,,,,,,,,,,,,,,
3730,,pt2_realistic_rating,938938,Fictional_Cities_List/img_natural_19.png,,49,Fictional_Cities_List/img_natural_19.png,NAT,1,,,,,,,,,,,,,,,
null,,confidence_buffer,939041,confidence_buffer,,null,,,,,,,,,,,,,,,,,,
2689.100000023842,,probe_rating,941733,probe_rating,,52,,,,4,1,,,,,,,,,,,,,
null,,confidence_buffer,941836,confidence_buffer,,null,,,,,,,,,,,,,,,,,,
3989.600000023842,,pt2_unique_rating,945827,Fictional_Cities_List/img_natural_19.png,,51,,,3,,,,,,,,,,,,,,,
null,,confidence_buffer,945930,confidence_buffer,,null,,,,,,,,,,,,,,,,,,
2287.899999976158,,pt2_memorable_rating,948220,Fictional_Cities_List/img_natural_19.png,,51,,,3,,,,,,,,,,,,,,,
null,,confidence_buffer,948324,confidence_buffer,,null,,,,,,,,,,,,,,,,,,
3998.100000023842,,recognition_phase,952324,Fictional_Cities_List/img_natural_19.png,,52,,,,,,new,1,0.75,,,,,,,,,,
null,,confidence_buffer,952428,confidence_buffer,,null,,,,,,,,,,,,,,,,,,
null,,thebreak,952931,break,,null,,,,,,,,,,,,,,,,,,
10898.5,,pt2_realistic_rating,963831,US_Cities_List/nat_hilo.png,,49,US_Cities_List/nat_hilo.png,NAT,1,,,,,,,,,,,,,,,
null,,confidence_buffer,963935,confidence_buffer,,null,,,,,,,,,,,,,,,,,,
5014.400000035763,,pt2_unique_rating,968951,US_Cities_List/nat_hilo.png,,51,,,3,,,,,,,,,,,,,,,
null,,confidence_buffer,969053,confidence_buffer,,null,,,,,,,,,,,,,,,,,,
2860.5,,pt2_memorable_rating,971916,US_Cities_List/nat_hilo.png,,51,,,3,,,,,,,,,,,,,,,
null,,confidence_buffer,972019,confidence_buffer,,null,,,,,,,,,,,,,,,,,,
1675.6000000238419,,recognition_phase,973698,US_Cities_List/nat_hilo.png,,49,,,,,,old,1,0.76,,,,,,,,,,
null,,confidence_buffer,973801,confidence_buffer,,null,,,,,,,,,,,,,,,,,,
null,,thebreak,974304,break,,null,,,,,,,,,,,,,,,,,,
5200.600000023842,,pt2_realistic_rating,979506,Fictional_Cities_List/img_manmade_41.png,,51,Fictional_Cities_List/img_manmade_41.png,MM,3,,,,,,,,,,,,,,,
null,,confidence_buffer,979608,confidence_buffer,,null,,,,,,,,,,,,,,,,,,
2339.2999999523163,,pt2_unique_rating,981949,Fictional_Cities_List/img_manmade_41.png,,49,,,1,,,,,,,,,,,,,,,
null,,confidence_buffer,982052,confidence_buffer,,null,,,,,,,,,,,,,,,,,,
1302.5,,pt2_memorable_rating,983357,Fictional_Cities_List/img_manmade_41.png,,50,,,2,,,,,,,,,,,,,,,
null,,confidence_buffer,983460,confidence_buffer,,null,,,,,,,,,,,,,,,,,,
1818.1000000238419,,recognition_phase,985281,Fictional_Cities_List/img_manmade_41.png,,49,,,,,,old,0,0.7307692307692307,,,,,,,,,,
null,,confidence_buffer,985384,confidence_buffer,,null,,,,,,,,,,,,,,,,,,
null,,thebreak,985887,break,,null,,,,,,,,,,,,,,,,,,
4895.599999964237,,pt2_realistic_rating,990784,Fictional_Cities_List/img_manmade_23.png,,51,Fictional_Cities_List/img_manmade_23.png,MM,3,,,,,,,,,,,,,,,
null,,confidence_buffer,990888,confidence_buffer,,null,,,,,,,,,,,,,,,,,,
3060.199999988079,,pt2_unique_rating,993950,Fictional_Cities_List/img_manmade_23.png,,49,,,1,,,,,,,,,,,,,,,
null,,confidence_buffer,994054,confidence_buffer,,null,,,,,,,,,,,,,,,,,,
820.4000000357628,,pt2_memorable_rating,994877,Fictional_Cities_List/img_manmade_23.png,,50,,,2,,,,,,,,,,,,,,,
null,,confidence_buffer,994980,confidence_buffer,,null,,,,,,,,,,,,,,,,,,
3808.600000023842,,recognition_phase,998790,Fictional_Cities_List/img_manmade_23.png,,49,,,,,,old,1,0.7407407407407407,,,,,,,,,,
null,,confidence_buffer,998894,confidence_buffer,,null,,,,,,,,,,,,,,,,,,
null,,thebreak,999397,break,,null,,,,,,,,,,,,,,,,,,
4970.799999952316,,pt2_realistic_rating,1004369,US_Cities_List/nat_hotsprings.png,,50,US_Cities_List/nat_hotsprings.png,NAT,2,,,,,,,,,,,,,,,
null,,confidence_buffer,1004473,confidence_buffer,,null,,,,,,,,,,,,,,,,,,
1848.2000000476837,,pt2_unique_rating,1006323,US_Cities_List/nat_hotsprings.png,,49,,,1,,,,,,,,,,,,,,,
null,,confidence_buffer,1006427,confidence_buffer,,null,,,,,,,,,,,,,,,,,,
2342.7999999523163,,probe_rating,1008772,probe_rating,,52,,,,4,1,,,,,,,,,,,,,
null,,confidence_buffer,1008875,confidence_buffer,,null,,,,,,,,,,,,,,,,,,
3442.699999988079,,pt2_memorable_rating,1012319,US_Cities_List/nat_hotsprings.png,,50,,,2,,,,,,,,,,,,,,,
null,,confidence_buffer,1012421,confidence_buffer,,null,,,,,,,,,,,,,,,,,,
2148.899999976158,,recognition_phase,1014571,US_Cities_List/nat_hotsprings.png,,52,,,,,,new,1,0.75,,,,,,,,,,
null,,confidence_buffer,1014672,confidence_buffer,,null,,,,,,,,,,,,,,,,,,
null,,thebreak,1015175,break,,null,,,,,,,,,,,,,,,,,,
4273.199999988079,,pt2_realistic_rating,1019449,US_Cities_List/mm_athens.png,,52,US_Cities_List/mm_athens.png,MM,4,,,,,,,,,,,,,,,
null,,confidence_buffer,1019552,confidence_buffer,,null,,,,,,,,,,,,,,,,,,
2101.199999988079,,probe_rating,1021655,probe_rating,,53,,,,5,1,,,,,,,,,,,,,
null,,confidence_buffer,1021758,confidence_buffer,,null,,,,,,,,,,,,,,,,,,
176.5,,pt2_unique_rating,1021937,US_Cities_List/mm_athens.png,,53,,,5,,,,,,,,,,,,,,,
null,,confidence_buffer,1022041,confidence_buffer,,null,,,,,,,,,,,,,,,,,,
6437,,pt2_memorable_rating,1028480,US_Cities_List/mm_athens.png,,49,,,1,,,,,,,,,,,,,,,
null,,confidence_buffer,1028584,confidence_buffer,,null,,,,,,,,,,,,,,,,,,
1765.1000000238419,,recognition_phase,1030351,US_Cities_List/mm_athens.png,,49,,,,,,old,1,0.7586206896551724,,,,,,,,,,
null,,confidence_buffer,1030454,confidence_buffer,,null,,,,,,,,,,,,,,,,,,
null,,thebreak,1030957,break,,null,,,,,,,,,,,,,,,,,,
4851.200000047684,,pt2_realistic_rating,1035809,Fictional_Cities_List/img_natural_28.png,,49,Fictional_Cities_List/img_natural_28.png,NAT,1,,,,,,,,,,,,,,,
null,,confidence_buffer,1035912,confidence_buffer,,null,,,,,,,,,,,,,,,,,,
4630.5,,pt2_unique_rating,1040544,Fictional_Cities_List/img_natural_28.png,,50,,,2,,,,,,,,,,,,,,,
null,,confidence_buffer,1040647,confidence_buffer,,null,,,,,,,,,,,,,,,,,,
3028.899999976158,,pt2_memorable_rating,1043678,Fictional_Cities_List/img_natural_28.png,,50,,,2,,,,,,,,,,,,,,,
null,,confidence_buffer,1043780,confidence_buffer,,null,,,,,,,,,,,,,,,,,,
1658.7999999523163,,probe_rating,1045440,probe_rating,,51,,,,3,1,,,,,,,,,,,,,
null,,confidence_buffer,1045543,confidence_buffer,,null,,,,,,,,,,,,,,,,,,
6314.100000023842,,recognition_phase,1051858,Fictional_Cities_List/img_natural_28.png,,49,,,,,,old,1,0.7666666666666667,,,,,,,,,,
null,,confidence_buffer,1051962,confidence_buffer,,null,,,,,,,,,,,,,,,,,,
null,,thebreak,1052465,break,,null,,,,,,,,,,,,,,,,,,
5813.699999988079,,pt2_realistic_rating,1058281,Fictional_Cities_List/img_natural_14.png,,50,Fictional_Cities_List/img_natural_14.png,NAT,2,,,,,,,,,,,,,,,
null,,confidence_buffer,1058384,confidence_buffer,,null,,,,,,,,,,,,,,,,,,
2030.800000011921,,probe_rating,1060417,probe_rating,,53,,,,5,1,,,,,,,,,,,,,
null,,confidence_buffer,1060521,confidence_buffer,,null,,,,,,,,,,,,,,,,,,
3617.800000011921,,pt2_unique_rating,1064141,Fictional_Cities_List/img_natural_14.png,,49,,,1,,,,,,,,,,,,,,,
null,,confidence_buffer,1064243,confidence_buffer,,null,,,,,,,,,,,,,,,,,,
2946.800000011921,,pt2_memorable_rating,1067192,Fictional_Cities_List/img_natural_14.png,,49,,,1,,,,,,,,,,,,,,,
null,,confidence_buffer,1067295,confidence_buffer,,null,,,,,,,,,,,,,,,,,,
2920.300000011921,,recognition_phase,1070217,Fictional_Cities_List/img_natural_14.png,,49,,,,,,old,1,0.7741935483870968,,,,,,,,,,
null,,confidence_buffer,1070320,confidence_buffer,,null,,,,,,,,,,,,,,,,,,
null,,thebreak,1070822,break,,null,,,,,,,,,,,,,,,,,,
8079,,pt2_realistic_rating,1078902,US_Cities_List/mm_boulder.png,,50,US_Cities_List/mm_boulder.png,MM,2,,,,,,,,,,,,,,,
null,,confidence_buffer,1079005,confidence_buffer,,null,,,,,,,,,,,,,,,,,,
4950.100000023842,,pt2_unique_rating,1083957,US_Cities_List/mm_boulder.png,,49,,,1,,,,,,,,,,,,,,,
null,,confidence_buffer,1084061,confidence_buffer,,null,,,,,,,,,,,,,,,,,,
1901.7000000476837,,pt2_memorable_rating,1085965,US_Cities_List/mm_boulder.png,,49,,,1,,,,,,,,,,,,,,,
null,,confidence_buffer,1086068,confidence_buffer,,null,,,,,,,,,,,,,,,,,,
3304,,recognition_phase,1089375,US_Cities_List/mm_boulder.png,,52,,,,,,new,1,0.78125,,,,,,,,,,
null,,confidence_buffer,1089478,confidence_buffer,,null,,,,,,,,,,,,,,,,,,
null,,thebreak,1089981,break,,null,,,,,,,,,,,,,,,,,,
4487.199999988079,,pt2_realistic_rating,1094469,US_Cities_List/nat_healdsburg.png,,50,US_Cities_List/nat_healdsburg.png,NAT,2,,,,,,,,,,,,,,,
null,,confidence_buffer,1094572,confidence_buffer,,null,,,,,,,,,,,,,,,,,,
10626.899999976158,,pt2_unique_rating,1105200,US_Cities_List/nat_healdsburg.png,,50,,,2,,,,,,,,,,,,,,,
null,,confidence_buffer,1105304,confidence_buffer,,null,,,,,,,,,,,,,,,,,,
2676,,pt2_memorable_rating,1107982,US_Cities_List/nat_healdsburg.png,,50,,,2,,,,,,,,,,,,,,,
null,,confidence_buffer,1108085,confidence_buffer,,null,,,,,,,,,,,,,,,,,,
4995.300000011921,,recognition_phase,1113082,US_Cities_List/nat_healdsburg.png,,51,,,,,,new,1,0.7878787878787878,,,,,,,,,,
null,,confidence_buffer,1113186,confidence_buffer,,null,,,,,,,,,,,,,,,,,,
null,,thebreak,1113689,break,,null,,,,,,,,,,,,,,,,,,
6091.799999952316,,pt2_realistic_rating,1119783,US_Cities_List/mm_healdsburg.png,,51,US_Cities_List/mm_healdsburg.png,MM,3,,,,,,,,,,,,,,,
null,,confidence_buffer,1119885,confidence_buffer,,null,,,,,,,,,,,,,,,,,,
4737.300000011921,,pt2_unique_rating,1124623,US_Cities_List/mm_healdsburg.png,,50,,,2,,,,,,,,,,,,,,,
null,,confidence_buffer,1124726,confidence_buffer,,null,,,,,,,,,,,,,,,,,,
1611.5999999642372,,pt2_memorable_rating,1126339,US_Cities_List/mm_healdsburg.png,,50,,,2,,,,,,,,,,,,,,,
null,,confidence_buffer,1126443,confidence_buffer,,null,,,,,,,,,,,,,,,,,,
2623.399999976158,,recognition_phase,1129069,US_Cities_List/mm_healdsburg.png,,52,,,,,,new,1,0.7941176470588235,,,,,,,,,,
null,,confidence_buffer,1129172,confidence_buffer,,null,,,,,,,,,,,,,,,,,,
null,,thebreak,1129675,break,,null,,,,,,,,,,,,,,,,,,
5407.400000035763,,pt2_realistic_rating,1135084,US_Cities_List/mm_coeurdalene.png,,51,US_Cities_List/mm_coeurdalene.png,MM,3,,,,,,,,,,,,,,,
null,,confidence_buffer,1135187,confidence_buffer,,null,,,,,,,,,,,,,,,,,,
3096.300000011921,,pt2_unique_rating,1138284,US_Cities_List/mm_coeurdalene.png,,49,,,1,,,,,,,,,,,,,,,
null,,confidence_buffer,1138386,confidence_buffer,,null,,,,,,,,,,,,,,,,,,
2541.899999976158,,pt2_memorable_rating,1140930,US_Cities_List/mm_coeurdalene.png,,49,,,1,,,,,,,,,,,,,,,
null,,confidence_buffer,1141034,confidence_buffer,,null,,,,,,,,,,,,,,,,,,
2659.199999988079,,recognition_phase,1143695,US_Cities_List/mm_coeurdalene.png,,49,,,,,,old,1,0.8,,,,,,,,,,
null,,confidence_buffer,1143798,confidence_buffer,,null,,,,,,,,,,,,,,,,,,
null,,thebreak,1144301,break,,null,,,,,,,,,,,,,,,,,,
5528.699999988079,,pt2_realistic_rating,1149832,US_Cities_List/mm_sitka.png,,50,US_Cities_List/mm_sitka.png,MM,2,,,,,,,,,,,,,,,
null,,confidence_buffer,1149934,confidence_buffer,,null,,,,,,,,,,,,,,,,,,
4398.099999964237,,pt2_unique_rating,1154334,US_Cities_List/mm_sitka.png,,50,,,2,,,,,,,,,,,,,,,
null,,confidence_buffer,1154437,confidence_buffer,,null,,,,,,,,,,,,,,,,,,
1016.6000000238419,,pt2_memorable_rating,1155456,US_Cities_List/mm_sitka.png,,51,,,3,,,,,,,,,,,,,,,
null,,confidence_buffer,1155559,confidence_buffer,,null,,,,,,,,,,,,,,,,,,
1802.0999999642372,,recognition_phase,1157364,US_Cities_List/mm_sitka.png,,49,,,,,,old,1,0.8055555555555556,,,,,,,,,,
null,,confidence_buffer,1157468,confidence_buffer,,null,,,,,,,,,,,,,,,,,,
null,,thebreak,1157971,break,,null,,,,,,,,,,,,,,,,,,
3813.800000011921,,pt2_realistic_rating,1161787,US_Cities_List/nat_bisbee.png,,50,US_Cities_List/nat_bisbee.png,NAT,2,,,,,,,,,,,,,,,
null,,confidence_buffer,1161889,confidence_buffer,,null,,,,,,,,,,,,,,,,,,
1747.8999999761581,,probe_rating,1163638,probe_rating,,49,,,,1,1,,,,,,,,,,,,,
null,,confidence_buffer,1163742,confidence_buffer,,null,,,,,,,,,,,,,,,,,,
7859.300000011921,,pt2_unique_rating,1171603,US_Cities_List/nat_bisbee.png,,51,,,3,,,,,,,,,,,,,,,
null,,confidence_buffer,1171704,confidence_buffer,,null,,,,,,,,,,,,,,,,,,
2038.3999999761581,,pt2_memorable_rating,1173744,US_Cities_List/nat_bisbee.png,,51,,,3,,,,,,,,,,,,,,,
null,,confidence_buffer,1173847,confidence_buffer,,null,,,,,,,,,,,,,,,,,,
2182.400000035763,,recognition_phase,1176031,US_Cities_List/nat_bisbee.png,,52,,,,,,new,1,0.8108108108108109,,,,,,,,,,
null,,confidence_buffer,1176135,confidence_buffer,,null,,,,,,,,,,,,,,,,,,
null,,thebreak,1176638,break,,null,,,,,,,,,,,,,,,,,,
6958.100000023842,,pt2_realistic_rating,1183598,US_Cities_List/nat_westpalmbeach.png,,51,US_Cities_List/nat_westpalmbeach.png,NAT,3,,,,,,,,,,,,,,,
null,,confidence_buffer,1183701,confidence_buffer,,null,,,,,,,,,,,,,,,,,,
2270.7000000476837,,pt2_unique_rating,1185974,US_Cities_List/nat_westpalmbeach.png,,50,,,2,,,,,,,,,,,,,,,
null,,confidence_buffer,1186077,confidence_buffer,,null,,,,,,,,,,,,,,,,,,
2905.800000011921,,pt2_memorable_rating,1188985,US_Cities_List/nat_westpalmbeach.png,,51,,,3,,,,,,,,,,,,,,,
null,,confidence_buffer,1189088,confidence_buffer,,null,,,,,,,,,,,,,,,,,,
4915.800000011921,,recognition_phase,1194006,US_Cities_List/nat_westpalmbeach.png,,52,,,,,,new,1,0.8157894736842105,,,,,,,,,,
null,,confidence_buffer,1194109,confidence_buffer,,null,,,,,,,,,,,,,,,,,,
null,,thebreak,1194612,break,,null,,,,,,,,,,,,,,,,,,
3995.699999988079,,pt2_realistic_rating,1198608,Fictional_Cities_List/img_manmade_40.png,,51,Fictional_Cities_List/img_manmade_40.png,MM,3,,,,,,,,,,,,,,,
null,,confidence_buffer,1198711,confidence_buffer,,null,,,,,,,,,,,,,,,,,,
2455.899999976158,,pt2_unique_rating,1201169,Fictional_Cities_List/img_manmade_40.png,,51,,,3,,,,,,,,,,,,,,,
null,,confidence_buffer,1201273,confidence_buffer,,null,,,,,,,,,,,,,,,,,,
1834,,pt2_memorable_rating,1203109,Fictional_Cities_List/img_manmade_40.png,,51,,,3,,,,,,,,,,,,,,,
null,,confidence_buffer,1203213,confidence_buffer,,null,,,,,,,,,,,,,,,,,,
2201.300000011921,,recognition_phase,1205416,Fictional_Cities_List/img_manmade_40.png,,52,,,,,,new,1,0.8205128205128205,,,,,,,,,,
null,,confidence_buffer,1205520,confidence_buffer,,null,,,,,,,,,,,,,,,,,,
null,,thebreak,1206023,break,,null,,,,,,,,,,,,,,,,,,
3912.600000023842,,pt2_realistic_rating,1209937,US_Cities_List/nat_abilene.png,,51,US_Cities_List/nat_abilene.png,NAT,3,,,,,,,,,,,,,,,
null,,confidence_buffer,1210040,confidence_buffer,,null,,,,,,,,,,,,,,,,,,
2662.699999988079,,pt2_unique_rating,1212705,US_Cities_List/nat_abilene.png,,49,,,1,,,,,,,,,,,,,,,
null,,confidence_buffer,1212808,confidence_buffer,,null,,,,,,,,,,,,,,,,,,
1867.5,,pt2_memorable_rating,1214678,US_Cities_List/nat_abilene.png,,49,,,1,,,,,,,,,,,,,,,
null,,confidence_buffer,1214782,confidence_buffer,,null,,,,,,,,,,,,,,,,,,
1377.5,,recognition_phase,1216162,US_Cities_List/nat_abilene.png,,49,,,,,,old,1,0.825,,,,,,,,,,
null,,confidence_buffer,1216265,confidence_buffer,,null,,,,,,,,,,,,,,,,,,
null,,thebreak,1216768,break,,null,,,,,,,,,,,,,,,,,,
7071.599999964237,,pt2_realistic_rating,1223842,US_Cities_List/mm_cornwall.png,,51,US_Cities_List/mm_cornwall.png,MM,3,,,,,,,,,,,,,,,
null,,confidence_buffer,1223945,confidence_buffer,,null,,,,,,,,,,,,,,,,,,
2805.899999976158,,pt2_unique_rating,1226752,US_Cities_List/mm_cornwall.png,,49,,,1,,,,,,,,,,,,,,,
null,,confidence_buffer,1226856,confidence_buffer,,null,,,,,,,,,,,,,,,,,,
2978.2999999523163,,probe_rating,1229837,probe_rating,,53,,,,5,1,,,,,,,,,,,,,
null,,confidence_buffer,1229939,confidence_buffer,,null,,,,,,,,,,,,,,,,,,
1850.199999988079,,pt2_memorable_rating,1231791,US_Cities_List/mm_cornwall.png,,51,,,3,,,,,,,,,,,,,,,
null,,confidence_buffer,1231895,confidence_buffer,,null,,,,,,,,,,,,,,,,,,
6446.5,,recognition_phase,1238343,US_Cities_List/mm_cornwall.png,,51,,,,,,new,1,0.8292682926829268,,,,,,,,,,
null,,confidence_buffer,1238446,confidence_buffer,,null,,,,,,,,,,,,,,,,,,
null,,thebreak,1238950,break,,null,,,,,,,,,,,,,,,,,,
3479.699999988079,,pt2_realistic_rating,1242431,US_Cities_List/mm_okoboji.png,,50,US_Cities_List/mm_okoboji.png,MM,2,,,,,,,,,,,,,,,
null,,confidence_buffer,1242534,confidence_buffer,,null,,,,,,,,,,,,,,,,,,
2277.800000011921,,pt2_unique_rating,1244814,US_Cities_List/mm_okoboji.png,,50,,,2,,,,,,,,,,,,,,,
null,,confidence_buffer,1244917,confidence_buffer,,null,,,,,,,,,,,,,,,,,,
2876.300000011921,,pt2_memorable_rating,1247796,US_Cities_List/mm_okoboji.png,,51,,,3,,,,,,,,,,,,,,,
null,,confidence_buffer,1247899,confidence_buffer,,null,,,,,,,,,,,,,,,,,,
1891.2999999523163,,recognition_phase,1249792,US_Cities_List/mm_okoboji.png,,49,,,,,,old,1,0.8333333333333334,,,,,,,,,,
null,,confidence_buffer,1249894,confidence_buffer,,null,,,,,,,,,,,,,,,,,,
null,,thebreak,1250396,break,,null,,,,,,,,,,,,,,,,,,
6318.900000035763,,pt2_realistic_rating,1256715,US_Cities_List/nat_boulder.png,,50,US_Cities_List/nat_boulder.png,NAT,2,,,,,,,,,,,,,,,
null,,confidence_buffer,1256818,confidence_buffer,,null,,,,,,,,,,,,,,,,,,
3817.300000011921,,pt2_unique_rating,1260637,US_Cities_List/nat_boulder.png,,51,,,3,,,,,,,,,,,,,,,
null,,confidence_buffer,1260740,confidence_buffer,,null,,,,,,,,,,,,,,,,,,
1466,,pt2_memorable_rating,1262208,US_Cities_List/nat_boulder.png,,51,,,3,,,,,,,,,,,,,,,
null,,confidence_buffer,1262311,confidence_buffer,,null,,,,,,,,,,,,,,,,,,
1620.1000000238419,,recognition_phase,1263934,US_Cities_List/nat_boulder.png,,49,,,,,,old,1,0.8372093023255814,,,,,,,,,,
null,,confidence_buffer,1264037,confidence_buffer,,null,,,,,,,,,,,,,,,,,,
null,,thebreak,1264540,break,,null,,,,,,,,,,,,,,,,,,
3520.900000035763,,pt2_realistic_rating,1268063,Fictional_Cities_List/img_manmade_32.png,,51,Fictional_Cities_List/img_manmade_32.png,MM,3,,,,,,,,,,,,,,,
null,,confidence_buffer,1268167,confidence_buffer,,null,,,,,,,,,,,,,,,,,,
2983.100000023842,,pt2_unique_rating,1271152,Fictional_Cities_List/img_manmade_32.png,,50,,,2,,,,,,,,,,,,,,,
null,,confidence_buffer,1271255,confidence_buffer,,null,,,,,,,,,,,,,,,,,,
2435.699999988079,,pt2_memorable_rating,1273693,Fictional_Cities_List/img_manmade_32.png,,51,,,3,,,,,,,,,,,,,,,
null,,confidence_buffer,1273796,confidence_buffer,,null,,,,,,,,,,,,,,,,,,
2192.199999988079,,recognition_phase,1275991,Fictional_Cities_List/img_manmade_32.png,,52,,,,,,new,1,0.8409090909090909,,,,,,,,,,
null,,confidence_buffer,1276094,confidence_buffer,,null,,,,,,,,,,,,,,,,,,
null,,thebreak,1276596,break,,null,,,,,,,,,,,,,,,,,,
7227.099999964237,,pt2_realistic_rating,1283824,US_Cities_List/mm_westpalmbeach.png,,50,US_Cities_List/mm_westpalmbeach.png,MM,2,,,,,,,,,,,,,,,
null,,confidence_buffer,1283926,confidence_buffer,,null,,,,,,,,,,,,,,,,,,
2269.2999999523163,,pt2_unique_rating,1286197,US_Cities_List/mm_westpalmbeach.png,,51,,,3,,,,,,,,,,,,,,,
null,,confidence_buffer,1286300,confidence_buffer,,null,,,,,,,,,,,,,,,,,,
2168.800000011921,,pt2_memorable_rating,1288471,US_Cities_List/mm_westpalmbeach.png,,51,,,3,,,,,,,,,,,,,,,
null,,confidence_buffer,1288575,confidence_buffer,,null,,,,,,,,,,,,,,,,,,
2938.2000000476837,,recognition_phase,1291515,US_Cities_List/mm_westpalmbeach.png,,52,,,,,,new,1,0.8444444444444444,,,,,,,,,,
null,,confidence_buffer,1291618,confidence_buffer,,null,,,,,,,,,,,,,,,,,,
null,,thebreak,1292121,break,,null,,,,,,,,,,,,,,,,,,
3857.399999976158,,pt2_realistic_rating,1295980,US_Cities_List/nat_delawarecity.png,,51,US_Cities_List/nat_delawarecity.png,NAT,3,,,,,,,,,,,,,,,
null,,confidence_buffer,1296082,confidence_buffer,,null,,,,,,,,,,,,,,,,,,
2110.899999976158,,pt2_unique_rating,1298194,US_Cities_List/nat_delawarecity.png,,49,,,1,,,,,,,,,,,,,,,
null,,confidence_buffer,1298297,confidence_buffer,,null,,,,,,,,,,,,,,,,,,
2944.699999988079,,pt2_memorable_rating,1301244,US_Cities_List/nat_delawarecity.png,,49,,,1,,,,,,,,,,,,,,,
null,,confidence_buffer,1301347,confidence_buffer,,null,,,,,,,,,,,,,,,,,,
1874.6000000238419,,recognition_phase,1303224,US_Cities_List/nat_delawarecity.png,,49,,,,,,old,1,0.8478260869565217,,,,,,,,,,
null,,confidence_buffer,1303326,confidence_buffer,,null,,,,,,,,,,,,,,,,,,
null,,thebreak,1303828,break,,null,,,,,,,,,,,,,,,,,,
3699.699999988079,,pt2_realistic_rating,1307529,US_Cities_List/mm_hotsprings.png,,51,US_Cities_List/mm_hotsprings.png,MM,3,,,,,,,,,,,,,,,
null,,confidence_buffer,1307633,confidence_buffer,,null,,,,,,,,,,,,,,,,,,
2486.5,,pt2_unique_rating,1310122,US_Cities_List/mm_hotsprings.png,,49,,,1,,,,,,,,,,,,,,,
null,,confidence_buffer,1310225,confidence_buffer,,null,,,,,,,,,,,,,,,,,,
1219.800000011921,,pt2_memorable_rating,1311447,US_Cities_List/mm_hotsprings.png,,49,,,1,,,,,,,,,,,,,,,
null,,confidence_buffer,1311550,confidence_buffer,,null,,,,,,,,,,,,,,,,,,
2444.900000035763,,recognition_phase,1313996,US_Cities_List/mm_hotsprings.png,,52,,,,,,new,1,0.851063829787234,,,,,,,,,,
null,,confidence_buffer,1314099,confidence_buffer,,null,,,,,,,,,,,,,,,,,,
null,,thebreak,1314602,break,,null,,,,,,,,,,,,,,,,,,
4614.900000035763,,pt2_realistic_rating,1319218,Fictional_Cities_List/img_natural_34.png,,51,Fictional_Cities_List/img_natural_34.png,NAT,3,,,,,,,,,,,,,,,
null,,confidence_buffer,1319321,confidence_buffer,,null,,,,,,,,,,,,,,,,,,
2980.599999964237,,pt2_unique_rating,1322304,Fictional_Cities_List/img_natural_34.png,,49,,,1,,,,,,,,,,,,,,,
null,,confidence_buffer,1322407,confidence_buffer,,null,,,,,,,,,,,,,,,,,,
2540,,pt2_memorable_rating,1324949,Fictional_Cities_List/img_natural_34.png,,50,,,2,,,,,,,,,,,,,,,
null,,confidence_buffer,1325053,confidence_buffer,,null,,,,,,,,,,,,,,,,,,
2130,,probe_rating,1327185,probe_rating,,51,,,,3,1,,,,,,,,,,,,,
null,,confidence_buffer,1327289,confidence_buffer,,null,,,,,,,,,,,,,,,,,,
4646.199999988079,,recognition_phase,1331937,Fictional_Cities_List/img_natural_34.png,,49,,,,,,old,1,0.8541666666666666,,,,,,,,,,
null,,confidence_buffer,1332041,confidence_buffer,,null,,,,,,,,,,,,,,,,,,
null,,thebreak,1332544,break,,null,,,,,,,,,,,,,,,,,,
8083.5,,pt2_realistic_rating,1340629,Fictional_Cities_List/img_natural_21.png,,50,Fictional_Cities_List/img_natural_21.png,NAT,2,,,,,,,,,,,,,,,
null,,confidence_buffer,1340732,confidence_buffer,,null,,,,,,,,,,,,,,,,,,
3327.399999976158,,pt2_unique_rating,1344061,Fictional_Cities_List/img_natural_21.png,,49,,,1,,,,,,,,,,,,,,,
null,,confidence_buffer,1344164,confidence_buffer,,null,,,,,,,,,,,,,,,,,,
2257.099999964237,,pt2_memorable_rating,1346423,Fictional_Cities_List/img_natural_21.png,,49,,,1,,,,,,,,,,,,,,,
null,,confidence_buffer,1346525,confidence_buffer,,null,,,,,,,,,,,,,,,,,,
2654.5,,recognition_phase,1349181,Fictional_Cities_List/img_natural_21.png,,52,,,,,,new,1,0.8571428571428571,,,,,,,,,,
null,,confidence_buffer,1349285,confidence_buffer,,null,,,,,,,,,,,,,,,,,,
null,,thebreak,1349788,break,,null,,,,,,,,,,,,,,,,,,
4349.800000011921,,pt2_realistic_rating,1354139,Fictional_Cities_List/img_manmade_49.png,,51,Fictional_Cities_List/img_manmade_49.png,MM,3,,,,,,,,,,,,,,,
null,,confidence_buffer,1354242,confidence_buffer,,null,,,,,,,,,,,,,,,,,,
3017,,pt2_unique_rating,1357261,Fictional_Cities_List/img_manmade_49.png,,49,,,1,,,,,,,,,,,,,,,
null,,confidence_buffer,1357364,confidence_buffer,,null,,,,,,,,,,,,,,,,,,
1658.3999999761581,,pt2_memorable_rating,1359024,Fictional_Cities_List/img_manmade_49.png,,49,,,1,,,,,,,,,,,,,,,
null,,confidence_buffer,1359126,confidence_buffer,,null,,,,,,,,,,,,,,,,,,
2009.300000011921,,recognition_phase,1361136,Fictional_Cities_List/img_manmade_49.png,,49,,,,,,old,1,0.86,,,,,,,,,,
null,,confidence_buffer,1361239,confidence_buffer,,null,,,,,,,,,,,,,,,,,,
null,,thebreak,1361741,break,,null,,,,,,,,,,,,,,,,,,
5203.199999988079,,pt2_realistic_rating,1366946,Fictional_Cities_List/img_natural_11.png,,51,Fictional_Cities_List/img_natural_11.png,NAT,3,,,,,,,,,,,,,,,
null,,confidence_buffer,1367049,confidence_buffer,,null,,,,,,,,,,,,,,,,,,
5508.099999964237,,pt2_unique_rating,1372559,Fictional_Cities_List/img_natural_11.png,,49,,,1,,,,,,,,,,,,,,,
null,,confidence_buffer,1372663,confidence_buffer,,null,,,,,,,,,,,,,,,,,,
3318.5,,pt2_memorable_rating,1375983,Fictional_Cities_List/img_natural_11.png,,50,,,2,,,,,,,,,,,,,,,
null,,confidence_buffer,1376087,confidence_buffer,,null,,,,,,,,,,,,,,,,,,
6209.699999988079,,recognition_phase,1382299,Fictional_Cities_List/img_natural_11.png,,51,,,,,,new,1,0.8627450980392157,,,,,,,,,,
null,,confidence_buffer,1382402,confidence_buffer,,null,,,,,,,,,,,,,,,,,,
null,,thebreak,1382905,break,,null,,,,,,,,,,,,,,,,,,
6491.800000011921,,pt2_realistic_rating,1389398,Fictional_Cities_List/img_natural_16.png,,49,Fictional_Cities_List/img_natural_16.png,NAT,1,,,,,,,,,,,,,,,
null,,confidence_buffer,1389502,confidence_buffer,,null,,,,,,,,,,,,,,,,,,
2188.199999988079,,pt2_unique_rating,1391692,Fictional_Cities_List/img_natural_16.png,,50,,,2,,,,,,,,,,,,,,,
null,,confidence_buffer,1391796,confidence_buffer,,null,,,,,,,,,,,,,,,,,,
2198.599999964237,,pt2_memorable_rating,1393997,Fictional_Cities_List/img_natural_16.png,,51,,,3,,,,,,,,,,,,,,,
null,,confidence_buffer,1394101,confidence_buffer,,null,,,,,,,,,,,,,,,,,,
3154.5,,recognition_phase,1397257,Fictional_Cities_List/img_natural_16.png,,52,,,,,,new,1,0.8653846153846154,,,,,,,,,,
null,,confidence_buffer,1397360,confidence_buffer,,null,,,,,,,,,,,,,,,,,,
null,,thebreak,1397863,break,,null,,,,,,,,,,,,,,,,,,
3427.099999964237,,pt2_realistic_rating,1401292,US_Cities_List/mm_peoria.png,,50,US_Cities_List/mm_peoria.png,MM,2,,,,,,,,,,,,,,,
null,,confidence_buffer,1401395,confidence_buffer,,null,,,,,,,,,,,,,,,,,,
5149.5,,pt2_unique_rating,1406547,US_Cities_List/mm_peoria.png,,50,,,2,,,,,,,,,,,,,,,
null,,confidence_buffer,1406649,confidence_buffer,,null,,,,,,,,,,,,,,,,,,
2660.900000035763,,pt2_memorable_rating,1409311,US_Cities_List/mm_peoria.png,,51,,,3,,,,,,,,,,,,,,,
null,,confidence_buffer,1409415,confidence_buffer,,null,,,,,,,,,,,,,,,,,,
1762.7999999523163,,recognition_phase,1411180,US_Cities_List/mm_peoria.png,,49,,,,,,old,1,0.8679245283018868,,,,,,,,,,
null,,confidence_buffer,1411283,confidence_buffer,,null,,,,,,,,,,,,,,,,,,
null,,thebreak,1411787,break,,null,,,,,,,,,,,,,,,,,,
5448,,pt2_realistic_rating,1417236,Fictional_Cities_List/img_natural_12.png,,49,Fictional_Cities_List/img_natural_12.png,NAT,1,,,,,,,,,,,,,,,
null,,confidence_buffer,1417339,confidence_buffer,,null,,,,,,,,,,,,,,,,,,
3847.5,,pt2_unique_rating,1421188,Fictional_Cities_List/img_natural_12.png,,52,,,4,,,,,,,,,,,,,,,
null,,confidence_buffer,1421292,confidence_buffer,,null,,,,,,,,,,,,,,,,,,
4960.800000011921,,pt2_memorable_rating,1426255,Fictional_Cities_List/img_natural_12.png,,52,,,4,,,,,,,,,,,,,,,
null,,confidence_buffer,1426358,confidence_buffer,,null,,,,,,,,,,,,,,,,,,
2877.5,,recognition_phase,1429238,Fictional_Cities_List/img_natural_12.png,,52,,,,,,new,0,0.8518518518518519,,,,,,,,,,
null,,confidence_buffer,1429341,confidence_buffer,,null,,,,,,,,,,,,,,,,,,
null,,thebreak,1429844,break,,null,,,,,,,,,,,,,,,,,,
8126.200000047684,,pt2_realistic_rating,1437971,Fictional_Cities_List/img_manmade_16.png,,49,Fictional_Cities_List/img_manmade_16.png,MM,1,,,,,,,,,,,,,,,
null,,confidence_buffer,1438074,confidence_buffer,,null,,,,,,,,,,,,,,,,,,
4795.899999976158,,pt2_unique_rating,1442871,Fictional_Cities_List/img_manmade_16.png,,52,,,4,,,,,,,,,,,,,,,
null,,confidence_buffer,1442974,confidence_buffer,,null,,,,,,,,,,,,,,,,,,
2415,,pt2_memorable_rating,1445391,Fictional_Cities_List/img_manmade_16.png,,51,,,3,,,,,,,,,,,,,,,
null,,confidence_buffer,1445495,confidence_buffer,,null,,,,,,,,,,,,,,,,,,
1426.3999999761581,,recognition_phase,1446923,Fictional_Cities_List/img_manmade_16.png,,49,,,,,,old,1,0.8545454545454545,,,,,,,,,,
null,,confidence_buffer,1447027,confidence_buffer,,null,,,,,,,,,,,,,,,,,,
null,,thebreak,1447531,break,,null,,,,,,,,,,,,,,,,,,
5071.800000011921,,pt2_realistic_rating,1452604,Fictional_Cities_List/img_natural_40.png,,51,Fictional_Cities_List/img_natural_40.png,NAT,3,,,,,,,,,,,,,,,
null,,confidence_buffer,1452708,confidence_buffer,,null,,,,,,,,,,,,,,,,,,
1830.2999999523163,,probe_rating,1454541,probe_rating,,51,,,,3,1,,,,,,,,,,,,,
null,,confidence_buffer,1454644,confidence_buffer,,null,,,,,,,,,,,,,,,,,,
2174.400000035763,,pt2_unique_rating,1456820,Fictional_Cities_List/img_natural_40.png,,50,,,2,,,,,,,,,,,,,,,
null,,confidence_buffer,1456923,confidence_buffer,,null,,,,,,,,,,,,,,,,,,
1648,,pt2_memorable_rating,1458573,Fictional_Cities_List/img_natural_40.png,,50,,,2,,,,,,,,,,,,,,,
null,,confidence_buffer,1458676,confidence_buffer,,null,,,,,,,,,,,,,,,,,,
3750.5,,recognition_phase,1462428,Fictional_Cities_List/img_natural_40.png,,51,,,,,,new,0,0.8392857142857143,,,,,,,,,,
null,,confidence_buffer,1462532,confidence_buffer,,null,,,,,,,,,,,,,,,,,,
null,,thebreak,1463034,break,,null,,,,,,,,,,,,,,,,,,
3612.5,,pt2_realistic_rating,1466648,Fictional_Cities_List/img_natural_32.png,,51,Fictional_Cities_List/img_natural_32.png,NAT,3,,,,,,,,,,,,,,,
null,,confidence_buffer,1466750,confidence_buffer,,null,,,,,,,,,,,,,,,,,,
2992.899999976158,,pt2_unique_rating,1469745,Fictional_Cities_List/img_natural_32.png,,50,,,2,,,,,,,,,,,,,,,
null,,confidence_buffer,1469848,confidence_buffer,,null,,,,,,,,,,,,,,,,,,
1364.3999999761581,,pt2_memorable_rating,1471214,Fictional_Cities_List/img_natural_32.png,,51,,,3,,,,,,,,,,,,,,,
null,,confidence_buffer,1471318,confidence_buffer,,null,,,,,,,,,,,,,,,,,,
4598.699999988079,,recognition_phase,1475919,Fictional_Cities_List/img_natural_32.png,,52,,,,,,new,1,0.8421052631578947,,,,,,,,,,
null,,confidence_buffer,1476022,confidence_buffer,,null,,,,,,,,,,,,,,,,,,
null,,thebreak,1476525,break,,null,,,,,,,,,,,,,,,,,,
5356.599999964237,,pt2_realistic_rating,1481883,US_Cities_List/mm_delawarecity.png,,51,US_Cities_List/mm_delawarecity.png,MM,3,,,,,,,,,,,,,,,
null,,confidence_buffer,1481986,confidence_buffer,,null,,,,,,,,,,,,,,,,,,
1764.2000000476837,,probe_rating,1483753,probe_rating,,51,,,,3,1,,,,,,,,,,,,,
null,,confidence_buffer,1483857,confidence_buffer,,null,,,,,,,,,,,,,,,,,,
4419.699999988079,,pt2_unique_rating,1488279,US_Cities_List/mm_delawarecity.png,,49,,,1,,,,,,,,,,,,,,,
null,,confidence_buffer,1488382,confidence_buffer,,null,,,,,,,,,,,,,,,,,,
2994,,pt2_memorable_rating,1491377,US_Cities_List/mm_delawarecity.png,,50,,,2,,,,,,,,,,,,,,,
null,,confidence_buffer,1491478,confidence_buffer,,null,,,,,,,,,,,,,,,,,,
1827.6000000238419,,recognition_phase,1493307,US_Cities_List/mm_delawarecity.png,,49,,,,,,old,1,0.8448275862068966,,,,,,,,,,
null,,confidence_buffer,1493410,confidence_buffer,,null,,,,,,,,,,,,,,,,,,
null,,thebreak,1493913,break,,null,,,,,,,,,,,,,,,,,,
3573.699999988079,,pt2_realistic_rating,1497489,US_Cities_List/nat_okoboji.png,,50,US_Cities_List/nat_okoboji.png,NAT,2,,,,,,,,,,,,,,,
null,,confidence_buffer,1497591,confidence_buffer,,null,,,,,,,,,,,,,,,,,,
2450.099999964237,,pt2_unique_rating,1500042,US_Cities_List/nat_okoboji.png,,50,,,2,,,,,,,,,,,,,,,
null,,confidence_buffer,1500144,confidence_buffer,,null,,,,,,,,,,,,,,,,,,
2382.5,,pt2_memorable_rating,1502528,US_Cities_List/nat_okoboji.png,,49,,,1,,,,,,,,,,,,,,,
null,,confidence_buffer,1502631,confidence_buffer,,null,,,,,,,,,,,,,,,,,,
1827.7000000476837,,recognition_phase,1504460,US_Cities_List/nat_okoboji.png,,52,,,,,,new,1,0.847457627118644,,,,,,,,,,
null,,confidence_buffer,1504563,confidence_buffer,,null,,,,,,,,,,,,,,,,,,
null,,thebreak,1505067,break,,null,,,,,,,,,,,,,,,,,,
5403.5,,pt2_realistic_rating,1510472,Fictional_Cities_List/img_manmade_21.png,,52,Fictional_Cities_List/img_manmade_21.png,MM,4,,,,,,,,,,,,,,,
null,,confidence_buffer,1510575,confidence_buffer,,null,,,,,,,,,,,,,,,,,,
3575.2000000476837,,pt2_unique_rating,1514152,Fictional_Cities_List/img_manmade_21.png,,49,,,1,,,,,,,,,,,,,,,
null,,confidence_buffer,1514255,confidence_buffer,,null,,,,,,,,,,,,,,,,,,
3107.399999976158,,pt2_memorable_rating,1517364,Fictional_Cities_List/img_manmade_21.png,,50,,,2,,,,,,,,,,,,,,,
null,,confidence_buffer,1517467,confidence_buffer,,null,,,,,,,,,,,,,,,,,,
7650.100000023842,,recognition_phase,1525119,Fictional_Cities_List/img_manmade_21.png,,50,,,,,,old,0,0.8333333333333334,,,,,,,,,,
null,,confidence_buffer,1525221,confidence_buffer,,null,,,,,,,,,,,,,,,,,,
null,,thebreak,1525723,break,,null,,,,,,,,,,,,,,,,,,
,,survey,1832920,survey-questions,,,,,,,,,,,,med,No I was focused. BUT NOTE: a couple of times I think I long-pressed a button so a 2 or a 5 registered quickly for two questions. And twice I made mistakes labeling something NEW that was really OLD. ,I just focused.,If I'd seen an image like that before, or that place before, like Stonehenge. ,Repeating the above: because so many images like it are out there, it wasn't especially memorable -- you could show me a dozen pictures pretty much like that one and I couldn't tell the difference. ,I could imagine many people in that place taking similar or the same photo. ,I thought a lot of them were realistic, being perhaps fooled most of the time, but some seemed clearly AI'ed. ,No, just here at Prolific during this test. ,
