rt,responses,trial_type,time_elapsed,stimulus,button_pressed,key_press,name_trial,city_type,rating,probe,probe_accuracy,response,correct,accuracy,problems,smooth,distraction,strategies,familiar,memorable,unique,realistic,similar,comments
15409.800000011921,{worker_id:610d6c481ca4797b863fe3d1},id_enter,15411,,,,,,,,,,,,,,,,,,,,,
8865.800000011921,,fullscreen,24281,fullscreen,0,,,,,,,,,,,,,,,,,,,
2851.800000011921,,intro_0,27137,instruct,,32,,,,,,,,,,,,,,,,,,
15148.099999964237,,intro_1,42287,instruct,,32,,,,,,,,,,,,,,,,,,
5818.100000023842,,intro_2,48107,instruct,,32,,,,,,,,,,,,,,,,,,
null,,instruct_dir_4,49610,instruct,,null,,,,,,,,,,,,,,,,,,
null,,thebreak,50114,break,,null,,,,,,,,,,,,,,,,,,
5080.400000035763,,familiar_rating,55197,US_Cities_List/nat_gardnerville.png,,51,US_Cities_List/nat_gardnerville.png,NAT,3,,,,,,,,,,,,,,,
null,,confidence_buffer,55301,confidence_buffer,,null,,,,,,,,,,,,,,,,,,
4123.699999988079,,unique_rating,59428,US_Cities_List/nat_gardnerville.png,,50,,,2,,,,,,,,,,,,,,,
null,,confidence_buffer,59531,confidence_buffer,,null,,,,,,,,,,,,,,,,,,
2846.300000011921,,memorable_rating,62380,US_Cities_List/nat_gardnerville.png,,51,,,3,,,,,,,,,,,,,,,
null,,confidence_buffer,62484,confidence_buffer,,null,,,,,,,,,,,,,,,,,,
null,,thebreak,62986,break,,null,,,,,,,,,,,,,,,,,,
3572.300000011921,,familiar_rating,66560,US_Cities_List/nat_athens.png,,51,US_Cities_List/nat_athens.png,NAT,3,,,,,,,,,,,,,,,
null,,confidence_buffer,66663,confidence_buffer,,null,,,,,,,,,,,,,,,,,,
3607.899999976158,,unique_rating,70273,US_Cities_List/nat_athens.png,,50,,,2,,,,,,,,,,,,,,,
null,,confidence_buffer,70376,confidence_buffer,,null,,,,,,,,,,,,,,,,,,
2194.800000011921,,memorable_rating,72573,US_Cities_List/nat_athens.png,,50,,,2,,,,,,,,,,,,,,,
null,,confidence_buffer,72676,confidence_buffer,,null,,,,,,,,,,,,,,,,,,
null,,thebreak,73179,break,,null,,,,,,,,,,,,,,,,,,
7150.399999976158,,familiar_rating,80332,US_Cities_List/nat_peoria.png,,50,US_Cities_List/nat_peoria.png,NAT,2,,,,,,,,,,,,,,,
null,,confidence_buffer,80436,confidence_buffer,,null,,,,,,,,,,,,,,,,,,
3485,,unique_rating,83923,US_Cities_List/nat_peoria.png,,49,,,1,,,,,,,,,,,,,,,
null,,confidence_buffer,84027,confidence_buffer,,null,,,,,,,,,,,,,,,,,,
2384.599999964237,,memorable_rating,86414,US_Cities_List/nat_peoria.png,,50,,,2,,,,,,,,,,,,,,,
null,,confidence_buffer,86517,confidence_buffer,,null,,,,,,,,,,,,,,,,,,
null,,thebreak,87019,break,,null,,,,,,,,,,,,,,,,,,
5566.899999976158,,familiar_rating,92589,Fictional_Cities_List/img_manmade_27.png,,50,Fictional_Cities_List/img_manmade_27.png,MM,2,,,,,,,,,,,,,,,
null,,confidence_buffer,92692,confidence_buffer,,null,,,,,,,,,,,,,,,,,,
2873.800000011921,,probe_rating,95568,probe_rating,,52,,,,4,1,,,,,,,,,,,,,
null,,confidence_buffer,95672,confidence_buffer,,null,,,,,,,,,,,,,,,,,,
1950.2999999523163,,unique_rating,97624,Fictional_Cities_List/img_manmade_27.png,,49,,,1,,,,,,,,,,,,,,,
null,,confidence_buffer,97728,confidence_buffer,,null,,,,,,,,,,,,,,,,,,
1901.6000000238419,,memorable_rating,99631,Fictional_Cities_List/img_manmade_27.png,,49,,,1,,,,,,,,,,,,,,,
null,,confidence_buffer,99735,confidence_buffer,,null,,,,,,,,,,,,,,,,,,
null,,thebreak,100238,break,,null,,,,,,,,,,,,,,,,,,
2121.7999999523163,,familiar_rating,102362,US_Cities_List/mm_peoria.png,,49,US_Cities_List/mm_peoria.png,MM,1,,,,,,,,,,,,,,,
null,,confidence_buffer,102465,confidence_buffer,,null,,,,,,,,,,,,,,,,,,
2216.600000023842,,unique_rating,104683,US_Cities_List/mm_peoria.png,,51,,,3,,,,,,,,,,,,,,,
null,,confidence_buffer,104787,confidence_buffer,,null,,,,,,,,,,,,,,,,,,
1777.7000000476837,,probe_rating,106566,probe_rating,,53,,,,5,1,,,,,,,,,,,,,
null,,confidence_buffer,106669,confidence_buffer,,null,,,,,,,,,,,,,,,,,,
5423.900000035763,,memorable_rating,112095,US_Cities_List/mm_peoria.png,,51,,,3,,,,,,,,,,,,,,,
null,,confidence_buffer,112198,confidence_buffer,,null,,,,,,,,,,,,,,,,,,
null,,thebreak,112701,break,,null,,,,,,,,,,,,,,,,,,
9486.5,,familiar_rating,122190,US_Cities_List/mm_gloucester.png,,51,US_Cities_List/mm_gloucester.png,MM,3,,,,,,,,,,,,,,,
null,,confidence_buffer,122294,confidence_buffer,,null,,,,,,,,,,,,,,,,,,
1551.699999988079,,unique_rating,123848,US_Cities_List/mm_gloucester.png,,50,,,2,,,,,,,,,,,,,,,
null,,confidence_buffer,123951,confidence_buffer,,null,,,,,,,,,,,,,,,,,,
931.3000000119209,,memorable_rating,124885,US_Cities_List/mm_gloucester.png,,51,,,3,,,,,,,,,,,,,,,
null,,confidence_buffer,124988,confidence_buffer,,null,,,,,,,,,,,,,,,,,,
null,,thebreak,125492,break,,null,,,,,,,,,,,,,,,,,,
3528.5,,familiar_rating,129022,Fictional_Cities_List/img_manmade_18.png,,50,Fictional_Cities_List/img_manmade_18.png,MM,2,,,,,,,,,,,,,,,
null,,confidence_buffer,129125,confidence_buffer,,null,,,,,,,,,,,,,,,,,,
2944.600000023842,,unique_rating,132072,Fictional_Cities_List/img_manmade_18.png,,50,,,2,,,,,,,,,,,,,,,
null,,confidence_buffer,132175,confidence_buffer,,null,,,,,,,,,,,,,,,,,,
2789.199999988079,,probe_rating,134967,probe_rating,,51,,,,3,1,,,,,,,,,,,,,
null,,confidence_buffer,135071,confidence_buffer,,null,,,,,,,,,,,,,,,,,,
1414.4000000357628,,memorable_rating,136488,Fictional_Cities_List/img_manmade_18.png,,49,,,1,,,,,,,,,,,,,,,
null,,confidence_buffer,136591,confidence_buffer,,null,,,,,,,,,,,,,,,,,,
null,,thebreak,137093,break,,null,,,,,,,,,,,,,,,,,,
4783.600000023842,,familiar_rating,141879,Fictional_Cities_List/img_natural_34.png,,50,Fictional_Cities_List/img_natural_34.png,NAT,2,,,,,,,,,,,,,,,
null,,confidence_buffer,141982,confidence_buffer,,null,,,,,,,,,,,,,,,,,,
2791.599999964237,,unique_rating,144775,Fictional_Cities_List/img_natural_34.png,,50,,,2,,,,,,,,,,,,,,,
null,,confidence_buffer,144879,confidence_buffer,,null,,,,,,,,,,,,,,,,,,
2668.699999988079,,memorable_rating,147549,Fictional_Cities_List/img_natural_34.png,,51,,,3,,,,,,,,,,,,,,,
null,,confidence_buffer,147653,confidence_buffer,,null,,,,,,,,,,,,,,,,,,
null,,thebreak,148157,break,,null,,,,,,,,,,,,,,,,,,
5909.599999964237,,familiar_rating,154069,Fictional_Cities_List/img_manmade_37.png,,49,Fictional_Cities_List/img_manmade_37.png,MM,1,,,,,,,,,,,,,,,
null,,confidence_buffer,154171,confidence_buffer,,null,,,,,,,,,,,,,,,,,,
2230.099999964237,,unique_rating,156402,Fictional_Cities_List/img_manmade_37.png,,51,,,3,,,,,,,,,,,,,,,
null,,confidence_buffer,156504,confidence_buffer,,null,,,,,,,,,,,,,,,,,,
1966.5999999642372,,memorable_rating,158473,Fictional_Cities_List/img_manmade_37.png,,49,,,1,,,,,,,,,,,,,,,
null,,confidence_buffer,158575,confidence_buffer,,null,,,,,,,,,,,,,,,,,,
null,,thebreak,159079,break,,null,,,,,,,,,,,,,,,,,,
4252.199999988079,,familiar_rating,163333,US_Cities_List/mm_barnard.png,,50,US_Cities_List/mm_barnard.png,MM,2,,,,,,,,,,,,,,,
null,,confidence_buffer,163437,confidence_buffer,,null,,,,,,,,,,,,,,,,,,
1771.699999988079,,probe_rating,165211,probe_rating,,53,,,,5,1,,,,,,,,,,,,,
null,,confidence_buffer,165315,confidence_buffer,,null,,,,,,,,,,,,,,,,,,
11569.599999964237,,unique_rating,176887,US_Cities_List/mm_barnard.png,,49,,,1,,,,,,,,,,,,,,,
null,,confidence_buffer,176990,confidence_buffer,,null,,,,,,,,,,,,,,,,,,
2062.399999976158,,memorable_rating,179055,US_Cities_List/mm_barnard.png,,50,,,2,,,,,,,,,,,,,,,
null,,confidence_buffer,179159,confidence_buffer,,null,,,,,,,,,,,,,,,,,,
null,,thebreak,179662,break,,null,,,,,,,,,,,,,,,,,,
2878.900000035763,,familiar_rating,182543,US_Cities_List/mm_sisters.png,,49,US_Cities_List/mm_sisters.png,MM,1,,,,,,,,,,,,,,,
null,,confidence_buffer,182647,confidence_buffer,,null,,,,,,,,,,,,,,,,,,
1472.300000011921,,probe_rating,184121,probe_rating,,50,,,,2,1,,,,,,,,,,,,,
null,,confidence_buffer,184225,confidence_buffer,,null,,,,,,,,,,,,,,,,,,
2073.300000011921,,unique_rating,186301,US_Cities_List/mm_sisters.png,,49,,,1,,,,,,,,,,,,,,,
null,,confidence_buffer,186404,confidence_buffer,,null,,,,,,,,,,,,,,,,,,
1231.5999999642372,,memorable_rating,187638,US_Cities_List/mm_sisters.png,,49,,,1,,,,,,,,,,,,,,,
null,,confidence_buffer,187743,confidence_buffer,,null,,,,,,,,,,,,,,,,,,
null,,thebreak,188249,break,,null,,,,,,,,,,,,,,,,,,
4159,,familiar_rating,192410,Fictional_Cities_List/img_natural_42.png,,51,Fictional_Cities_List/img_natural_42.png,NAT,3,,,,,,,,,,,,,,,
null,,confidence_buffer,192514,confidence_buffer,,null,,,,,,,,,,,,,,,,,,
4149,,unique_rating,196665,Fictional_Cities_List/img_natural_42.png,,51,,,3,,,,,,,,,,,,,,,
null,,confidence_buffer,196768,confidence_buffer,,null,,,,,,,,,,,,,,,,,,
2018.1000000238419,,memorable_rating,198788,Fictional_Cities_List/img_natural_42.png,,51,,,3,,,,,,,,,,,,,,,
null,,confidence_buffer,198891,confidence_buffer,,null,,,,,,,,,,,,,,,,,,
null,,thebreak,199393,break,,null,,,,,,,,,,,,,,,,,,
5627.600000023842,,familiar_rating,205023,US_Cities_List/nat_alliance.png,,51,US_Cities_List/nat_alliance.png,NAT,3,,,,,,,,,,,,,,,
null,,confidence_buffer,205126,confidence_buffer,,null,,,,,,,,,,,,,,,,,,
3071.399999976158,,unique_rating,208200,US_Cities_List/nat_alliance.png,,50,,,2,,,,,,,,,,,,,,,
null,,confidence_buffer,208302,confidence_buffer,,null,,,,,,,,,,,,,,,,,,
1358.199999988079,,probe_rating,209662,probe_rating,,53,,,,5,1,,,,,,,,,,,,,
null,,confidence_buffer,209766,confidence_buffer,,null,,,,,,,,,,,,,,,,,,
3425.599999964237,,memorable_rating,213193,US_Cities_List/nat_alliance.png,,51,,,3,,,,,,,,,,,,,,,
null,,confidence_buffer,213297,confidence_buffer,,null,,,,,,,,,,,,,,,,,,
null,,thebreak,213800,break,,null,,,,,,,,,,,,,,,,,,
7655.100000023842,,familiar_rating,221457,Fictional_Cities_List/img_manmade_12.png,,51,Fictional_Cities_List/img_manmade_12.png,MM,3,,,,,,,,,,,,,,,
null,,confidence_buffer,221559,confidence_buffer,,null,,,,,,,,,,,,,,,,,,
5541.699999988079,,unique_rating,227102,Fictional_Cities_List/img_manmade_12.png,,50,,,2,,,,,,,,,,,,,,,
null,,confidence_buffer,227206,confidence_buffer,,null,,,,,,,,,,,,,,,,,,
1429.300000011921,,memorable_rating,228637,Fictional_Cities_List/img_manmade_12.png,,51,,,3,,,,,,,,,,,,,,,
null,,confidence_buffer,228739,confidence_buffer,,null,,,,,,,,,,,,,,,,,,
null,,thebreak,229241,break,,null,,,,,,,,,,,,,,,,,,
2326.600000023842,,familiar_rating,231569,US_Cities_List/mm_huntsville.png,,51,US_Cities_List/mm_huntsville.png,MM,3,,,,,,,,,,,,,,,
null,,confidence_buffer,231672,confidence_buffer,,null,,,,,,,,,,,,,,,,,,
1969.8999999761581,,unique_rating,233643,US_Cities_List/mm_huntsville.png,,50,,,2,,,,,,,,,,,,,,,
null,,confidence_buffer,233746,confidence_buffer,,null,,,,,,,,,,,,,,,,,,
1405.199999988079,,memorable_rating,235153,US_Cities_List/mm_huntsville.png,,50,,,2,,,,,,,,,,,,,,,
null,,confidence_buffer,235256,confidence_buffer,,null,,,,,,,,,,,,,,,,,,
null,,thebreak,235759,break,,null,,,,,,,,,,,,,,,,,,
5871.300000011921,,familiar_rating,241632,US_Cities_List/mm_newhope.png,,50,US_Cities_List/mm_newhope.png,MM,2,,,,,,,,,,,,,,,
null,,confidence_buffer,241736,confidence_buffer,,null,,,,,,,,,,,,,,,,,,
1474.5,,unique_rating,243212,US_Cities_List/mm_newhope.png,,49,,,1,,,,,,,,,,,,,,,
null,,confidence_buffer,243315,confidence_buffer,,null,,,,,,,,,,,,,,,,,,
1639.699999988079,,memorable_rating,244957,US_Cities_List/mm_newhope.png,,50,,,2,,,,,,,,,,,,,,,
null,,confidence_buffer,245061,confidence_buffer,,null,,,,,,,,,,,,,,,,,,
null,,thebreak,245564,break,,null,,,,,,,,,,,,,,,,,,
4189.099999964237,,familiar_rating,249755,US_Cities_List/nat_capemay.png,,50,US_Cities_List/nat_capemay.png,NAT,2,,,,,,,,,,,,,,,
null,,confidence_buffer,249857,confidence_buffer,,null,,,,,,,,,,,,,,,,,,
1503.1000000238419,,probe_rating,251363,probe_rating,,52,,,,4,1,,,,,,,,,,,,,
null,,confidence_buffer,251466,confidence_buffer,,null,,,,,,,,,,,,,,,,,,
2138.5,,unique_rating,253607,US_Cities_List/nat_capemay.png,,49,,,1,,,,,,,,,,,,,,,
null,,confidence_buffer,253710,confidence_buffer,,null,,,,,,,,,,,,,,,,,,
1491.8999999761581,,memorable_rating,255204,US_Cities_List/nat_capemay.png,,49,,,1,,,,,,,,,,,,,,,
null,,confidence_buffer,255308,confidence_buffer,,null,,,,,,,,,,,,,,,,,,
null,,thebreak,255811,break,,null,,,,,,,,,,,,,,,,,,
5605.899999976158,,familiar_rating,261419,US_Cities_List/mm_cleveland.png,,51,US_Cities_List/mm_cleveland.png,MM,3,,,,,,,,,,,,,,,
null,,confidence_buffer,261522,confidence_buffer,,null,,,,,,,,,,,,,,,,,,
4186.800000011921,,unique_rating,265711,US_Cities_List/mm_cleveland.png,,49,,,1,,,,,,,,,,,,,,,
null,,confidence_buffer,265814,confidence_buffer,,null,,,,,,,,,,,,,,,,,,
2743.300000011921,,memorable_rating,268559,US_Cities_List/mm_cleveland.png,,51,,,3,,,,,,,,,,,,,,,
null,,confidence_buffer,268663,confidence_buffer,,null,,,,,,,,,,,,,,,,,,
null,,thebreak,269166,break,,null,,,,,,,,,,,,,,,,,,
2353.099999964237,,familiar_rating,271521,Fictional_Cities_List/img_manmade_33.png,,51,Fictional_Cities_List/img_manmade_33.png,MM,3,,,,,,,,,,,,,,,
null,,confidence_buffer,271624,confidence_buffer,,null,,,,,,,,,,,,,,,,,,
1807.5999999642372,,unique_rating,273434,Fictional_Cities_List/img_manmade_33.png,,51,,,3,,,,,,,,,,,,,,,
null,,confidence_buffer,273537,confidence_buffer,,null,,,,,,,,,,,,,,,,,,
1103,,memorable_rating,274643,Fictional_Cities_List/img_manmade_33.png,,51,,,3,,,,,,,,,,,,,,,
null,,confidence_buffer,274746,confidence_buffer,,null,,,,,,,,,,,,,,,,,,
null,,thebreak,275248,break,,null,,,,,,,,,,,,,,,,,,
8520,,familiar_rating,283770,Fictional_Cities_List/img_natural_12.png,,53,Fictional_Cities_List/img_natural_12.png,NAT,5,,,,,,,,,,,,,,,
null,,confidence_buffer,283874,confidence_buffer,,null,,,,,,,,,,,,,,,,,,
2057.900000035763,,unique_rating,285934,Fictional_Cities_List/img_natural_12.png,,52,,,4,,,,,,,,,,,,,,,
null,,confidence_buffer,286037,confidence_buffer,,null,,,,,,,,,,,,,,,,,,
1902.8999999761581,,memorable_rating,287942,Fictional_Cities_List/img_natural_12.png,,53,,,5,,,,,,,,,,,,,,,
null,,confidence_buffer,288046,confidence_buffer,,null,,,,,,,,,,,,,,,,,,
null,,thebreak,288550,break,,null,,,,,,,,,,,,,,,,,,
3208.899999976158,,familiar_rating,291760,Fictional_Cities_List/img_natural_39.png,,51,Fictional_Cities_List/img_natural_39.png,NAT,3,,,,,,,,,,,,,,,
null,,confidence_buffer,291864,confidence_buffer,,null,,,,,,,,,,,,,,,,,,
1330.0999999642372,,probe_rating,293197,probe_rating,,50,,,,2,1,,,,,,,,,,,,,
null,,confidence_buffer,293301,confidence_buffer,,null,,,,,,,,,,,,,,,,,,
2839.5,,unique_rating,296142,Fictional_Cities_List/img_natural_39.png,,50,,,2,,,,,,,,,,,,,,,
null,,confidence_buffer,296244,confidence_buffer,,null,,,,,,,,,,,,,,,,,,
1863.800000011921,,memorable_rating,298109,Fictional_Cities_List/img_natural_39.png,,50,,,2,,,,,,,,,,,,,,,
null,,confidence_buffer,298213,confidence_buffer,,null,,,,,,,,,,,,,,,,,,
null,,thebreak,298716,break,,null,,,,,,,,,,,,,,,,,,
5892.600000023842,,familiar_rating,304611,Fictional_Cities_List/img_natural_18.png,,51,Fictional_Cities_List/img_natural_18.png,NAT,3,,,,,,,,,,,,,,,
null,,confidence_buffer,304715,confidence_buffer,,null,,,,,,,,,,,,,,,,,,
2203.600000023842,,unique_rating,306920,Fictional_Cities_List/img_natural_18.png,,50,,,2,,,,,,,,,,,,,,,
null,,confidence_buffer,307024,confidence_buffer,,null,,,,,,,,,,,,,,,,,,
2276.7999999523163,,memorable_rating,309302,Fictional_Cities_List/img_natural_18.png,,51,,,3,,,,,,,,,,,,,,,
null,,confidence_buffer,309405,confidence_buffer,,null,,,,,,,,,,,,,,,,,,
null,,thebreak,309907,break,,null,,,,,,,,,,,,,,,,,,
5184.700000047684,,familiar_rating,315094,Fictional_Cities_List/img_natural_36.png,,50,Fictional_Cities_List/img_natural_36.png,NAT,2,,,,,,,,,,,,,,,
null,,confidence_buffer,315197,confidence_buffer,,null,,,,,,,,,,,,,,,,,,
3562.899999976158,,unique_rating,318762,Fictional_Cities_List/img_natural_36.png,,50,,,2,,,,,,,,,,,,,,,
null,,confidence_buffer,318865,confidence_buffer,,null,,,,,,,,,,,,,,,,,,
1428.2000000476837,,probe_rating,320296,probe_rating,,53,,,,5,1,,,,,,,,,,,,,
null,,confidence_buffer,320399,confidence_buffer,,null,,,,,,,,,,,,,,,,,,
1395.4000000357628,,memorable_rating,321797,Fictional_Cities_List/img_natural_36.png,,50,,,2,,,,,,,,,,,,,,,
null,,confidence_buffer,321900,confidence_buffer,,null,,,,,,,,,,,,,,,,,,
null,,thebreak,322403,break,,null,,,,,,,,,,,,,,,,,,
5287.899999976158,,familiar_rating,327692,Fictional_Cities_List/img_manmade_25.png,,49,Fictional_Cities_List/img_manmade_25.png,MM,1,,,,,,,,,,,,,,,
null,,confidence_buffer,327795,confidence_buffer,,null,,,,,,,,,,,,,,,,,,
2072.2999999523163,,unique_rating,329869,Fictional_Cities_List/img_manmade_25.png,,51,,,3,,,,,,,,,,,,,,,
null,,confidence_buffer,329972,confidence_buffer,,null,,,,,,,,,,,,,,,,,,
3760.399999976158,,memorable_rating,333734,Fictional_Cities_List/img_manmade_25.png,,51,,,3,,,,,,,,,,,,,,,
null,,confidence_buffer,333837,confidence_buffer,,null,,,,,,,,,,,,,,,,,,
null,,thebreak,334340,break,,null,,,,,,,,,,,,,,,,,,
3391.2999999523163,,familiar_rating,337734,Fictional_Cities_List/img_natural_50.png,,51,Fictional_Cities_List/img_natural_50.png,NAT,3,,,,,,,,,,,,,,,
null,,confidence_buffer,337837,confidence_buffer,,null,,,,,,,,,,,,,,,,,,
3291.599999964237,,unique_rating,341131,Fictional_Cities_List/img_natural_50.png,,50,,,2,,,,,,,,,,,,,,,
null,,confidence_buffer,341234,confidence_buffer,,null,,,,,,,,,,,,,,,,,,
2931.5,,memorable_rating,344168,Fictional_Cities_List/img_natural_50.png,,51,,,3,,,,,,,,,,,,,,,
null,,confidence_buffer,344271,confidence_buffer,,null,,,,,,,,,,,,,,,,,,
null,,thebreak,344775,break,,null,,,,,,,,,,,,,,,,,,
2943.100000023842,,familiar_rating,347720,US_Cities_List/nat_healdsburg.png,,49,US_Cities_List/nat_healdsburg.png,NAT,1,,,,,,,,,,,,,,,
null,,confidence_buffer,347824,confidence_buffer,,null,,,,,,,,,,,,,,,,,,
1129,,unique_rating,348955,US_Cities_List/nat_healdsburg.png,,49,,,1,,,,,,,,,,,,,,,
null,,confidence_buffer,349058,confidence_buffer,,null,,,,,,,,,,,,,,,,,,
2918.100000023842,,memorable_rating,351978,US_Cities_List/nat_healdsburg.png,,50,,,2,,,,,,,,,,,,,,,
null,,confidence_buffer,352081,confidence_buffer,,null,,,,,,,,,,,,,,,,,,
null,,thebreak,352585,break,,null,,,,,,,,,,,,,,,,,,
4101.600000023842,,familiar_rating,356688,US_Cities_List/nat_gatlinburg.png,,51,US_Cities_List/nat_gatlinburg.png,NAT,3,,,,,,,,,,,,,,,
null,,confidence_buffer,356791,confidence_buffer,,null,,,,,,,,,,,,,,,,,,
3796,,unique_rating,360589,US_Cities_List/nat_gatlinburg.png,,50,,,2,,,,,,,,,,,,,,,
null,,confidence_buffer,360692,confidence_buffer,,null,,,,,,,,,,,,,,,,,,
2082.600000023842,,memorable_rating,362776,US_Cities_List/nat_gatlinburg.png,,50,,,2,,,,,,,,,,,,,,,
null,,confidence_buffer,362878,confidence_buffer,,null,,,,,,,,,,,,,,,,,,
null,,thebreak,363381,break,,null,,,,,,,,,,,,,,,,,,
2666.300000011921,,familiar_rating,366049,Fictional_Cities_List/img_natural_31.png,,49,Fictional_Cities_List/img_natural_31.png,NAT,1,,,,,,,,,,,,,,,
null,,confidence_buffer,366152,confidence_buffer,,null,,,,,,,,,,,,,,,,,,
3346.699999988079,,unique_rating,369501,Fictional_Cities_List/img_natural_31.png,,51,,,3,,,,,,,,,,,,,,,
null,,confidence_buffer,369604,confidence_buffer,,null,,,,,,,,,,,,,,,,,,
2602.7000000476837,,memorable_rating,372209,Fictional_Cities_List/img_natural_31.png,,51,,,3,,,,,,,,,,,,,,,
null,,confidence_buffer,372313,confidence_buffer,,null,,,,,,,,,,,,,,,,,,
1651.8999999761581,,probe_rating,373967,probe_rating,,53,,,,5,1,,,,,,,,,,,,,
null,,confidence_buffer,374071,confidence_buffer,,null,,,,,,,,,,,,,,,,,,
null,,thebreak,374574,break,,null,,,,,,,,,,,,,,,,,,
5260.300000011921,,familiar_rating,379837,US_Cities_List/mm_hilo.png,,50,US_Cities_List/mm_hilo.png,MM,2,,,,,,,,,,,,,,,
null,,confidence_buffer,379941,confidence_buffer,,null,,,,,,,,,,,,,,,,,,
2131.400000035763,,unique_rating,382074,US_Cities_List/mm_hilo.png,,51,,,3,,,,,,,,,,,,,,,
null,,confidence_buffer,382177,confidence_buffer,,null,,,,,,,,,,,,,,,,,,
1757.7999999523163,,memorable_rating,383937,US_Cities_List/mm_hilo.png,,51,,,3,,,,,,,,,,,,,,,
null,,confidence_buffer,384041,confidence_buffer,,null,,,,,,,,,,,,,,,,,,
null,,thebreak,384544,break,,null,,,,,,,,,,,,,,,,,,
5720.199999988079,,familiar_rating,390266,Fictional_Cities_List/img_manmade_42.png,,53,Fictional_Cities_List/img_manmade_42.png,MM,5,,,,,,,,,,,,,,,
null,,confidence_buffer,390370,confidence_buffer,,null,,,,,,,,,,,,,,,,,,
2227,,unique_rating,392599,Fictional_Cities_List/img_manmade_42.png,,51,,,3,,,,,,,,,,,,,,,
null,,confidence_buffer,392703,confidence_buffer,,null,,,,,,,,,,,,,,,,,,
3550,,memorable_rating,396255,Fictional_Cities_List/img_manmade_42.png,,51,,,3,,,,,,,,,,,,,,,
null,,confidence_buffer,396359,confidence_buffer,,null,,,,,,,,,,,,,,,,,,
null,,thebreak,396862,break,,null,,,,,,,,,,,,,,,,,,
23112.099999964237,,intro_0,419976,instruct,,32,,,,,,,,,,,,,,,,,,
15736,,intro_1,435713,instruct,,32,,,,,,,,,,,,,,,,,,
12866.400000035763,,intro_2,448581,instruct,,32,,,,,,,,,,,,,,,,,,
null,,instruct_dir_4,450083,instruct,,null,,,,,,,,,,,,,,,,,,
8975.5,,pt2_realistic_rating,459061,Fictional_Cities_List/img_manmade_50.png,,52,Fictional_Cities_List/img_manmade_50.png,MM,4,,,,,,,,,,,,,,,
null,,confidence_buffer,459165,confidence_buffer,,null,,,,,,,,,,,,,,,,,,
9683.899999976158,,pt2_unique_rating,468851,Fictional_Cities_List/img_manmade_50.png,,51,,,3,,,,,,,,,,,,,,,
null,,confidence_buffer,468954,confidence_buffer,,null,,,,,,,,,,,,,,,,,,
5104.800000011921,,pt2_memorable_rating,474061,Fictional_Cities_List/img_manmade_50.png,,51,,,3,,,,,,,,,,,,,,,
null,,confidence_buffer,474164,confidence_buffer,,null,,,,,,,,,,,,,,,,,,
2415,,recognition_phase,476582,Fictional_Cities_List/img_manmade_50.png,,49,,,,,,old,0,0,,,,,,,,,,
null,,confidence_buffer,476685,confidence_buffer,,null,,,,,,,,,,,,,,,,,,
null,,thebreak,477188,break,,null,,,,,,,,,,,,,,,,,,
5796.699999988079,,pt2_realistic_rating,482987,Fictional_Cities_List/img_natural_39.png,,53,Fictional_Cities_List/img_natural_39.png,NAT,5,,,,,,,,,,,,,,,
null,,confidence_buffer,483091,confidence_buffer,,null,,,,,,,,,,,,,,,,,,
2531.699999988079,,pt2_unique_rating,485624,Fictional_Cities_List/img_natural_39.png,,51,,,3,,,,,,,,,,,,,,,
null,,confidence_buffer,485728,confidence_buffer,,null,,,,,,,,,,,,,,,,,,
1671.199999988079,,pt2_memorable_rating,487400,Fictional_Cities_List/img_natural_39.png,,51,,,3,,,,,,,,,,,,,,,
null,,confidence_buffer,487503,confidence_buffer,,null,,,,,,,,,,,,,,,,,,
1819.800000011921,,probe_rating,489325,probe_rating,,52,,,,4,1,,,,,,,,,,,,,
null,,confidence_buffer,489427,confidence_buffer,,null,,,,,,,,,,,,,,,,,,
3526,,recognition_phase,492955,Fictional_Cities_List/img_natural_39.png,,49,,,,,,old,1,0.5,,,,,,,,,,
null,,confidence_buffer,493058,confidence_buffer,,null,,,,,,,,,,,,,,,,,,
null,,thebreak,493560,break,,null,,,,,,,,,,,,,,,,,,
8333.5,,pt2_realistic_rating,501896,US_Cities_List/mm_leesburg.png,,52,US_Cities_List/mm_leesburg.png,MM,4,,,,,,,,,,,,,,,
null,,confidence_buffer,502000,confidence_buffer,,null,,,,,,,,,,,,,,,,,,
2109,,pt2_unique_rating,504111,US_Cities_List/mm_leesburg.png,,51,,,3,,,,,,,,,,,,,,,
null,,confidence_buffer,504215,confidence_buffer,,null,,,,,,,,,,,,,,,,,,
2870.2999999523163,,pt2_memorable_rating,507087,US_Cities_List/mm_leesburg.png,,50,,,2,,,,,,,,,,,,,,,
null,,confidence_buffer,507190,confidence_buffer,,null,,,,,,,,,,,,,,,,,,
4413.600000023842,,recognition_phase,511606,US_Cities_List/mm_leesburg.png,,52,,,,,,new,1,0.6666666666666666,,,,,,,,,,
null,,confidence_buffer,511709,confidence_buffer,,null,,,,,,,,,,,,,,,,,,
null,,thebreak,512212,break,,null,,,,,,,,,,,,,,,,,,
7113.599999964237,,pt2_realistic_rating,519326,US_Cities_List/nat_capemay.png,,52,US_Cities_List/nat_capemay.png,NAT,4,,,,,,,,,,,,,,,
null,,confidence_buffer,519430,confidence_buffer,,null,,,,,,,,,,,,,,,,,,
2087.900000035763,,pt2_unique_rating,521520,US_Cities_List/nat_capemay.png,,50,,,2,,,,,,,,,,,,,,,
null,,confidence_buffer,521624,confidence_buffer,,null,,,,,,,,,,,,,,,,,,
3088.399999976158,,pt2_memorable_rating,524715,US_Cities_List/nat_capemay.png,,51,,,3,,,,,,,,,,,,,,,
null,,confidence_buffer,524820,confidence_buffer,,null,,,,,,,,,,,,,,,,,,
2636.399999976158,,recognition_phase,527459,US_Cities_List/nat_capemay.png,,49,,,,,,old,1,0.75,,,,,,,,,,
null,,confidence_buffer,527563,confidence_buffer,,null,,,,,,,,,,,,,,,,,,
null,,thebreak,528066,break,,null,,,,,,,,,,,,,,,,,,
3830.900000035763,,pt2_realistic_rating,531899,US_Cities_List/nat_sitka.png,,53,US_Cities_List/nat_sitka.png,NAT,5,,,,,,,,,,,,,,,
null,,confidence_buffer,532003,confidence_buffer,,null,,,,,,,,,,,,,,,,,,
5374.899999976158,,pt2_unique_rating,537380,US_Cities_List/nat_sitka.png,,51,,,3,,,,,,,,,,,,,,,
null,,confidence_buffer,537483,confidence_buffer,,null,,,,,,,,,,,,,,,,,,
1664.699999988079,,pt2_memorable_rating,539150,US_Cities_List/nat_sitka.png,,51,,,3,,,,,,,,,,,,,,,
null,,confidence_buffer,539253,confidence_buffer,,null,,,,,,,,,,,,,,,,,,
4242.5,,recognition_phase,543498,US_Cities_List/nat_sitka.png,,50,,,,,,old,0,0.6,,,,,,,,,,
null,,confidence_buffer,543601,confidence_buffer,,null,,,,,,,,,,,,,,,,,,
null,,thebreak,544104,break,,null,,,,,,,,,,,,,,,,,,
7980.399999976158,,pt2_realistic_rating,552087,Fictional_Cities_List/img_manmade_22.png,,51,Fictional_Cities_List/img_manmade_22.png,MM,3,,,,,,,,,,,,,,,
null,,confidence_buffer,552190,confidence_buffer,,null,,,,,,,,,,,,,,,,,,
3828.899999976158,,pt2_unique_rating,556021,Fictional_Cities_List/img_manmade_22.png,,52,,,4,,,,,,,,,,,,,,,
null,,confidence_buffer,556125,confidence_buffer,,null,,,,,,,,,,,,,,,,,,
2176.699999988079,,pt2_memorable_rating,558304,Fictional_Cities_List/img_manmade_22.png,,52,,,4,,,,,,,,,,,,,,,
null,,confidence_buffer,558407,confidence_buffer,,null,,,,,,,,,,,,,,,,,,
2804.5,,recognition_phase,561215,Fictional_Cities_List/img_manmade_22.png,,52,,,,,,new,1,0.6666666666666666,,,,,,,,,,
null,,confidence_buffer,561318,confidence_buffer,,null,,,,,,,,,,,,,,,,,,
null,,thebreak,561821,break,,null,,,,,,,,,,,,,,,,,,
5560.400000035763,,pt2_realistic_rating,567384,US_Cities_List/nat_gardnerville.png,,52,US_Cities_List/nat_gardnerville.png,NAT,4,,,,,,,,,,,,,,,
null,,confidence_buffer,567488,confidence_buffer,,null,,,,,,,,,,,,,,,,,,
3170.899999976158,,pt2_unique_rating,570661,US_Cities_List/nat_gardnerville.png,,51,,,3,,,,,,,,,,,,,,,
null,,confidence_buffer,570764,confidence_buffer,,null,,,,,,,,,,,,,,,,,,
1583.300000011921,,pt2_memorable_rating,572349,US_Cities_List/nat_gardnerville.png,,51,,,3,,,,,,,,,,,,,,,
null,,confidence_buffer,572453,confidence_buffer,,null,,,,,,,,,,,,,,,,,,
3013,,recognition_phase,575468,US_Cities_List/nat_gardnerville.png,,50,,,,,,old,1,0.7142857142857143,,,,,,,,,,
null,,confidence_buffer,575570,confidence_buffer,,null,,,,,,,,,,,,,,,,,,
null,,thebreak,576073,break,,null,,,,,,,,,,,,,,,,,,
3683.399999976158,,pt2_realistic_rating,579759,Fictional_Cities_List/img_manmade_36.png,,53,Fictional_Cities_List/img_manmade_36.png,MM,5,,,,,,,,,,,,,,,
null,,confidence_buffer,579862,confidence_buffer,,null,,,,,,,,,,,,,,,,,,
2271.699999988079,,pt2_unique_rating,582136,Fictional_Cities_List/img_manmade_36.png,,51,,,3,,,,,,,,,,,,,,,
null,,confidence_buffer,582240,confidence_buffer,,null,,,,,,,,,,,,,,,,,,
1277.5,,pt2_memorable_rating,583519,Fictional_Cities_List/img_manmade_36.png,,51,,,3,,,,,,,,,,,,,,,
null,,confidence_buffer,583623,confidence_buffer,,null,,,,,,,,,,,,,,,,,,
2974.100000023842,,recognition_phase,586599,Fictional_Cities_List/img_manmade_36.png,,52,,,,,,new,1,0.75,,,,,,,,,,
null,,confidence_buffer,586703,confidence_buffer,,null,,,,,,,,,,,,,,,,,,
null,,thebreak,587206,break,,null,,,,,,,,,,,,,,,,,,
2657,,pt2_realistic_rating,589864,Fictional_Cities_List/img_manmade_06.png,,53,Fictional_Cities_List/img_manmade_06.png,MM,5,,,,,,,,,,,,,,,
null,,confidence_buffer,589968,confidence_buffer,,null,,,,,,,,,,,,,,,,,,
1748.1000000238419,,pt2_unique_rating,591718,Fictional_Cities_List/img_manmade_06.png,,51,,,3,,,,,,,,,,,,,,,
null,,confidence_buffer,591822,confidence_buffer,,null,,,,,,,,,,,,,,,,,,
4443.899999976158,,pt2_memorable_rating,596268,Fictional_Cities_List/img_manmade_06.png,,51,,,3,,,,,,,,,,,,,,,
null,,confidence_buffer,596371,confidence_buffer,,null,,,,,,,,,,,,,,,,,,
4472.100000023842,,recognition_phase,600846,Fictional_Cities_List/img_manmade_06.png,,52,,,,,,new,1,0.7777777777777778,,,,,,,,,,
null,,confidence_buffer,600949,confidence_buffer,,null,,,,,,,,,,,,,,,,,,
null,,thebreak,601452,break,,null,,,,,,,,,,,,,,,,,,
7359.5,,pt2_realistic_rating,608814,Fictional_Cities_List/img_natural_12.png,,49,Fictional_Cities_List/img_natural_12.png,NAT,1,,,,,,,,,,,,,,,
null,,confidence_buffer,608918,confidence_buffer,,null,,,,,,,,,,,,,,,,,,
3413.5,,pt2_unique_rating,612333,Fictional_Cities_List/img_natural_12.png,,52,,,4,,,,,,,,,,,,,,,
null,,confidence_buffer,612437,confidence_buffer,,null,,,,,,,,,,,,,,,,,,
1272.300000011921,,pt2_memorable_rating,613711,Fictional_Cities_List/img_natural_12.png,,52,,,4,,,,,,,,,,,,,,,
null,,confidence_buffer,613815,confidence_buffer,,null,,,,,,,,,,,,,,,,,,
2857.800000011921,,recognition_phase,616675,Fictional_Cities_List/img_natural_12.png,,49,,,,,,old,1,0.8,,,,,,,,,,
null,,confidence_buffer,616779,confidence_buffer,,null,,,,,,,,,,,,,,,,,,
null,,thebreak,617282,break,,null,,,,,,,,,,,,,,,,,,
4253.800000011921,,pt2_realistic_rating,621538,Fictional_Cities_List/img_natural_18.png,,52,Fictional_Cities_List/img_natural_18.png,NAT,4,,,,,,,,,,,,,,,
null,,confidence_buffer,621641,confidence_buffer,,null,,,,,,,,,,,,,,,,,,
1432.300000011921,,pt2_unique_rating,623076,Fictional_Cities_List/img_natural_18.png,,51,,,3,,,,,,,,,,,,,,,
null,,confidence_buffer,623179,confidence_buffer,,null,,,,,,,,,,,,,,,,,,
1527.8999999761581,,pt2_memorable_rating,624709,Fictional_Cities_List/img_natural_18.png,,51,,,3,,,,,,,,,,,,,,,
null,,confidence_buffer,624813,confidence_buffer,,null,,,,,,,,,,,,,,,,,,
1658.2999999523163,,recognition_phase,626474,Fictional_Cities_List/img_natural_18.png,,49,,,,,,old,1,0.8181818181818182,,,,,,,,,,
null,,confidence_buffer,626577,confidence_buffer,,null,,,,,,,,,,,,,,,,,,
null,,thebreak,627079,break,,null,,,,,,,,,,,,,,,,,,
4891.199999988079,,pt2_realistic_rating,631972,US_Cities_List/mm_cleveland.png,,53,US_Cities_List/mm_cleveland.png,MM,5,,,,,,,,,,,,,,,
null,,confidence_buffer,632076,confidence_buffer,,null,,,,,,,,,,,,,,,,,,
2063.5,,pt2_unique_rating,634141,US_Cities_List/mm_cleveland.png,,51,,,3,,,,,,,,,,,,,,,
null,,confidence_buffer,634245,confidence_buffer,,null,,,,,,,,,,,,,,,,,,
1555.3999999761581,,pt2_memorable_rating,635802,US_Cities_List/mm_cleveland.png,,51,,,3,,,,,,,,,,,,,,,
null,,confidence_buffer,635905,confidence_buffer,,null,,,,,,,,,,,,,,,,,,
1401.300000011921,,probe_rating,637308,probe_rating,,53,,,,5,1,,,,,,,,,,,,,
null,,confidence_buffer,637412,confidence_buffer,,null,,,,,,,,,,,,,,,,,,
1763.699999988079,,recognition_phase,639178,US_Cities_List/mm_cleveland.png,,49,,,,,,old,1,0.8333333333333334,,,,,,,,,,
null,,confidence_buffer,639281,confidence_buffer,,null,,,,,,,,,,,,,,,,,,
null,,thebreak,639784,break,,null,,,,,,,,,,,,,,,,,,
3258.599999964237,,pt2_realistic_rating,643044,Fictional_Cities_List/img_natural_34.png,,52,Fictional_Cities_List/img_natural_34.png,NAT,4,,,,,,,,,,,,,,,
null,,confidence_buffer,643147,confidence_buffer,,null,,,,,,,,,,,,,,,,,,
1966.2999999523163,,pt2_unique_rating,645116,Fictional_Cities_List/img_natural_34.png,,51,,,3,,,,,,,,,,,,,,,
null,,confidence_buffer,645220,confidence_buffer,,null,,,,,,,,,,,,,,,,,,
4110.400000035763,,pt2_memorable_rating,649332,Fictional_Cities_List/img_natural_34.png,,51,,,3,,,,,,,,,,,,,,,
null,,confidence_buffer,649436,confidence_buffer,,null,,,,,,,,,,,,,,,,,,
3809.099999964237,,recognition_phase,653247,Fictional_Cities_List/img_natural_34.png,,49,,,,,,old,1,0.8461538461538461,,,,,,,,,,
null,,confidence_buffer,653351,confidence_buffer,,null,,,,,,,,,,,,,,,,,,
null,,thebreak,653853,break,,null,,,,,,,,,,,,,,,,,,
3879.899999976158,,pt2_realistic_rating,657734,US_Cities_List/nat_alliance.png,,51,US_Cities_List/nat_alliance.png,NAT,3,,,,,,,,,,,,,,,
null,,confidence_buffer,657837,confidence_buffer,,null,,,,,,,,,,,,,,,,,,
2584.5,,pt2_unique_rating,660423,US_Cities_List/nat_alliance.png,,51,,,3,,,,,,,,,,,,,,,
null,,confidence_buffer,660526,confidence_buffer,,null,,,,,,,,,,,,,,,,,,
1769,,pt2_memorable_rating,662297,US_Cities_List/nat_alliance.png,,51,,,3,,,,,,,,,,,,,,,
null,,confidence_buffer,662401,confidence_buffer,,null,,,,,,,,,,,,,,,,,,
1500.6000000238419,,recognition_phase,663904,US_Cities_List/nat_alliance.png,,49,,,,,,old,1,0.8571428571428571,,,,,,,,,,
null,,confidence_buffer,664007,confidence_buffer,,null,,,,,,,,,,,,,,,,,,
null,,thebreak,664511,break,,null,,,,,,,,,,,,,,,,,,
3738.2000000476837,,pt2_realistic_rating,668251,Fictional_Cities_List/img_natural_22.png,,49,Fictional_Cities_List/img_natural_22.png,NAT,1,,,,,,,,,,,,,,,
null,,confidence_buffer,668355,confidence_buffer,,null,,,,,,,,,,,,,,,,,,
2176.699999988079,,pt2_unique_rating,670533,Fictional_Cities_List/img_natural_22.png,,51,,,3,,,,,,,,,,,,,,,
null,,confidence_buffer,670637,confidence_buffer,,null,,,,,,,,,,,,,,,,,,
1851.800000011921,,pt2_memorable_rating,672491,Fictional_Cities_List/img_natural_22.png,,51,,,3,,,,,,,,,,,,,,,
null,,confidence_buffer,672595,confidence_buffer,,null,,,,,,,,,,,,,,,,,,
2006,,recognition_phase,674603,Fictional_Cities_List/img_natural_22.png,,52,,,,,,new,1,0.8666666666666667,,,,,,,,,,
null,,confidence_buffer,674707,confidence_buffer,,null,,,,,,,,,,,,,,,,,,
null,,thebreak,675211,break,,null,,,,,,,,,,,,,,,,,,
4983.399999976158,,pt2_realistic_rating,680197,Fictional_Cities_List/img_manmade_42.png,,53,Fictional_Cities_List/img_manmade_42.png,MM,5,,,,,,,,,,,,,,,
null,,confidence_buffer,680300,confidence_buffer,,null,,,,,,,,,,,,,,,,,,
1715.6000000238419,,pt2_unique_rating,682018,Fictional_Cities_List/img_manmade_42.png,,51,,,3,,,,,,,,,,,,,,,
null,,confidence_buffer,682121,confidence_buffer,,null,,,,,,,,,,,,,,,,,,
1105.7000000476837,,pt2_memorable_rating,683229,Fictional_Cities_List/img_manmade_42.png,,51,,,3,,,,,,,,,,,,,,,
null,,confidence_buffer,683332,confidence_buffer,,null,,,,,,,,,,,,,,,,,,
2777.199999988079,,recognition_phase,686111,Fictional_Cities_List/img_manmade_42.png,,49,,,,,,old,1,0.875,,,,,,,,,,
null,,confidence_buffer,686213,confidence_buffer,,null,,,,,,,,,,,,,,,,,,
null,,thebreak,686716,break,,null,,,,,,,,,,,,,,,,,,
4530.300000011921,,pt2_realistic_rating,691248,Fictional_Cities_List/img_manmade_13.png,,50,Fictional_Cities_List/img_manmade_13.png,MM,2,,,,,,,,,,,,,,,
null,,confidence_buffer,691351,confidence_buffer,,null,,,,,,,,,,,,,,,,,,
2010.300000011921,,pt2_unique_rating,693363,Fictional_Cities_List/img_manmade_13.png,,51,,,3,,,,,,,,,,,,,,,
null,,confidence_buffer,693467,confidence_buffer,,null,,,,,,,,,,,,,,,,,,
2076.7999999523163,,pt2_memorable_rating,695545,Fictional_Cities_List/img_manmade_13.png,,51,,,3,,,,,,,,,,,,,,,
null,,confidence_buffer,695648,confidence_buffer,,null,,,,,,,,,,,,,,,,,,
1540.3999999761581,,recognition_phase,697191,Fictional_Cities_List/img_manmade_13.png,,52,,,,,,new,1,0.8823529411764706,,,,,,,,,,
null,,confidence_buffer,697294,confidence_buffer,,null,,,,,,,,,,,,,,,,,,
null,,thebreak,697797,break,,null,,,,,,,,,,,,,,,,,,
5364.799999952316,,pt2_realistic_rating,703164,US_Cities_List/mm_hilo.png,,52,US_Cities_List/mm_hilo.png,MM,4,,,,,,,,,,,,,,,
null,,confidence_buffer,703267,confidence_buffer,,null,,,,,,,,,,,,,,,,,,
1894.8999999761581,,pt2_unique_rating,705164,US_Cities_List/mm_hilo.png,,50,,,2,,,,,,,,,,,,,,,
null,,confidence_buffer,705268,confidence_buffer,,null,,,,,,,,,,,,,,,,,,
1306.9000000357628,,pt2_memorable_rating,706577,US_Cities_List/mm_hilo.png,,51,,,3,,,,,,,,,,,,,,,
null,,confidence_buffer,706679,confidence_buffer,,null,,,,,,,,,,,,,,,,,,
1534.5,,recognition_phase,708216,US_Cities_List/mm_hilo.png,,49,,,,,,old,1,0.8888888888888888,,,,,,,,,,
null,,confidence_buffer,708320,confidence_buffer,,null,,,,,,,,,,,,,,,,,,
null,,thebreak,708823,break,,null,,,,,,,,,,,,,,,,,,
4510.900000035763,,pt2_realistic_rating,713336,Fictional_Cities_List/img_manmade_39.png,,52,Fictional_Cities_List/img_manmade_39.png,MM,4,,,,,,,,,,,,,,,
null,,confidence_buffer,713439,confidence_buffer,,null,,,,,,,,,,,,,,,,,,
2193.800000011921,,pt2_unique_rating,715635,Fictional_Cities_List/img_manmade_39.png,,50,,,2,,,,,,,,,,,,,,,
null,,confidence_buffer,715739,confidence_buffer,,null,,,,,,,,,,,,,,,,,,
1244.8999999761581,,pt2_memorable_rating,716985,Fictional_Cities_List/img_manmade_39.png,,51,,,3,,,,,,,,,,,,,,,
null,,confidence_buffer,717089,confidence_buffer,,null,,,,,,,,,,,,,,,,,,
1913,,recognition_phase,719004,Fictional_Cities_List/img_manmade_39.png,,52,,,,,,new,1,0.8947368421052632,,,,,,,,,,
null,,confidence_buffer,719108,confidence_buffer,,null,,,,,,,,,,,,,,,,,,
null,,thebreak,719612,break,,null,,,,,,,,,,,,,,,,,,
2633.599999964237,,pt2_realistic_rating,722247,US_Cities_List/mm_barnard.png,,53,US_Cities_List/mm_barnard.png,MM,5,,,,,,,,,,,,,,,
null,,confidence_buffer,722351,confidence_buffer,,null,,,,,,,,,,,,,,,,,,
3437.599999964237,,pt2_unique_rating,725791,US_Cities_List/mm_barnard.png,,50,,,2,,,,,,,,,,,,,,,
null,,confidence_buffer,725893,confidence_buffer,,null,,,,,,,,,,,,,,,,,,
1163.699999988079,,pt2_memorable_rating,727059,US_Cities_List/mm_barnard.png,,50,,,2,,,,,,,,,,,,,,,
null,,confidence_buffer,727162,confidence_buffer,,null,,,,,,,,,,,,,,,,,,
2491,,recognition_phase,729655,US_Cities_List/mm_barnard.png,,49,,,,,,old,1,0.9,,,,,,,,,,
null,,confidence_buffer,729758,confidence_buffer,,null,,,,,,,,,,,,,,,,,,
null,,thebreak,730261,break,,null,,,,,,,,,,,,,,,,,,
2260.899999976158,,pt2_realistic_rating,732524,Fictional_Cities_List/img_manmade_27.png,,49,Fictional_Cities_List/img_manmade_27.png,MM,1,,,,,,,,,,,,,,,
null,,confidence_buffer,732628,confidence_buffer,,null,,,,,,,,,,,,,,,,,,
1144.6000000238419,,pt2_unique_rating,733775,Fictional_Cities_List/img_manmade_27.png,,51,,,3,,,,,,,,,,,,,,,
null,,confidence_buffer,733876,confidence_buffer,,null,,,,,,,,,,,,,,,,,,
1225.0999999642372,,probe_rating,735103,probe_rating,,50,,,,2,1,,,,,,,,,,,,,
null,,confidence_buffer,735207,confidence_buffer,,null,,,,,,,,,,,,,,,,,,
2000.0999999642372,,pt2_memorable_rating,737209,Fictional_Cities_List/img_manmade_27.png,,51,,,3,,,,,,,,,,,,,,,
null,,confidence_buffer,737313,confidence_buffer,,null,,,,,,,,,,,,,,,,,,
1582.6000000238419,,recognition_phase,738899,Fictional_Cities_List/img_manmade_27.png,,49,,,,,,old,1,0.9047619047619048,,,,,,,,,,
null,,confidence_buffer,739002,confidence_buffer,,null,,,,,,,,,,,,,,,,,,
null,,thebreak,739505,break,,null,,,,,,,,,,,,,,,,,,
4747.199999988079,,pt2_realistic_rating,744256,US_Cities_List/mm_gloucester.png,,53,US_Cities_List/mm_gloucester.png,MM,5,,,,,,,,,,,,,,,
null,,confidence_buffer,744360,confidence_buffer,,null,,,,,,,,,,,,,,,,,,
3728.899999976158,,pt2_unique_rating,748093,US_Cities_List/mm_gloucester.png,,51,,,3,,,,,,,,,,,,,,,
null,,confidence_buffer,748197,confidence_buffer,,null,,,,,,,,,,,,,,,,,,
2466.699999988079,,pt2_memorable_rating,750667,US_Cities_List/mm_gloucester.png,,51,,,3,,,,,,,,,,,,,,,
null,,confidence_buffer,750771,confidence_buffer,,null,,,,,,,,,,,,,,,,,,
1463.8999999761581,,recognition_phase,752238,US_Cities_List/mm_gloucester.png,,49,,,,,,old,1,0.9090909090909091,,,,,,,,,,
null,,confidence_buffer,752341,confidence_buffer,,null,,,,,,,,,,,,,,,,,,
null,,thebreak,752845,break,,null,,,,,,,,,,,,,,,,,,
5254.099999964237,,pt2_realistic_rating,758103,US_Cities_List/nat_manistee.png,,53,US_Cities_List/nat_manistee.png,NAT,5,,,,,,,,,,,,,,,
null,,confidence_buffer,758206,confidence_buffer,,null,,,,,,,,,,,,,,,,,,
3079.400000035763,,pt2_unique_rating,761288,US_Cities_List/nat_manistee.png,,49,,,1,,,,,,,,,,,,,,,
null,,confidence_buffer,761392,confidence_buffer,,null,,,,,,,,,,,,,,,,,,
2254.699999988079,,pt2_memorable_rating,763649,US_Cities_List/nat_manistee.png,,50,,,2,,,,,,,,,,,,,,,
null,,confidence_buffer,763753,confidence_buffer,,null,,,,,,,,,,,,,,,,,,
1445.5,,recognition_phase,765201,US_Cities_List/nat_manistee.png,,52,,,,,,new,1,0.9130434782608695,,,,,,,,,,
null,,confidence_buffer,765305,confidence_buffer,,null,,,,,,,,,,,,,,,,,,
null,,thebreak,765808,break,,null,,,,,,,,,,,,,,,,,,
3159.2000000476837,,pt2_realistic_rating,768970,Fictional_Cities_List/img_natural_50.png,,51,Fictional_Cities_List/img_natural_50.png,NAT,3,,,,,,,,,,,,,,,
null,,confidence_buffer,769074,confidence_buffer,,null,,,,,,,,,,,,,,,,,,
3183.5,,pt2_unique_rating,772260,Fictional_Cities_List/img_natural_50.png,,51,,,3,,,,,,,,,,,,,,,
null,,confidence_buffer,772364,confidence_buffer,,null,,,,,,,,,,,,,,,,,,
1594.699999988079,,pt2_memorable_rating,773961,Fictional_Cities_List/img_natural_50.png,,51,,,3,,,,,,,,,,,,,,,
null,,confidence_buffer,774064,confidence_buffer,,null,,,,,,,,,,,,,,,,,,
4977.699999988079,,recognition_phase,779044,Fictional_Cities_List/img_natural_50.png,,49,,,,,,old,1,0.9166666666666666,,,,,,,,,,
null,,confidence_buffer,779148,confidence_buffer,,null,,,,,,,,,,,,,,,,,,
null,,thebreak,779651,break,,null,,,,,,,,,,,,,,,,,,
3531.2000000476837,,pt2_realistic_rating,783185,US_Cities_List/nat_follybeach.png,,51,US_Cities_List/nat_follybeach.png,NAT,3,,,,,,,,,,,,,,,
null,,confidence_buffer,783289,confidence_buffer,,null,,,,,,,,,,,,,,,,,,
2641.100000023842,,pt2_unique_rating,785932,US_Cities_List/nat_follybeach.png,,51,,,3,,,,,,,,,,,,,,,
null,,confidence_buffer,786036,confidence_buffer,,null,,,,,,,,,,,,,,,,,,
2780.199999988079,,pt2_memorable_rating,788818,US_Cities_List/nat_follybeach.png,,50,,,2,,,,,,,,,,,,,,,
null,,confidence_buffer,788921,confidence_buffer,,null,,,,,,,,,,,,,,,,,,
1693.3999999761581,,recognition_phase,790617,US_Cities_List/nat_follybeach.png,,52,,,,,,new,1,0.92,,,,,,,,,,
null,,confidence_buffer,790720,confidence_buffer,,null,,,,,,,,,,,,,,,,,,
null,,thebreak,791223,break,,null,,,,,,,,,,,,,,,,,,
6491.900000035763,,pt2_realistic_rating,797717,US_Cities_List/mm_barharbor.png,,52,US_Cities_List/mm_barharbor.png,MM,4,,,,,,,,,,,,,,,
null,,confidence_buffer,797821,confidence_buffer,,null,,,,,,,,,,,,,,,,,,
1615.6000000238419,,probe_rating,799439,probe_rating,,52,,,,4,1,,,,,,,,,,,,,
null,,confidence_buffer,799543,confidence_buffer,,null,,,,,,,,,,,,,,,,,,
1646.2999999523163,,pt2_unique_rating,801191,US_Cities_List/mm_barharbor.png,,51,,,3,,,,,,,,,,,,,,,
null,,confidence_buffer,801295,confidence_buffer,,null,,,,,,,,,,,,,,,,,,
1556.199999988079,,pt2_memorable_rating,802854,US_Cities_List/mm_barharbor.png,,51,,,3,,,,,,,,,,,,,,,
null,,confidence_buffer,802958,confidence_buffer,,null,,,,,,,,,,,,,,,,,,
6127.399999976158,,recognition_phase,809087,US_Cities_List/mm_barharbor.png,,49,,,,,,old,0,0.8846153846153846,,,,,,,,,,
null,,confidence_buffer,809191,confidence_buffer,,null,,,,,,,,,,,,,,,,,,
null,,thebreak,809694,break,,null,,,,,,,,,,,,,,,,,,
4738.099999964237,,pt2_realistic_rating,814434,Fictional_Cities_List/img_natural_13.png,,49,Fictional_Cities_List/img_natural_13.png,NAT,1,,,,,,,,,,,,,,,
null,,confidence_buffer,814537,confidence_buffer,,null,,,,,,,,,,,,,,,,,,
1364.5999999642372,,probe_rating,815905,probe_rating,,49,,,,1,1,,,,,,,,,,,,,
null,,confidence_buffer,816008,confidence_buffer,,null,,,,,,,,,,,,,,,,,,
1413.5,,pt2_unique_rating,817424,Fictional_Cities_List/img_natural_13.png,,51,,,3,,,,,,,,,,,,,,,
null,,confidence_buffer,817527,confidence_buffer,,null,,,,,,,,,,,,,,,,,,
1795.9000000357628,,pt2_memorable_rating,819325,Fictional_Cities_List/img_natural_13.png,,51,,,3,,,,,,,,,,,,,,,
null,,confidence_buffer,819429,confidence_buffer,,null,,,,,,,,,,,,,,,,,,
2171.699999988079,,recognition_phase,821603,Fictional_Cities_List/img_natural_13.png,,49,,,,,,old,0,0.8518518518518519,,,,,,,,,,
null,,confidence_buffer,821707,confidence_buffer,,null,,,,,,,,,,,,,,,,,,
null,,thebreak,822210,break,,null,,,,,,,,,,,,,,,,,,
7033.899999976158,,pt2_realistic_rating,829247,Fictional_Cities_List/img_manmade_12.png,,50,Fictional_Cities_List/img_manmade_12.png,MM,2,,,,,,,,,,,,,,,
null,,confidence_buffer,829349,confidence_buffer,,null,,,,,,,,,,,,,,,,,,
1598.5,,pt2_unique_rating,830950,Fictional_Cities_List/img_manmade_12.png,,51,,,3,,,,,,,,,,,,,,,
null,,confidence_buffer,831054,confidence_buffer,,null,,,,,,,,,,,,,,,,,,
885.5,,pt2_memorable_rating,831942,Fictional_Cities_List/img_manmade_12.png,,51,,,3,,,,,,,,,,,,,,,
null,,confidence_buffer,832045,confidence_buffer,,null,,,,,,,,,,,,,,,,,,
1167.199999988079,,probe_rating,833215,probe_rating,,53,,,,5,1,,,,,,,,,,,,,
null,,confidence_buffer,833319,confidence_buffer,,null,,,,,,,,,,,,,,,,,,
2171.7000000476837,,recognition_phase,835493,Fictional_Cities_List/img_manmade_12.png,,49,,,,,,old,1,0.8571428571428571,,,,,,,,,,
null,,confidence_buffer,835597,confidence_buffer,,null,,,,,,,,,,,,,,,,,,
null,,thebreak,836101,break,,null,,,,,,,,,,,,,,,,,,
2882.2000000476837,,pt2_realistic_rating,838985,US_Cities_List/mm_peoria.png,,53,US_Cities_List/mm_peoria.png,MM,5,,,,,,,,,,,,,,,
null,,confidence_buffer,839089,confidence_buffer,,null,,,,,,,,,,,,,,,,,,
2205.100000023842,,pt2_unique_rating,841297,US_Cities_List/mm_peoria.png,,51,,,3,,,,,,,,,,,,,,,
null,,confidence_buffer,841400,confidence_buffer,,null,,,,,,,,,,,,,,,,,,
1884,,pt2_memorable_rating,843286,US_Cities_List/mm_peoria.png,,51,,,3,,,,,,,,,,,,,,,
null,,confidence_buffer,843390,confidence_buffer,,null,,,,,,,,,,,,,,,,,,
1690.5,,recognition_phase,845083,US_Cities_List/mm_peoria.png,,49,,,,,,old,1,0.8620689655172413,,,,,,,,,,
null,,confidence_buffer,845187,confidence_buffer,,null,,,,,,,,,,,,,,,,,,
null,,thebreak,845690,break,,null,,,,,,,,,,,,,,,,,,
23411.599999964237,,pt2_realistic_rating,869104,Fictional_Cities_List/img_manmade_34.png,,53,Fictional_Cities_List/img_manmade_34.png,MM,5,,,,,,,,,,,,,,,
null,,confidence_buffer,869208,confidence_buffer,,null,,,,,,,,,,,,,,,,,,
1941,,pt2_unique_rating,871151,Fictional_Cities_List/img_manmade_34.png,,51,,,3,,,,,,,,,,,,,,,
null,,confidence_buffer,871255,confidence_buffer,,null,,,,,,,,,,,,,,,,,,
971.3000000119209,,pt2_memorable_rating,872228,Fictional_Cities_List/img_manmade_34.png,,51,,,3,,,,,,,,,,,,,,,
null,,confidence_buffer,872332,confidence_buffer,,null,,,,,,,,,,,,,,,,,,
1607.8999999761581,,recognition_phase,873943,Fictional_Cities_List/img_manmade_34.png,,50,,,,,,old,0,0.8333333333333334,,,,,,,,,,
null,,confidence_buffer,874046,confidence_buffer,,null,,,,,,,,,,,,,,,,,,
null,,thebreak,874549,break,,null,,,,,,,,,,,,,,,,,,
3843.199999988079,,pt2_realistic_rating,878394,US_Cities_List/nat_delawarecity.png,,51,US_Cities_List/nat_delawarecity.png,NAT,3,,,,,,,,,,,,,,,
null,,confidence_buffer,878498,confidence_buffer,,null,,,,,,,,,,,,,,,,,,
1193.6000000238419,,pt2_unique_rating,879693,US_Cities_List/nat_delawarecity.png,,50,,,2,,,,,,,,,,,,,,,
null,,confidence_buffer,879796,confidence_buffer,,null,,,,,,,,,,,,,,,,,,
1241.5999999642372,,probe_rating,881040,probe_rating,,52,,,,4,1,,,,,,,,,,,,,
null,,confidence_buffer,881143,confidence_buffer,,null,,,,,,,,,,,,,,,,,,
3198.400000035763,,pt2_memorable_rating,884344,US_Cities_List/nat_delawarecity.png,,50,,,2,,,,,,,,,,,,,,,
null,,confidence_buffer,884447,confidence_buffer,,null,,,,,,,,,,,,,,,,,,
1407.5999999642372,,recognition_phase,885857,US_Cities_List/nat_delawarecity.png,,50,,,,,,old,0,0.8064516129032258,,,,,,,,,,
null,,confidence_buffer,885961,confidence_buffer,,null,,,,,,,,,,,,,,,,,,
null,,thebreak,886464,break,,null,,,,,,,,,,,,,,,,,,
2678.099999964237,,pt2_realistic_rating,889144,Fictional_Cities_List/img_natural_36.png,,52,Fictional_Cities_List/img_natural_36.png,NAT,4,,,,,,,,,,,,,,,
null,,confidence_buffer,889247,confidence_buffer,,null,,,,,,,,,,,,,,,,,,
2032.6000000238419,,pt2_unique_rating,891282,Fictional_Cities_List/img_natural_36.png,,50,,,2,,,,,,,,,,,,,,,
null,,confidence_buffer,891385,confidence_buffer,,null,,,,,,,,,,,,,,,,,,
1544.699999988079,,pt2_memorable_rating,892932,Fictional_Cities_List/img_natural_36.png,,51,,,3,,,,,,,,,,,,,,,
null,,confidence_buffer,893037,confidence_buffer,,null,,,,,,,,,,,,,,,,,,
1595.3999999761581,,recognition_phase,894635,Fictional_Cities_List/img_natural_36.png,,49,,,,,,old,1,0.8125,,,,,,,,,,
null,,confidence_buffer,894738,confidence_buffer,,null,,,,,,,,,,,,,,,,,,
null,,thebreak,895242,break,,null,,,,,,,,,,,,,,,,,,
2590,,pt2_realistic_rating,897834,US_Cities_List/mm_newhope.png,,53,US_Cities_List/mm_newhope.png,MM,5,,,,,,,,,,,,,,,
null,,confidence_buffer,897938,confidence_buffer,,null,,,,,,,,,,,,,,,,,,
1463.699999988079,,pt2_unique_rating,899404,US_Cities_List/mm_newhope.png,,50,,,2,,,,,,,,,,,,,,,
null,,confidence_buffer,899508,confidence_buffer,,null,,,,,,,,,,,,,,,,,,
1380.5999999642372,,probe_rating,900891,probe_rating,,50,,,,2,1,,,,,,,,,,,,,
null,,confidence_buffer,900995,confidence_buffer,,null,,,,,,,,,,,,,,,,,,
2822.100000023842,,pt2_memorable_rating,903820,US_Cities_List/mm_newhope.png,,51,,,3,,,,,,,,,,,,,,,
null,,confidence_buffer,903924,confidence_buffer,,null,,,,,,,,,,,,,,,,,,
1296.0999999642372,,recognition_phase,905223,US_Cities_List/mm_newhope.png,,49,,,,,,old,1,0.8181818181818182,,,,,,,,,,
null,,confidence_buffer,905326,confidence_buffer,,null,,,,,,,,,,,,,,,,,,
null,,thebreak,905829,break,,null,,,,,,,,,,,,,,,,,,
14872.599999964237,,pt2_realistic_rating,920704,US_Cities_List/nat_bowlinggreen.png,,52,US_Cities_List/nat_bowlinggreen.png,NAT,4,,,,,,,,,,,,,,,
null,,confidence_buffer,920808,confidence_buffer,,null,,,,,,,,,,,,,,,,,,
2015.300000011921,,pt2_unique_rating,922825,US_Cities_List/nat_bowlinggreen.png,,50,,,2,,,,,,,,,,,,,,,
null,,confidence_buffer,922929,confidence_buffer,,null,,,,,,,,,,,,,,,,,,
1547.7000000476837,,pt2_memorable_rating,924479,US_Cities_List/nat_bowlinggreen.png,,50,,,2,,,,,,,,,,,,,,,
null,,confidence_buffer,924583,confidence_buffer,,null,,,,,,,,,,,,,,,,,,
1163.7999999523163,,probe_rating,925750,probe_rating,,51,,,,3,1,,,,,,,,,,,,,
null,,confidence_buffer,925853,confidence_buffer,,null,,,,,,,,,,,,,,,,,,
2507.300000011921,,recognition_phase,928363,US_Cities_List/nat_bowlinggreen.png,,52,,,,,,new,1,0.8235294117647058,,,,,,,,,,
null,,confidence_buffer,928466,confidence_buffer,,null,,,,,,,,,,,,,,,,,,
null,,thebreak,928969,break,,null,,,,,,,,,,,,,,,,,,
3538.900000035763,,pt2_realistic_rating,932510,US_Cities_List/nat_hotsprings.png,,52,US_Cities_List/nat_hotsprings.png,NAT,4,,,,,,,,,,,,,,,
null,,confidence_buffer,932614,confidence_buffer,,null,,,,,,,,,,,,,,,,,,
1802.199999988079,,pt2_unique_rating,934418,US_Cities_List/nat_hotsprings.png,,50,,,2,,,,,,,,,,,,,,,
null,,confidence_buffer,934521,confidence_buffer,,null,,,,,,,,,,,,,,,,,,
1848.199999988079,,pt2_memorable_rating,936372,US_Cities_List/nat_hotsprings.png,,50,,,2,,,,,,,,,,,,,,,
null,,confidence_buffer,936475,confidence_buffer,,null,,,,,,,,,,,,,,,,,,
2486.300000011921,,recognition_phase,938964,US_Cities_List/nat_hotsprings.png,,52,,,,,,new,1,0.8285714285714286,,,,,,,,,,
null,,confidence_buffer,939067,confidence_buffer,,null,,,,,,,,,,,,,,,,,,
null,,thebreak,939570,break,,null,,,,,,,,,,,,,,,,,,
4058.699999988079,,pt2_realistic_rating,943631,Fictional_Cities_List/img_manmade_25.png,,49,Fictional_Cities_List/img_manmade_25.png,MM,1,,,,,,,,,,,,,,,
null,,confidence_buffer,943735,confidence_buffer,,null,,,,,,,,,,,,,,,,,,
2399.099999964237,,pt2_unique_rating,946136,Fictional_Cities_List/img_manmade_25.png,,51,,,3,,,,,,,,,,,,,,,
null,,confidence_buffer,946239,confidence_buffer,,null,,,,,,,,,,,,,,,,,,
1016.7999999523163,,pt2_memorable_rating,947258,Fictional_Cities_List/img_manmade_25.png,,51,,,3,,,,,,,,,,,,,,,
null,,confidence_buffer,947362,confidence_buffer,,null,,,,,,,,,,,,,,,,,,
2686.300000011921,,recognition_phase,950051,Fictional_Cities_List/img_manmade_25.png,,49,,,,,,old,1,0.8333333333333334,,,,,,,,,,
null,,confidence_buffer,950155,confidence_buffer,,null,,,,,,,,,,,,,,,,,,
null,,thebreak,950658,break,,null,,,,,,,,,,,,,,,,,,
2132.400000035763,,pt2_realistic_rating,952793,US_Cities_List/mm_sisters.png,,53,US_Cities_List/mm_sisters.png,MM,5,,,,,,,,,,,,,,,
null,,confidence_buffer,952897,confidence_buffer,,null,,,,,,,,,,,,,,,,,,
1603.300000011921,,pt2_unique_rating,954502,US_Cities_List/mm_sisters.png,,49,,,1,,,,,,,,,,,,,,,
null,,confidence_buffer,954606,confidence_buffer,,null,,,,,,,,,,,,,,,,,,
1136.8999999761581,,probe_rating,955745,probe_rating,,50,,,,2,1,,,,,,,,,,,,,
null,,confidence_buffer,955849,confidence_buffer,,null,,,,,,,,,,,,,,,,,,
2678.699999988079,,pt2_memorable_rating,958530,US_Cities_List/mm_sisters.png,,51,,,3,,,,,,,,,,,,,,,
null,,confidence_buffer,958633,confidence_buffer,,null,,,,,,,,,,,,,,,,,,
1116.3999999761581,,recognition_phase,959752,US_Cities_List/mm_sisters.png,,49,,,,,,old,1,0.8378378378378378,,,,,,,,,,
null,,confidence_buffer,959855,confidence_buffer,,null,,,,,,,,,,,,,,,,,,
null,,thebreak,960358,break,,null,,,,,,,,,,,,,,,,,,
10731.600000023842,,pt2_realistic_rating,971092,US_Cities_List/mm_albuquerque.png,,52,US_Cities_List/mm_albuquerque.png,MM,4,,,,,,,,,,,,,,,
null,,confidence_buffer,971196,confidence_buffer,,null,,,,,,,,,,,,,,,,,,
1528.6000000238419,,pt2_unique_rating,972727,US_Cities_List/mm_albuquerque.png,,51,,,3,,,,,,,,,,,,,,,
null,,confidence_buffer,972830,confidence_buffer,,null,,,,,,,,,,,,,,,,,,
1240.800000011921,,probe_rating,974074,probe_rating,,49,,,,1,1,,,,,,,,,,,,,
null,,confidence_buffer,974177,confidence_buffer,,null,,,,,,,,,,,,,,,,,,
3100.100000023842,,pt2_memorable_rating,977280,US_Cities_List/mm_albuquerque.png,,51,,,3,,,,,,,,,,,,,,,
null,,confidence_buffer,977383,confidence_buffer,,null,,,,,,,,,,,,,,,,,,
1397.5,,recognition_phase,978783,US_Cities_List/mm_albuquerque.png,,52,,,,,,new,1,0.8421052631578947,,,,,,,,,,
null,,confidence_buffer,978887,confidence_buffer,,null,,,,,,,,,,,,,,,,,,
null,,thebreak,979390,break,,null,,,,,,,,,,,,,,,,,,
3948.399999976158,,pt2_realistic_rating,983340,US_Cities_List/nat_gatlinburg.png,,52,US_Cities_List/nat_gatlinburg.png,NAT,4,,,,,,,,,,,,,,,
null,,confidence_buffer,983444,confidence_buffer,,null,,,,,,,,,,,,,,,,,,
1818.0999999642372,,pt2_unique_rating,985265,US_Cities_List/nat_gatlinburg.png,,50,,,2,,,,,,,,,,,,,,,
null,,confidence_buffer,985369,confidence_buffer,,null,,,,,,,,,,,,,,,,,,
1183.5,,pt2_memorable_rating,986554,US_Cities_List/nat_gatlinburg.png,,51,,,3,,,,,,,,,,,,,,,
null,,confidence_buffer,986657,confidence_buffer,,null,,,,,,,,,,,,,,,,,,
1639,,recognition_phase,988298,US_Cities_List/nat_gatlinburg.png,,49,,,,,,old,1,0.8461538461538461,,,,,,,,,,
null,,confidence_buffer,988401,confidence_buffer,,null,,,,,,,,,,,,,,,,,,
null,,thebreak,988903,break,,null,,,,,,,,,,,,,,,,,,
2484.5,,pt2_realistic_rating,991389,US_Cities_List/mm_yukon.png,,53,US_Cities_List/mm_yukon.png,MM,5,,,,,,,,,,,,,,,
null,,confidence_buffer,991493,confidence_buffer,,null,,,,,,,,,,,,,,,,,,
1565.9000000357628,,pt2_unique_rating,993060,US_Cities_List/mm_yukon.png,,51,,,3,,,,,,,,,,,,,,,
null,,confidence_buffer,993163,confidence_buffer,,null,,,,,,,,,,,,,,,,,,
1245.0999999642372,,pt2_memorable_rating,994410,US_Cities_List/mm_yukon.png,,51,,,3,,,,,,,,,,,,,,,
null,,confidence_buffer,994513,confidence_buffer,,null,,,,,,,,,,,,,,,,,,
1594.3999999761581,,recognition_phase,996110,US_Cities_List/mm_yukon.png,,52,,,,,,new,1,0.85,,,,,,,,,,
null,,confidence_buffer,996213,confidence_buffer,,null,,,,,,,,,,,,,,,,,,
null,,thebreak,996716,break,,null,,,,,,,,,,,,,,,,,,
8754.100000023842,,pt2_realistic_rating,1005472,Fictional_Cities_List/img_manmade_37.png,,49,Fictional_Cities_List/img_manmade_37.png,MM,1,,,,,,,,,,,,,,,
null,,confidence_buffer,1005575,confidence_buffer,,null,,,,,,,,,,,,,,,,,,
1394.5999999642372,,probe_rating,1006973,probe_rating,,51,,,,3,1,,,,,,,,,,,,,
null,,confidence_buffer,1007077,confidence_buffer,,null,,,,,,,,,,,,,,,,,,
1290,,pt2_unique_rating,1008369,Fictional_Cities_List/img_manmade_37.png,,51,,,3,,,,,,,,,,,,,,,
null,,confidence_buffer,1008473,confidence_buffer,,null,,,,,,,,,,,,,,,,,,
1851.1000000238419,,pt2_memorable_rating,1010326,Fictional_Cities_List/img_manmade_37.png,,51,,,3,,,,,,,,,,,,,,,
null,,confidence_buffer,1010430,confidence_buffer,,null,,,,,,,,,,,,,,,,,,
2066.199999988079,,recognition_phase,1012498,Fictional_Cities_List/img_manmade_37.png,,52,,,,,,new,0,0.8292682926829268,,,,,,,,,,
null,,confidence_buffer,1012602,confidence_buffer,,null,,,,,,,,,,,,,,,,,,
null,,thebreak,1013104,break,,null,,,,,,,,,,,,,,,,,,
2779.300000011921,,pt2_realistic_rating,1015886,US_Cities_List/nat_hanover.png,,52,US_Cities_List/nat_hanover.png,NAT,4,,,,,,,,,,,,,,,
null,,confidence_buffer,1015988,confidence_buffer,,null,,,,,,,,,,,,,,,,,,
2050.099999964237,,pt2_unique_rating,1018040,US_Cities_List/nat_hanover.png,,50,,,2,,,,,,,,,,,,,,,
null,,confidence_buffer,1018143,confidence_buffer,,null,,,,,,,,,,,,,,,,,,
1106.4000000357628,,pt2_memorable_rating,1019252,US_Cities_List/nat_hanover.png,,51,,,3,,,,,,,,,,,,,,,
null,,confidence_buffer,1019355,confidence_buffer,,null,,,,,,,,,,,,,,,,,,
4200.700000047684,,recognition_phase,1023558,US_Cities_List/nat_hanover.png,,52,,,,,,new,1,0.8333333333333334,,,,,,,,,,
null,,confidence_buffer,1023662,confidence_buffer,,null,,,,,,,,,,,,,,,,,,
null,,thebreak,1024166,break,,null,,,,,,,,,,,,,,,,,,
6039.899999976158,,pt2_realistic_rating,1030208,Fictional_Cities_List/img_manmade_31.png,,49,Fictional_Cities_List/img_manmade_31.png,MM,1,,,,,,,,,,,,,,,
null,,confidence_buffer,1030312,confidence_buffer,,null,,,,,,,,,,,,,,,,,,
2170.399999976158,,pt2_unique_rating,1032485,Fictional_Cities_List/img_manmade_31.png,,51,,,3,,,,,,,,,,,,,,,
null,,confidence_buffer,1032587,confidence_buffer,,null,,,,,,,,,,,,,,,,,,
1472.0999999642372,,pt2_memorable_rating,1034062,Fictional_Cities_List/img_manmade_31.png,,51,,,3,,,,,,,,,,,,,,,
null,,confidence_buffer,1034165,confidence_buffer,,null,,,,,,,,,,,,,,,,,,
2605.5,,recognition_phase,1036773,Fictional_Cities_List/img_manmade_31.png,,52,,,,,,new,1,0.8372093023255814,,,,,,,,,,
null,,confidence_buffer,1036877,confidence_buffer,,null,,,,,,,,,,,,,,,,,,
null,,thebreak,1037380,break,,null,,,,,,,,,,,,,,,,,,
3879.199999988079,,pt2_realistic_rating,1041262,US_Cities_List/nat_peoria.png,,53,US_Cities_List/nat_peoria.png,NAT,5,,,,,,,,,,,,,,,
null,,confidence_buffer,1041365,confidence_buffer,,null,,,,,,,,,,,,,,,,,,
1391.3999999761581,,pt2_unique_rating,1042759,US_Cities_List/nat_peoria.png,,50,,,2,,,,,,,,,,,,,,,
null,,confidence_buffer,1042863,confidence_buffer,,null,,,,,,,,,,,,,,,,,,
1187.4000000357628,,pt2_memorable_rating,1044053,US_Cities_List/nat_peoria.png,,51,,,3,,,,,,,,,,,,,,,
null,,confidence_buffer,1044157,confidence_buffer,,null,,,,,,,,,,,,,,,,,,
1432.8999999761581,,recognition_phase,1045593,US_Cities_List/nat_peoria.png,,49,,,,,,old,1,0.8409090909090909,,,,,,,,,,
null,,confidence_buffer,1045696,confidence_buffer,,null,,,,,,,,,,,,,,,,,,
null,,thebreak,1046200,break,,null,,,,,,,,,,,,,,,,,,
2077.800000011921,,pt2_realistic_rating,1048280,US_Cities_List/mm_huntsville.png,,53,US_Cities_List/mm_huntsville.png,MM,5,,,,,,,,,,,,,,,
null,,confidence_buffer,1048384,confidence_buffer,,null,,,,,,,,,,,,,,,,,,
2923,,pt2_unique_rating,1051309,US_Cities_List/mm_huntsville.png,,50,,,2,,,,,,,,,,,,,,,
null,,confidence_buffer,1051412,confidence_buffer,,null,,,,,,,,,,,,,,,,,,
1987.5,,pt2_memorable_rating,1053402,US_Cities_List/mm_huntsville.png,,51,,,3,,,,,,,,,,,,,,,
null,,confidence_buffer,1053505,confidence_buffer,,null,,,,,,,,,,,,,,,,,,
1362.0999999642372,,probe_rating,1054870,probe_rating,,51,,,,3,1,,,,,,,,,,,,,
null,,confidence_buffer,1054973,confidence_buffer,,null,,,,,,,,,,,,,,,,,,
1479.300000011921,,recognition_phase,1056454,US_Cities_List/mm_huntsville.png,,49,,,,,,old,1,0.8444444444444444,,,,,,,,,,
null,,confidence_buffer,1056558,confidence_buffer,,null,,,,,,,,,,,,,,,,,,
null,,thebreak,1057061,break,,null,,,,,,,,,,,,,,,,,,
5069.800000011921,,pt2_realistic_rating,1062133,US_Cities_List/mm_assateagueisland.png,,53,US_Cities_List/mm_assateagueisland.png,MM,5,,,,,,,,,,,,,,,
null,,confidence_buffer,1062237,confidence_buffer,,null,,,,,,,,,,,,,,,,,,
2586.300000011921,,pt2_unique_rating,1064826,US_Cities_List/mm_assateagueisland.png,,50,,,2,,,,,,,,,,,,,,,
null,,confidence_buffer,1064929,confidence_buffer,,null,,,,,,,,,,,,,,,,,,
884,,pt2_memorable_rating,1065815,US_Cities_List/mm_assateagueisland.png,,51,,,3,,,,,,,,,,,,,,,
null,,confidence_buffer,1065920,confidence_buffer,,null,,,,,,,,,,,,,,,,,,
4211.5,,recognition_phase,1070134,US_Cities_List/mm_assateagueisland.png,,52,,,,,,new,1,0.8478260869565217,,,,,,,,,,
null,,confidence_buffer,1070237,confidence_buffer,,null,,,,,,,,,,,,,,,,,,
null,,thebreak,1070740,break,,null,,,,,,,,,,,,,,,,,,
10037.899999976158,,pt2_realistic_rating,1080780,Fictional_Cities_List/img_natural_33.png,,51,Fictional_Cities_List/img_natural_33.png,NAT,3,,,,,,,,,,,,,,,
null,,confidence_buffer,1080883,confidence_buffer,,null,,,,,,,,,,,,,,,,,,
1215,,pt2_unique_rating,1082100,Fictional_Cities_List/img_natural_33.png,,51,,,3,,,,,,,,,,,,,,,
null,,confidence_buffer,1082204,confidence_buffer,,null,,,,,,,,,,,,,,,,,,
1205,,pt2_memorable_rating,1083411,Fictional_Cities_List/img_natural_33.png,,51,,,3,,,,,,,,,,,,,,,
null,,confidence_buffer,1083514,confidence_buffer,,null,,,,,,,,,,,,,,,,,,
1429.7000000476837,,probe_rating,1084946,probe_rating,,49,,,,1,1,,,,,,,,,,,,,
null,,confidence_buffer,1085050,confidence_buffer,,null,,,,,,,,,,,,,,,,,,
1476.6000000238419,,recognition_phase,1086529,Fictional_Cities_List/img_natural_33.png,,52,,,,,,new,1,0.851063829787234,,,,,,,,,,
null,,confidence_buffer,1086632,confidence_buffer,,null,,,,,,,,,,,,,,,,,,
null,,thebreak,1087136,break,,null,,,,,,,,,,,,,,,,,,
3736.599999964237,,pt2_realistic_rating,1090875,Fictional_Cities_List/img_natural_31.png,,49,Fictional_Cities_List/img_natural_31.png,NAT,1,,,,,,,,,,,,,,,
null,,confidence_buffer,1090979,confidence_buffer,,null,,,,,,,,,,,,,,,,,,
1448.8999999761581,,pt2_unique_rating,1092430,Fictional_Cities_List/img_natural_31.png,,51,,,3,,,,,,,,,,,,,,,
null,,confidence_buffer,1092534,confidence_buffer,,null,,,,,,,,,,,,,,,,,,
1208.9000000357628,,pt2_memorable_rating,1093745,Fictional_Cities_List/img_natural_31.png,,51,,,3,,,,,,,,,,,,,,,
null,,confidence_buffer,1093849,confidence_buffer,,null,,,,,,,,,,,,,,,,,,
1241.1000000238419,,recognition_phase,1095092,Fictional_Cities_List/img_natural_31.png,,49,,,,,,old,1,0.8541666666666666,,,,,,,,,,
null,,confidence_buffer,1095196,confidence_buffer,,null,,,,,,,,,,,,,,,,,,
null,,thebreak,1095698,break,,null,,,,,,,,,,,,,,,,,,
5048.599999964237,,pt2_realistic_rating,1100749,US_Cities_List/mm_cornwall.png,,51,US_Cities_List/mm_cornwall.png,MM,3,,,,,,,,,,,,,,,
null,,confidence_buffer,1100852,confidence_buffer,,null,,,,,,,,,,,,,,,,,,
2908.599999964237,,pt2_unique_rating,1103761,US_Cities_List/mm_cornwall.png,,50,,,2,,,,,,,,,,,,,,,
null,,confidence_buffer,1103865,confidence_buffer,,null,,,,,,,,,,,,,,,,,,
1674,,pt2_memorable_rating,1105541,US_Cities_List/mm_cornwall.png,,51,,,3,,,,,,,,,,,,,,,
null,,confidence_buffer,1105643,confidence_buffer,,null,,,,,,,,,,,,,,,,,,
1729.300000011921,,recognition_phase,1107375,US_Cities_List/mm_cornwall.png,,52,,,,,,new,1,0.8571428571428571,,,,,,,,,,
null,,confidence_buffer,1107478,confidence_buffer,,null,,,,,,,,,,,,,,,,,,
null,,thebreak,1107981,break,,null,,,,,,,,,,,,,,,,,,
3640.699999988079,,pt2_realistic_rating,1111624,US_Cities_List/nat_healdsburg.png,,53,US_Cities_List/nat_healdsburg.png,NAT,5,,,,,,,,,,,,,,,
null,,confidence_buffer,1111728,confidence_buffer,,null,,,,,,,,,,,,,,,,,,
1728.5,,pt2_unique_rating,1113459,US_Cities_List/nat_healdsburg.png,,50,,,2,,,,,,,,,,,,,,,
null,,confidence_buffer,1113562,confidence_buffer,,null,,,,,,,,,,,,,,,,,,
1367.4000000357628,,pt2_memorable_rating,1114932,US_Cities_List/nat_healdsburg.png,,50,,,2,,,,,,,,,,,,,,,
null,,confidence_buffer,1115034,confidence_buffer,,null,,,,,,,,,,,,,,,,,,
1831.699999988079,,recognition_phase,1116868,US_Cities_List/nat_healdsburg.png,,52,,,,,,new,0,0.84,,,,,,,,,,
null,,confidence_buffer,1116971,confidence_buffer,,null,,,,,,,,,,,,,,,,,,
null,,thebreak,1117475,break,,null,,,,,,,,,,,,,,,,,,
4459.300000011921,,pt2_realistic_rating,1121936,US_Cities_List/nat_coeurdalene.png,,52,US_Cities_List/nat_coeurdalene.png,NAT,4,,,,,,,,,,,,,,,
null,,confidence_buffer,1122040,confidence_buffer,,null,,,,,,,,,,,,,,,,,,
1697.7999999523163,,pt2_unique_rating,1123739,US_Cities_List/nat_coeurdalene.png,,51,,,3,,,,,,,,,,,,,,,
null,,confidence_buffer,1123842,confidence_buffer,,null,,,,,,,,,,,,,,,,,,
3292.800000011921,,pt2_memorable_rating,1127136,US_Cities_List/nat_coeurdalene.png,,51,,,3,,,,,,,,,,,,,,,
null,,confidence_buffer,1127239,confidence_buffer,,null,,,,,,,,,,,,,,,,,,
2563.900000035763,,recognition_phase,1129806,US_Cities_List/nat_coeurdalene.png,,52,,,,,,new,1,0.8431372549019608,,,,,,,,,,
null,,confidence_buffer,1129909,confidence_buffer,,null,,,,,,,,,,,,,,,,,,
null,,thebreak,1130412,break,,null,,,,,,,,,,,,,,,,,,
3723.399999976158,,pt2_realistic_rating,1134138,Fictional_Cities_List/img_natural_27.png,,49,Fictional_Cities_List/img_natural_27.png,NAT,1,,,,,,,,,,,,,,,
null,,confidence_buffer,1134241,confidence_buffer,,null,,,,,,,,,,,,,,,,,,
1349.4000000357628,,pt2_unique_rating,1135592,Fictional_Cities_List/img_natural_27.png,,51,,,3,,,,,,,,,,,,,,,
null,,confidence_buffer,1135695,confidence_buffer,,null,,,,,,,,,,,,,,,,,,
1117.5999999642372,,pt2_memorable_rating,1136815,Fictional_Cities_List/img_natural_27.png,,51,,,3,,,,,,,,,,,,,,,
null,,confidence_buffer,1136918,confidence_buffer,,null,,,,,,,,,,,,,,,,,,
1500.5,,recognition_phase,1138421,Fictional_Cities_List/img_natural_27.png,,52,,,,,,new,1,0.8461538461538461,,,,,,,,,,
null,,confidence_buffer,1138524,confidence_buffer,,null,,,,,,,,,,,,,,,,,,
null,,thebreak,1139027,break,,null,,,,,,,,,,,,,,,,,,
6011.300000011921,,pt2_realistic_rating,1145041,Fictional_Cities_List/img_manmade_33.png,,50,Fictional_Cities_List/img_manmade_33.png,MM,2,,,,,,,,,,,,,,,
null,,confidence_buffer,1145145,confidence_buffer,,null,,,,,,,,,,,,,,,,,,
1806.6000000238419,,pt2_unique_rating,1146954,Fictional_Cities_List/img_manmade_33.png,,51,,,3,,,,,,,,,,,,,,,
null,,confidence_buffer,1147057,confidence_buffer,,null,,,,,,,,,,,,,,,,,,
874.6999999880791,,pt2_memorable_rating,1147934,Fictional_Cities_List/img_manmade_33.png,,51,,,3,,,,,,,,,,,,,,,
null,,confidence_buffer,1148038,confidence_buffer,,null,,,,,,,,,,,,,,,,,,
1277,,recognition_phase,1149318,Fictional_Cities_List/img_manmade_33.png,,49,,,,,,old,1,0.8490566037735849,,,,,,,,,,
null,,confidence_buffer,1149421,confidence_buffer,,null,,,,,,,,,,,,,,,,,,
null,,thebreak,1149926,break,,null,,,,,,,,,,,,,,,,,,
3993.100000023842,,pt2_realistic_rating,1153921,Fictional_Cities_List/img_natural_06.png,,52,Fictional_Cities_List/img_natural_06.png,NAT,4,,,,,,,,,,,,,,,
null,,confidence_buffer,1154025,confidence_buffer,,null,,,,,,,,,,,,,,,,,,
2102.099999964237,,pt2_unique_rating,1156129,Fictional_Cities_List/img_natural_06.png,,50,,,2,,,,,,,,,,,,,,,
null,,confidence_buffer,1156233,confidence_buffer,,null,,,,,,,,,,,,,,,,,,
2296.300000011921,,pt2_memorable_rating,1158531,Fictional_Cities_List/img_natural_06.png,,51,,,3,,,,,,,,,,,,,,,
null,,confidence_buffer,1158635,confidence_buffer,,null,,,,,,,,,,,,,,,,,,
1529.1000000238419,,recognition_phase,1160167,Fictional_Cities_List/img_natural_06.png,,52,,,,,,new,1,0.8518518518518519,,,,,,,,,,
null,,confidence_buffer,1160271,confidence_buffer,,null,,,,,,,,,,,,,,,,,,
null,,thebreak,1160774,break,,null,,,,,,,,,,,,,,,,,,
4818.399999976158,,pt2_realistic_rating,1165595,Fictional_Cities_List/img_natural_25.png,,49,Fictional_Cities_List/img_natural_25.png,NAT,1,,,,,,,,,,,,,,,
null,,confidence_buffer,1165698,confidence_buffer,,null,,,,,,,,,,,,,,,,,,
2072.199999988079,,pt2_unique_rating,1167773,Fictional_Cities_List/img_natural_25.png,,51,,,3,,,,,,,,,,,,,,,
null,,confidence_buffer,1167876,confidence_buffer,,null,,,,,,,,,,,,,,,,,,
835.8000000119209,,pt2_memorable_rating,1168714,Fictional_Cities_List/img_natural_25.png,,51,,,3,,,,,,,,,,,,,,,
null,,confidence_buffer,1168818,confidence_buffer,,null,,,,,,,,,,,,,,,,,,
2005,,recognition_phase,1170826,Fictional_Cities_List/img_natural_25.png,,49,,,,,,old,0,0.8363636363636363,,,,,,,,,,
null,,confidence_buffer,1170930,confidence_buffer,,null,,,,,,,,,,,,,,,,,,
null,,thebreak,1171433,break,,null,,,,,,,,,,,,,,,,,,
4530.599999964237,,pt2_realistic_rating,1175966,US_Cities_List/mm_watkinsglen.png,,53,US_Cities_List/mm_watkinsglen.png,MM,5,,,,,,,,,,,,,,,
null,,confidence_buffer,1176069,confidence_buffer,,null,,,,,,,,,,,,,,,,,,
1465.4000000357628,,pt2_unique_rating,1177536,US_Cities_List/mm_watkinsglen.png,,50,,,2,,,,,,,,,,,,,,,
null,,confidence_buffer,1177639,confidence_buffer,,null,,,,,,,,,,,,,,,,,,
1066.699999988079,,pt2_memorable_rating,1178707,US_Cities_List/mm_watkinsglen.png,,50,,,2,,,,,,,,,,,,,,,
null,,confidence_buffer,1178811,confidence_buffer,,null,,,,,,,,,,,,,,,,,,
2289,,recognition_phase,1181102,US_Cities_List/mm_watkinsglen.png,,52,,,,,,new,1,0.8392857142857143,,,,,,,,,,
null,,confidence_buffer,1181205,confidence_buffer,,null,,,,,,,,,,,,,,,,,,
null,,thebreak,1181709,break,,null,,,,,,,,,,,,,,,,,,
2926.300000011921,,pt2_realistic_rating,1184637,Fictional_Cities_List/img_natural_42.png,,53,Fictional_Cities_List/img_natural_42.png,NAT,5,,,,,,,,,,,,,,,
null,,confidence_buffer,1184740,confidence_buffer,,null,,,,,,,,,,,,,,,,,,
1586.5999999642372,,pt2_unique_rating,1186329,Fictional_Cities_List/img_natural_42.png,,50,,,2,,,,,,,,,,,,,,,
null,,confidence_buffer,1186433,confidence_buffer,,null,,,,,,,,,,,,,,,,,,
1152.199999988079,,pt2_memorable_rating,1187587,Fictional_Cities_List/img_natural_42.png,,51,,,3,,,,,,,,,,,,,,,
null,,confidence_buffer,1187691,confidence_buffer,,null,,,,,,,,,,,,,,,,,,
1040.199999988079,,recognition_phase,1188734,Fictional_Cities_List/img_natural_42.png,,49,,,,,,old,1,0.8421052631578947,,,,,,,,,,
null,,confidence_buffer,1188838,confidence_buffer,,null,,,,,,,,,,,,,,,,,,
null,,thebreak,1189342,break,,null,,,,,,,,,,,,,,,,,,
8118.5,,pt2_realistic_rating,1197463,US_Cities_List/nat_athens.png,,53,US_Cities_List/nat_athens.png,NAT,5,,,,,,,,,,,,,,,
null,,confidence_buffer,1197566,confidence_buffer,,null,,,,,,,,,,,,,,,,,,
2346.300000011921,,pt2_unique_rating,1199914,US_Cities_List/nat_athens.png,,50,,,2,,,,,,,,,,,,,,,
null,,confidence_buffer,1200018,confidence_buffer,,null,,,,,,,,,,,,,,,,,,
1659,,pt2_memorable_rating,1201679,US_Cities_List/nat_athens.png,,50,,,2,,,,,,,,,,,,,,,
null,,confidence_buffer,1201782,confidence_buffer,,null,,,,,,,,,,,,,,,,,,
1670,,recognition_phase,1203455,US_Cities_List/nat_athens.png,,49,,,,,,old,1,0.8448275862068966,,,,,,,,,,
null,,confidence_buffer,1203558,confidence_buffer,,null,,,,,,,,,,,,,,,,,,
null,,thebreak,1204061,break,,null,,,,,,,,,,,,,,,,,,
2258.099999964237,,pt2_realistic_rating,1206322,Fictional_Cities_List/img_natural_37.png,,53,Fictional_Cities_List/img_natural_37.png,NAT,5,,,,,,,,,,,,,,,
null,,confidence_buffer,1206426,confidence_buffer,,null,,,,,,,,,,,,,,,,,,
3009.100000023842,,pt2_unique_rating,1209437,Fictional_Cities_List/img_natural_37.png,,50,,,2,,,,,,,,,,,,,,,
null,,confidence_buffer,1209541,confidence_buffer,,null,,,,,,,,,,,,,,,,,,
1295.199999988079,,probe_rating,1210839,probe_rating,,51,,,,3,1,,,,,,,,,,,,,
null,,confidence_buffer,1210943,confidence_buffer,,null,,,,,,,,,,,,,,,,,,
1226.8999999761581,,pt2_memorable_rating,1212172,Fictional_Cities_List/img_natural_37.png,,51,,,3,,,,,,,,,,,,,,,
null,,confidence_buffer,1212276,confidence_buffer,,null,,,,,,,,,,,,,,,,,,
2878.400000035763,,recognition_phase,1215157,Fictional_Cities_List/img_natural_37.png,,52,,,,,,new,1,0.847457627118644,,,,,,,,,,
null,,confidence_buffer,1215260,confidence_buffer,,null,,,,,,,,,,,,,,,,,,
null,,thebreak,1215763,break,,null,,,,,,,,,,,,,,,,,,
2687.100000023842,,pt2_realistic_rating,1218452,Fictional_Cities_List/img_manmade_18.png,,53,Fictional_Cities_List/img_manmade_18.png,MM,5,,,,,,,,,,,,,,,
null,,confidence_buffer,1218555,confidence_buffer,,null,,,,,,,,,,,,,,,,,,
1719.1000000238419,,pt2_unique_rating,1220276,Fictional_Cities_List/img_manmade_18.png,,50,,,2,,,,,,,,,,,,,,,
null,,confidence_buffer,1220379,confidence_buffer,,null,,,,,,,,,,,,,,,,,,
924.3999999761581,,pt2_memorable_rating,1221306,Fictional_Cities_List/img_manmade_18.png,,51,,,3,,,,,,,,,,,,,,,
null,,confidence_buffer,1221409,confidence_buffer,,null,,,,,,,,,,,,,,,,,,
1214,,recognition_phase,1222626,Fictional_Cities_List/img_manmade_18.png,,49,,,,,,old,1,0.85,,,,,,,,,,
null,,confidence_buffer,1222729,confidence_buffer,,null,,,,,,,,,,,,,,,,,,
null,,thebreak,1223233,break,,null,,,,,,,,,,,,,,,,,,
,,survey,1558195,survey-questions,,,,,,,,,,,none,high,I wasn't doing anything else.,No strategies. I went with how I remembered... or didn't.,The more I recognized some general familiarity of the subject of the image, the more familiar I rated it. ,If there was something about the image I thought was familiar or impressive, even if I didn't know exactly where or what the image represented, I marked it as memorable.,Whether there was something new or unusual about the image.,I asked myself whether this image could be a photo or a photorealistic digital creation. The more I could answer that affirmatively, the more realistic I rated it.,I've done image memory studies before, but not this one.,Nothing, thanks!
