rt,responses,trial_type,time_elapsed,stimulus,button_pressed,key_press,name_trial,city_type,rating,probe,probe_accuracy,response,correct,accuracy,problems,smooth,distraction,strategies,familiar,memorable,unique,realistic,similar,comments
101557.70000001788,{worker_id:614d465852620924f85603c8},id_enter,101567,,,,,,,,,,,,,,,,,,,,,
28340.59999999404,,fullscreen,129915,fullscreen,0,,,,,,,,,,,,,,,,,,,
8705.90000000596,,intro_0,138630,instruct,,32,,,,,,,,,,,,,,,,,,
13201.40000000596,,intro_1,151833,instruct,,32,,,,,,,,,,,,,,,,,,
11962.899999976158,,intro_2,163797,instruct,,32,,,,,,,,,,,,,,,,,,
null,,instruct_dir_4,165298,instruct,,null,,,,,,,,,,,,,,,,,,
null,,thebreak,165800,break,,null,,,,,,,,,,,,,,,,,,
13619,,familiar_rating,179421,Fictional_Cities_List/img_manmade_06.png,,52,Fictional_Cities_List/img_manmade_06.png,MM,4,,,,,,,,,,,,,,,
null,,confidence_buffer,179524,confidence_buffer,,null,,,,,,,,,,,,,,,,,,
10330.90000000596,,unique_rating,189856,Fictional_Cities_List/img_manmade_06.png,,50,,,2,,,,,,,,,,,,,,,
null,,confidence_buffer,189960,confidence_buffer,,null,,,,,,,,,,,,,,,,,,
10013,,memorable_rating,199974,Fictional_Cities_List/img_manmade_06.png,,51,,,3,,,,,,,,,,,,,,,
null,,confidence_buffer,200075,confidence_buffer,,null,,,,,,,,,,,,,,,,,,
null,,thebreak,200577,break,,null,,,,,,,,,,,,,,,,,,
13646.800000011921,,familiar_rating,214225,US_Cities_List/mm_westpalmbeach.png,,50,US_Cities_List/mm_westpalmbeach.png,MM,2,,,,,,,,,,,,,,,
null,,confidence_buffer,214327,confidence_buffer,,null,,,,,,,,,,,,,,,,,,
4961.600000023842,,unique_rating,219290,US_Cities_List/mm_westpalmbeach.png,,53,,,5,,,,,,,,,,,,,,,
null,,confidence_buffer,219391,confidence_buffer,,null,,,,,,,,,,,,,,,,,,
3386.5,,memorable_rating,222778,US_Cities_List/mm_westpalmbeach.png,,52,,,4,,,,,,,,,,,,,,,
null,,confidence_buffer,222880,confidence_buffer,,null,,,,,,,,,,,,,,,,,,
null,,thebreak,223382,break,,null,,,,,,,,,,,,,,,,,,
19863.40000000596,,familiar_rating,243246,US_Cities_List/nat_okoboji.png,,51,US_Cities_List/nat_okoboji.png,NAT,3,,,,,,,,,,,,,,,
null,,confidence_buffer,243357,confidence_buffer,,null,,,,,,,,,,,,,,,,,,
5822.200000017881,,unique_rating,249180,US_Cities_List/nat_okoboji.png,,49,,,1,,,,,,,,,,,,,,,
null,,confidence_buffer,249283,confidence_buffer,,null,,,,,,,,,,,,,,,,,,
2294.800000011921,,memorable_rating,251578,US_Cities_List/nat_okoboji.png,,49,,,1,,,,,,,,,,,,,,,
null,,confidence_buffer,251680,confidence_buffer,,null,,,,,,,,,,,,,,,,,,
null,,thebreak,252182,break,,null,,,,,,,,,,,,,,,,,,
10278.800000011921,,familiar_rating,262462,Fictional_Cities_List/img_manmade_49.png,,49,Fictional_Cities_List/img_manmade_49.png,MM,1,,,,,,,,,,,,,,,
null,,confidence_buffer,262564,confidence_buffer,,null,,,,,,,,,,,,,,,,,,
27423.69999998808,,unique_rating,289988,Fictional_Cities_List/img_manmade_49.png,,50,,,2,,,,,,,,,,,,,,,
null,,confidence_buffer,290090,confidence_buffer,,null,,,,,,,,,,,,,,,,,,
4028.9000000059605,,memorable_rating,294120,Fictional_Cities_List/img_manmade_49.png,,50,,,2,,,,,,,,,,,,,,,
null,,confidence_buffer,294221,confidence_buffer,,null,,,,,,,,,,,,,,,,,,
null,,thebreak,294723,break,,null,,,,,,,,,,,,,,,,,,
59666.90000000596,,familiar_rating,354391,Fictional_Cities_List/img_natural_16.png,,51,Fictional_Cities_List/img_natural_16.png,NAT,3,,,,,,,,,,,,,,,
null,,confidence_buffer,354492,confidence_buffer,,null,,,,,,,,,,,,,,,,,,
3173.699999988079,,unique_rating,357667,Fictional_Cities_List/img_natural_16.png,,51,,,3,,,,,,,,,,,,,,,
null,,confidence_buffer,357769,confidence_buffer,,null,,,,,,,,,,,,,,,,,,
1990.0999999940395,,memorable_rating,359760,Fictional_Cities_List/img_natural_16.png,,52,,,4,,,,,,,,,,,,,,,
null,,confidence_buffer,359862,confidence_buffer,,null,,,,,,,,,,,,,,,,,,
null,,thebreak,360364,break,,null,,,,,,,,,,,,,,,,,,
4105.5999999940395,,familiar_rating,364470,US_Cities_List/mm_coeurdalene.png,,49,US_Cities_List/mm_coeurdalene.png,MM,1,,,,,,,,,,,,,,,
null,,confidence_buffer,364572,confidence_buffer,,null,,,,,,,,,,,,,,,,,,
2872.5,,probe_rating,367446,probe_rating,,50,,,,2,1,,,,,,,,,,,,,
null,,confidence_buffer,367548,confidence_buffer,,null,,,,,,,,,,,,,,,,,,
8919.40000000596,,unique_rating,376468,US_Cities_List/mm_coeurdalene.png,,50,,,2,,,,,,,,,,,,,,,
null,,confidence_buffer,376570,confidence_buffer,,null,,,,,,,,,,,,,,,,,,
7331.799999982119,,memorable_rating,383903,US_Cities_List/mm_coeurdalene.png,,50,,,2,,,,,,,,,,,,,,,
null,,confidence_buffer,384005,confidence_buffer,,null,,,,,,,,,,,,,,,,,,
null,,thebreak,384507,break,,null,,,,,,,,,,,,,,,,,,
6319,,familiar_rating,390827,Fictional_Cities_List/img_natural_23.png,,49,Fictional_Cities_List/img_natural_23.png,NAT,1,,,,,,,,,,,,,,,
null,,confidence_buffer,390929,confidence_buffer,,null,,,,,,,,,,,,,,,,,,
4391.300000011921,,unique_rating,395321,Fictional_Cities_List/img_natural_23.png,,51,,,3,,,,,,,,,,,,,,,
null,,confidence_buffer,395423,confidence_buffer,,null,,,,,,,,,,,,,,,,,,
1446.199999988079,,memorable_rating,396871,Fictional_Cities_List/img_natural_23.png,,52,,,4,,,,,,,,,,,,,,,
null,,confidence_buffer,396973,confidence_buffer,,null,,,,,,,,,,,,,,,,,,
null,,thebreak,397475,break,,null,,,,,,,,,,,,,,,,,,
8750.40000000596,,familiar_rating,406226,US_Cities_List/nat_hotsprings.png,,49,US_Cities_List/nat_hotsprings.png,NAT,1,,,,,,,,,,,,,,,
null,,confidence_buffer,406329,confidence_buffer,,null,,,,,,,,,,,,,,,,,,
3088.199999988079,,unique_rating,409418,US_Cities_List/nat_hotsprings.png,,52,,,4,,,,,,,,,,,,,,,
null,,confidence_buffer,409521,confidence_buffer,,null,,,,,,,,,,,,,,,,,,
4472.5999999940395,,memorable_rating,413995,US_Cities_List/nat_hotsprings.png,,50,,,2,,,,,,,,,,,,,,,
null,,confidence_buffer,414098,confidence_buffer,,null,,,,,,,,,,,,,,,,,,
null,,thebreak,414599,break,,null,,,,,,,,,,,,,,,,,,
3998.699999988079,,familiar_rating,418599,US_Cities_List/nat_abilene.png,,49,US_Cities_List/nat_abilene.png,NAT,1,,,,,,,,,,,,,,,
null,,confidence_buffer,418701,confidence_buffer,,null,,,,,,,,,,,,,,,,,,
4672.5,,unique_rating,423374,US_Cities_List/nat_abilene.png,,52,,,4,,,,,,,,,,,,,,,
null,,confidence_buffer,423477,confidence_buffer,,null,,,,,,,,,,,,,,,,,,
1927.0999999940395,,memorable_rating,425405,US_Cities_List/nat_abilene.png,,53,,,5,,,,,,,,,,,,,,,
null,,confidence_buffer,425506,confidence_buffer,,null,,,,,,,,,,,,,,,,,,
null,,thebreak,426008,break,,null,,,,,,,,,,,,,,,,,,
7166.199999988079,,familiar_rating,433175,US_Cities_List/mm_abilene.png,,49,US_Cities_List/mm_abilene.png,MM,1,,,,,,,,,,,,,,,
null,,confidence_buffer,433278,confidence_buffer,,null,,,,,,,,,,,,,,,,,,
10693.100000023842,,unique_rating,443972,US_Cities_List/mm_abilene.png,,52,,,4,,,,,,,,,,,,,,,
null,,confidence_buffer,444074,confidence_buffer,,null,,,,,,,,,,,,,,,,,,
1923.0999999940395,,memorable_rating,445998,US_Cities_List/mm_abilene.png,,53,,,5,,,,,,,,,,,,,,,
null,,confidence_buffer,446099,confidence_buffer,,null,,,,,,,,,,,,,,,,,,
null,,thebreak,446601,break,,null,,,,,,,,,,,,,,,,,,
3110.800000011921,,familiar_rating,449713,Fictional_Cities_List/img_manmade_18.png,,50,Fictional_Cities_List/img_manmade_18.png,MM,2,,,,,,,,,,,,,,,
null,,confidence_buffer,449815,confidence_buffer,,null,,,,,,,,,,,,,,,,,,
3421.2999999821186,,unique_rating,453237,Fictional_Cities_List/img_manmade_18.png,,50,,,2,,,,,,,,,,,,,,,
null,,confidence_buffer,453340,confidence_buffer,,null,,,,,,,,,,,,,,,,,,
2797.4000000059605,,memorable_rating,456138,Fictional_Cities_List/img_manmade_18.png,,52,,,4,,,,,,,,,,,,,,,
null,,confidence_buffer,456240,confidence_buffer,,null,,,,,,,,,,,,,,,,,,
2385.2000000178814,,probe_rating,458627,probe_rating,,53,,,,5,1,,,,,,,,,,,,,
null,,confidence_buffer,458729,confidence_buffer,,null,,,,,,,,,,,,,,,,,,
null,,thebreak,459231,break,,null,,,,,,,,,,,,,,,,,,
4456.700000017881,,familiar_rating,463689,US_Cities_List/mm_bisbee.png,,49,US_Cities_List/mm_bisbee.png,MM,1,,,,,,,,,,,,,,,
null,,confidence_buffer,463791,confidence_buffer,,null,,,,,,,,,,,,,,,,,,
4887.199999988079,,unique_rating,468679,US_Cities_List/mm_bisbee.png,,50,,,2,,,,,,,,,,,,,,,
null,,confidence_buffer,468780,confidence_buffer,,null,,,,,,,,,,,,,,,,,,
2040.7999999821186,,memorable_rating,470822,US_Cities_List/mm_bisbee.png,,51,,,3,,,,,,,,,,,,,,,
null,,confidence_buffer,470923,confidence_buffer,,null,,,,,,,,,,,,,,,,,,
null,,thebreak,471425,break,,null,,,,,,,,,,,,,,,,,,
1993.2000000178814,,familiar_rating,473419,US_Cities_List/mm_hilo.png,,49,US_Cities_List/mm_hilo.png,MM,1,,,,,,,,,,,,,,,
null,,confidence_buffer,473521,confidence_buffer,,null,,,,,,,,,,,,,,,,,,
2717,,unique_rating,476239,US_Cities_List/mm_hilo.png,,53,,,5,,,,,,,,,,,,,,,
null,,confidence_buffer,476340,confidence_buffer,,null,,,,,,,,,,,,,,,,,,
1804.7999999821186,,memorable_rating,478146,US_Cities_List/mm_hilo.png,,53,,,5,,,,,,,,,,,,,,,
null,,confidence_buffer,478248,confidence_buffer,,null,,,,,,,,,,,,,,,,,,
null,,thebreak,478750,break,,null,,,,,,,,,,,,,,,,,,
6833.5,,familiar_rating,485584,Fictional_Cities_List/img_natural_28.png,,50,Fictional_Cities_List/img_natural_28.png,NAT,2,,,,,,,,,,,,,,,
null,,confidence_buffer,485686,confidence_buffer,,null,,,,,,,,,,,,,,,,,,
3997.2000000178814,,unique_rating,489684,Fictional_Cities_List/img_natural_28.png,,53,,,5,,,,,,,,,,,,,,,
null,,confidence_buffer,489786,confidence_buffer,,null,,,,,,,,,,,,,,,,,,
2460.800000011921,,memorable_rating,492248,Fictional_Cities_List/img_natural_28.png,,53,,,5,,,,,,,,,,,,,,,
null,,confidence_buffer,492350,confidence_buffer,,null,,,,,,,,,,,,,,,,,,
null,,thebreak,492866,break,,null,,,,,,,,,,,,,,,,,,
8157,,familiar_rating,501024,US_Cities_List/nat_sitka.png,,49,US_Cities_List/nat_sitka.png,NAT,1,,,,,,,,,,,,,,,
null,,confidence_buffer,501125,confidence_buffer,,null,,,,,,,,,,,,,,,,,,
4253.5999999940395,,unique_rating,505380,US_Cities_List/nat_sitka.png,,51,,,3,,,,,,,,,,,,,,,
null,,confidence_buffer,505481,confidence_buffer,,null,,,,,,,,,,,,,,,,,,
2850.300000011921,,memorable_rating,508333,US_Cities_List/nat_sitka.png,,51,,,3,,,,,,,,,,,,,,,
null,,confidence_buffer,508435,confidence_buffer,,null,,,,,,,,,,,,,,,,,,
null,,thebreak,508940,break,,null,,,,,,,,,,,,,,,,,,
6649.5,,familiar_rating,515590,Fictional_Cities_List/img_natural_47.png,,53,Fictional_Cities_List/img_natural_47.png,NAT,5,,,,,,,,,,,,,,,
null,,confidence_buffer,515692,confidence_buffer,,null,,,,,,,,,,,,,,,,,,
6289.9000000059605,,unique_rating,521983,Fictional_Cities_List/img_natural_47.png,,50,,,2,,,,,,,,,,,,,,,
null,,confidence_buffer,522087,confidence_buffer,,null,,,,,,,,,,,,,,,,,,
4034.5,,memorable_rating,526123,Fictional_Cities_List/img_natural_47.png,,51,,,3,,,,,,,,,,,,,,,
null,,confidence_buffer,526224,confidence_buffer,,null,,,,,,,,,,,,,,,,,,
null,,thebreak,526726,break,,null,,,,,,,,,,,,,,,,,,
3048.5999999940395,,familiar_rating,529775,Fictional_Cities_List/img_natural_49.png,,49,Fictional_Cities_List/img_natural_49.png,NAT,1,,,,,,,,,,,,,,,
null,,confidence_buffer,529878,confidence_buffer,,null,,,,,,,,,,,,,,,,,,
6448.5,,unique_rating,536328,Fictional_Cities_List/img_natural_49.png,,52,,,4,,,,,,,,,,,,,,,
null,,confidence_buffer,536430,confidence_buffer,,null,,,,,,,,,,,,,,,,,,
3561.9000000059605,,memorable_rating,539993,Fictional_Cities_List/img_natural_49.png,,53,,,5,,,,,,,,,,,,,,,
null,,confidence_buffer,540094,confidence_buffer,,null,,,,,,,,,,,,,,,,,,
null,,thebreak,540596,break,,null,,,,,,,,,,,,,,,,,,
5274,,familiar_rating,545871,US_Cities_List/mm_okoboji.png,,51,US_Cities_List/mm_okoboji.png,MM,3,,,,,,,,,,,,,,,
null,,confidence_buffer,545973,confidence_buffer,,null,,,,,,,,,,,,,,,,,,
5328.199999988079,,unique_rating,551302,US_Cities_List/mm_okoboji.png,,49,,,1,,,,,,,,,,,,,,,
null,,confidence_buffer,551403,confidence_buffer,,null,,,,,,,,,,,,,,,,,,
5454.200000017881,,memorable_rating,556858,US_Cities_List/mm_okoboji.png,,52,,,4,,,,,,,,,,,,,,,
null,,confidence_buffer,556959,confidence_buffer,,null,,,,,,,,,,,,,,,,,,
null,,thebreak,557462,break,,null,,,,,,,,,,,,,,,,,,
3500,,familiar_rating,560963,US_Cities_List/nat_healdsburg.png,,49,US_Cities_List/nat_healdsburg.png,NAT,1,,,,,,,,,,,,,,,
null,,confidence_buffer,561065,confidence_buffer,,null,,,,,,,,,,,,,,,,,,
6591.700000017881,,unique_rating,567658,US_Cities_List/nat_healdsburg.png,,49,,,1,,,,,,,,,,,,,,,
null,,confidence_buffer,567761,confidence_buffer,,null,,,,,,,,,,,,,,,,,,
1791.1000000238419,,memorable_rating,569554,US_Cities_List/nat_healdsburg.png,,49,,,1,,,,,,,,,,,,,,,
null,,confidence_buffer,569655,confidence_buffer,,null,,,,,,,,,,,,,,,,,,
null,,thebreak,570157,break,,null,,,,,,,,,,,,,,,,,,
3132.5,,familiar_rating,573291,Fictional_Cities_List/img_natural_15.png,,49,Fictional_Cities_List/img_natural_15.png,NAT,1,,,,,,,,,,,,,,,
null,,confidence_buffer,573393,confidence_buffer,,null,,,,,,,,,,,,,,,,,,
1759.300000011921,,unique_rating,575153,Fictional_Cities_List/img_natural_15.png,,53,,,5,,,,,,,,,,,,,,,
null,,confidence_buffer,575254,confidence_buffer,,null,,,,,,,,,,,,,,,,,,
2247.0999999940395,,memorable_rating,577503,Fictional_Cities_List/img_natural_15.png,,53,,,5,,,,,,,,,,,,,,,
null,,confidence_buffer,577604,confidence_buffer,,null,,,,,,,,,,,,,,,,,,
null,,thebreak,578105,break,,null,,,,,,,,,,,,,,,,,,
4967.4000000059605,,familiar_rating,583073,US_Cities_List/nat_boulder.png,,49,US_Cities_List/nat_boulder.png,NAT,1,,,,,,,,,,,,,,,
null,,confidence_buffer,583175,confidence_buffer,,null,,,,,,,,,,,,,,,,,,
2382.5,,unique_rating,585559,US_Cities_List/nat_boulder.png,,52,,,4,,,,,,,,,,,,,,,
null,,confidence_buffer,585662,confidence_buffer,,null,,,,,,,,,,,,,,,,,,
3801.4000000059605,,memorable_rating,589465,US_Cities_List/nat_boulder.png,,52,,,4,,,,,,,,,,,,,,,
null,,confidence_buffer,589566,confidence_buffer,,null,,,,,,,,,,,,,,,,,,
null,,thebreak,590067,break,,null,,,,,,,,,,,,,,,,,,
3613.100000023842,,familiar_rating,593682,Fictional_Cities_List/img_manmade_40.png,,50,Fictional_Cities_List/img_manmade_40.png,MM,2,,,,,,,,,,,,,,,
null,,confidence_buffer,593783,confidence_buffer,,null,,,,,,,,,,,,,,,,,,
5848,,unique_rating,599632,Fictional_Cities_List/img_manmade_40.png,,52,,,4,,,,,,,,,,,,,,,
null,,confidence_buffer,599734,confidence_buffer,,null,,,,,,,,,,,,,,,,,,
1148,,memorable_rating,600883,Fictional_Cities_List/img_manmade_40.png,,53,,,5,,,,,,,,,,,,,,,
null,,confidence_buffer,600985,confidence_buffer,,null,,,,,,,,,,,,,,,,,,
null,,thebreak,601486,break,,null,,,,,,,,,,,,,,,,,,
4612.300000011921,,familiar_rating,606100,Fictional_Cities_List/img_natural_46.png,,53,Fictional_Cities_List/img_natural_46.png,NAT,5,,,,,,,,,,,,,,,
null,,confidence_buffer,606202,confidence_buffer,,null,,,,,,,,,,,,,,,,,,
3689.2999999821186,,unique_rating,609892,Fictional_Cities_List/img_natural_46.png,,50,,,2,,,,,,,,,,,,,,,
null,,confidence_buffer,609994,confidence_buffer,,null,,,,,,,,,,,,,,,,,,
2285.2999999821186,,probe_rating,612281,probe_rating,,53,,,,5,1,,,,,,,,,,,,,
null,,confidence_buffer,612383,confidence_buffer,,null,,,,,,,,,,,,,,,,,,
2588.0999999940395,,memorable_rating,614972,Fictional_Cities_List/img_natural_46.png,,53,,,5,,,,,,,,,,,,,,,
null,,confidence_buffer,615074,confidence_buffer,,null,,,,,,,,,,,,,,,,,,
null,,thebreak,615575,break,,null,,,,,,,,,,,,,,,,,,
3317.4000000059605,,familiar_rating,618893,Fictional_Cities_List/img_manmade_16.png,,49,Fictional_Cities_List/img_manmade_16.png,MM,1,,,,,,,,,,,,,,,
null,,confidence_buffer,618994,confidence_buffer,,null,,,,,,,,,,,,,,,,,,
1633.199999988079,,unique_rating,620628,Fictional_Cities_List/img_manmade_16.png,,53,,,5,,,,,,,,,,,,,,,
null,,confidence_buffer,620730,confidence_buffer,,null,,,,,,,,,,,,,,,,,,
1916.4000000059605,,memorable_rating,622647,Fictional_Cities_List/img_manmade_16.png,,53,,,5,,,,,,,,,,,,,,,
null,,confidence_buffer,622749,confidence_buffer,,null,,,,,,,,,,,,,,,,,,
null,,thebreak,623251,break,,null,,,,,,,,,,,,,,,,,,
3975.399999976158,,familiar_rating,627227,Fictional_Cities_List/img_manmade_23.png,,52,Fictional_Cities_List/img_manmade_23.png,MM,4,,,,,,,,,,,,,,,
null,,confidence_buffer,627329,confidence_buffer,,null,,,,,,,,,,,,,,,,,,
4870.700000017881,,unique_rating,632201,Fictional_Cities_List/img_manmade_23.png,,49,,,1,,,,,,,,,,,,,,,
null,,confidence_buffer,632302,confidence_buffer,,null,,,,,,,,,,,,,,,,,,
2893.7000000178814,,memorable_rating,635197,Fictional_Cities_List/img_manmade_23.png,,51,,,3,,,,,,,,,,,,,,,
null,,confidence_buffer,635299,confidence_buffer,,null,,,,,,,,,,,,,,,,,,
null,,thebreak,635802,break,,null,,,,,,,,,,,,,,,,,,
3875.2000000178814,,familiar_rating,639678,US_Cities_List/mm_hotsprings.png,,49,US_Cities_List/mm_hotsprings.png,MM,1,,,,,,,,,,,,,,,
null,,confidence_buffer,639779,confidence_buffer,,null,,,,,,,,,,,,,,,,,,
4168.4000000059605,,unique_rating,643949,US_Cities_List/mm_hotsprings.png,,52,,,4,,,,,,,,,,,,,,,
null,,confidence_buffer,644051,confidence_buffer,,null,,,,,,,,,,,,,,,,,,
2422.800000011921,,memorable_rating,646474,US_Cities_List/mm_hotsprings.png,,53,,,5,,,,,,,,,,,,,,,
null,,confidence_buffer,646576,confidence_buffer,,null,,,,,,,,,,,,,,,,,,
null,,thebreak,647077,break,,null,,,,,,,,,,,,,,,,,,
2647,,familiar_rating,649725,US_Cities_List/mm_athens.png,,51,US_Cities_List/mm_athens.png,MM,3,,,,,,,,,,,,,,,
null,,confidence_buffer,649826,confidence_buffer,,null,,,,,,,,,,,,,,,,,,
3641.5,,unique_rating,653469,US_Cities_List/mm_athens.png,,49,,,1,,,,,,,,,,,,,,,
null,,confidence_buffer,653571,confidence_buffer,,null,,,,,,,,,,,,,,,,,,
3985.300000011921,,memorable_rating,657557,US_Cities_List/mm_athens.png,,51,,,3,,,,,,,,,,,,,,,
null,,confidence_buffer,657659,confidence_buffer,,null,,,,,,,,,,,,,,,,,,
null,,thebreak,658160,break,,null,,,,,,,,,,,,,,,,,,
5096.699999988079,,familiar_rating,663258,Fictional_Cities_List/img_manmade_35.png,,49,Fictional_Cities_List/img_manmade_35.png,MM,1,,,,,,,,,,,,,,,
null,,confidence_buffer,663361,confidence_buffer,,null,,,,,,,,,,,,,,,,,,
2679.699999988079,,unique_rating,666042,Fictional_Cities_List/img_manmade_35.png,,53,,,5,,,,,,,,,,,,,,,
null,,confidence_buffer,666143,confidence_buffer,,null,,,,,,,,,,,,,,,,,,
1984.7999999821186,,probe_rating,668130,probe_rating,,52,,,,4,1,,,,,,,,,,,,,
null,,confidence_buffer,668231,confidence_buffer,,null,,,,,,,,,,,,,,,,,,
4963.799999982119,,memorable_rating,673196,Fictional_Cities_List/img_manmade_35.png,,52,,,4,,,,,,,,,,,,,,,
null,,confidence_buffer,673298,confidence_buffer,,null,,,,,,,,,,,,,,,,,,
null,,thebreak,673799,break,,null,,,,,,,,,,,,,,,,,,
4868.5999999940395,,familiar_rating,678668,US_Cities_List/nat_peoria.png,,51,US_Cities_List/nat_peoria.png,NAT,3,,,,,,,,,,,,,,,
null,,confidence_buffer,678770,confidence_buffer,,null,,,,,,,,,,,,,,,,,,
2490.800000011921,,unique_rating,681262,US_Cities_List/nat_peoria.png,,49,,,1,,,,,,,,,,,,,,,
null,,confidence_buffer,681363,confidence_buffer,,null,,,,,,,,,,,,,,,,,,
2238.7999999821186,,memorable_rating,683603,US_Cities_List/nat_peoria.png,,49,,,1,,,,,,,,,,,,,,,
null,,confidence_buffer,683706,confidence_buffer,,null,,,,,,,,,,,,,,,,,,
2262.5999999940395,,probe_rating,685970,probe_rating,,53,,,,5,1,,,,,,,,,,,,,
null,,confidence_buffer,686072,confidence_buffer,,null,,,,,,,,,,,,,,,,,,
null,,thebreak,686574,break,,null,,,,,,,,,,,,,,,,,,
3986.199999988079,,familiar_rating,690561,Fictional_Cities_List/img_natural_24.png,,49,Fictional_Cities_List/img_natural_24.png,NAT,1,,,,,,,,,,,,,,,
null,,confidence_buffer,690663,confidence_buffer,,null,,,,,,,,,,,,,,,,,,
11496.100000023842,,unique_rating,702160,Fictional_Cities_List/img_natural_24.png,,53,,,5,,,,,,,,,,,,,,,
null,,confidence_buffer,702263,confidence_buffer,,null,,,,,,,,,,,,,,,,,,
2838.5,,memorable_rating,705102,Fictional_Cities_List/img_natural_24.png,,53,,,5,,,,,,,,,,,,,,,
null,,confidence_buffer,705204,confidence_buffer,,null,,,,,,,,,,,,,,,,,,
null,,thebreak,705705,break,,null,,,,,,,,,,,,,,,,,,
8515.800000011921,,intro_0,714222,instruct,,32,,,,,,,,,,,,,,,,,,
23370.40000000596,,intro_1,737593,instruct,,32,,,,,,,,,,,,,,,,,,
25333.09999999404,,intro_2,762926,instruct,,32,,,,,,,,,,,,,,,,,,
null,,instruct_dir_4,764429,instruct,,null,,,,,,,,,,,,,,,,,,
12069.09999999404,,pt2_realistic_rating,776499,Fictional_Cities_List/img_natural_22.png,,51,Fictional_Cities_List/img_natural_22.png,NAT,3,,,,,,,,,,,,,,,
null,,confidence_buffer,776601,confidence_buffer,,null,,,,,,,,,,,,,,,,,,
3106.9000000059605,,pt2_unique_rating,779709,Fictional_Cities_List/img_natural_22.png,,53,,,5,,,,,,,,,,,,,,,
null,,confidence_buffer,779811,confidence_buffer,,null,,,,,,,,,,,,,,,,,,
2490.800000011921,,pt2_memorable_rating,782304,Fictional_Cities_List/img_natural_22.png,,53,,,5,,,,,,,,,,,,,,,
null,,confidence_buffer,782405,confidence_buffer,,null,,,,,,,,,,,,,,,,,,
2445.2000000178814,,probe_rating,784852,probe_rating,,51,,,,3,1,,,,,,,,,,,,,
null,,confidence_buffer,784954,confidence_buffer,,null,,,,,,,,,,,,,,,,,,
4780.5999999940395,,recognition_phase,789736,Fictional_Cities_List/img_natural_22.png,,52,,,,,,new,1,1,,,,,,,,,,
null,,confidence_buffer,789837,confidence_buffer,,null,,,,,,,,,,,,,,,,,,
null,,thebreak,790338,break,,null,,,,,,,,,,,,,,,,,,
4277.600000023842,,pt2_realistic_rating,794617,US_Cities_List/mm_athens.png,,53,US_Cities_List/mm_athens.png,MM,5,,,,,,,,,,,,,,,
null,,confidence_buffer,794719,confidence_buffer,,null,,,,,,,,,,,,,,,,,,
2740.7999999821186,,pt2_unique_rating,797461,US_Cities_List/mm_athens.png,,50,,,2,,,,,,,,,,,,,,,
null,,confidence_buffer,797562,confidence_buffer,,null,,,,,,,,,,,,,,,,,,
2000.2000000178814,,probe_rating,799563,probe_rating,,49,,,,1,1,,,,,,,,,,,,,
null,,confidence_buffer,799665,confidence_buffer,,null,,,,,,,,,,,,,,,,,,
4923.100000023842,,pt2_memorable_rating,804589,US_Cities_List/mm_athens.png,,52,,,4,,,,,,,,,,,,,,,
null,,confidence_buffer,804691,confidence_buffer,,null,,,,,,,,,,,,,,,,,,
2774.7000000178814,,recognition_phase,807467,US_Cities_List/mm_athens.png,,49,,,,,,old,1,1,,,,,,,,,,
null,,confidence_buffer,807568,confidence_buffer,,null,,,,,,,,,,,,,,,,,,
null,,thebreak,808069,break,,null,,,,,,,,,,,,,,,,,,
10144.90000000596,,pt2_realistic_rating,818215,US_Cities_List/mm_hilo.png,,52,US_Cities_List/mm_hilo.png,MM,4,,,,,,,,,,,,,,,
null,,confidence_buffer,818317,confidence_buffer,,null,,,,,,,,,,,,,,,,,,
4343.5,,pt2_unique_rating,822661,US_Cities_List/mm_hilo.png,,53,,,5,,,,,,,,,,,,,,,
null,,confidence_buffer,822762,confidence_buffer,,null,,,,,,,,,,,,,,,,,,
2386.699999988079,,pt2_memorable_rating,825150,US_Cities_List/mm_hilo.png,,53,,,5,,,,,,,,,,,,,,,
null,,confidence_buffer,825251,confidence_buffer,,null,,,,,,,,,,,,,,,,,,
1917.300000011921,,probe_rating,827170,probe_rating,,50,,,,2,1,,,,,,,,,,,,,
null,,confidence_buffer,827272,confidence_buffer,,null,,,,,,,,,,,,,,,,,,
1909.2000000178814,,recognition_phase,829183,US_Cities_List/mm_hilo.png,,49,,,,,,old,1,1,,,,,,,,,,
null,,confidence_buffer,829284,confidence_buffer,,null,,,,,,,,,,,,,,,,,,
null,,thebreak,829786,break,,null,,,,,,,,,,,,,,,,,,
7893.300000011921,,pt2_realistic_rating,837680,Fictional_Cities_List/img_manmade_06.png,,53,Fictional_Cities_List/img_manmade_06.png,MM,5,,,,,,,,,,,,,,,
null,,confidence_buffer,837782,confidence_buffer,,null,,,,,,,,,,,,,,,,,,
2650.9000000059605,,pt2_unique_rating,840434,Fictional_Cities_List/img_manmade_06.png,,50,,,2,,,,,,,,,,,,,,,
null,,confidence_buffer,840536,confidence_buffer,,null,,,,,,,,,,,,,,,,,,
3709.300000011921,,pt2_memorable_rating,844246,Fictional_Cities_List/img_manmade_06.png,,51,,,3,,,,,,,,,,,,,,,
null,,confidence_buffer,844348,confidence_buffer,,null,,,,,,,,,,,,,,,,,,
2049.199999988079,,recognition_phase,846398,Fictional_Cities_List/img_manmade_06.png,,49,,,,,,old,1,1,,,,,,,,,,
null,,confidence_buffer,846500,confidence_buffer,,null,,,,,,,,,,,,,,,,,,
null,,thebreak,847001,break,,null,,,,,,,,,,,,,,,,,,
2357,,pt2_realistic_rating,849359,Fictional_Cities_List/img_natural_47.png,,53,Fictional_Cities_List/img_natural_47.png,NAT,5,,,,,,,,,,,,,,,
null,,confidence_buffer,849462,confidence_buffer,,null,,,,,,,,,,,,,,,,,,
2924.5,,pt2_unique_rating,852387,Fictional_Cities_List/img_natural_47.png,,49,,,1,,,,,,,,,,,,,,,
null,,confidence_buffer,852489,confidence_buffer,,null,,,,,,,,,,,,,,,,,,
2067.7000000178814,,pt2_memorable_rating,854558,Fictional_Cities_List/img_natural_47.png,,51,,,3,,,,,,,,,,,,,,,
null,,confidence_buffer,854660,confidence_buffer,,null,,,,,,,,,,,,,,,,,,
1951,,recognition_phase,856613,Fictional_Cities_List/img_natural_47.png,,49,,,,,,old,1,1,,,,,,,,,,
null,,confidence_buffer,856714,confidence_buffer,,null,,,,,,,,,,,,,,,,,,
null,,thebreak,857215,break,,null,,,,,,,,,,,,,,,,,,
10589.300000011921,,pt2_realistic_rating,867806,US_Cities_List/mm_delawarecity.png,,52,US_Cities_List/mm_delawarecity.png,MM,4,,,,,,,,,,,,,,,
null,,confidence_buffer,867908,confidence_buffer,,null,,,,,,,,,,,,,,,,,,
4262.0999999940395,,pt2_unique_rating,872171,US_Cities_List/mm_delawarecity.png,,50,,,2,,,,,,,,,,,,,,,
null,,confidence_buffer,872272,confidence_buffer,,null,,,,,,,,,,,,,,,,,,
2996.7999999821186,,pt2_memorable_rating,875270,US_Cities_List/mm_delawarecity.png,,51,,,3,,,,,,,,,,,,,,,
null,,confidence_buffer,875372,confidence_buffer,,null,,,,,,,,,,,,,,,,,,
3706.699999988079,,recognition_phase,879079,US_Cities_List/mm_delawarecity.png,,52,,,,,,new,1,1,,,,,,,,,,
null,,confidence_buffer,879181,confidence_buffer,,null,,,,,,,,,,,,,,,,,,
null,,thebreak,879682,break,,null,,,,,,,,,,,,,,,,,,
10248.600000023842,,pt2_realistic_rating,889932,Fictional_Cities_List/img_natural_20.png,,51,Fictional_Cities_List/img_natural_20.png,NAT,3,,,,,,,,,,,,,,,
null,,confidence_buffer,890035,confidence_buffer,,null,,,,,,,,,,,,,,,,,,
4355.199999988079,,pt2_unique_rating,894391,Fictional_Cities_List/img_natural_20.png,,53,,,5,,,,,,,,,,,,,,,
null,,confidence_buffer,894492,confidence_buffer,,null,,,,,,,,,,,,,,,,,,
2509.199999988079,,pt2_memorable_rating,897002,Fictional_Cities_List/img_natural_20.png,,53,,,5,,,,,,,,,,,,,,,
null,,confidence_buffer,897105,confidence_buffer,,null,,,,,,,,,,,,,,,,,,
2495.300000011921,,recognition_phase,899601,Fictional_Cities_List/img_natural_20.png,,52,,,,,,new,1,1,,,,,,,,,,
null,,confidence_buffer,899702,confidence_buffer,,null,,,,,,,,,,,,,,,,,,
null,,thebreak,900204,break,,null,,,,,,,,,,,,,,,,,,
5083.299999982119,,pt2_realistic_rating,905288,US_Cities_List/nat_coeurdalene.png,,53,US_Cities_List/nat_coeurdalene.png,NAT,5,,,,,,,,,,,,,,,
null,,confidence_buffer,905390,confidence_buffer,,null,,,,,,,,,,,,,,,,,,
3912.4000000059605,,pt2_unique_rating,909303,US_Cities_List/nat_coeurdalene.png,,50,,,2,,,,,,,,,,,,,,,
null,,confidence_buffer,909404,confidence_buffer,,null,,,,,,,,,,,,,,,,,,
2906.5,,pt2_memorable_rating,912312,US_Cities_List/nat_coeurdalene.png,,51,,,3,,,,,,,,,,,,,,,
null,,confidence_buffer,912414,confidence_buffer,,null,,,,,,,,,,,,,,,,,,
4420.300000011921,,recognition_phase,916835,US_Cities_List/nat_coeurdalene.png,,52,,,,,,new,1,1,,,,,,,,,,
null,,confidence_buffer,916937,confidence_buffer,,null,,,,,,,,,,,,,,,,,,
null,,thebreak,917438,break,,null,,,,,,,,,,,,,,,,,,
9726.300000011921,,pt2_realistic_rating,927165,US_Cities_List/mm_peoria.png,,51,US_Cities_List/mm_peoria.png,MM,3,,,,,,,,,,,,,,,
null,,confidence_buffer,927267,confidence_buffer,,null,,,,,,,,,,,,,,,,,,
3330.600000023842,,pt2_unique_rating,930598,US_Cities_List/mm_peoria.png,,51,,,3,,,,,,,,,,,,,,,
null,,confidence_buffer,930700,confidence_buffer,,null,,,,,,,,,,,,,,,,,,
2637.7000000178814,,pt2_memorable_rating,933339,US_Cities_List/mm_peoria.png,,53,,,5,,,,,,,,,,,,,,,
null,,confidence_buffer,933441,confidence_buffer,,null,,,,,,,,,,,,,,,,,,
2056.9000000059605,,recognition_phase,935500,US_Cities_List/mm_peoria.png,,52,,,,,,new,1,1,,,,,,,,,,
null,,confidence_buffer,935602,confidence_buffer,,null,,,,,,,,,,,,,,,,,,
null,,thebreak,936104,break,,null,,,,,,,,,,,,,,,,,,
2249.4000000059605,,pt2_realistic_rating,938354,US_Cities_List/nat_athens.png,,53,US_Cities_List/nat_athens.png,NAT,5,,,,,,,,,,,,,,,
null,,confidence_buffer,938456,confidence_buffer,,null,,,,,,,,,,,,,,,,,,
3905.5999999940395,,pt2_unique_rating,942363,US_Cities_List/nat_athens.png,,49,,,1,,,,,,,,,,,,,,,
null,,confidence_buffer,942466,confidence_buffer,,null,,,,,,,,,,,,,,,,,,
2038.7000000178814,,pt2_memorable_rating,944505,US_Cities_List/nat_athens.png,,50,,,2,,,,,,,,,,,,,,,
null,,confidence_buffer,944606,confidence_buffer,,null,,,,,,,,,,,,,,,,,,
3025.2000000178814,,recognition_phase,947633,US_Cities_List/nat_athens.png,,52,,,,,,new,1,1,,,,,,,,,,
null,,confidence_buffer,947735,confidence_buffer,,null,,,,,,,,,,,,,,,,,,
null,,thebreak,948251,break,,null,,,,,,,,,,,,,,,,,,
6337.4000000059605,,pt2_realistic_rating,954590,Fictional_Cities_List/img_natural_40.png,,53,Fictional_Cities_List/img_natural_40.png,NAT,5,,,,,,,,,,,,,,,
null,,confidence_buffer,954692,confidence_buffer,,null,,,,,,,,,,,,,,,,,,
2674.4000000059605,,pt2_unique_rating,957367,Fictional_Cities_List/img_natural_40.png,,51,,,3,,,,,,,,,,,,,,,
null,,confidence_buffer,957469,confidence_buffer,,null,,,,,,,,,,,,,,,,,,
4772.5,,pt2_memorable_rating,962243,Fictional_Cities_List/img_natural_40.png,,50,,,2,,,,,,,,,,,,,,,
null,,confidence_buffer,962346,confidence_buffer,,null,,,,,,,,,,,,,,,,,,
6154.4000000059605,,recognition_phase,968502,Fictional_Cities_List/img_natural_40.png,,52,,,,,,new,1,1,,,,,,,,,,
null,,confidence_buffer,968610,confidence_buffer,,null,,,,,,,,,,,,,,,,,,
null,,thebreak,969112,break,,null,,,,,,,,,,,,,,,,,,
2429.9000000059605,,pt2_realistic_rating,971543,US_Cities_List/nat_hotsprings.png,,53,US_Cities_List/nat_hotsprings.png,NAT,5,,,,,,,,,,,,,,,
null,,confidence_buffer,971644,confidence_buffer,,null,,,,,,,,,,,,,,,,,,
5450.5,,pt2_unique_rating,977096,US_Cities_List/nat_hotsprings.png,,51,,,3,,,,,,,,,,,,,,,
null,,confidence_buffer,977198,confidence_buffer,,null,,,,,,,,,,,,,,,,,,
1985.9000000059605,,pt2_memorable_rating,979185,US_Cities_List/nat_hotsprings.png,,51,,,3,,,,,,,,,,,,,,,
null,,confidence_buffer,979287,confidence_buffer,,null,,,,,,,,,,,,,,,,,,
2339.2000000178814,,recognition_phase,981627,US_Cities_List/nat_hotsprings.png,,49,,,,,,old,1,1,,,,,,,,,,
null,,confidence_buffer,981730,confidence_buffer,,null,,,,,,,,,,,,,,,,,,
null,,thebreak,982232,break,,null,,,,,,,,,,,,,,,,,,
2015.0999999940395,,pt2_realistic_rating,984248,Fictional_Cities_List/img_manmade_23.png,,53,Fictional_Cities_List/img_manmade_23.png,MM,5,,,,,,,,,,,,,,,
null,,confidence_buffer,984349,confidence_buffer,,null,,,,,,,,,,,,,,,,,,
3996.899999976158,,pt2_unique_rating,988347,Fictional_Cities_List/img_manmade_23.png,,50,,,2,,,,,,,,,,,,,,,
null,,confidence_buffer,988449,confidence_buffer,,null,,,,,,,,,,,,,,,,,,
2176.2000000178814,,pt2_memorable_rating,990627,Fictional_Cities_List/img_manmade_23.png,,50,,,2,,,,,,,,,,,,,,,
null,,confidence_buffer,990729,confidence_buffer,,null,,,,,,,,,,,,,,,,,,
2750.9000000059605,,recognition_phase,993482,Fictional_Cities_List/img_manmade_23.png,,49,,,,,,old,1,1,,,,,,,,,,
null,,confidence_buffer,993584,confidence_buffer,,null,,,,,,,,,,,,,,,,,,
null,,thebreak,994085,break,,null,,,,,,,,,,,,,,,,,,
4270.5,,pt2_realistic_rating,998357,Fictional_Cities_List/img_manmade_47.png,,53,Fictional_Cities_List/img_manmade_47.png,MM,5,,,,,,,,,,,,,,,
null,,confidence_buffer,998460,confidence_buffer,,null,,,,,,,,,,,,,,,,,,
5563.299999982119,,pt2_unique_rating,1004024,Fictional_Cities_List/img_manmade_47.png,,49,,,1,,,,,,,,,,,,,,,
null,,confidence_buffer,1004126,confidence_buffer,,null,,,,,,,,,,,,,,,,,,
2474.5999999940395,,pt2_memorable_rating,1006601,Fictional_Cities_List/img_manmade_47.png,,50,,,2,,,,,,,,,,,,,,,
null,,confidence_buffer,1006703,confidence_buffer,,null,,,,,,,,,,,,,,,,,,
2489.5,,recognition_phase,1009194,Fictional_Cities_List/img_manmade_47.png,,52,,,,,,new,1,1,,,,,,,,,,
null,,confidence_buffer,1009295,confidence_buffer,,null,,,,,,,,,,,,,,,,,,
null,,thebreak,1009797,break,,null,,,,,,,,,,,,,,,,,,
7204.0999999940395,,pt2_realistic_rating,1017002,Fictional_Cities_List/img_natural_06.png,,50,Fictional_Cities_List/img_natural_06.png,NAT,2,,,,,,,,,,,,,,,
null,,confidence_buffer,1017104,confidence_buffer,,null,,,,,,,,,,,,,,,,,,
4982.199999988079,,pt2_unique_rating,1022088,Fictional_Cities_List/img_natural_06.png,,53,,,5,,,,,,,,,,,,,,,
null,,confidence_buffer,1022189,confidence_buffer,,null,,,,,,,,,,,,,,,,,,
2497.4000000059605,,pt2_memorable_rating,1024687,Fictional_Cities_List/img_natural_06.png,,52,,,4,,,,,,,,,,,,,,,
null,,confidence_buffer,1024789,confidence_buffer,,null,,,,,,,,,,,,,,,,,,
3078.9000000059605,,recognition_phase,1027869,Fictional_Cities_List/img_natural_06.png,,52,,,,,,new,1,1,,,,,,,,,,
null,,confidence_buffer,1027971,confidence_buffer,,null,,,,,,,,,,,,,,,,,,
null,,thebreak,1028472,break,,null,,,,,,,,,,,,,,,,,,
4706,,pt2_realistic_rating,1033179,Fictional_Cities_List/img_natural_24.png,,52,Fictional_Cities_List/img_natural_24.png,NAT,4,,,,,,,,,,,,,,,
null,,confidence_buffer,1033281,confidence_buffer,,null,,,,,,,,,,,,,,,,,,
2175.5,,pt2_unique_rating,1035457,Fictional_Cities_List/img_natural_24.png,,53,,,5,,,,,,,,,,,,,,,
null,,confidence_buffer,1035559,confidence_buffer,,null,,,,,,,,,,,,,,,,,,
1988.2000000178814,,pt2_memorable_rating,1037548,Fictional_Cities_List/img_natural_24.png,,53,,,5,,,,,,,,,,,,,,,
null,,confidence_buffer,1037651,confidence_buffer,,null,,,,,,,,,,,,,,,,,,
3322,,recognition_phase,1040975,Fictional_Cities_List/img_natural_24.png,,49,,,,,,old,1,1,,,,,,,,,,
null,,confidence_buffer,1041079,confidence_buffer,,null,,,,,,,,,,,,,,,,,,
null,,thebreak,1041580,break,,null,,,,,,,,,,,,,,,,,,
3275.699999988079,,pt2_realistic_rating,1044857,Fictional_Cities_List/img_natural_18.png,,53,Fictional_Cities_List/img_natural_18.png,NAT,5,,,,,,,,,,,,,,,
null,,confidence_buffer,1044959,confidence_buffer,,null,,,,,,,,,,,,,,,,,,
3094.0999999940395,,pt2_unique_rating,1048054,Fictional_Cities_List/img_natural_18.png,,49,,,1,,,,,,,,,,,,,,,
null,,confidence_buffer,1048156,confidence_buffer,,null,,,,,,,,,,,,,,,,,,
2450,,pt2_memorable_rating,1050607,Fictional_Cities_List/img_natural_18.png,,49,,,1,,,,,,,,,,,,,,,
null,,confidence_buffer,1050708,confidence_buffer,,null,,,,,,,,,,,,,,,,,,
2709.199999988079,,recognition_phase,1053418,Fictional_Cities_List/img_natural_18.png,,52,,,,,,new,1,1,,,,,,,,,,
null,,confidence_buffer,1053520,confidence_buffer,,null,,,,,,,,,,,,,,,,,,
null,,thebreak,1054022,break,,null,,,,,,,,,,,,,,,,,,
3415.4000000059605,,pt2_realistic_rating,1057439,US_Cities_List/mm_okoboji.png,,53,US_Cities_List/mm_okoboji.png,MM,5,,,,,,,,,,,,,,,
null,,confidence_buffer,1057541,confidence_buffer,,null,,,,,,,,,,,,,,,,,,
3336.199999988079,,pt2_unique_rating,1060878,US_Cities_List/mm_okoboji.png,,50,,,2,,,,,,,,,,,,,,,
null,,confidence_buffer,1060979,confidence_buffer,,null,,,,,,,,,,,,,,,,,,
1745,,pt2_memorable_rating,1062726,US_Cities_List/mm_okoboji.png,,52,,,4,,,,,,,,,,,,,,,
null,,confidence_buffer,1062827,confidence_buffer,,null,,,,,,,,,,,,,,,,,,
2506.600000023842,,recognition_phase,1065335,US_Cities_List/mm_okoboji.png,,49,,,,,,old,1,1,,,,,,,,,,
null,,confidence_buffer,1065438,confidence_buffer,,null,,,,,,,,,,,,,,,,,,
null,,thebreak,1065939,break,,null,,,,,,,,,,,,,,,,,,
4181.799999982119,,pt2_realistic_rating,1070122,Fictional_Cities_List/img_manmade_20.png,,53,Fictional_Cities_List/img_manmade_20.png,MM,5,,,,,,,,,,,,,,,
null,,confidence_buffer,1070224,confidence_buffer,,null,,,,,,,,,,,,,,,,,,
2140.4000000059605,,pt2_unique_rating,1072366,Fictional_Cities_List/img_manmade_20.png,,52,,,4,,,,,,,,,,,,,,,
null,,confidence_buffer,1072467,confidence_buffer,,null,,,,,,,,,,,,,,,,,,
4238.9000000059605,,pt2_memorable_rating,1076707,Fictional_Cities_List/img_manmade_20.png,,51,,,3,,,,,,,,,,,,,,,
null,,confidence_buffer,1076809,confidence_buffer,,null,,,,,,,,,,,,,,,,,,
8049.4000000059605,,recognition_phase,1084860,Fictional_Cities_List/img_manmade_20.png,,52,,,,,,new,1,1,,,,,,,,,,
null,,confidence_buffer,1084962,confidence_buffer,,null,,,,,,,,,,,,,,,,,,
null,,thebreak,1085464,break,,null,,,,,,,,,,,,,,,,,,
5772.9000000059605,,pt2_realistic_rating,1091238,Fictional_Cities_List/img_natural_28.png,,50,Fictional_Cities_List/img_natural_28.png,NAT,2,,,,,,,,,,,,,,,
null,,confidence_buffer,1091340,confidence_buffer,,null,,,,,,,,,,,,,,,,,,
3001.800000011921,,pt2_unique_rating,1094343,Fictional_Cities_List/img_natural_28.png,,53,,,5,,,,,,,,,,,,,,,
null,,confidence_buffer,1094445,confidence_buffer,,null,,,,,,,,,,,,,,,,,,
2134.800000011921,,pt2_memorable_rating,1096581,Fictional_Cities_List/img_natural_28.png,,53,,,5,,,,,,,,,,,,,,,
null,,confidence_buffer,1096683,confidence_buffer,,null,,,,,,,,,,,,,,,,,,
2462.600000023842,,recognition_phase,1099147,Fictional_Cities_List/img_natural_28.png,,49,,,,,,old,1,1,,,,,,,,,,
null,,confidence_buffer,1099248,confidence_buffer,,null,,,,,,,,,,,,,,,,,,
null,,thebreak,1099749,break,,null,,,,,,,,,,,,,,,,,,
2951.9000000059605,,pt2_realistic_rating,1102702,US_Cities_List/nat_carmel.png,,53,US_Cities_List/nat_carmel.png,NAT,5,,,,,,,,,,,,,,,
null,,confidence_buffer,1102803,confidence_buffer,,null,,,,,,,,,,,,,,,,,,
2649.300000011921,,pt2_unique_rating,1105454,US_Cities_List/nat_carmel.png,,49,,,1,,,,,,,,,,,,,,,
null,,confidence_buffer,1105555,confidence_buffer,,null,,,,,,,,,,,,,,,,,,
2196.7000000178814,,pt2_memorable_rating,1107753,US_Cities_List/nat_carmel.png,,50,,,2,,,,,,,,,,,,,,,
null,,confidence_buffer,1107855,confidence_buffer,,null,,,,,,,,,,,,,,,,,,
1552.699999988079,,recognition_phase,1109409,US_Cities_List/nat_carmel.png,,52,,,,,,new,1,1,,,,,,,,,,
null,,confidence_buffer,1109512,confidence_buffer,,null,,,,,,,,,,,,,,,,,,
null,,thebreak,1110015,break,,null,,,,,,,,,,,,,,,,,,
2397.4000000059605,,pt2_realistic_rating,1112414,US_Cities_List/nat_abilene.png,,53,US_Cities_List/nat_abilene.png,NAT,5,,,,,,,,,,,,,,,
null,,confidence_buffer,1112516,confidence_buffer,,null,,,,,,,,,,,,,,,,,,
5122.699999988079,,pt2_unique_rating,1117640,US_Cities_List/nat_abilene.png,,51,,,3,,,,,,,,,,,,,,,
null,,confidence_buffer,1117742,confidence_buffer,,null,,,,,,,,,,,,,,,,,,
1804.7999999821186,,pt2_memorable_rating,1119547,US_Cities_List/nat_abilene.png,,52,,,4,,,,,,,,,,,,,,,
null,,confidence_buffer,1119649,confidence_buffer,,null,,,,,,,,,,,,,,,,,,
2610.0999999940395,,recognition_phase,1122260,US_Cities_List/nat_abilene.png,,49,,,,,,old,1,1,,,,,,,,,,
null,,confidence_buffer,1122362,confidence_buffer,,null,,,,,,,,,,,,,,,,,,
null,,thebreak,1122864,break,,null,,,,,,,,,,,,,,,,,,
1920,,pt2_realistic_rating,1124785,Fictional_Cities_List/img_manmade_49.png,,53,Fictional_Cities_List/img_manmade_49.png,MM,5,,,,,,,,,,,,,,,
null,,confidence_buffer,1124887,confidence_buffer,,null,,,,,,,,,,,,,,,,,,
3500.4000000059605,,pt2_unique_rating,1128388,Fictional_Cities_List/img_manmade_49.png,,50,,,2,,,,,,,,,,,,,,,
null,,confidence_buffer,1128491,confidence_buffer,,null,,,,,,,,,,,,,,,,,,
1417.5,,pt2_memorable_rating,1129909,Fictional_Cities_List/img_manmade_49.png,,51,,,3,,,,,,,,,,,,,,,
null,,confidence_buffer,1130011,confidence_buffer,,null,,,,,,,,,,,,,,,,,,
1564,,recognition_phase,1131576,Fictional_Cities_List/img_manmade_49.png,,49,,,,,,old,1,1,,,,,,,,,,
null,,confidence_buffer,1131680,confidence_buffer,,null,,,,,,,,,,,,,,,,,,
null,,thebreak,1132181,break,,null,,,,,,,,,,,,,,,,,,
7632.299999982119,,pt2_realistic_rating,1139814,Fictional_Cities_List/img_manmade_15.png,,50,Fictional_Cities_List/img_manmade_15.png,MM,2,,,,,,,,,,,,,,,
null,,confidence_buffer,1139916,confidence_buffer,,null,,,,,,,,,,,,,,,,,,
12570.90000000596,,pt2_unique_rating,1152488,Fictional_Cities_List/img_manmade_15.png,,53,,,5,,,,,,,,,,,,,,,
null,,confidence_buffer,1152589,confidence_buffer,,null,,,,,,,,,,,,,,,,,,
1046.0999999940395,,pt2_memorable_rating,1153636,Fictional_Cities_List/img_manmade_15.png,,53,,,5,,,,,,,,,,,,,,,
null,,confidence_buffer,1153737,confidence_buffer,,null,,,,,,,,,,,,,,,,,,
5450.799999982119,,recognition_phase,1159189,Fictional_Cities_List/img_manmade_15.png,,52,,,,,,new,1,1,,,,,,,,,,
null,,confidence_buffer,1159292,confidence_buffer,,null,,,,,,,,,,,,,,,,,,
null,,thebreak,1159794,break,,null,,,,,,,,,,,,,,,,,,
2377.699999988079,,pt2_realistic_rating,1162173,Fictional_Cities_List/img_natural_46.png,,53,Fictional_Cities_List/img_natural_46.png,NAT,5,,,,,,,,,,,,,,,
null,,confidence_buffer,1162275,confidence_buffer,,null,,,,,,,,,,,,,,,,,,
1603.4000000059605,,pt2_unique_rating,1163879,Fictional_Cities_List/img_natural_46.png,,52,,,4,,,,,,,,,,,,,,,
null,,confidence_buffer,1163981,confidence_buffer,,null,,,,,,,,,,,,,,,,,,
1757.300000011921,,pt2_memorable_rating,1165739,Fictional_Cities_List/img_natural_46.png,,52,,,4,,,,,,,,,,,,,,,
null,,confidence_buffer,1165840,confidence_buffer,,null,,,,,,,,,,,,,,,,,,
1408.5,,recognition_phase,1167250,Fictional_Cities_List/img_natural_46.png,,49,,,,,,old,1,1,,,,,,,,,,
null,,confidence_buffer,1167351,confidence_buffer,,null,,,,,,,,,,,,,,,,,,
null,,thebreak,1167853,break,,null,,,,,,,,,,,,,,,,,,
7757.699999988079,,pt2_realistic_rating,1175611,Fictional_Cities_List/img_natural_35.png,,53,Fictional_Cities_List/img_natural_35.png,NAT,5,,,,,,,,,,,,,,,
null,,confidence_buffer,1175712,confidence_buffer,,null,,,,,,,,,,,,,,,,,,
1743.4000000059605,,pt2_unique_rating,1177457,Fictional_Cities_List/img_natural_35.png,,52,,,4,,,,,,,,,,,,,,,
null,,confidence_buffer,1177559,confidence_buffer,,null,,,,,,,,,,,,,,,,,,
3779.5999999940395,,pt2_memorable_rating,1181339,Fictional_Cities_List/img_natural_35.png,,51,,,3,,,,,,,,,,,,,,,
null,,confidence_buffer,1181441,confidence_buffer,,null,,,,,,,,,,,,,,,,,,
3715.7000000178814,,recognition_phase,1185159,Fictional_Cities_List/img_natural_35.png,,52,,,,,,new,1,1,,,,,,,,,,
null,,confidence_buffer,1185260,confidence_buffer,,null,,,,,,,,,,,,,,,,,,
null,,thebreak,1185762,break,,null,,,,,,,,,,,,,,,,,,
4108.100000023842,,pt2_realistic_rating,1189871,Fictional_Cities_List/img_manmade_40.png,,52,Fictional_Cities_List/img_manmade_40.png,MM,4,,,,,,,,,,,,,,,
null,,confidence_buffer,1189972,confidence_buffer,,null,,,,,,,,,,,,,,,,,,
1779.0999999940395,,pt2_unique_rating,1191753,Fictional_Cities_List/img_manmade_40.png,,53,,,5,,,,,,,,,,,,,,,
null,,confidence_buffer,1191855,confidence_buffer,,null,,,,,,,,,,,,,,,,,,
1680.199999988079,,pt2_memorable_rating,1193536,Fictional_Cities_List/img_manmade_40.png,,53,,,5,,,,,,,,,,,,,,,
null,,confidence_buffer,1193638,confidence_buffer,,null,,,,,,,,,,,,,,,,,,
2392.300000011921,,probe_rating,1196032,probe_rating,,49,,,,1,1,,,,,,,,,,,,,
null,,confidence_buffer,1196133,confidence_buffer,,null,,,,,,,,,,,,,,,,,,
2099.4000000059605,,recognition_phase,1198234,Fictional_Cities_List/img_manmade_40.png,,49,,,,,,old,1,1,,,,,,,,,,
null,,confidence_buffer,1198336,confidence_buffer,,null,,,,,,,,,,,,,,,,,,
null,,thebreak,1198837,break,,null,,,,,,,,,,,,,,,,,,
4432.699999988079,,pt2_realistic_rating,1203271,US_Cities_List/mm_boulder.png,,53,US_Cities_List/mm_boulder.png,MM,5,,,,,,,,,,,,,,,
null,,confidence_buffer,1203372,confidence_buffer,,null,,,,,,,,,,,,,,,,,,
3543.199999988079,,pt2_unique_rating,1206916,US_Cities_List/mm_boulder.png,,53,,,5,,,,,,,,,,,,,,,
null,,confidence_buffer,1207018,confidence_buffer,,null,,,,,,,,,,,,,,,,,,
1925.7999999821186,,pt2_memorable_rating,1208944,US_Cities_List/mm_boulder.png,,53,,,5,,,,,,,,,,,,,,,
null,,confidence_buffer,1209046,confidence_buffer,,null,,,,,,,,,,,,,,,,,,
1583,,recognition_phase,1210630,US_Cities_List/mm_boulder.png,,52,,,,,,new,1,1,,,,,,,,,,
null,,confidence_buffer,1210733,confidence_buffer,,null,,,,,,,,,,,,,,,,,,
null,,thebreak,1211235,break,,null,,,,,,,,,,,,,,,,,,
4986.199999988079,,pt2_realistic_rating,1216222,US_Cities_List/mm_carmel.png,,53,US_Cities_List/mm_carmel.png,MM,5,,,,,,,,,,,,,,,
null,,confidence_buffer,1216323,confidence_buffer,,null,,,,,,,,,,,,,,,,,,
1649,,pt2_unique_rating,1217973,US_Cities_List/mm_carmel.png,,53,,,5,,,,,,,,,,,,,,,
null,,confidence_buffer,1218074,confidence_buffer,,null,,,,,,,,,,,,,,,,,,
1944.699999988079,,pt2_memorable_rating,1220020,US_Cities_List/mm_carmel.png,,52,,,4,,,,,,,,,,,,,,,
null,,confidence_buffer,1220122,confidence_buffer,,null,,,,,,,,,,,,,,,,,,
2450.4000000059605,,recognition_phase,1222574,US_Cities_List/mm_carmel.png,,52,,,,,,new,1,1,,,,,,,,,,
null,,confidence_buffer,1222675,confidence_buffer,,null,,,,,,,,,,,,,,,,,,
null,,thebreak,1223176,break,,null,,,,,,,,,,,,,,,,,,
2090.5999999940395,,pt2_realistic_rating,1225268,US_Cities_List/nat_okoboji.png,,53,US_Cities_List/nat_okoboji.png,NAT,5,,,,,,,,,,,,,,,
null,,confidence_buffer,1225369,confidence_buffer,,null,,,,,,,,,,,,,,,,,,
1711,,pt2_unique_rating,1227081,US_Cities_List/nat_okoboji.png,,49,,,1,,,,,,,,,,,,,,,
null,,confidence_buffer,1227183,confidence_buffer,,null,,,,,,,,,,,,,,,,,,
1871.800000011921,,pt2_memorable_rating,1229056,US_Cities_List/nat_okoboji.png,,49,,,1,,,,,,,,,,,,,,,
null,,confidence_buffer,1229159,confidence_buffer,,null,,,,,,,,,,,,,,,,,,
1671.2000000178814,,recognition_phase,1230831,US_Cities_List/nat_okoboji.png,,49,,,,,,old,1,1,,,,,,,,,,
null,,confidence_buffer,1230934,confidence_buffer,,null,,,,,,,,,,,,,,,,,,
null,,thebreak,1231437,break,,null,,,,,,,,,,,,,,,,,,
3126.5999999940395,,pt2_realistic_rating,1234564,Fictional_Cities_List/img_manmade_35.png,,50,Fictional_Cities_List/img_manmade_35.png,MM,2,,,,,,,,,,,,,,,
null,,confidence_buffer,1234666,confidence_buffer,,null,,,,,,,,,,,,,,,,,,
1401.699999988079,,pt2_unique_rating,1236069,Fictional_Cities_List/img_manmade_35.png,,53,,,5,,,,,,,,,,,,,,,
null,,confidence_buffer,1236171,confidence_buffer,,null,,,,,,,,,,,,,,,,,,
1550.5999999940395,,pt2_memorable_rating,1237723,Fictional_Cities_List/img_manmade_35.png,,53,,,5,,,,,,,,,,,,,,,
null,,confidence_buffer,1237824,confidence_buffer,,null,,,,,,,,,,,,,,,,,,
2555.199999988079,,probe_rating,1240381,probe_rating,,51,,,,3,1,,,,,,,,,,,,,
null,,confidence_buffer,1240482,confidence_buffer,,null,,,,,,,,,,,,,,,,,,
3095.5999999940395,,recognition_phase,1243580,Fictional_Cities_List/img_manmade_35.png,,49,,,,,,old,1,1,,,,,,,,,,
null,,confidence_buffer,1243682,confidence_buffer,,null,,,,,,,,,,,,,,,,,,
null,,thebreak,1244183,break,,null,,,,,,,,,,,,,,,,,,
3887.5,,pt2_realistic_rating,1248072,Fictional_Cities_List/img_natural_23.png,,51,Fictional_Cities_List/img_natural_23.png,NAT,3,,,,,,,,,,,,,,,
null,,confidence_buffer,1248174,confidence_buffer,,null,,,,,,,,,,,,,,,,,,
1625.199999988079,,pt2_unique_rating,1249800,Fictional_Cities_List/img_natural_23.png,,53,,,5,,,,,,,,,,,,,,,
null,,confidence_buffer,1249902,confidence_buffer,,null,,,,,,,,,,,,,,,,,,
1238.0999999940395,,pt2_memorable_rating,1251141,Fictional_Cities_List/img_natural_23.png,,52,,,4,,,,,,,,,,,,,,,
null,,confidence_buffer,1251245,confidence_buffer,,null,,,,,,,,,,,,,,,,,,
2896.199999988079,,recognition_phase,1254142,Fictional_Cities_List/img_natural_23.png,,49,,,,,,old,1,1,,,,,,,,,,
null,,confidence_buffer,1254244,confidence_buffer,,null,,,,,,,,,,,,,,,,,,
null,,thebreak,1254745,break,,null,,,,,,,,,,,,,,,,,,
2099.300000011921,,pt2_realistic_rating,1256845,Fictional_Cities_List/img_natural_49.png,,53,Fictional_Cities_List/img_natural_49.png,NAT,5,,,,,,,,,,,,,,,
null,,confidence_buffer,1256948,confidence_buffer,,null,,,,,,,,,,,,,,,,,,
3723.199999988079,,pt2_unique_rating,1260672,Fictional_Cities_List/img_natural_49.png,,51,,,3,,,,,,,,,,,,,,,
null,,confidence_buffer,1260774,confidence_buffer,,null,,,,,,,,,,,,,,,,,,
1463.5999999940395,,pt2_memorable_rating,1262239,Fictional_Cities_List/img_natural_49.png,,52,,,4,,,,,,,,,,,,,,,
null,,confidence_buffer,1262341,confidence_buffer,,null,,,,,,,,,,,,,,,,,,
1666.9000000059605,,recognition_phase,1264009,Fictional_Cities_List/img_natural_49.png,,49,,,,,,old,1,1,,,,,,,,,,
null,,confidence_buffer,1264111,confidence_buffer,,null,,,,,,,,,,,,,,,,,,
null,,thebreak,1264613,break,,null,,,,,,,,,,,,,,,,,,
3308.300000011921,,pt2_realistic_rating,1267922,Fictional_Cities_List/img_manmade_46.png,,52,Fictional_Cities_List/img_manmade_46.png,MM,4,,,,,,,,,,,,,,,
null,,confidence_buffer,1268023,confidence_buffer,,null,,,,,,,,,,,,,,,,,,
3961.4000000059605,,pt2_unique_rating,1271986,Fictional_Cities_List/img_manmade_46.png,,51,,,3,,,,,,,,,,,,,,,
null,,confidence_buffer,1272088,confidence_buffer,,null,,,,,,,,,,,,,,,,,,
1591.4000000059605,,probe_rating,1273681,probe_rating,,51,,,,3,1,,,,,,,,,,,,,
null,,confidence_buffer,1273783,confidence_buffer,,null,,,,,,,,,,,,,,,,,,
3643.2999999821186,,pt2_memorable_rating,1277427,Fictional_Cities_List/img_manmade_46.png,,51,,,3,,,,,,,,,,,,,,,
null,,confidence_buffer,1277531,confidence_buffer,,null,,,,,,,,,,,,,,,,,,
2970,,recognition_phase,1280502,Fictional_Cities_List/img_manmade_46.png,,52,,,,,,new,1,1,,,,,,,,,,
null,,confidence_buffer,1280603,confidence_buffer,,null,,,,,,,,,,,,,,,,,,
null,,thebreak,1281105,break,,null,,,,,,,,,,,,,,,,,,
7138.100000023842,,pt2_realistic_rating,1288245,US_Cities_List/nat_bisbee.png,,51,US_Cities_List/nat_bisbee.png,NAT,3,,,,,,,,,,,,,,,
null,,confidence_buffer,1288349,confidence_buffer,,null,,,,,,,,,,,,,,,,,,
3271.2000000178814,,pt2_unique_rating,1291621,US_Cities_List/nat_bisbee.png,,52,,,4,,,,,,,,,,,,,,,
null,,confidence_buffer,1291724,confidence_buffer,,null,,,,,,,,,,,,,,,,,,
1998.300000011921,,pt2_memorable_rating,1293723,US_Cities_List/nat_bisbee.png,,50,,,2,,,,,,,,,,,,,,,
null,,confidence_buffer,1293825,confidence_buffer,,null,,,,,,,,,,,,,,,,,,
2236.9000000059605,,recognition_phase,1296063,US_Cities_List/nat_bisbee.png,,52,,,,,,new,1,1,,,,,,,,,,
null,,confidence_buffer,1296165,confidence_buffer,,null,,,,,,,,,,,,,,,,,,
null,,thebreak,1296666,break,,null,,,,,,,,,,,,,,,,,,
3010,,pt2_realistic_rating,1299677,Fictional_Cities_List/img_natural_15.png,,49,Fictional_Cities_List/img_natural_15.png,NAT,1,,,,,,,,,,,,,,,
null,,confidence_buffer,1299780,confidence_buffer,,null,,,,,,,,,,,,,,,,,,
2433.4000000059605,,pt2_unique_rating,1302214,Fictional_Cities_List/img_natural_15.png,,53,,,5,,,,,,,,,,,,,,,
null,,confidence_buffer,1302315,confidence_buffer,,null,,,,,,,,,,,,,,,,,,
1049.4000000059605,,pt2_memorable_rating,1303366,Fictional_Cities_List/img_natural_15.png,,53,,,5,,,,,,,,,,,,,,,
null,,confidence_buffer,1303467,confidence_buffer,,null,,,,,,,,,,,,,,,,,,
1261.0999999940395,,recognition_phase,1304729,Fictional_Cities_List/img_natural_15.png,,49,,,,,,old,1,1,,,,,,,,,,
null,,confidence_buffer,1304831,confidence_buffer,,null,,,,,,,,,,,,,,,,,,
null,,thebreak,1305333,break,,null,,,,,,,,,,,,,,,,,,
3385.9000000059605,,pt2_realistic_rating,1308720,Fictional_Cities_List/img_natural_16.png,,52,Fictional_Cities_List/img_natural_16.png,NAT,4,,,,,,,,,,,,,,,
null,,confidence_buffer,1308822,confidence_buffer,,null,,,,,,,,,,,,,,,,,,
2364.7999999821186,,pt2_unique_rating,1311188,Fictional_Cities_List/img_natural_16.png,,52,,,4,,,,,,,,,,,,,,,
null,,confidence_buffer,1311295,confidence_buffer,,null,,,,,,,,,,,,,,,,,,
1542,,pt2_memorable_rating,1312839,Fictional_Cities_List/img_natural_16.png,,53,,,5,,,,,,,,,,,,,,,
null,,confidence_buffer,1312940,confidence_buffer,,null,,,,,,,,,,,,,,,,,,
3683.0999999940395,,recognition_phase,1316624,Fictional_Cities_List/img_natural_16.png,,49,,,,,,old,1,1,,,,,,,,,,
null,,confidence_buffer,1316727,confidence_buffer,,null,,,,,,,,,,,,,,,,,,
null,,thebreak,1317229,break,,null,,,,,,,,,,,,,,,,,,
3951.0999999940395,,pt2_realistic_rating,1321181,US_Cities_List/nat_hilo.png,,52,US_Cities_List/nat_hilo.png,NAT,4,,,,,,,,,,,,,,,
null,,confidence_buffer,1321283,confidence_buffer,,null,,,,,,,,,,,,,,,,,,
1739.7999999821186,,pt2_unique_rating,1323024,US_Cities_List/nat_hilo.png,,53,,,5,,,,,,,,,,,,,,,
null,,confidence_buffer,1323125,confidence_buffer,,null,,,,,,,,,,,,,,,,,,
2920.2999999821186,,pt2_memorable_rating,1326047,US_Cities_List/nat_hilo.png,,53,,,5,,,,,,,,,,,,,,,
null,,confidence_buffer,1326158,confidence_buffer,,null,,,,,,,,,,,,,,,,,,
2278,,recognition_phase,1328438,US_Cities_List/nat_hilo.png,,52,,,,,,new,1,1,,,,,,,,,,
null,,confidence_buffer,1328539,confidence_buffer,,null,,,,,,,,,,,,,,,,,,
null,,thebreak,1329041,break,,null,,,,,,,,,,,,,,,,,,
4530.9000000059605,,pt2_realistic_rating,1333573,US_Cities_List/mm_sitka.png,,53,US_Cities_List/mm_sitka.png,MM,5,,,,,,,,,,,,,,,
null,,confidence_buffer,1333675,confidence_buffer,,null,,,,,,,,,,,,,,,,,,
2477.300000011921,,pt2_unique_rating,1336154,US_Cities_List/mm_sitka.png,,52,,,4,,,,,,,,,,,,,,,
null,,confidence_buffer,1336256,confidence_buffer,,null,,,,,,,,,,,,,,,,,,
2061.800000011921,,pt2_memorable_rating,1338319,US_Cities_List/mm_sitka.png,,52,,,4,,,,,,,,,,,,,,,
null,,confidence_buffer,1338420,confidence_buffer,,null,,,,,,,,,,,,,,,,,,
1270.300000011921,,probe_rating,1339692,probe_rating,,52,,,,4,1,,,,,,,,,,,,,
null,,confidence_buffer,1339794,confidence_buffer,,null,,,,,,,,,,,,,,,,,,
1994.300000011921,,recognition_phase,1341790,US_Cities_List/mm_sitka.png,,52,,,,,,new,1,1,,,,,,,,,,
null,,confidence_buffer,1341892,confidence_buffer,,null,,,,,,,,,,,,,,,,,,
null,,thebreak,1342394,break,,null,,,,,,,,,,,,,,,,,,
2231.5,,pt2_realistic_rating,1344627,US_Cities_List/mm_coeurdalene.png,,53,US_Cities_List/mm_coeurdalene.png,MM,5,,,,,,,,,,,,,,,
null,,confidence_buffer,1344729,confidence_buffer,,null,,,,,,,,,,,,,,,,,,
2022.4000000059605,,pt2_unique_rating,1346753,US_Cities_List/mm_coeurdalene.png,,51,,,3,,,,,,,,,,,,,,,
null,,confidence_buffer,1346855,confidence_buffer,,null,,,,,,,,,,,,,,,,,,
1899.800000011921,,pt2_memorable_rating,1348756,US_Cities_List/mm_coeurdalene.png,,52,,,4,,,,,,,,,,,,,,,
null,,confidence_buffer,1348857,confidence_buffer,,null,,,,,,,,,,,,,,,,,,
3099,,recognition_phase,1351957,US_Cities_List/mm_coeurdalene.png,,49,,,,,,old,1,1,,,,,,,,,,
null,,confidence_buffer,1352059,confidence_buffer,,null,,,,,,,,,,,,,,,,,,
null,,thebreak,1352560,break,,null,,,,,,,,,,,,,,,,,,
20201.5,,pt2_realistic_rating,1372763,Fictional_Cities_List/img_manmade_28.png,,51,Fictional_Cities_List/img_manmade_28.png,MM,3,,,,,,,,,,,,,,,
null,,confidence_buffer,1372866,confidence_buffer,,null,,,,,,,,,,,,,,,,,,
5656.300000011921,,pt2_unique_rating,1378523,Fictional_Cities_List/img_manmade_28.png,,51,,,3,,,,,,,,,,,,,,,
null,,confidence_buffer,1378626,confidence_buffer,,null,,,,,,,,,,,,,,,,,,
1187,,pt2_memorable_rating,1379814,Fictional_Cities_List/img_manmade_28.png,,50,,,2,,,,,,,,,,,,,,,
null,,confidence_buffer,1379915,confidence_buffer,,null,,,,,,,,,,,,,,,,,,
4253.300000011921,,recognition_phase,1384170,Fictional_Cities_List/img_manmade_28.png,,51,,,,,,new,1,1,,,,,,,,,,
null,,confidence_buffer,1384271,confidence_buffer,,null,,,,,,,,,,,,,,,,,,
null,,thebreak,1384773,break,,null,,,,,,,,,,,,,,,,,,
7057.300000011921,,pt2_realistic_rating,1391832,Fictional_Cities_List/img_manmade_19.png,,53,Fictional_Cities_List/img_manmade_19.png,MM,5,,,,,,,,,,,,,,,
null,,confidence_buffer,1391934,confidence_buffer,,null,,,,,,,,,,,,,,,,,,
2850.9000000059605,,pt2_unique_rating,1394786,Fictional_Cities_List/img_manmade_19.png,,51,,,3,,,,,,,,,,,,,,,
null,,confidence_buffer,1394888,confidence_buffer,,null,,,,,,,,,,,,,,,,,,
2443.9000000059605,,pt2_memorable_rating,1397333,Fictional_Cities_List/img_manmade_19.png,,52,,,4,,,,,,,,,,,,,,,
null,,confidence_buffer,1397435,confidence_buffer,,null,,,,,,,,,,,,,,,,,,
2961.300000011921,,recognition_phase,1400398,Fictional_Cities_List/img_manmade_19.png,,52,,,,,,new,1,1,,,,,,,,,,
null,,confidence_buffer,1400500,confidence_buffer,,null,,,,,,,,,,,,,,,,,,
null,,thebreak,1401001,break,,null,,,,,,,,,,,,,,,,,,
10005.5,,pt2_realistic_rating,1411008,US_Cities_List/nat_boulder.png,,52,US_Cities_List/nat_boulder.png,NAT,4,,,,,,,,,,,,,,,
null,,confidence_buffer,1411109,confidence_buffer,,null,,,,,,,,,,,,,,,,,,
3356.2000000178814,,pt2_unique_rating,1414467,US_Cities_List/nat_boulder.png,,53,,,5,,,,,,,,,,,,,,,
null,,confidence_buffer,1414569,confidence_buffer,,null,,,,,,,,,,,,,,,,,,
1426,,pt2_memorable_rating,1415996,US_Cities_List/nat_boulder.png,,53,,,5,,,,,,,,,,,,,,,
null,,confidence_buffer,1416097,confidence_buffer,,null,,,,,,,,,,,,,,,,,,
1550.5999999940395,,recognition_phase,1417649,US_Cities_List/nat_boulder.png,,49,,,,,,old,1,1,,,,,,,,,,
null,,confidence_buffer,1417752,confidence_buffer,,null,,,,,,,,,,,,,,,,,,
null,,thebreak,1418254,break,,null,,,,,,,,,,,,,,,,,,
3719.699999988079,,pt2_realistic_rating,1421975,US_Cities_List/mm_westpalmbeach.png,,52,US_Cities_List/mm_westpalmbeach.png,MM,4,,,,,,,,,,,,,,,
null,,confidence_buffer,1422077,confidence_buffer,,null,,,,,,,,,,,,,,,,,,
1870,,pt2_unique_rating,1423948,US_Cities_List/mm_westpalmbeach.png,,52,,,4,,,,,,,,,,,,,,,
null,,confidence_buffer,1424050,confidence_buffer,,null,,,,,,,,,,,,,,,,,,
2944.100000023842,,pt2_memorable_rating,1426995,US_Cities_List/mm_westpalmbeach.png,,53,,,5,,,,,,,,,,,,,,,
null,,confidence_buffer,1427096,confidence_buffer,,null,,,,,,,,,,,,,,,,,,
1274.9000000059605,,recognition_phase,1428372,US_Cities_List/mm_westpalmbeach.png,,50,,,,,,old,1,1,,,,,,,,,,
null,,confidence_buffer,1428474,confidence_buffer,,null,,,,,,,,,,,,,,,,,,
null,,thebreak,1428977,break,,null,,,,,,,,,,,,,,,,,,
5569.4000000059605,,pt2_realistic_rating,1434547,US_Cities_List/nat_sitka.png,,53,US_Cities_List/nat_sitka.png,NAT,5,,,,,,,,,,,,,,,
null,,confidence_buffer,1434660,confidence_buffer,,null,,,,,,,,,,,,,,,,,,
2827.699999988079,,pt2_unique_rating,1437489,US_Cities_List/nat_sitka.png,,50,,,2,,,,,,,,,,,,,,,
null,,confidence_buffer,1437591,confidence_buffer,,null,,,,,,,,,,,,,,,,,,
2118.5,,pt2_memorable_rating,1439710,US_Cities_List/nat_sitka.png,,50,,,2,,,,,,,,,,,,,,,
null,,confidence_buffer,1439812,confidence_buffer,,null,,,,,,,,,,,,,,,,,,
1007.6999999880791,,recognition_phase,1440821,US_Cities_List/nat_sitka.png,,49,,,,,,old,1,1,,,,,,,,,,
null,,confidence_buffer,1440923,confidence_buffer,,null,,,,,,,,,,,,,,,,,,
null,,thebreak,1441425,break,,null,,,,,,,,,,,,,,,,,,
6839.199999988079,,pt2_realistic_rating,1448266,US_Cities_List/mm_cornwall.png,,51,US_Cities_List/mm_cornwall.png,MM,3,,,,,,,,,,,,,,,
null,,confidence_buffer,1448368,confidence_buffer,,null,,,,,,,,,,,,,,,,,,
2536.7999999821186,,pt2_unique_rating,1450906,US_Cities_List/mm_cornwall.png,,53,,,5,,,,,,,,,,,,,,,
null,,confidence_buffer,1451007,confidence_buffer,,null,,,,,,,,,,,,,,,,,,
2760.9000000059605,,pt2_memorable_rating,1453769,US_Cities_List/mm_cornwall.png,,51,,,3,,,,,,,,,,,,,,,
null,,confidence_buffer,1453872,confidence_buffer,,null,,,,,,,,,,,,,,,,,,
1972.0999999940395,,recognition_phase,1455845,US_Cities_List/mm_cornwall.png,,52,,,,,,new,1,1,,,,,,,,,,
null,,confidence_buffer,1455946,confidence_buffer,,null,,,,,,,,,,,,,,,,,,
null,,thebreak,1456449,break,,null,,,,,,,,,,,,,,,,,,
3693.7999999821186,,pt2_realistic_rating,1460144,US_Cities_List/mm_hotsprings.png,,53,US_Cities_List/mm_hotsprings.png,MM,5,,,,,,,,,,,,,,,
null,,confidence_buffer,1460245,confidence_buffer,,null,,,,,,,,,,,,,,,,,,
1813.699999988079,,probe_rating,1462060,probe_rating,,52,,,,4,1,,,,,,,,,,,,,
null,,confidence_buffer,1462163,confidence_buffer,,null,,,,,,,,,,,,,,,,,,
4554,,pt2_unique_rating,1466718,US_Cities_List/mm_hotsprings.png,,51,,,3,,,,,,,,,,,,,,,
null,,confidence_buffer,1466831,confidence_buffer,,null,,,,,,,,,,,,,,,,,,
1574.199999988079,,pt2_memorable_rating,1468406,US_Cities_List/mm_hotsprings.png,,52,,,4,,,,,,,,,,,,,,,
null,,confidence_buffer,1468510,confidence_buffer,,null,,,,,,,,,,,,,,,,,,
1915.9000000059605,,recognition_phase,1470428,US_Cities_List/mm_hotsprings.png,,49,,,,,,old,1,1,,,,,,,,,,
null,,confidence_buffer,1470530,confidence_buffer,,null,,,,,,,,,,,,,,,,,,
null,,thebreak,1471031,break,,null,,,,,,,,,,,,,,,,,,
6380.300000011921,,pt2_realistic_rating,1477412,US_Cities_List/nat_westpalmbeach.png,,51,US_Cities_List/nat_westpalmbeach.png,NAT,3,,,,,,,,,,,,,,,
null,,confidence_buffer,1477514,confidence_buffer,,null,,,,,,,,,,,,,,,,,,
2361.7000000178814,,pt2_unique_rating,1479877,US_Cities_List/nat_westpalmbeach.png,,53,,,5,,,,,,,,,,,,,,,
null,,confidence_buffer,1479979,confidence_buffer,,null,,,,,,,,,,,,,,,,,,
971.6999999880791,,pt2_memorable_rating,1480952,US_Cities_List/nat_westpalmbeach.png,,52,,,4,,,,,,,,,,,,,,,
null,,confidence_buffer,1481055,confidence_buffer,,null,,,,,,,,,,,,,,,,,,
1500.800000011921,,recognition_phase,1482557,US_Cities_List/nat_westpalmbeach.png,,52,,,,,,new,1,1,,,,,,,,,,
null,,confidence_buffer,1482659,confidence_buffer,,null,,,,,,,,,,,,,,,,,,
null,,thebreak,1483165,break,,null,,,,,,,,,,,,,,,,,,
3185.5999999940395,,pt2_realistic_rating,1486352,US_Cities_List/nat_healdsburg.png,,53,US_Cities_List/nat_healdsburg.png,NAT,5,,,,,,,,,,,,,,,
null,,confidence_buffer,1486454,confidence_buffer,,null,,,,,,,,,,,,,,,,,,
1324.7000000178814,,pt2_unique_rating,1487779,US_Cities_List/nat_healdsburg.png,,49,,,1,,,,,,,,,,,,,,,
null,,confidence_buffer,1487882,confidence_buffer,,null,,,,,,,,,,,,,,,,,,
1228.800000011921,,pt2_memorable_rating,1489111,US_Cities_List/nat_healdsburg.png,,49,,,1,,,,,,,,,,,,,,,
null,,confidence_buffer,1489213,confidence_buffer,,null,,,,,,,,,,,,,,,,,,
1347.9000000059605,,recognition_phase,1490563,US_Cities_List/nat_healdsburg.png,,49,,,,,,old,1,1,,,,,,,,,,
null,,confidence_buffer,1490665,confidence_buffer,,null,,,,,,,,,,,,,,,,,,
null,,thebreak,1491167,break,,null,,,,,,,,,,,,,,,,,,
3422,,pt2_realistic_rating,1494590,US_Cities_List/mm_abilene.png,,52,US_Cities_List/mm_abilene.png,MM,4,,,,,,,,,,,,,,,
null,,confidence_buffer,1494692,confidence_buffer,,null,,,,,,,,,,,,,,,,,,
1453.5999999940395,,pt2_unique_rating,1496146,US_Cities_List/mm_abilene.png,,53,,,5,,,,,,,,,,,,,,,
null,,confidence_buffer,1496248,confidence_buffer,,null,,,,,,,,,,,,,,,,,,
1479.4000000059605,,pt2_memorable_rating,1497728,US_Cities_List/mm_abilene.png,,53,,,5,,,,,,,,,,,,,,,
null,,confidence_buffer,1497830,confidence_buffer,,null,,,,,,,,,,,,,,,,,,
1703.699999988079,,probe_rating,1499535,probe_rating,,50,,,,2,1,,,,,,,,,,,,,
null,,confidence_buffer,1499636,confidence_buffer,,null,,,,,,,,,,,,,,,,,,
1806,,recognition_phase,1501444,US_Cities_List/mm_abilene.png,,49,,,,,,old,1,1,,,,,,,,,,
null,,confidence_buffer,1501545,confidence_buffer,,null,,,,,,,,,,,,,,,,,,
null,,thebreak,1502055,break,,null,,,,,,,,,,,,,,,,,,
4110.299999982119,,pt2_realistic_rating,1506166,US_Cities_List/nat_peoria.png,,53,US_Cities_List/nat_peoria.png,NAT,5,,,,,,,,,,,,,,,
null,,confidence_buffer,1506268,confidence_buffer,,null,,,,,,,,,,,,,,,,,,
1589.7000000178814,,probe_rating,1507859,probe_rating,,49,,,,1,1,,,,,,,,,,,,,
null,,confidence_buffer,1507962,confidence_buffer,,null,,,,,,,,,,,,,,,,,,
2127.5,,pt2_unique_rating,1510090,US_Cities_List/nat_peoria.png,,49,,,1,,,,,,,,,,,,,,,
null,,confidence_buffer,1510192,confidence_buffer,,null,,,,,,,,,,,,,,,,,,
1903,,pt2_memorable_rating,1512096,US_Cities_List/nat_peoria.png,,49,,,1,,,,,,,,,,,,,,,
null,,confidence_buffer,1512198,confidence_buffer,,null,,,,,,,,,,,,,,,,,,
2004.199999988079,,recognition_phase,1514204,US_Cities_List/nat_peoria.png,,49,,,,,,old,1,1,,,,,,,,,,
null,,confidence_buffer,1514305,confidence_buffer,,null,,,,,,,,,,,,,,,,,,
null,,thebreak,1514807,break,,null,,,,,,,,,,,,,,,,,,
6373.300000011921,,pt2_realistic_rating,1521181,Fictional_Cities_List/img_manmade_22.png,,49,Fictional_Cities_List/img_manmade_22.png,MM,1,,,,,,,,,,,,,,,
null,,confidence_buffer,1521283,confidence_buffer,,null,,,,,,,,,,,,,,,,,,
2402.300000011921,,pt2_unique_rating,1523686,Fictional_Cities_List/img_manmade_22.png,,53,,,5,,,,,,,,,,,,,,,
null,,confidence_buffer,1523788,confidence_buffer,,null,,,,,,,,,,,,,,,,,,
1581.3999999761581,,pt2_memorable_rating,1525371,Fictional_Cities_List/img_manmade_22.png,,53,,,5,,,,,,,,,,,,,,,
null,,confidence_buffer,1525473,confidence_buffer,,null,,,,,,,,,,,,,,,,,,
2629.9000000059605,,recognition_phase,1528104,Fictional_Cities_List/img_manmade_22.png,,52,,,,,,new,1,1,,,,,,,,,,
null,,confidence_buffer,1528205,confidence_buffer,,null,,,,,,,,,,,,,,,,,,
null,,thebreak,1528707,break,,null,,,,,,,,,,,,,,,,,,
8338,,pt2_realistic_rating,1537046,Fictional_Cities_List/img_manmade_24.png,,53,Fictional_Cities_List/img_manmade_24.png,MM,5,,,,,,,,,,,,,,,
null,,confidence_buffer,1537149,confidence_buffer,,null,,,,,,,,,,,,,,,,,,
2419.5999999940395,,pt2_unique_rating,1539570,Fictional_Cities_List/img_manmade_24.png,,52,,,4,,,,,,,,,,,,,,,
null,,confidence_buffer,1539672,confidence_buffer,,null,,,,,,,,,,,,,,,,,,
5415.799999982119,,pt2_memorable_rating,1545090,Fictional_Cities_List/img_manmade_24.png,,52,,,4,,,,,,,,,,,,,,,
null,,confidence_buffer,1545192,confidence_buffer,,null,,,,,,,,,,,,,,,,,,
4132.0999999940395,,recognition_phase,1549325,Fictional_Cities_List/img_manmade_24.png,,52,,,,,,new,1,1,,,,,,,,,,
null,,confidence_buffer,1549426,confidence_buffer,,null,,,,,,,,,,,,,,,,,,
null,,thebreak,1549928,break,,null,,,,,,,,,,,,,,,,,,
2802,,pt2_realistic_rating,1552731,Fictional_Cities_List/img_manmade_18.png,,53,Fictional_Cities_List/img_manmade_18.png,MM,5,,,,,,,,,,,,,,,
null,,confidence_buffer,1552833,confidence_buffer,,null,,,,,,,,,,,,,,,,,,
2846.2999999821186,,pt2_unique_rating,1555681,Fictional_Cities_List/img_manmade_18.png,,51,,,3,,,,,,,,,,,,,,,
null,,confidence_buffer,1555783,confidence_buffer,,null,,,,,,,,,,,,,,,,,,
3072.2999999821186,,pt2_memorable_rating,1558856,Fictional_Cities_List/img_manmade_18.png,,52,,,4,,,,,,,,,,,,,,,
null,,confidence_buffer,1558958,confidence_buffer,,null,,,,,,,,,,,,,,,,,,
1547.699999988079,,recognition_phase,1560507,Fictional_Cities_List/img_manmade_18.png,,49,,,,,,old,1,1,,,,,,,,,,
null,,confidence_buffer,1560610,confidence_buffer,,null,,,,,,,,,,,,,,,,,,
null,,thebreak,1561111,break,,null,,,,,,,,,,,,,,,,,,
2246.300000011921,,pt2_realistic_rating,1563359,US_Cities_List/mm_bisbee.png,,53,US_Cities_List/mm_bisbee.png,MM,5,,,,,,,,,,,,,,,
null,,confidence_buffer,1563460,confidence_buffer,,null,,,,,,,,,,,,,,,,,,
1497.300000011921,,pt2_unique_rating,1564959,US_Cities_List/mm_bisbee.png,,50,,,2,,,,,,,,,,,,,,,
null,,confidence_buffer,1565061,confidence_buffer,,null,,,,,,,,,,,,,,,,,,
1913.5,,pt2_memorable_rating,1566975,US_Cities_List/mm_bisbee.png,,51,,,3,,,,,,,,,,,,,,,
null,,confidence_buffer,1567078,confidence_buffer,,null,,,,,,,,,,,,,,,,,,
2718.9000000059605,,recognition_phase,1569798,US_Cities_List/mm_bisbee.png,,49,,,,,,old,1,1,,,,,,,,,,
null,,confidence_buffer,1569900,confidence_buffer,,null,,,,,,,,,,,,,,,,,,
null,,thebreak,1570402,break,,null,,,,,,,,,,,,,,,,,,
2128.0999999940395,,pt2_realistic_rating,1572531,Fictional_Cities_List/img_manmade_16.png,,49,Fictional_Cities_List/img_manmade_16.png,MM,1,,,,,,,,,,,,,,,
null,,confidence_buffer,1572633,confidence_buffer,,null,,,,,,,,,,,,,,,,,,
2707.4000000059605,,pt2_unique_rating,1575342,Fictional_Cities_List/img_manmade_16.png,,53,,,5,,,,,,,,,,,,,,,
null,,confidence_buffer,1575444,confidence_buffer,,null,,,,,,,,,,,,,,,,,,
1618.5,,pt2_memorable_rating,1577063,Fictional_Cities_List/img_manmade_16.png,,53,,,5,,,,,,,,,,,,,,,
null,,confidence_buffer,1577164,confidence_buffer,,null,,,,,,,,,,,,,,,,,,
1312.4000000059605,,recognition_phase,1578478,Fictional_Cities_List/img_manmade_16.png,,49,,,,,,old,1,1,,,,,,,,,,
null,,confidence_buffer,1578580,confidence_buffer,,null,,,,,,,,,,,,,,,,,,
null,,thebreak,1579082,break,,null,,,,,,,,,,,,,,,,,,
4203.200000017881,,pt2_realistic_rating,1583286,US_Cities_List/mm_healdsburg.png,,51,US_Cities_List/mm_healdsburg.png,MM,3,,,,,,,,,,,,,,,
null,,confidence_buffer,1583388,confidence_buffer,,null,,,,,,,,,,,,,,,,,,
1765.199999988079,,pt2_unique_rating,1585154,US_Cities_List/mm_healdsburg.png,,52,,,4,,,,,,,,,,,,,,,
null,,confidence_buffer,1585256,confidence_buffer,,null,,,,,,,,,,,,,,,,,,
1926.5999999940395,,pt2_memorable_rating,1587183,US_Cities_List/mm_healdsburg.png,,53,,,5,,,,,,,,,,,,,,,
null,,confidence_buffer,1587285,confidence_buffer,,null,,,,,,,,,,,,,,,,,,
1920.5,,recognition_phase,1589207,US_Cities_List/mm_healdsburg.png,,52,,,,,,new,1,1,,,,,,,,,,
null,,confidence_buffer,1589309,confidence_buffer,,null,,,,,,,,,,,,,,,,,,
null,,thebreak,1589810,break,,null,,,,,,,,,,,,,,,,,,
3640,,pt2_realistic_rating,1593451,US_Cities_List/nat_cornwall.png,,53,US_Cities_List/nat_cornwall.png,NAT,5,,,,,,,,,,,,,,,
null,,confidence_buffer,1593553,confidence_buffer,,null,,,,,,,,,,,,,,,,,,
1777.5999999940395,,pt2_unique_rating,1595332,US_Cities_List/nat_cornwall.png,,49,,,1,,,,,,,,,,,,,,,
null,,confidence_buffer,1595434,confidence_buffer,,null,,,,,,,,,,,,,,,,,,
1811,,pt2_memorable_rating,1597247,US_Cities_List/nat_cornwall.png,,49,,,1,,,,,,,,,,,,,,,
null,,confidence_buffer,1597349,confidence_buffer,,null,,,,,,,,,,,,,,,,,,
4191.4000000059605,,recognition_phase,1601541,US_Cities_List/nat_cornwall.png,,52,,,,,,new,1,1,,,,,,,,,,
null,,confidence_buffer,1601644,confidence_buffer,,null,,,,,,,,,,,,,,,,,,
null,,thebreak,1602146,break,,null,,,,,,,,,,,,,,,,,,
3056.9000000059605,,pt2_realistic_rating,1605204,US_Cities_List/nat_delawarecity.png,,53,US_Cities_List/nat_delawarecity.png,NAT,5,,,,,,,,,,,,,,,
null,,confidence_buffer,1605305,confidence_buffer,,null,,,,,,,,,,,,,,,,,,
2000.5,,probe_rating,1607307,probe_rating,,51,,,,3,1,,,,,,,,,,,,,
null,,confidence_buffer,1607409,confidence_buffer,,null,,,,,,,,,,,,,,,,,,
1824.7000000178814,,pt2_unique_rating,1609235,US_Cities_List/nat_delawarecity.png,,49,,,1,,,,,,,,,,,,,,,
null,,confidence_buffer,1609337,confidence_buffer,,null,,,,,,,,,,,,,,,,,,
2831.899999976158,,pt2_memorable_rating,1612170,US_Cities_List/nat_delawarecity.png,,49,,,1,,,,,,,,,,,,,,,
null,,confidence_buffer,1612271,confidence_buffer,,null,,,,,,,,,,,,,,,,,,
2804.9000000059605,,recognition_phase,1615077,US_Cities_List/nat_delawarecity.png,,52,,,,,,new,1,1,,,,,,,,,,
null,,confidence_buffer,1615179,confidence_buffer,,null,,,,,,,,,,,,,,,,,,
null,,thebreak,1615680,break,,null,,,,,,,,,,,,,,,,,,
5425.399999976158,,pt2_realistic_rating,1621107,Fictional_Cities_List/img_natural_19.png,,49,Fictional_Cities_List/img_natural_19.png,NAT,1,,,,,,,,,,,,,,,
null,,confidence_buffer,1621209,confidence_buffer,,null,,,,,,,,,,,,,,,,,,
2360.7000000178814,,pt2_unique_rating,1623571,Fictional_Cities_List/img_natural_19.png,,53,,,5,,,,,,,,,,,,,,,
null,,confidence_buffer,1623673,confidence_buffer,,null,,,,,,,,,,,,,,,,,,
1809.300000011921,,pt2_memorable_rating,1625483,Fictional_Cities_List/img_natural_19.png,,53,,,5,,,,,,,,,,,,,,,
null,,confidence_buffer,1625588,confidence_buffer,,null,,,,,,,,,,,,,,,,,,
1919.800000011921,,recognition_phase,1627509,Fictional_Cities_List/img_natural_19.png,,49,,,,,,old,0,0.9833333333333333,,,,,,,,,,
null,,confidence_buffer,1627612,confidence_buffer,,null,,,,,,,,,,,,,,,,,,
null,,thebreak,1628113,break,,null,,,,,,,,,,,,,,,,,,
,,survey,2465523,survey-questions,,,,,,,,,,,none,high,I had to glance at my son's food in the oven once,I tried to look for unique features, shapes, and items that would stick out to me,If I thought I seen it before, or items I know exist. Thought about puzzle box images a lot,when the building or land looked like buildings and the land where I've lived,Natural made structures made over time from erosion, or manmade structures you cant find anywhere else,places whith sturcture Ive seen or inhabited before. Or natural formations I know reallhy exist (aruaras lights),Yes Ive had similar memory studies,Thank you for the oportunity, I enjoy these types of memory test
