rt,responses,trial_type,time_elapsed,stimulus,button_pressed,key_press,name_trial,city_type,rating,probe,probe_accuracy,response,correct,accuracy,problems,smooth,distraction,strategies,familiar,memorable,unique,realistic,similar,comments
15778.400000095367,{worker_id:62faba5f904642df812944fa},id_enter,15784,,,,,,,,,,,,,,,,,,,,,
15561,,fullscreen,31355,fullscreen,0,,,,,,,,,,,,,,,,,,,
5172,,intro_0,36532,instruct,,32,,,,,,,,,,,,,,,,,,
6770.699999809265,,intro_1,43305,instruct,,32,,,,,,,,,,,,,,,,,,
9155.200000047684,,intro_2,52461,instruct,,32,,,,,,,,,,,,,,,,,,
null,,instruct_dir_4,53963,instruct,,null,,,,,,,,,,,,,,,,,,
null,,thebreak,54465,break,,null,,,,,,,,,,,,,,,,,,
13700,,familiar_rating,68166,Fictional_Cities_List/img_manmade_11.png,,49,Fictional_Cities_List/img_manmade_11.png,MM,1,,,,,,,,,,,,,,,
null,,confidence_buffer,68270,confidence_buffer,,null,,,,,,,,,,,,,,,,,,
3896.600000143051,,unique_rating,72167,Fictional_Cities_List/img_manmade_11.png,,51,,,3,,,,,,,,,,,,,,,
null,,confidence_buffer,72268,confidence_buffer,,null,,,,,,,,,,,,,,,,,,
2877.4000000953674,,memorable_rating,75146,Fictional_Cities_List/img_manmade_11.png,,51,,,3,,,,,,,,,,,,,,,
null,,confidence_buffer,75259,confidence_buffer,,null,,,,,,,,,,,,,,,,,,
null,,thebreak,75761,break,,null,,,,,,,,,,,,,,,,,,
5253.5,,familiar_rating,81015,US_Cities_List/mm_coeurdalene.png,,51,US_Cities_List/mm_coeurdalene.png,MM,3,,,,,,,,,,,,,,,
null,,confidence_buffer,81116,confidence_buffer,,null,,,,,,,,,,,,,,,,,,
3915,,unique_rating,85032,US_Cities_List/mm_coeurdalene.png,,49,,,1,,,,,,,,,,,,,,,
null,,confidence_buffer,85134,confidence_buffer,,null,,,,,,,,,,,,,,,,,,
2072.100000143051,,memorable_rating,87207,US_Cities_List/mm_coeurdalene.png,,50,,,2,,,,,,,,,,,,,,,
null,,confidence_buffer,87309,confidence_buffer,,null,,,,,,,,,,,,,,,,,,
null,,thebreak,87810,break,,null,,,,,,,,,,,,,,,,,,
9866.599999904633,,familiar_rating,97678,US_Cities_List/mm_hotsprings.png,,49,US_Cities_List/mm_hotsprings.png,MM,1,,,,,,,,,,,,,,,
null,,confidence_buffer,97780,confidence_buffer,,null,,,,,,,,,,,,,,,,,,
4775.199999809265,,unique_rating,102556,US_Cities_List/mm_hotsprings.png,,50,,,2,,,,,,,,,,,,,,,
null,,confidence_buffer,102657,confidence_buffer,,null,,,,,,,,,,,,,,,,,,
3969.5999999046326,,memorable_rating,106628,US_Cities_List/mm_hotsprings.png,,50,,,2,,,,,,,,,,,,,,,
null,,confidence_buffer,106730,confidence_buffer,,null,,,,,,,,,,,,,,,,,,
null,,thebreak,107231,break,,null,,,,,,,,,,,,,,,,,,
4822.5,,familiar_rating,112054,Fictional_Cities_List/img_manmade_38.png,,49,Fictional_Cities_List/img_manmade_38.png,MM,1,,,,,,,,,,,,,,,
null,,confidence_buffer,112156,confidence_buffer,,null,,,,,,,,,,,,,,,,,,
3495.800000190735,,unique_rating,115653,Fictional_Cities_List/img_manmade_38.png,,50,,,2,,,,,,,,,,,,,,,
null,,confidence_buffer,115755,confidence_buffer,,null,,,,,,,,,,,,,,,,,,
4900.099999904633,,memorable_rating,120655,Fictional_Cities_List/img_manmade_38.png,,50,,,2,,,,,,,,,,,,,,,
null,,confidence_buffer,120757,confidence_buffer,,null,,,,,,,,,,,,,,,,,,
null,,thebreak,121259,break,,null,,,,,,,,,,,,,,,,,,
5013.700000047684,,familiar_rating,126273,Fictional_Cities_List/img_manmade_15.png,,49,Fictional_Cities_List/img_manmade_15.png,MM,1,,,,,,,,,,,,,,,
null,,confidence_buffer,126375,confidence_buffer,,null,,,,,,,,,,,,,,,,,,
5406.099999904633,,unique_rating,131782,Fictional_Cities_List/img_manmade_15.png,,51,,,3,,,,,,,,,,,,,,,
null,,confidence_buffer,131883,confidence_buffer,,null,,,,,,,,,,,,,,,,,,
5131.299999952316,,memorable_rating,137015,Fictional_Cities_List/img_manmade_15.png,,52,,,4,,,,,,,,,,,,,,,
null,,confidence_buffer,137116,confidence_buffer,,null,,,,,,,,,,,,,,,,,,
null,,thebreak,137617,break,,null,,,,,,,,,,,,,,,,,,
8660.899999856949,,familiar_rating,146279,US_Cities_List/nat_hilo.png,,50,US_Cities_List/nat_hilo.png,NAT,2,,,,,,,,,,,,,,,
null,,confidence_buffer,146381,confidence_buffer,,null,,,,,,,,,,,,,,,,,,
4413.600000143051,,unique_rating,150795,US_Cities_List/nat_hilo.png,,50,,,2,,,,,,,,,,,,,,,
null,,confidence_buffer,150896,confidence_buffer,,null,,,,,,,,,,,,,,,,,,
2089.7000000476837,,memorable_rating,152986,US_Cities_List/nat_hilo.png,,50,,,2,,,,,,,,,,,,,,,
null,,confidence_buffer,153088,confidence_buffer,,null,,,,,,,,,,,,,,,,,,
null,,thebreak,153590,break,,null,,,,,,,,,,,,,,,,,,
4797.5,,familiar_rating,158388,US_Cities_List/nat_abilene.png,,49,US_Cities_List/nat_abilene.png,NAT,1,,,,,,,,,,,,,,,
null,,confidence_buffer,158490,confidence_buffer,,null,,,,,,,,,,,,,,,,,,
7316.200000047684,,unique_rating,165807,US_Cities_List/nat_abilene.png,,51,,,3,,,,,,,,,,,,,,,
null,,confidence_buffer,165909,confidence_buffer,,null,,,,,,,,,,,,,,,,,,
3184.600000143051,,memorable_rating,169094,US_Cities_List/nat_abilene.png,,51,,,3,,,,,,,,,,,,,,,
null,,confidence_buffer,169197,confidence_buffer,,null,,,,,,,,,,,,,,,,,,
null,,thebreak,169699,break,,null,,,,,,,,,,,,,,,,,,
4336.900000095367,,familiar_rating,174036,Fictional_Cities_List/img_natural_11.png,,49,Fictional_Cities_List/img_natural_11.png,NAT,1,,,,,,,,,,,,,,,
null,,confidence_buffer,174138,confidence_buffer,,null,,,,,,,,,,,,,,,,,,
5003.599999904633,,unique_rating,179143,Fictional_Cities_List/img_natural_11.png,,52,,,4,,,,,,,,,,,,,,,
null,,confidence_buffer,179245,confidence_buffer,,null,,,,,,,,,,,,,,,,,,
4347.799999952316,,memorable_rating,183594,Fictional_Cities_List/img_natural_11.png,,52,,,4,,,,,,,,,,,,,,,
null,,confidence_buffer,183694,confidence_buffer,,null,,,,,,,,,,,,,,,,,,
null,,thebreak,184196,break,,null,,,,,,,,,,,,,,,,,,
4064.7000000476837,,familiar_rating,188261,Fictional_Cities_List/img_manmade_35.png,,50,Fictional_Cities_List/img_manmade_35.png,MM,2,,,,,,,,,,,,,,,
null,,confidence_buffer,188364,confidence_buffer,,null,,,,,,,,,,,,,,,,,,
3296.7000000476837,,unique_rating,191661,Fictional_Cities_List/img_manmade_35.png,,50,,,2,,,,,,,,,,,,,,,
null,,confidence_buffer,191763,confidence_buffer,,null,,,,,,,,,,,,,,,,,,
1035.5,,probe_rating,192799,probe_rating,,50,,,,2,0,,,,,,,,,,,,,
null,,confidence_buffer,192900,confidence_buffer,,null,,,,,,,,,,,,,,,,,,
1857,,memorable_rating,194758,Fictional_Cities_List/img_manmade_35.png,,50,,,2,,,,,,,,,,,,,,,
null,,confidence_buffer,194860,confidence_buffer,,null,,,,,,,,,,,,,,,,,,
null,,thebreak,195361,break,,null,,,,,,,,,,,,,,,,,,
4740.599999904633,,familiar_rating,200103,US_Cities_List/nat_bisbee.png,,49,US_Cities_List/nat_bisbee.png,NAT,1,,,,,,,,,,,,,,,
null,,confidence_buffer,200204,confidence_buffer,,null,,,,,,,,,,,,,,,,,,
4329,,unique_rating,204533,US_Cities_List/nat_bisbee.png,,52,,,4,,,,,,,,,,,,,,,
null,,confidence_buffer,204636,confidence_buffer,,null,,,,,,,,,,,,,,,,,,
2213.800000190735,,memorable_rating,206850,US_Cities_List/nat_bisbee.png,,52,,,4,,,,,,,,,,,,,,,
null,,confidence_buffer,206952,confidence_buffer,,null,,,,,,,,,,,,,,,,,,
null,,thebreak,207453,break,,null,,,,,,,,,,,,,,,,,,
3089.9000000953674,,familiar_rating,210544,US_Cities_List/mm_boulder.png,,49,US_Cities_List/mm_boulder.png,MM,1,,,,,,,,,,,,,,,
null,,confidence_buffer,210645,confidence_buffer,,null,,,,,,,,,,,,,,,,,,
9571.099999904633,,unique_rating,220217,US_Cities_List/mm_boulder.png,,51,,,3,,,,,,,,,,,,,,,
null,,confidence_buffer,220319,confidence_buffer,,null,,,,,,,,,,,,,,,,,,
6104.799999952316,,memorable_rating,226424,US_Cities_List/mm_boulder.png,,51,,,3,,,,,,,,,,,,,,,
null,,confidence_buffer,226526,confidence_buffer,,null,,,,,,,,,,,,,,,,,,
null,,thebreak,227027,break,,null,,,,,,,,,,,,,,,,,,
5993,,familiar_rating,233021,US_Cities_List/nat_hotsprings.png,,49,US_Cities_List/nat_hotsprings.png,NAT,1,,,,,,,,,,,,,,,
null,,confidence_buffer,233122,confidence_buffer,,null,,,,,,,,,,,,,,,,,,
2053.9000000953674,,unique_rating,235178,US_Cities_List/nat_hotsprings.png,,52,,,4,,,,,,,,,,,,,,,
null,,confidence_buffer,235281,confidence_buffer,,null,,,,,,,,,,,,,,,,,,
1758.3999998569489,,memorable_rating,237040,US_Cities_List/nat_hotsprings.png,,52,,,4,,,,,,,,,,,,,,,
null,,confidence_buffer,237141,confidence_buffer,,null,,,,,,,,,,,,,,,,,,
null,,thebreak,237642,break,,null,,,,,,,,,,,,,,,,,,
6373.100000143051,,familiar_rating,244016,Fictional_Cities_List/img_manmade_03.png,,49,Fictional_Cities_List/img_manmade_03.png,MM,1,,,,,,,,,,,,,,,
null,,confidence_buffer,244119,confidence_buffer,,null,,,,,,,,,,,,,,,,,,
1752.7999999523163,,unique_rating,245872,Fictional_Cities_List/img_manmade_03.png,,52,,,4,,,,,,,,,,,,,,,
null,,confidence_buffer,245974,confidence_buffer,,null,,,,,,,,,,,,,,,,,,
5640.5,,memorable_rating,251615,Fictional_Cities_List/img_manmade_03.png,,52,,,4,,,,,,,,,,,,,,,
null,,confidence_buffer,251716,confidence_buffer,,null,,,,,,,,,,,,,,,,,,
null,,thebreak,252217,break,,null,,,,,,,,,,,,,,,,,,
4684.099999904633,,familiar_rating,256902,US_Cities_List/nat_healdsburg.png,,49,US_Cities_List/nat_healdsburg.png,NAT,1,,,,,,,,,,,,,,,
null,,confidence_buffer,257004,confidence_buffer,,null,,,,,,,,,,,,,,,,,,
3458.899999856949,,unique_rating,260464,US_Cities_List/nat_healdsburg.png,,49,,,1,,,,,,,,,,,,,,,
null,,confidence_buffer,260566,confidence_buffer,,null,,,,,,,,,,,,,,,,,,
1776.5,,memorable_rating,262343,US_Cities_List/nat_healdsburg.png,,49,,,1,,,,,,,,,,,,,,,
null,,confidence_buffer,262444,confidence_buffer,,null,,,,,,,,,,,,,,,,,,
null,,thebreak,262946,break,,null,,,,,,,,,,,,,,,,,,
2103.4000000953674,,familiar_rating,265049,US_Cities_List/mm_healdsburg.png,,49,US_Cities_List/mm_healdsburg.png,MM,1,,,,,,,,,,,,,,,
null,,confidence_buffer,265151,confidence_buffer,,null,,,,,,,,,,,,,,,,,,
3075.600000143051,,unique_rating,268227,US_Cities_List/mm_healdsburg.png,,50,,,2,,,,,,,,,,,,,,,
null,,confidence_buffer,268329,confidence_buffer,,null,,,,,,,,,,,,,,,,,,
1594.2000000476837,,memorable_rating,269924,US_Cities_List/mm_healdsburg.png,,49,,,1,,,,,,,,,,,,,,,
null,,confidence_buffer,270026,confidence_buffer,,null,,,,,,,,,,,,,,,,,,
null,,thebreak,270527,break,,null,,,,,,,,,,,,,,,,,,
9691.799999952316,,familiar_rating,280219,Fictional_Cities_List/img_manmade_16.png,,49,Fictional_Cities_List/img_manmade_16.png,MM,1,,,,,,,,,,,,,,,
null,,confidence_buffer,280321,confidence_buffer,,null,,,,,,,,,,,,,,,,,,
3134.899999856949,,unique_rating,283456,Fictional_Cities_List/img_manmade_16.png,,50,,,2,,,,,,,,,,,,,,,
null,,confidence_buffer,283558,confidence_buffer,,null,,,,,,,,,,,,,,,,,,
1288.1000001430511,,memorable_rating,284847,Fictional_Cities_List/img_manmade_16.png,,50,,,2,,,,,,,,,,,,,,,
null,,confidence_buffer,284950,confidence_buffer,,null,,,,,,,,,,,,,,,,,,
4413.5,,probe_rating,289364,probe_rating,,51,,,,3,1,,,,,,,,,,,,,
null,,confidence_buffer,289466,confidence_buffer,,null,,,,,,,,,,,,,,,,,,
null,,thebreak,289968,break,,null,,,,,,,,,,,,,,,,,,
5337.299999952316,,familiar_rating,295306,US_Cities_List/mm_westpalmbeach.png,,50,US_Cities_List/mm_westpalmbeach.png,MM,2,,,,,,,,,,,,,,,
null,,confidence_buffer,295407,confidence_buffer,,null,,,,,,,,,,,,,,,,,,
6891,,unique_rating,302299,US_Cities_List/mm_westpalmbeach.png,,51,,,3,,,,,,,,,,,,,,,
null,,confidence_buffer,302400,confidence_buffer,,null,,,,,,,,,,,,,,,,,,
4133.699999809265,,memorable_rating,306535,US_Cities_List/mm_westpalmbeach.png,,51,,,3,,,,,,,,,,,,,,,
null,,confidence_buffer,306635,confidence_buffer,,null,,,,,,,,,,,,,,,,,,
null,,thebreak,307136,break,,null,,,,,,,,,,,,,,,,,,
18173,,familiar_rating,325310,Fictional_Cities_List/img_natural_38.png,,51,Fictional_Cities_List/img_natural_38.png,NAT,3,,,,,,,,,,,,,,,
null,,confidence_buffer,325411,confidence_buffer,,null,,,,,,,,,,,,,,,,,,
4858.299999952316,,unique_rating,330270,Fictional_Cities_List/img_natural_38.png,,52,,,4,,,,,,,,,,,,,,,
null,,confidence_buffer,330373,confidence_buffer,,null,,,,,,,,,,,,,,,,,,
1305.0999999046326,,memorable_rating,331679,Fictional_Cities_List/img_natural_38.png,,51,,,3,,,,,,,,,,,,,,,
null,,confidence_buffer,331780,confidence_buffer,,null,,,,,,,,,,,,,,,,,,
null,,thebreak,332281,break,,null,,,,,,,,,,,,,,,,,,
2993.7000000476837,,familiar_rating,335275,US_Cities_List/nat_sitka.png,,49,US_Cities_List/nat_sitka.png,NAT,1,,,,,,,,,,,,,,,
null,,confidence_buffer,335377,confidence_buffer,,null,,,,,,,,,,,,,,,,,,
4600,,unique_rating,339978,US_Cities_List/nat_sitka.png,,50,,,2,,,,,,,,,,,,,,,
null,,confidence_buffer,340080,confidence_buffer,,null,,,,,,,,,,,,,,,,,,
1019.9000000953674,,memorable_rating,341101,US_Cities_List/nat_sitka.png,,50,,,2,,,,,,,,,,,,,,,
null,,confidence_buffer,341202,confidence_buffer,,null,,,,,,,,,,,,,,,,,,
null,,thebreak,341703,break,,null,,,,,,,,,,,,,,,,,,
4144.900000095367,,familiar_rating,345848,Fictional_Cities_List/img_manmade_22.png,,49,Fictional_Cities_List/img_manmade_22.png,MM,1,,,,,,,,,,,,,,,
null,,confidence_buffer,345949,confidence_buffer,,null,,,,,,,,,,,,,,,,,,
2637.100000143051,,unique_rating,348587,Fictional_Cities_List/img_manmade_22.png,,52,,,4,,,,,,,,,,,,,,,
null,,confidence_buffer,348689,confidence_buffer,,null,,,,,,,,,,,,,,,,,,
2304.9000000953674,,memorable_rating,350994,Fictional_Cities_List/img_manmade_22.png,,52,,,4,,,,,,,,,,,,,,,
null,,confidence_buffer,351096,confidence_buffer,,null,,,,,,,,,,,,,,,,,,
null,,thebreak,351606,break,,null,,,,,,,,,,,,,,,,,,
34883.699999809265,,familiar_rating,386491,US_Cities_List/mm_abilene.png,,49,US_Cities_List/mm_abilene.png,MM,1,,,,,,,,,,,,,,,
null,,confidence_buffer,386592,confidence_buffer,,null,,,,,,,,,,,,,,,,,,
2892.2000000476837,,unique_rating,389485,US_Cities_List/mm_abilene.png,,51,,,3,,,,,,,,,,,,,,,
null,,confidence_buffer,389587,confidence_buffer,,null,,,,,,,,,,,,,,,,,,
2059.5,,memorable_rating,391647,US_Cities_List/mm_abilene.png,,51,,,3,,,,,,,,,,,,,,,
null,,confidence_buffer,391749,confidence_buffer,,null,,,,,,,,,,,,,,,,,,
null,,thebreak,392251,break,,null,,,,,,,,,,,,,,,,,,
2759.7999999523163,,familiar_rating,395011,Fictional_Cities_List/img_natural_03.png,,49,Fictional_Cities_List/img_natural_03.png,NAT,1,,,,,,,,,,,,,,,
null,,confidence_buffer,395112,confidence_buffer,,null,,,,,,,,,,,,,,,,,,
3574.2999999523163,,unique_rating,398687,Fictional_Cities_List/img_natural_03.png,,51,,,3,,,,,,,,,,,,,,,
null,,confidence_buffer,398788,confidence_buffer,,null,,,,,,,,,,,,,,,,,,
1833,,memorable_rating,400622,Fictional_Cities_List/img_natural_03.png,,51,,,3,,,,,,,,,,,,,,,
null,,confidence_buffer,400723,confidence_buffer,,null,,,,,,,,,,,,,,,,,,
null,,thebreak,401224,break,,null,,,,,,,,,,,,,,,,,,
4527.5,,familiar_rating,405752,Fictional_Cities_List/img_natural_16.png,,49,Fictional_Cities_List/img_natural_16.png,NAT,1,,,,,,,,,,,,,,,
null,,confidence_buffer,405854,confidence_buffer,,null,,,,,,,,,,,,,,,,,,
4127.600000143051,,unique_rating,409982,Fictional_Cities_List/img_natural_16.png,,51,,,3,,,,,,,,,,,,,,,
null,,confidence_buffer,410083,confidence_buffer,,null,,,,,,,,,,,,,,,,,,
1429.4000000953674,,memorable_rating,411513,Fictional_Cities_List/img_natural_16.png,,51,,,3,,,,,,,,,,,,,,,
null,,confidence_buffer,411615,confidence_buffer,,null,,,,,,,,,,,,,,,,,,
null,,thebreak,412116,break,,null,,,,,,,,,,,,,,,,,,
2206.600000143051,,familiar_rating,414323,Fictional_Cities_List/img_natural_24.png,,49,Fictional_Cities_List/img_natural_24.png,NAT,1,,,,,,,,,,,,,,,
null,,confidence_buffer,414426,confidence_buffer,,null,,,,,,,,,,,,,,,,,,
2382.7000000476837,,unique_rating,416809,Fictional_Cities_List/img_natural_24.png,,50,,,2,,,,,,,,,,,,,,,
null,,confidence_buffer,416911,confidence_buffer,,null,,,,,,,,,,,,,,,,,,
989.3999998569489,,memorable_rating,417901,Fictional_Cities_List/img_natural_24.png,,50,,,2,,,,,,,,,,,,,,,
null,,confidence_buffer,418003,confidence_buffer,,null,,,,,,,,,,,,,,,,,,
null,,thebreak,418504,break,,null,,,,,,,,,,,,,,,,,,
3638.199999809265,,familiar_rating,422143,Fictional_Cities_List/img_natural_15.png,,49,Fictional_Cities_List/img_natural_15.png,NAT,1,,,,,,,,,,,,,,,
null,,confidence_buffer,422245,confidence_buffer,,null,,,,,,,,,,,,,,,,,,
4670.799999952316,,unique_rating,426916,Fictional_Cities_List/img_natural_15.png,,51,,,3,,,,,,,,,,,,,,,
null,,confidence_buffer,427018,confidence_buffer,,null,,,,,,,,,,,,,,,,,,
936.4000000953674,,memorable_rating,427955,Fictional_Cities_List/img_natural_15.png,,51,,,3,,,,,,,,,,,,,,,
null,,confidence_buffer,428063,confidence_buffer,,null,,,,,,,,,,,,,,,,,,
null,,thebreak,428565,break,,null,,,,,,,,,,,,,,,,,,
4106.800000190735,,familiar_rating,432672,Fictional_Cities_List/img_natural_33.png,,49,Fictional_Cities_List/img_natural_33.png,NAT,1,,,,,,,,,,,,,,,
null,,confidence_buffer,432774,confidence_buffer,,null,,,,,,,,,,,,,,,,,,
6473.399999856949,,unique_rating,439248,Fictional_Cities_List/img_natural_33.png,,52,,,4,,,,,,,,,,,,,,,
null,,confidence_buffer,439349,confidence_buffer,,null,,,,,,,,,,,,,,,,,,
2313,,memorable_rating,441662,Fictional_Cities_List/img_natural_33.png,,51,,,3,,,,,,,,,,,,,,,
null,,confidence_buffer,441764,confidence_buffer,,null,,,,,,,,,,,,,,,,,,
1718,,probe_rating,443483,probe_rating,,50,,,,2,1,,,,,,,,,,,,,
null,,confidence_buffer,443585,confidence_buffer,,null,,,,,,,,,,,,,,,,,,
null,,thebreak,444087,break,,null,,,,,,,,,,,,,,,,,,
4563,,familiar_rating,448651,US_Cities_List/nat_athens.png,,49,US_Cities_List/nat_athens.png,NAT,1,,,,,,,,,,,,,,,
null,,confidence_buffer,448753,confidence_buffer,,null,,,,,,,,,,,,,,,,,,
1268.5,,unique_rating,450022,US_Cities_List/nat_athens.png,,49,,,1,,,,,,,,,,,,,,,
null,,confidence_buffer,450124,confidence_buffer,,null,,,,,,,,,,,,,,,,,,
951.7999999523163,,memorable_rating,451076,US_Cities_List/nat_athens.png,,49,,,1,,,,,,,,,,,,,,,
null,,confidence_buffer,451181,confidence_buffer,,null,,,,,,,,,,,,,,,,,,
null,,thebreak,451683,break,,null,,,,,,,,,,,,,,,,,,
2004.4000000953674,,familiar_rating,453688,US_Cities_List/mm_delawarecity.png,,49,US_Cities_List/mm_delawarecity.png,MM,1,,,,,,,,,,,,,,,
null,,confidence_buffer,453790,confidence_buffer,,null,,,,,,,,,,,,,,,,,,
2072.7999999523163,,unique_rating,455864,US_Cities_List/mm_delawarecity.png,,50,,,2,,,,,,,,,,,,,,,
null,,confidence_buffer,455965,confidence_buffer,,null,,,,,,,,,,,,,,,,,,
824.5999999046326,,memorable_rating,456790,US_Cities_List/mm_delawarecity.png,,50,,,2,,,,,,,,,,,,,,,
null,,confidence_buffer,456892,confidence_buffer,,null,,,,,,,,,,,,,,,,,,
null,,thebreak,457393,break,,null,,,,,,,,,,,,,,,,,,
4208.200000047684,,familiar_rating,461602,US_Cities_List/mm_bisbee.png,,49,US_Cities_List/mm_bisbee.png,MM,1,,,,,,,,,,,,,,,
null,,confidence_buffer,461705,confidence_buffer,,null,,,,,,,,,,,,,,,,,,
3100,,unique_rating,464806,US_Cities_List/mm_bisbee.png,,51,,,3,,,,,,,,,,,,,,,
null,,confidence_buffer,464907,confidence_buffer,,null,,,,,,,,,,,,,,,,,,
2730.5,,memorable_rating,467638,US_Cities_List/mm_bisbee.png,,50,,,2,,,,,,,,,,,,,,,
null,,confidence_buffer,467740,confidence_buffer,,null,,,,,,,,,,,,,,,,,,
null,,thebreak,468242,break,,null,,,,,,,,,,,,,,,,,,
3504,,familiar_rating,471747,Fictional_Cities_List/img_natural_35.png,,49,Fictional_Cities_List/img_natural_35.png,NAT,1,,,,,,,,,,,,,,,
null,,confidence_buffer,471848,confidence_buffer,,null,,,,,,,,,,,,,,,,,,
3843,,unique_rating,475692,Fictional_Cities_List/img_natural_35.png,,51,,,3,,,,,,,,,,,,,,,
null,,confidence_buffer,475793,confidence_buffer,,null,,,,,,,,,,,,,,,,,,
1599.6000001430511,,memorable_rating,477394,Fictional_Cities_List/img_natural_35.png,,51,,,3,,,,,,,,,,,,,,,
null,,confidence_buffer,477496,confidence_buffer,,null,,,,,,,,,,,,,,,,,,
null,,thebreak,477997,break,,null,,,,,,,,,,,,,,,,,,
5164.899999856949,,intro_0,483163,instruct,,32,,,,,,,,,,,,,,,,,,
8727.899999856949,,intro_1,491891,instruct,,32,,,,,,,,,,,,,,,,,,
58723.700000047684,,intro_2,550615,instruct,,32,,,,,,,,,,,,,,,,,,
null,,instruct_dir_4,552117,instruct,,null,,,,,,,,,,,,,,,,,,
12289.5,,pt2_realistic_rating,564408,US_Cities_List/mm_hilo.png,,52,US_Cities_List/mm_hilo.png,MM,4,,,,,,,,,,,,,,,
null,,confidence_buffer,564510,confidence_buffer,,null,,,,,,,,,,,,,,,,,,
4930.800000190735,,pt2_unique_rating,569441,US_Cities_List/mm_hilo.png,,50,,,2,,,,,,,,,,,,,,,
null,,confidence_buffer,569543,confidence_buffer,,null,,,,,,,,,,,,,,,,,,
1616,,pt2_memorable_rating,571159,US_Cities_List/mm_hilo.png,,50,,,2,,,,,,,,,,,,,,,
null,,confidence_buffer,571261,confidence_buffer,,null,,,,,,,,,,,,,,,,,,
3858.899999856949,,recognition_phase,575121,US_Cities_List/mm_hilo.png,,52,,,,,,new,1,1,,,,,,,,,,
null,,confidence_buffer,575223,confidence_buffer,,null,,,,,,,,,,,,,,,,,,
null,,thebreak,575731,break,,null,,,,,,,,,,,,,,,,,,
9112,,pt2_realistic_rating,584844,US_Cities_List/nat_hotsprings.png,,52,US_Cities_List/nat_hotsprings.png,NAT,4,,,,,,,,,,,,,,,
null,,confidence_buffer,584946,confidence_buffer,,null,,,,,,,,,,,,,,,,,,
2908.2000000476837,,pt2_unique_rating,587855,US_Cities_List/nat_hotsprings.png,,52,,,4,,,,,,,,,,,,,,,
null,,confidence_buffer,587957,confidence_buffer,,null,,,,,,,,,,,,,,,,,,
3076.899999856949,,pt2_memorable_rating,591035,US_Cities_List/nat_hotsprings.png,,52,,,4,,,,,,,,,,,,,,,
null,,confidence_buffer,591136,confidence_buffer,,null,,,,,,,,,,,,,,,,,,
4506.299999952316,,recognition_phase,595643,US_Cities_List/nat_hotsprings.png,,49,,,,,,old,1,1,,,,,,,,,,
null,,confidence_buffer,595745,confidence_buffer,,null,,,,,,,,,,,,,,,,,,
null,,thebreak,596247,break,,null,,,,,,,,,,,,,,,,,,
11107.200000047684,,pt2_realistic_rating,607355,US_Cities_List/mm_cornwall.png,,53,US_Cities_List/mm_cornwall.png,MM,5,,,,,,,,,,,,,,,
null,,confidence_buffer,607457,confidence_buffer,,null,,,,,,,,,,,,,,,,,,
2522.7999999523163,,pt2_unique_rating,609981,US_Cities_List/mm_cornwall.png,,51,,,3,,,,,,,,,,,,,,,
null,,confidence_buffer,610083,confidence_buffer,,null,,,,,,,,,,,,,,,,,,
1674.7000000476837,,pt2_memorable_rating,611759,US_Cities_List/mm_cornwall.png,,50,,,2,,,,,,,,,,,,,,,
null,,confidence_buffer,611860,confidence_buffer,,null,,,,,,,,,,,,,,,,,,
3114,,recognition_phase,614975,US_Cities_List/mm_cornwall.png,,52,,,,,,new,1,1,,,,,,,,,,
null,,confidence_buffer,615076,confidence_buffer,,null,,,,,,,,,,,,,,,,,,
null,,thebreak,615577,break,,null,,,,,,,,,,,,,,,,,,
6166.5,,pt2_realistic_rating,621744,US_Cities_List/nat_sitka.png,,53,US_Cities_List/nat_sitka.png,NAT,5,,,,,,,,,,,,,,,
null,,confidence_buffer,621846,confidence_buffer,,null,,,,,,,,,,,,,,,,,,
4455.299999952316,,pt2_unique_rating,626302,US_Cities_List/nat_sitka.png,,51,,,3,,,,,,,,,,,,,,,
null,,confidence_buffer,626404,confidence_buffer,,null,,,,,,,,,,,,,,,,,,
2100.100000143051,,probe_rating,628505,probe_rating,,50,,,,2,1,,,,,,,,,,,,,
null,,confidence_buffer,628607,confidence_buffer,,null,,,,,,,,,,,,,,,,,,
4468.900000095367,,pt2_memorable_rating,633076,US_Cities_List/nat_sitka.png,,50,,,2,,,,,,,,,,,,,,,
null,,confidence_buffer,633178,confidence_buffer,,null,,,,,,,,,,,,,,,,,,
2530.5,,recognition_phase,635710,US_Cities_List/nat_sitka.png,,49,,,,,,old,1,1,,,,,,,,,,
null,,confidence_buffer,635812,confidence_buffer,,null,,,,,,,,,,,,,,,,,,
null,,thebreak,636313,break,,null,,,,,,,,,,,,,,,,,,
4484.399999856949,,pt2_realistic_rating,640798,US_Cities_List/nat_peoria.png,,53,US_Cities_List/nat_peoria.png,NAT,5,,,,,,,,,,,,,,,
null,,confidence_buffer,640900,confidence_buffer,,null,,,,,,,,,,,,,,,,,,
2500.2000000476837,,pt2_unique_rating,643401,US_Cities_List/nat_peoria.png,,49,,,1,,,,,,,,,,,,,,,
null,,confidence_buffer,643502,confidence_buffer,,null,,,,,,,,,,,,,,,,,,
1250.2000000476837,,pt2_memorable_rating,644754,US_Cities_List/nat_peoria.png,,49,,,1,,,,,,,,,,,,,,,
null,,confidence_buffer,644855,confidence_buffer,,null,,,,,,,,,,,,,,,,,,
4225.399999856949,,recognition_phase,649081,US_Cities_List/nat_peoria.png,,52,,,,,,new,1,1,,,,,,,,,,
null,,confidence_buffer,649183,confidence_buffer,,null,,,,,,,,,,,,,,,,,,
null,,thebreak,649684,break,,null,,,,,,,,,,,,,,,,,,
6264.600000143051,,pt2_realistic_rating,655949,Fictional_Cities_List/img_natural_35.png,,52,Fictional_Cities_List/img_natural_35.png,NAT,4,,,,,,,,,,,,,,,
null,,confidence_buffer,656051,confidence_buffer,,null,,,,,,,,,,,,,,,,,,
6767.700000047684,,pt2_unique_rating,662819,Fictional_Cities_List/img_natural_35.png,,51,,,3,,,,,,,,,,,,,,,
null,,confidence_buffer,662921,confidence_buffer,,null,,,,,,,,,,,,,,,,,,
5021.5,,pt2_memorable_rating,667944,Fictional_Cities_List/img_natural_35.png,,50,,,2,,,,,,,,,,,,,,,
null,,confidence_buffer,668045,confidence_buffer,,null,,,,,,,,,,,,,,,,,,
2458,,recognition_phase,670504,Fictional_Cities_List/img_natural_35.png,,49,,,,,,old,1,1,,,,,,,,,,
null,,confidence_buffer,670605,confidence_buffer,,null,,,,,,,,,,,,,,,,,,
null,,thebreak,671106,break,,null,,,,,,,,,,,,,,,,,,
9552.700000047684,,pt2_realistic_rating,680659,US_Cities_List/nat_hilo.png,,50,US_Cities_List/nat_hilo.png,NAT,2,,,,,,,,,,,,,,,
null,,confidence_buffer,680762,confidence_buffer,,null,,,,,,,,,,,,,,,,,,
5490,,pt2_unique_rating,686252,US_Cities_List/nat_hilo.png,,52,,,4,,,,,,,,,,,,,,,
null,,confidence_buffer,686353,confidence_buffer,,null,,,,,,,,,,,,,,,,,,
3472.199999809265,,pt2_memorable_rating,689826,US_Cities_List/nat_hilo.png,,51,,,3,,,,,,,,,,,,,,,
null,,confidence_buffer,689927,confidence_buffer,,null,,,,,,,,,,,,,,,,,,
1920.7000000476837,,recognition_phase,691849,US_Cities_List/nat_hilo.png,,49,,,,,,old,1,1,,,,,,,,,,
null,,confidence_buffer,691951,confidence_buffer,,null,,,,,,,,,,,,,,,,,,
null,,thebreak,692452,break,,null,,,,,,,,,,,,,,,,,,
6470.400000095367,,pt2_realistic_rating,698923,Fictional_Cities_List/img_manmade_48.png,,51,Fictional_Cities_List/img_manmade_48.png,MM,3,,,,,,,,,,,,,,,
null,,confidence_buffer,699025,confidence_buffer,,null,,,,,,,,,,,,,,,,,,
1801.2999999523163,,pt2_unique_rating,700827,Fictional_Cities_List/img_manmade_48.png,,50,,,2,,,,,,,,,,,,,,,
null,,confidence_buffer,700941,confidence_buffer,,null,,,,,,,,,,,,,,,,,,
1150.4000000953674,,pt2_memorable_rating,702093,Fictional_Cities_List/img_manmade_48.png,,50,,,2,,,,,,,,,,,,,,,
null,,confidence_buffer,702195,confidence_buffer,,null,,,,,,,,,,,,,,,,,,
3186,,recognition_phase,705382,Fictional_Cities_List/img_manmade_48.png,,52,,,,,,new,1,1,,,,,,,,,,
null,,confidence_buffer,705484,confidence_buffer,,null,,,,,,,,,,,,,,,,,,
null,,thebreak,705986,break,,null,,,,,,,,,,,,,,,,,,
4388.200000047684,,pt2_realistic_rating,710374,US_Cities_List/mm_abilene.png,,52,US_Cities_List/mm_abilene.png,MM,4,,,,,,,,,,,,,,,
null,,confidence_buffer,710476,confidence_buffer,,null,,,,,,,,,,,,,,,,,,
2937.7999999523163,,pt2_unique_rating,713415,US_Cities_List/mm_abilene.png,,51,,,3,,,,,,,,,,,,,,,
null,,confidence_buffer,713516,confidence_buffer,,null,,,,,,,,,,,,,,,,,,
2018.9000000953674,,probe_rating,715536,probe_rating,,53,,,,5,1,,,,,,,,,,,,,
null,,confidence_buffer,715638,confidence_buffer,,null,,,,,,,,,,,,,,,,,,
3387.0999999046326,,pt2_memorable_rating,719025,US_Cities_List/mm_abilene.png,,51,,,3,,,,,,,,,,,,,,,
null,,confidence_buffer,719127,confidence_buffer,,null,,,,,,,,,,,,,,,,,,
2145.199999809265,,recognition_phase,721273,US_Cities_List/mm_abilene.png,,49,,,,,,old,1,1,,,,,,,,,,
null,,confidence_buffer,721374,confidence_buffer,,null,,,,,,,,,,,,,,,,,,
null,,thebreak,721876,break,,null,,,,,,,,,,,,,,,,,,
14947.400000095367,,pt2_realistic_rating,736824,US_Cities_List/mm_bisbee.png,,52,US_Cities_List/mm_bisbee.png,MM,4,,,,,,,,,,,,,,,
null,,confidence_buffer,736926,confidence_buffer,,null,,,,,,,,,,,,,,,,,,
2544.4000000953674,,pt2_unique_rating,739471,US_Cities_List/mm_bisbee.png,,50,,,2,,,,,,,,,,,,,,,
null,,confidence_buffer,739572,confidence_buffer,,null,,,,,,,,,,,,,,,,,,
1492.1999998092651,,probe_rating,741065,probe_rating,,53,,,,5,1,,,,,,,,,,,,,
null,,confidence_buffer,741167,confidence_buffer,,null,,,,,,,,,,,,,,,,,,
4441.099999904633,,pt2_memorable_rating,745609,US_Cities_List/mm_bisbee.png,,50,,,2,,,,,,,,,,,,,,,
null,,confidence_buffer,745710,confidence_buffer,,null,,,,,,,,,,,,,,,,,,
1756.1000001430511,,recognition_phase,747467,US_Cities_List/mm_bisbee.png,,49,,,,,,old,1,1,,,,,,,,,,
null,,confidence_buffer,747569,confidence_buffer,,null,,,,,,,,,,,,,,,,,,
null,,thebreak,748070,break,,null,,,,,,,,,,,,,,,,,,
4713.799999952316,,pt2_realistic_rating,752784,Fictional_Cities_List/img_natural_38.png,,53,Fictional_Cities_List/img_natural_38.png,NAT,5,,,,,,,,,,,,,,,
null,,confidence_buffer,752886,confidence_buffer,,null,,,,,,,,,,,,,,,,,,
4827.299999952316,,pt2_unique_rating,757714,Fictional_Cities_List/img_natural_38.png,,52,,,4,,,,,,,,,,,,,,,
null,,confidence_buffer,757816,confidence_buffer,,null,,,,,,,,,,,,,,,,,,
1765.6000001430511,,probe_rating,759582,probe_rating,,51,,,,3,1,,,,,,,,,,,,,
null,,confidence_buffer,759684,confidence_buffer,,null,,,,,,,,,,,,,,,,,,
3974.2000000476837,,pt2_memorable_rating,763659,Fictional_Cities_List/img_natural_38.png,,52,,,4,,,,,,,,,,,,,,,
null,,confidence_buffer,763766,confidence_buffer,,null,,,,,,,,,,,,,,,,,,
2521.5999999046326,,recognition_phase,766288,Fictional_Cities_List/img_natural_38.png,,49,,,,,,old,1,1,,,,,,,,,,
null,,confidence_buffer,766390,confidence_buffer,,null,,,,,,,,,,,,,,,,,,
null,,thebreak,766892,break,,null,,,,,,,,,,,,,,,,,,
9673.299999952316,,pt2_realistic_rating,776566,Fictional_Cities_List/img_manmade_03.png,,49,Fictional_Cities_List/img_manmade_03.png,MM,1,,,,,,,,,,,,,,,
null,,confidence_buffer,776678,confidence_buffer,,null,,,,,,,,,,,,,,,,,,
4837.5,,pt2_unique_rating,781517,Fictional_Cities_List/img_manmade_03.png,,52,,,4,,,,,,,,,,,,,,,
null,,confidence_buffer,781625,confidence_buffer,,null,,,,,,,,,,,,,,,,,,
1062.9000000953674,,pt2_memorable_rating,782689,Fictional_Cities_List/img_manmade_03.png,,52,,,4,,,,,,,,,,,,,,,
null,,confidence_buffer,782791,confidence_buffer,,null,,,,,,,,,,,,,,,,,,
1876.5,,recognition_phase,784669,Fictional_Cities_List/img_manmade_03.png,,49,,,,,,old,1,1,,,,,,,,,,
null,,confidence_buffer,784771,confidence_buffer,,null,,,,,,,,,,,,,,,,,,
null,,thebreak,785272,break,,null,,,,,,,,,,,,,,,,,,
4541,,pt2_realistic_rating,789814,US_Cities_List/mm_okoboji.png,,52,US_Cities_List/mm_okoboji.png,MM,4,,,,,,,,,,,,,,,
null,,confidence_buffer,789916,confidence_buffer,,null,,,,,,,,,,,,,,,,,,
4423,,pt2_unique_rating,794340,US_Cities_List/mm_okoboji.png,,51,,,3,,,,,,,,,,,,,,,
null,,confidence_buffer,794442,confidence_buffer,,null,,,,,,,,,,,,,,,,,,
3859.5,,pt2_memorable_rating,798303,US_Cities_List/mm_okoboji.png,,50,,,2,,,,,,,,,,,,,,,
null,,confidence_buffer,798405,confidence_buffer,,null,,,,,,,,,,,,,,,,,,
2343.4000000953674,,recognition_phase,800750,US_Cities_List/mm_okoboji.png,,52,,,,,,new,1,1,,,,,,,,,,
null,,confidence_buffer,800851,confidence_buffer,,null,,,,,,,,,,,,,,,,,,
null,,thebreak,801366,break,,null,,,,,,,,,,,,,,,,,,
6068,,pt2_realistic_rating,807435,Fictional_Cities_List/img_natural_16.png,,52,Fictional_Cities_List/img_natural_16.png,NAT,4,,,,,,,,,,,,,,,
null,,confidence_buffer,807537,confidence_buffer,,null,,,,,,,,,,,,,,,,,,
3538,,pt2_unique_rating,811076,Fictional_Cities_List/img_natural_16.png,,51,,,3,,,,,,,,,,,,,,,
null,,confidence_buffer,811178,confidence_buffer,,null,,,,,,,,,,,,,,,,,,
2180.7000000476837,,pt2_memorable_rating,813359,Fictional_Cities_List/img_natural_16.png,,51,,,3,,,,,,,,,,,,,,,
null,,confidence_buffer,813460,confidence_buffer,,null,,,,,,,,,,,,,,,,,,
1477.9000000953674,,recognition_phase,814939,Fictional_Cities_List/img_natural_16.png,,49,,,,,,old,1,1,,,,,,,,,,
null,,confidence_buffer,815041,confidence_buffer,,null,,,,,,,,,,,,,,,,,,
null,,thebreak,815542,break,,null,,,,,,,,,,,,,,,,,,
6578.299999952316,,pt2_realistic_rating,822121,US_Cities_List/mm_peoria.png,,51,US_Cities_List/mm_peoria.png,MM,3,,,,,,,,,,,,,,,
null,,confidence_buffer,822223,confidence_buffer,,null,,,,,,,,,,,,,,,,,,
1865,,pt2_unique_rating,824090,US_Cities_List/mm_peoria.png,,50,,,2,,,,,,,,,,,,,,,
null,,confidence_buffer,824191,confidence_buffer,,null,,,,,,,,,,,,,,,,,,
1849.3999998569489,,pt2_memorable_rating,826041,US_Cities_List/mm_peoria.png,,50,,,2,,,,,,,,,,,,,,,
null,,confidence_buffer,826143,confidence_buffer,,null,,,,,,,,,,,,,,,,,,
1631.2999999523163,,probe_rating,827776,probe_rating,,52,,,,4,1,,,,,,,,,,,,,
null,,confidence_buffer,827890,confidence_buffer,,null,,,,,,,,,,,,,,,,,,
2448.2999999523163,,recognition_phase,830339,US_Cities_List/mm_peoria.png,,52,,,,,,new,1,1,,,,,,,,,,
null,,confidence_buffer,830441,confidence_buffer,,null,,,,,,,,,,,,,,,,,,
null,,thebreak,830942,break,,null,,,,,,,,,,,,,,,,,,
6350,,pt2_realistic_rating,837293,Fictional_Cities_List/img_manmade_24.png,,53,Fictional_Cities_List/img_manmade_24.png,MM,5,,,,,,,,,,,,,,,
null,,confidence_buffer,837396,confidence_buffer,,null,,,,,,,,,,,,,,,,,,
3137.100000143051,,pt2_unique_rating,840534,Fictional_Cities_List/img_manmade_24.png,,50,,,2,,,,,,,,,,,,,,,
null,,confidence_buffer,840636,confidence_buffer,,null,,,,,,,,,,,,,,,,,,
880.4000000953674,,pt2_memorable_rating,841517,Fictional_Cities_List/img_manmade_24.png,,50,,,2,,,,,,,,,,,,,,,
null,,confidence_buffer,841633,confidence_buffer,,null,,,,,,,,,,,,,,,,,,
3238.899999856949,,recognition_phase,844873,Fictional_Cities_List/img_manmade_24.png,,52,,,,,,new,1,1,,,,,,,,,,
null,,confidence_buffer,844974,confidence_buffer,,null,,,,,,,,,,,,,,,,,,
null,,thebreak,845477,break,,null,,,,,,,,,,,,,,,,,,
4416.100000143051,,pt2_realistic_rating,849894,US_Cities_List/mm_boulder.png,,51,US_Cities_List/mm_boulder.png,MM,3,,,,,,,,,,,,,,,
null,,confidence_buffer,849996,confidence_buffer,,null,,,,,,,,,,,,,,,,,,
1903.7000000476837,,pt2_unique_rating,851901,US_Cities_List/mm_boulder.png,,51,,,3,,,,,,,,,,,,,,,
null,,confidence_buffer,852003,confidence_buffer,,null,,,,,,,,,,,,,,,,,,
1495.5999999046326,,pt2_memorable_rating,853500,US_Cities_List/mm_boulder.png,,50,,,2,,,,,,,,,,,,,,,
null,,confidence_buffer,853601,confidence_buffer,,null,,,,,,,,,,,,,,,,,,
1870.2999999523163,,recognition_phase,855472,US_Cities_List/mm_boulder.png,,49,,,,,,old,1,1,,,,,,,,,,
null,,confidence_buffer,855573,confidence_buffer,,null,,,,,,,,,,,,,,,,,,
null,,thebreak,856076,break,,null,,,,,,,,,,,,,,,,,,
7219.5,,pt2_realistic_rating,863296,Fictional_Cities_List/img_natural_31.png,,51,Fictional_Cities_List/img_natural_31.png,NAT,3,,,,,,,,,,,,,,,
null,,confidence_buffer,863397,confidence_buffer,,null,,,,,,,,,,,,,,,,,,
3457.9000000953674,,pt2_unique_rating,866856,Fictional_Cities_List/img_natural_31.png,,52,,,4,,,,,,,,,,,,,,,
null,,confidence_buffer,866958,confidence_buffer,,null,,,,,,,,,,,,,,,,,,
2115.9000000953674,,pt2_memorable_rating,869075,Fictional_Cities_List/img_natural_31.png,,51,,,3,,,,,,,,,,,,,,,
null,,confidence_buffer,869178,confidence_buffer,,null,,,,,,,,,,,,,,,,,,
2089.2999999523163,,recognition_phase,871268,Fictional_Cities_List/img_natural_31.png,,52,,,,,,new,1,1,,,,,,,,,,
null,,confidence_buffer,871370,confidence_buffer,,null,,,,,,,,,,,,,,,,,,
null,,thebreak,871871,break,,null,,,,,,,,,,,,,,,,,,
6705.599999904633,,pt2_realistic_rating,878577,US_Cities_List/mm_carmel.png,,53,US_Cities_List/mm_carmel.png,MM,5,,,,,,,,,,,,,,,
null,,confidence_buffer,878680,confidence_buffer,,null,,,,,,,,,,,,,,,,,,
3605.2000000476837,,pt2_unique_rating,882286,US_Cities_List/mm_carmel.png,,51,,,3,,,,,,,,,,,,,,,
null,,confidence_buffer,882398,confidence_buffer,,null,,,,,,,,,,,,,,,,,,
2151.800000190735,,pt2_memorable_rating,884551,US_Cities_List/mm_carmel.png,,52,,,4,,,,,,,,,,,,,,,
null,,confidence_buffer,884654,confidence_buffer,,null,,,,,,,,,,,,,,,,,,
2420.4000000953674,,recognition_phase,887075,US_Cities_List/mm_carmel.png,,52,,,,,,new,1,1,,,,,,,,,,
null,,confidence_buffer,887177,confidence_buffer,,null,,,,,,,,,,,,,,,,,,
null,,thebreak,887678,break,,null,,,,,,,,,,,,,,,,,,
4190.5,,pt2_realistic_rating,891870,US_Cities_List/nat_abilene.png,,53,US_Cities_List/nat_abilene.png,NAT,5,,,,,,,,,,,,,,,
null,,confidence_buffer,891972,confidence_buffer,,null,,,,,,,,,,,,,,,,,,
2775.0999999046326,,pt2_unique_rating,894748,US_Cities_List/nat_abilene.png,,52,,,4,,,,,,,,,,,,,,,
null,,confidence_buffer,894851,confidence_buffer,,null,,,,,,,,,,,,,,,,,,
1096.3999998569489,,pt2_memorable_rating,895948,US_Cities_List/nat_abilene.png,,52,,,4,,,,,,,,,,,,,,,
null,,confidence_buffer,896050,confidence_buffer,,null,,,,,,,,,,,,,,,,,,
1945.3000001907349,,recognition_phase,897996,US_Cities_List/nat_abilene.png,,49,,,,,,old,1,1,,,,,,,,,,
null,,confidence_buffer,898109,confidence_buffer,,null,,,,,,,,,,,,,,,,,,
null,,thebreak,898610,break,,null,,,,,,,,,,,,,,,,,,
3434.5999999046326,,pt2_realistic_rating,902046,US_Cities_List/nat_athens.png,,53,US_Cities_List/nat_athens.png,NAT,5,,,,,,,,,,,,,,,
null,,confidence_buffer,902148,confidence_buffer,,null,,,,,,,,,,,,,,,,,,
3547.9000000953674,,pt2_unique_rating,905696,US_Cities_List/nat_athens.png,,49,,,1,,,,,,,,,,,,,,,
null,,confidence_buffer,905805,confidence_buffer,,null,,,,,,,,,,,,,,,,,,
2442.4000000953674,,pt2_memorable_rating,908248,US_Cities_List/nat_athens.png,,50,,,2,,,,,,,,,,,,,,,
null,,confidence_buffer,908350,confidence_buffer,,null,,,,,,,,,,,,,,,,,,
1420.4000000953674,,recognition_phase,909772,US_Cities_List/nat_athens.png,,49,,,,,,old,1,1,,,,,,,,,,
null,,confidence_buffer,909873,confidence_buffer,,null,,,,,,,,,,,,,,,,,,
null,,thebreak,910374,break,,null,,,,,,,,,,,,,,,,,,
7341.799999952316,,pt2_realistic_rating,917717,Fictional_Cities_List/img_manmade_15.png,,52,Fictional_Cities_List/img_manmade_15.png,MM,4,,,,,,,,,,,,,,,
null,,confidence_buffer,917820,confidence_buffer,,null,,,,,,,,,,,,,,,,,,
3366.7000000476837,,pt2_unique_rating,921187,Fictional_Cities_List/img_manmade_15.png,,52,,,4,,,,,,,,,,,,,,,
null,,confidence_buffer,921289,confidence_buffer,,null,,,,,,,,,,,,,,,,,,
1635.4000000953674,,pt2_memorable_rating,922925,Fictional_Cities_List/img_manmade_15.png,,51,,,3,,,,,,,,,,,,,,,
null,,confidence_buffer,923027,confidence_buffer,,null,,,,,,,,,,,,,,,,,,
3157,,recognition_phase,926185,Fictional_Cities_List/img_manmade_15.png,,49,,,,,,old,1,1,,,,,,,,,,
null,,confidence_buffer,926287,confidence_buffer,,null,,,,,,,,,,,,,,,,,,
null,,thebreak,926788,break,,null,,,,,,,,,,,,,,,,,,
5356.200000047684,,pt2_realistic_rating,932145,US_Cities_List/nat_bisbee.png,,53,US_Cities_List/nat_bisbee.png,NAT,5,,,,,,,,,,,,,,,
null,,confidence_buffer,932247,confidence_buffer,,null,,,,,,,,,,,,,,,,,,
1947.7000000476837,,pt2_unique_rating,934196,US_Cities_List/nat_bisbee.png,,52,,,4,,,,,,,,,,,,,,,
null,,confidence_buffer,934298,confidence_buffer,,null,,,,,,,,,,,,,,,,,,
762.7000000476837,,pt2_memorable_rating,935062,US_Cities_List/nat_bisbee.png,,52,,,4,,,,,,,,,,,,,,,
null,,confidence_buffer,935165,confidence_buffer,,null,,,,,,,,,,,,,,,,,,
2995.7999999523163,,recognition_phase,938162,US_Cities_List/nat_bisbee.png,,49,,,,,,old,1,1,,,,,,,,,,
null,,confidence_buffer,938263,confidence_buffer,,null,,,,,,,,,,,,,,,,,,
null,,thebreak,938764,break,,null,,,,,,,,,,,,,,,,,,
11262.400000095367,,pt2_realistic_rating,950027,Fictional_Cities_List/img_manmade_40.png,,52,Fictional_Cities_List/img_manmade_40.png,MM,4,,,,,,,,,,,,,,,
null,,confidence_buffer,950129,confidence_buffer,,null,,,,,,,,,,,,,,,,,,
1776.4000000953674,,pt2_unique_rating,951907,Fictional_Cities_List/img_manmade_40.png,,52,,,4,,,,,,,,,,,,,,,
null,,confidence_buffer,952009,confidence_buffer,,null,,,,,,,,,,,,,,,,,,
2497.5999999046326,,pt2_memorable_rating,954507,Fictional_Cities_List/img_manmade_40.png,,51,,,3,,,,,,,,,,,,,,,
null,,confidence_buffer,954609,confidence_buffer,,null,,,,,,,,,,,,,,,,,,
2028.5999999046326,,recognition_phase,956639,Fictional_Cities_List/img_manmade_40.png,,52,,,,,,new,1,1,,,,,,,,,,
null,,confidence_buffer,956740,confidence_buffer,,null,,,,,,,,,,,,,,,,,,
null,,thebreak,957242,break,,null,,,,,,,,,,,,,,,,,,
7474.700000047684,,pt2_realistic_rating,964717,US_Cities_List/nat_delawarecity.png,,53,US_Cities_List/nat_delawarecity.png,NAT,5,,,,,,,,,,,,,,,
null,,confidence_buffer,964820,confidence_buffer,,null,,,,,,,,,,,,,,,,,,
1488.6000001430511,,pt2_unique_rating,966309,US_Cities_List/nat_delawarecity.png,,49,,,1,,,,,,,,,,,,,,,
null,,confidence_buffer,966411,confidence_buffer,,null,,,,,,,,,,,,,,,,,,
1635.4000000953674,,probe_rating,968047,probe_rating,,49,,,,1,1,,,,,,,,,,,,,
null,,confidence_buffer,968149,confidence_buffer,,null,,,,,,,,,,,,,,,,,,
2141.100000143051,,pt2_memorable_rating,970291,US_Cities_List/nat_delawarecity.png,,49,,,1,,,,,,,,,,,,,,,
null,,confidence_buffer,970393,confidence_buffer,,null,,,,,,,,,,,,,,,,,,
3140.100000143051,,recognition_phase,973534,US_Cities_List/nat_delawarecity.png,,49,,,,,,old,0,0.96,,,,,,,,,,
null,,confidence_buffer,973645,confidence_buffer,,null,,,,,,,,,,,,,,,,,,
null,,thebreak,974147,break,,null,,,,,,,,,,,,,,,,,,
7603.099999904633,,pt2_realistic_rating,981751,Fictional_Cities_List/img_manmade_28.png,,51,Fictional_Cities_List/img_manmade_28.png,MM,3,,,,,,,,,,,,,,,
null,,confidence_buffer,981854,confidence_buffer,,null,,,,,,,,,,,,,,,,,,
2125.2000000476837,,probe_rating,983981,probe_rating,,49,,,,1,1,,,,,,,,,,,,,
null,,confidence_buffer,984082,confidence_buffer,,null,,,,,,,,,,,,,,,,,,
2779.2000000476837,,pt2_unique_rating,986863,Fictional_Cities_List/img_manmade_28.png,,50,,,2,,,,,,,,,,,,,,,
null,,confidence_buffer,986964,confidence_buffer,,null,,,,,,,,,,,,,,,,,,
1372.1999998092651,,pt2_memorable_rating,988338,Fictional_Cities_List/img_manmade_28.png,,50,,,2,,,,,,,,,,,,,,,
null,,confidence_buffer,988440,confidence_buffer,,null,,,,,,,,,,,,,,,,,,
5854.400000095367,,recognition_phase,994295,Fictional_Cities_List/img_manmade_28.png,,51,,,,,,new,1,0.9615384615384616,,,,,,,,,,
null,,confidence_buffer,994399,confidence_buffer,,null,,,,,,,,,,,,,,,,,,
null,,thebreak,994900,break,,null,,,,,,,,,,,,,,,,,,
12670.399999856949,,pt2_realistic_rating,1007571,Fictional_Cities_List/img_natural_15.png,,52,Fictional_Cities_List/img_natural_15.png,NAT,4,,,,,,,,,,,,,,,
null,,confidence_buffer,1007672,confidence_buffer,,null,,,,,,,,,,,,,,,,,,
2043.6000001430511,,pt2_unique_rating,1009717,Fictional_Cities_List/img_natural_15.png,,51,,,3,,,,,,,,,,,,,,,
null,,confidence_buffer,1009819,confidence_buffer,,null,,,,,,,,,,,,,,,,,,
1729.5,,pt2_memorable_rating,1011550,Fictional_Cities_List/img_natural_15.png,,52,,,4,,,,,,,,,,,,,,,
null,,confidence_buffer,1011652,confidence_buffer,,null,,,,,,,,,,,,,,,,,,
1366.9000000953674,,probe_rating,1013020,probe_rating,,50,,,,2,1,,,,,,,,,,,,,
null,,confidence_buffer,1013122,confidence_buffer,,null,,,,,,,,,,,,,,,,,,
2097.5999999046326,,recognition_phase,1015221,Fictional_Cities_List/img_natural_15.png,,49,,,,,,old,1,0.9629629629629629,,,,,,,,,,
null,,confidence_buffer,1015323,confidence_buffer,,null,,,,,,,,,,,,,,,,,,
null,,thebreak,1015824,break,,null,,,,,,,,,,,,,,,,,,
7624.899999856949,,pt2_realistic_rating,1023450,US_Cities_List/nat_cornwall.png,,53,US_Cities_List/nat_cornwall.png,NAT,5,,,,,,,,,,,,,,,
null,,confidence_buffer,1023552,confidence_buffer,,null,,,,,,,,,,,,,,,,,,
7019.5,,pt2_unique_rating,1030574,US_Cities_List/nat_cornwall.png,,50,,,2,,,,,,,,,,,,,,,
null,,confidence_buffer,1030677,confidence_buffer,,null,,,,,,,,,,,,,,,,,,
2735.7000000476837,,pt2_memorable_rating,1033413,US_Cities_List/nat_cornwall.png,,51,,,3,,,,,,,,,,,,,,,
null,,confidence_buffer,1033515,confidence_buffer,,null,,,,,,,,,,,,,,,,,,
2309.800000190735,,recognition_phase,1035826,US_Cities_List/nat_cornwall.png,,52,,,,,,new,1,0.9642857142857143,,,,,,,,,,
null,,confidence_buffer,1035929,confidence_buffer,,null,,,,,,,,,,,,,,,,,,
null,,thebreak,1036430,break,,null,,,,,,,,,,,,,,,,,,
9005.799999952316,,pt2_realistic_rating,1045437,Fictional_Cities_List/img_natural_24.png,,51,Fictional_Cities_List/img_natural_24.png,NAT,3,,,,,,,,,,,,,,,
null,,confidence_buffer,1045541,confidence_buffer,,null,,,,,,,,,,,,,,,,,,
2172.9000000953674,,pt2_unique_rating,1047716,Fictional_Cities_List/img_natural_24.png,,51,,,3,,,,,,,,,,,,,,,
null,,confidence_buffer,1047818,confidence_buffer,,null,,,,,,,,,,,,,,,,,,
2270.0999999046326,,pt2_memorable_rating,1050089,Fictional_Cities_List/img_natural_24.png,,50,,,2,,,,,,,,,,,,,,,
null,,confidence_buffer,1050190,confidence_buffer,,null,,,,,,,,,,,,,,,,,,
2030.3999998569489,,recognition_phase,1052222,Fictional_Cities_List/img_natural_24.png,,49,,,,,,old,1,0.9655172413793104,,,,,,,,,,
null,,confidence_buffer,1052333,confidence_buffer,,null,,,,,,,,,,,,,,,,,,
null,,thebreak,1052835,break,,null,,,,,,,,,,,,,,,,,,
9382.700000047684,,pt2_realistic_rating,1062218,Fictional_Cities_List/img_natural_28.png,,51,Fictional_Cities_List/img_natural_28.png,NAT,3,,,,,,,,,,,,,,,
null,,confidence_buffer,1062320,confidence_buffer,,null,,,,,,,,,,,,,,,,,,
2327.899999856949,,pt2_unique_rating,1064649,Fictional_Cities_List/img_natural_28.png,,51,,,3,,,,,,,,,,,,,,,
null,,confidence_buffer,1064751,confidence_buffer,,null,,,,,,,,,,,,,,,,,,
2268.7999999523163,,pt2_memorable_rating,1067021,Fictional_Cities_List/img_natural_28.png,,50,,,2,,,,,,,,,,,,,,,
null,,confidence_buffer,1067122,confidence_buffer,,null,,,,,,,,,,,,,,,,,,
3693,,recognition_phase,1070817,Fictional_Cities_List/img_natural_28.png,,52,,,,,,new,1,0.9666666666666667,,,,,,,,,,
null,,confidence_buffer,1070920,confidence_buffer,,null,,,,,,,,,,,,,,,,,,
null,,thebreak,1071421,break,,null,,,,,,,,,,,,,,,,,,
8434.5,,pt2_realistic_rating,1079857,Fictional_Cities_List/img_natural_19.png,,51,Fictional_Cities_List/img_natural_19.png,NAT,3,,,,,,,,,,,,,,,
null,,confidence_buffer,1079959,confidence_buffer,,null,,,,,,,,,,,,,,,,,,
3377.5999999046326,,pt2_unique_rating,1083338,Fictional_Cities_List/img_natural_19.png,,52,,,4,,,,,,,,,,,,,,,
null,,confidence_buffer,1083440,confidence_buffer,,null,,,,,,,,,,,,,,,,,,
3306.5999999046326,,pt2_memorable_rating,1086747,Fictional_Cities_List/img_natural_19.png,,52,,,4,,,,,,,,,,,,,,,
null,,confidence_buffer,1086850,confidence_buffer,,null,,,,,,,,,,,,,,,,,,
2437.7000000476837,,recognition_phase,1089288,Fictional_Cities_List/img_natural_19.png,,52,,,,,,new,1,0.967741935483871,,,,,,,,,,
null,,confidence_buffer,1089391,confidence_buffer,,null,,,,,,,,,,,,,,,,,,
null,,thebreak,1089893,break,,null,,,,,,,,,,,,,,,,,,
8407.699999809265,,pt2_realistic_rating,1098301,Fictional_Cities_List/img_manmade_11.png,,51,Fictional_Cities_List/img_manmade_11.png,MM,3,,,,,,,,,,,,,,,
null,,confidence_buffer,1098403,confidence_buffer,,null,,,,,,,,,,,,,,,,,,
1891.4000000953674,,pt2_unique_rating,1100295,Fictional_Cities_List/img_manmade_11.png,,51,,,3,,,,,,,,,,,,,,,
null,,confidence_buffer,1100396,confidence_buffer,,null,,,,,,,,,,,,,,,,,,
1347.4000000953674,,pt2_memorable_rating,1101744,Fictional_Cities_List/img_manmade_11.png,,51,,,3,,,,,,,,,,,,,,,
null,,confidence_buffer,1101847,confidence_buffer,,null,,,,,,,,,,,,,,,,,,
1414.7000000476837,,recognition_phase,1103263,Fictional_Cities_List/img_manmade_11.png,,49,,,,,,old,1,0.96875,,,,,,,,,,
null,,confidence_buffer,1103365,confidence_buffer,,null,,,,,,,,,,,,,,,,,,
null,,thebreak,1103867,break,,null,,,,,,,,,,,,,,,,,,
3554.2999999523163,,pt2_realistic_rating,1107422,US_Cities_List/mm_healdsburg.png,,53,US_Cities_List/mm_healdsburg.png,MM,5,,,,,,,,,,,,,,,
null,,confidence_buffer,1107524,confidence_buffer,,null,,,,,,,,,,,,,,,,,,
2625.5,,pt2_unique_rating,1110151,US_Cities_List/mm_healdsburg.png,,50,,,2,,,,,,,,,,,,,,,
null,,confidence_buffer,1110253,confidence_buffer,,null,,,,,,,,,,,,,,,,,,
725.0999999046326,,pt2_memorable_rating,1110979,US_Cities_List/mm_healdsburg.png,,50,,,2,,,,,,,,,,,,,,,
null,,confidence_buffer,1111080,confidence_buffer,,null,,,,,,,,,,,,,,,,,,
1456.2999999523163,,recognition_phase,1112538,US_Cities_List/mm_healdsburg.png,,49,,,,,,old,1,0.9696969696969697,,,,,,,,,,
null,,confidence_buffer,1112641,confidence_buffer,,null,,,,,,,,,,,,,,,,,,
null,,thebreak,1113151,break,,null,,,,,,,,,,,,,,,,,,
3680.899999856949,,pt2_realistic_rating,1116833,US_Cities_List/mm_hotsprings.png,,52,US_Cities_List/mm_hotsprings.png,MM,4,,,,,,,,,,,,,,,
null,,confidence_buffer,1116934,confidence_buffer,,null,,,,,,,,,,,,,,,,,,
3429.800000190735,,pt2_unique_rating,1120365,US_Cities_List/mm_hotsprings.png,,50,,,2,,,,,,,,,,,,,,,
null,,confidence_buffer,1120467,confidence_buffer,,null,,,,,,,,,,,,,,,,,,
1323.0999999046326,,pt2_memorable_rating,1121791,US_Cities_List/mm_hotsprings.png,,50,,,2,,,,,,,,,,,,,,,
null,,confidence_buffer,1121892,confidence_buffer,,null,,,,,,,,,,,,,,,,,,
1268.2999999523163,,recognition_phase,1123161,US_Cities_List/mm_hotsprings.png,,49,,,,,,old,1,0.9705882352941176,,,,,,,,,,
null,,confidence_buffer,1123263,confidence_buffer,,null,,,,,,,,,,,,,,,,,,
null,,thebreak,1123765,break,,null,,,,,,,,,,,,,,,,,,
6516.5,,pt2_realistic_rating,1130282,Fictional_Cities_List/img_manmade_35.png,,52,Fictional_Cities_List/img_manmade_35.png,MM,4,,,,,,,,,,,,,,,
null,,confidence_buffer,1130384,confidence_buffer,,null,,,,,,,,,,,,,,,,,,
3925.399999856949,,pt2_unique_rating,1134310,Fictional_Cities_List/img_manmade_35.png,,51,,,3,,,,,,,,,,,,,,,
null,,confidence_buffer,1134412,confidence_buffer,,null,,,,,,,,,,,,,,,,,,
1499.0999999046326,,pt2_memorable_rating,1135912,Fictional_Cities_List/img_manmade_35.png,,50,,,2,,,,,,,,,,,,,,,
null,,confidence_buffer,1136014,confidence_buffer,,null,,,,,,,,,,,,,,,,,,
1403.7999999523163,,recognition_phase,1137419,Fictional_Cities_List/img_manmade_35.png,,49,,,,,,old,1,0.9714285714285714,,,,,,,,,,
null,,confidence_buffer,1137520,confidence_buffer,,null,,,,,,,,,,,,,,,,,,
null,,thebreak,1138022,break,,null,,,,,,,,,,,,,,,,,,
4612.299999952316,,pt2_realistic_rating,1142634,Fictional_Cities_List/img_natural_33.png,,51,Fictional_Cities_List/img_natural_33.png,NAT,3,,,,,,,,,,,,,,,
null,,confidence_buffer,1142736,confidence_buffer,,null,,,,,,,,,,,,,,,,,,
2337,,pt2_unique_rating,1145074,Fictional_Cities_List/img_natural_33.png,,52,,,4,,,,,,,,,,,,,,,
null,,confidence_buffer,1145176,confidence_buffer,,null,,,,,,,,,,,,,,,,,,
2017.5999999046326,,pt2_memorable_rating,1147195,Fictional_Cities_List/img_natural_33.png,,51,,,3,,,,,,,,,,,,,,,
null,,confidence_buffer,1147296,confidence_buffer,,null,,,,,,,,,,,,,,,,,,
1772.9000000953674,,probe_rating,1149070,probe_rating,,51,,,,3,1,,,,,,,,,,,,,
null,,confidence_buffer,1149172,confidence_buffer,,null,,,,,,,,,,,,,,,,,,
1514.7999999523163,,recognition_phase,1150688,Fictional_Cities_List/img_natural_33.png,,49,,,,,,old,1,0.9722222222222222,,,,,,,,,,
null,,confidence_buffer,1150790,confidence_buffer,,null,,,,,,,,,,,,,,,,,,
null,,thebreak,1151291,break,,null,,,,,,,,,,,,,,,,,,
23488.5,,pt2_realistic_rating,1174780,Fictional_Cities_List/img_natural_48.png,,53,Fictional_Cities_List/img_natural_48.png,NAT,5,,,,,,,,,,,,,,,
null,,confidence_buffer,1174883,confidence_buffer,,null,,,,,,,,,,,,,,,,,,
4658,,pt2_unique_rating,1179542,Fictional_Cities_List/img_natural_48.png,,51,,,3,,,,,,,,,,,,,,,
null,,confidence_buffer,1179643,confidence_buffer,,null,,,,,,,,,,,,,,,,,,
1073.2000000476837,,probe_rating,1180718,probe_rating,,49,,,,1,1,,,,,,,,,,,,,
null,,confidence_buffer,1180821,confidence_buffer,,null,,,,,,,,,,,,,,,,,,
2518.2999999523163,,pt2_memorable_rating,1183340,Fictional_Cities_List/img_natural_48.png,,51,,,3,,,,,,,,,,,,,,,
null,,confidence_buffer,1183442,confidence_buffer,,null,,,,,,,,,,,,,,,,,,
3885.2999999523163,,recognition_phase,1187328,Fictional_Cities_List/img_natural_48.png,,52,,,,,,new,1,0.972972972972973,,,,,,,,,,
null,,confidence_buffer,1187430,confidence_buffer,,null,,,,,,,,,,,,,,,,,,
null,,thebreak,1187932,break,,null,,,,,,,,,,,,,,,,,,
6222.400000095367,,pt2_realistic_rating,1194155,US_Cities_List/nat_okoboji.png,,53,US_Cities_List/nat_okoboji.png,NAT,5,,,,,,,,,,,,,,,
null,,confidence_buffer,1194257,confidence_buffer,,null,,,,,,,,,,,,,,,,,,
2843.5,,pt2_unique_rating,1197101,US_Cities_List/nat_okoboji.png,,50,,,2,,,,,,,,,,,,,,,
null,,confidence_buffer,1197203,confidence_buffer,,null,,,,,,,,,,,,,,,,,,
1285.4000000953674,,pt2_memorable_rating,1198489,US_Cities_List/nat_okoboji.png,,50,,,2,,,,,,,,,,,,,,,
null,,confidence_buffer,1198591,confidence_buffer,,null,,,,,,,,,,,,,,,,,,
2863.7999999523163,,recognition_phase,1201456,US_Cities_List/nat_okoboji.png,,52,,,,,,new,1,0.9736842105263158,,,,,,,,,,
null,,confidence_buffer,1201557,confidence_buffer,,null,,,,,,,,,,,,,,,,,,
null,,thebreak,1202058,break,,null,,,,,,,,,,,,,,,,,,
6320.200000047684,,pt2_realistic_rating,1208379,Fictional_Cities_List/img_manmade_31.png,,53,Fictional_Cities_List/img_manmade_31.png,MM,5,,,,,,,,,,,,,,,
null,,confidence_buffer,1208482,confidence_buffer,,null,,,,,,,,,,,,,,,,,,
2358.5,,pt2_unique_rating,1210841,Fictional_Cities_List/img_manmade_31.png,,51,,,3,,,,,,,,,,,,,,,
null,,confidence_buffer,1210943,confidence_buffer,,null,,,,,,,,,,,,,,,,,,
6963.700000047684,,pt2_memorable_rating,1217908,Fictional_Cities_List/img_manmade_31.png,,50,,,2,,,,,,,,,,,,,,,
null,,confidence_buffer,1218010,confidence_buffer,,null,,,,,,,,,,,,,,,,,,
2203.600000143051,,recognition_phase,1220214,Fictional_Cities_List/img_manmade_31.png,,52,,,,,,new,1,0.9743589743589743,,,,,,,,,,
null,,confidence_buffer,1220316,confidence_buffer,,null,,,,,,,,,,,,,,,,,,
null,,thebreak,1220818,break,,null,,,,,,,,,,,,,,,,,,
4431.100000143051,,pt2_realistic_rating,1225250,Fictional_Cities_List/img_manmade_38.png,,52,Fictional_Cities_List/img_manmade_38.png,MM,4,,,,,,,,,,,,,,,
null,,confidence_buffer,1225352,confidence_buffer,,null,,,,,,,,,,,,,,,,,,
2656.2999999523163,,pt2_unique_rating,1228010,Fictional_Cities_List/img_manmade_38.png,,51,,,3,,,,,,,,,,,,,,,
null,,confidence_buffer,1228112,confidence_buffer,,null,,,,,,,,,,,,,,,,,,
1541.1000001430511,,pt2_memorable_rating,1229654,Fictional_Cities_List/img_manmade_38.png,,51,,,3,,,,,,,,,,,,,,,
null,,confidence_buffer,1229755,confidence_buffer,,null,,,,,,,,,,,,,,,,,,
1334.2999999523163,,recognition_phase,1231091,Fictional_Cities_List/img_manmade_38.png,,49,,,,,,old,1,0.975,,,,,,,,,,
null,,confidence_buffer,1231193,confidence_buffer,,null,,,,,,,,,,,,,,,,,,
null,,thebreak,1231695,break,,null,,,,,,,,,,,,,,,,,,
3449.600000143051,,pt2_realistic_rating,1235145,US_Cities_List/mm_athens.png,,53,US_Cities_List/mm_athens.png,MM,5,,,,,,,,,,,,,,,
null,,confidence_buffer,1235246,confidence_buffer,,null,,,,,,,,,,,,,,,,,,
2038.7000000476837,,pt2_unique_rating,1237286,US_Cities_List/mm_athens.png,,49,,,1,,,,,,,,,,,,,,,
null,,confidence_buffer,1237388,confidence_buffer,,null,,,,,,,,,,,,,,,,,,
1161.5999999046326,,pt2_memorable_rating,1238551,US_Cities_List/mm_athens.png,,49,,,1,,,,,,,,,,,,,,,
null,,confidence_buffer,1238652,confidence_buffer,,null,,,,,,,,,,,,,,,,,,
2048.7000000476837,,probe_rating,1240702,probe_rating,,53,,,,5,1,,,,,,,,,,,,,
null,,confidence_buffer,1240804,confidence_buffer,,null,,,,,,,,,,,,,,,,,,
3047.800000190735,,recognition_phase,1243853,US_Cities_List/mm_athens.png,,52,,,,,,new,1,0.975609756097561,,,,,,,,,,
null,,confidence_buffer,1243955,confidence_buffer,,null,,,,,,,,,,,,,,,,,,
null,,thebreak,1244456,break,,null,,,,,,,,,,,,,,,,,,
5037.799999952316,,pt2_realistic_rating,1249495,US_Cities_List/mm_delawarecity.png,,52,US_Cities_List/mm_delawarecity.png,MM,4,,,,,,,,,,,,,,,
null,,confidence_buffer,1249596,confidence_buffer,,null,,,,,,,,,,,,,,,,,,
3354.9000000953674,,probe_rating,1252952,probe_rating,,52,,,,4,1,,,,,,,,,,,,,
null,,confidence_buffer,1253054,confidence_buffer,,null,,,,,,,,,,,,,,,,,,
3835.7000000476837,,pt2_unique_rating,1256891,US_Cities_List/mm_delawarecity.png,,50,,,2,,,,,,,,,,,,,,,
null,,confidence_buffer,1256994,confidence_buffer,,null,,,,,,,,,,,,,,,,,,
898.2000000476837,,pt2_memorable_rating,1257893,US_Cities_List/mm_delawarecity.png,,50,,,2,,,,,,,,,,,,,,,
null,,confidence_buffer,1257994,confidence_buffer,,null,,,,,,,,,,,,,,,,,,
1366.9000000953674,,recognition_phase,1259362,US_Cities_List/mm_delawarecity.png,,49,,,,,,old,1,0.9761904761904762,,,,,,,,,,
null,,confidence_buffer,1259464,confidence_buffer,,null,,,,,,,,,,,,,,,,,,
null,,thebreak,1259966,break,,null,,,,,,,,,,,,,,,,,,
8757.100000143051,,pt2_realistic_rating,1268724,Fictional_Cities_List/img_manmade_22.png,,51,Fictional_Cities_List/img_manmade_22.png,MM,3,,,,,,,,,,,,,,,
null,,confidence_buffer,1268826,confidence_buffer,,null,,,,,,,,,,,,,,,,,,
1435,,probe_rating,1270262,probe_rating,,50,,,,2,1,,,,,,,,,,,,,
null,,confidence_buffer,1270364,confidence_buffer,,null,,,,,,,,,,,,,,,,,,
2587.2999999523163,,pt2_unique_rating,1272953,Fictional_Cities_List/img_manmade_22.png,,52,,,4,,,,,,,,,,,,,,,
null,,confidence_buffer,1273054,confidence_buffer,,null,,,,,,,,,,,,,,,,,,
1429.7000000476837,,pt2_memorable_rating,1274485,Fictional_Cities_List/img_manmade_22.png,,52,,,4,,,,,,,,,,,,,,,
null,,confidence_buffer,1274587,confidence_buffer,,null,,,,,,,,,,,,,,,,,,
3512.5,,recognition_phase,1278100,Fictional_Cities_List/img_manmade_22.png,,49,,,,,,old,1,0.9767441860465116,,,,,,,,,,
null,,confidence_buffer,1278201,confidence_buffer,,null,,,,,,,,,,,,,,,,,,
null,,thebreak,1278703,break,,null,,,,,,,,,,,,,,,,,,
5977.700000047684,,pt2_realistic_rating,1284681,US_Cities_List/mm_sitka.png,,52,US_Cities_List/mm_sitka.png,MM,4,,,,,,,,,,,,,,,
null,,confidence_buffer,1284783,confidence_buffer,,null,,,,,,,,,,,,,,,,,,
4196,,pt2_unique_rating,1288980,US_Cities_List/mm_sitka.png,,50,,,2,,,,,,,,,,,,,,,
null,,confidence_buffer,1289081,confidence_buffer,,null,,,,,,,,,,,,,,,,,,
1845.4000000953674,,pt2_memorable_rating,1290927,US_Cities_List/mm_sitka.png,,49,,,1,,,,,,,,,,,,,,,
null,,confidence_buffer,1291029,confidence_buffer,,null,,,,,,,,,,,,,,,,,,
2570.899999856949,,recognition_phase,1293601,US_Cities_List/mm_sitka.png,,52,,,,,,new,1,0.9772727272727273,,,,,,,,,,
null,,confidence_buffer,1293703,confidence_buffer,,null,,,,,,,,,,,,,,,,,,
null,,thebreak,1294204,break,,null,,,,,,,,,,,,,,,,,,
10553.200000047684,,pt2_realistic_rating,1304759,Fictional_Cities_List/img_manmade_33.png,,51,Fictional_Cities_List/img_manmade_33.png,MM,3,,,,,,,,,,,,,,,
null,,confidence_buffer,1304861,confidence_buffer,,null,,,,,,,,,,,,,,,,,,
2607.7999999523163,,pt2_unique_rating,1307470,Fictional_Cities_List/img_manmade_33.png,,51,,,3,,,,,,,,,,,,,,,
null,,confidence_buffer,1307572,confidence_buffer,,null,,,,,,,,,,,,,,,,,,
1867.4000000953674,,pt2_memorable_rating,1309441,Fictional_Cities_List/img_manmade_33.png,,50,,,2,,,,,,,,,,,,,,,
null,,confidence_buffer,1309543,confidence_buffer,,null,,,,,,,,,,,,,,,,,,
4208.700000047684,,recognition_phase,1313752,Fictional_Cities_List/img_manmade_33.png,,52,,,,,,new,1,0.9777777777777777,,,,,,,,,,
null,,confidence_buffer,1313854,confidence_buffer,,null,,,,,,,,,,,,,,,,,,
null,,thebreak,1314356,break,,null,,,,,,,,,,,,,,,,,,
3725.4000000953674,,pt2_realistic_rating,1318082,US_Cities_List/nat_healdsburg.png,,53,US_Cities_List/nat_healdsburg.png,NAT,5,,,,,,,,,,,,,,,
null,,confidence_buffer,1318184,confidence_buffer,,null,,,,,,,,,,,,,,,,,,
1978.7999999523163,,pt2_unique_rating,1320164,US_Cities_List/nat_healdsburg.png,,49,,,1,,,,,,,,,,,,,,,
null,,confidence_buffer,1320266,confidence_buffer,,null,,,,,,,,,,,,,,,,,,
1331.3000001907349,,pt2_memorable_rating,1321599,US_Cities_List/nat_healdsburg.png,,49,,,1,,,,,,,,,,,,,,,
null,,confidence_buffer,1321701,confidence_buffer,,null,,,,,,,,,,,,,,,,,,
1269.2999999523163,,recognition_phase,1322971,US_Cities_List/nat_healdsburg.png,,49,,,,,,old,1,0.9782608695652174,,,,,,,,,,
null,,confidence_buffer,1323074,confidence_buffer,,null,,,,,,,,,,,,,,,,,,
null,,thebreak,1323575,break,,null,,,,,,,,,,,,,,,,,,
5674.5,,pt2_realistic_rating,1329251,US_Cities_List/nat_boulder.png,,53,US_Cities_List/nat_boulder.png,NAT,5,,,,,,,,,,,,,,,
null,,confidence_buffer,1329352,confidence_buffer,,null,,,,,,,,,,,,,,,,,,
2620.9000000953674,,pt2_unique_rating,1331974,US_Cities_List/nat_boulder.png,,52,,,4,,,,,,,,,,,,,,,
null,,confidence_buffer,1332076,confidence_buffer,,null,,,,,,,,,,,,,,,,,,
2538.7999999523163,,pt2_memorable_rating,1334616,US_Cities_List/nat_boulder.png,,50,,,2,,,,,,,,,,,,,,,
null,,confidence_buffer,1334731,confidence_buffer,,null,,,,,,,,,,,,,,,,,,
2194.5999999046326,,recognition_phase,1336927,US_Cities_List/nat_boulder.png,,52,,,,,,new,1,0.9787234042553191,,,,,,,,,,
null,,confidence_buffer,1337029,confidence_buffer,,null,,,,,,,,,,,,,,,,,,
null,,thebreak,1337531,break,,null,,,,,,,,,,,,,,,,,,
6197.700000047684,,pt2_realistic_rating,1343729,Fictional_Cities_List/img_natural_40.png,,53,Fictional_Cities_List/img_natural_40.png,NAT,5,,,,,,,,,,,,,,,
null,,confidence_buffer,1343832,confidence_buffer,,null,,,,,,,,,,,,,,,,,,
2780.600000143051,,pt2_unique_rating,1346614,Fictional_Cities_List/img_natural_40.png,,51,,,3,,,,,,,,,,,,,,,
null,,confidence_buffer,1346716,confidence_buffer,,null,,,,,,,,,,,,,,,,,,
1323.8000001907349,,pt2_memorable_rating,1348041,Fictional_Cities_List/img_natural_40.png,,51,,,3,,,,,,,,,,,,,,,
null,,confidence_buffer,1348143,confidence_buffer,,null,,,,,,,,,,,,,,,,,,
1186.2999999523163,,probe_rating,1349331,probe_rating,,50,,,,2,1,,,,,,,,,,,,,
null,,confidence_buffer,1349432,confidence_buffer,,null,,,,,,,,,,,,,,,,,,
2258.0999999046326,,recognition_phase,1351692,Fictional_Cities_List/img_natural_40.png,,52,,,,,,new,1,0.9791666666666666,,,,,,,,,,
null,,confidence_buffer,1351794,confidence_buffer,,null,,,,,,,,,,,,,,,,,,
null,,thebreak,1352295,break,,null,,,,,,,,,,,,,,,,,,
5059.099999904633,,pt2_realistic_rating,1357355,Fictional_Cities_List/img_natural_27.png,,51,Fictional_Cities_List/img_natural_27.png,NAT,3,,,,,,,,,,,,,,,
null,,confidence_buffer,1357457,confidence_buffer,,null,,,,,,,,,,,,,,,,,,
2084.0999999046326,,pt2_unique_rating,1359542,Fictional_Cities_List/img_natural_27.png,,50,,,2,,,,,,,,,,,,,,,
null,,confidence_buffer,1359644,confidence_buffer,,null,,,,,,,,,,,,,,,,,,
1091.4000000953674,,pt2_memorable_rating,1360736,Fictional_Cities_List/img_natural_27.png,,50,,,2,,,,,,,,,,,,,,,
null,,confidence_buffer,1360837,confidence_buffer,,null,,,,,,,,,,,,,,,,,,
2720.600000143051,,recognition_phase,1363559,Fictional_Cities_List/img_natural_27.png,,52,,,,,,new,1,0.9795918367346939,,,,,,,,,,
null,,confidence_buffer,1363661,confidence_buffer,,null,,,,,,,,,,,,,,,,,,
null,,thebreak,1364163,break,,null,,,,,,,,,,,,,,,,,,
5000.599999904633,,pt2_realistic_rating,1369165,Fictional_Cities_List/img_manmade_16.png,,52,Fictional_Cities_List/img_manmade_16.png,MM,4,,,,,,,,,,,,,,,
null,,confidence_buffer,1369267,confidence_buffer,,null,,,,,,,,,,,,,,,,,,
3167.7999999523163,,pt2_unique_rating,1372436,Fictional_Cities_List/img_manmade_16.png,,51,,,3,,,,,,,,,,,,,,,
null,,confidence_buffer,1372538,confidence_buffer,,null,,,,,,,,,,,,,,,,,,
1903.5999999046326,,pt2_memorable_rating,1374443,Fictional_Cities_List/img_manmade_16.png,,51,,,3,,,,,,,,,,,,,,,
null,,confidence_buffer,1374544,confidence_buffer,,null,,,,,,,,,,,,,,,,,,
1384.5,,recognition_phase,1375930,Fictional_Cities_List/img_manmade_16.png,,49,,,,,,old,1,0.98,,,,,,,,,,
null,,confidence_buffer,1376033,confidence_buffer,,null,,,,,,,,,,,,,,,,,,
null,,thebreak,1376535,break,,null,,,,,,,,,,,,,,,,,,
6305.299999952316,,pt2_realistic_rating,1382841,Fictional_Cities_List/img_manmade_27.png,,52,Fictional_Cities_List/img_manmade_27.png,MM,4,,,,,,,,,,,,,,,
null,,confidence_buffer,1382943,confidence_buffer,,null,,,,,,,,,,,,,,,,,,
5026.400000095367,,pt2_unique_rating,1387970,Fictional_Cities_List/img_manmade_27.png,,51,,,3,,,,,,,,,,,,,,,
null,,confidence_buffer,1388072,confidence_buffer,,null,,,,,,,,,,,,,,,,,,
1438.7999999523163,,pt2_memorable_rating,1389511,Fictional_Cities_List/img_manmade_27.png,,50,,,2,,,,,,,,,,,,,,,
null,,confidence_buffer,1389613,confidence_buffer,,null,,,,,,,,,,,,,,,,,,
1712.7999999523163,,recognition_phase,1391326,Fictional_Cities_List/img_manmade_27.png,,52,,,,,,new,1,0.9803921568627451,,,,,,,,,,
null,,confidence_buffer,1391428,confidence_buffer,,null,,,,,,,,,,,,,,,,,,
null,,thebreak,1391929,break,,null,,,,,,,,,,,,,,,,,,
4876.099999904633,,pt2_realistic_rating,1396806,Fictional_Cities_List/img_manmade_19.png,,52,Fictional_Cities_List/img_manmade_19.png,MM,4,,,,,,,,,,,,,,,
null,,confidence_buffer,1396908,confidence_buffer,,null,,,,,,,,,,,,,,,,,,
1327.1999998092651,,pt2_unique_rating,1398236,Fictional_Cities_List/img_manmade_19.png,,49,,,1,,,,,,,,,,,,,,,
null,,confidence_buffer,1398338,confidence_buffer,,null,,,,,,,,,,,,,,,,,,
1035.3999998569489,,pt2_memorable_rating,1399375,Fictional_Cities_List/img_manmade_19.png,,49,,,1,,,,,,,,,,,,,,,
null,,confidence_buffer,1399476,confidence_buffer,,null,,,,,,,,,,,,,,,,,,
2460.0999999046326,,recognition_phase,1401937,Fictional_Cities_List/img_manmade_19.png,,52,,,,,,new,1,0.9807692307692307,,,,,,,,,,
null,,confidence_buffer,1402039,confidence_buffer,,null,,,,,,,,,,,,,,,,,,
null,,thebreak,1402541,break,,null,,,,,,,,,,,,,,,,,,
2851,,pt2_realistic_rating,1405392,US_Cities_List/nat_westpalmbeach.png,,53,US_Cities_List/nat_westpalmbeach.png,NAT,5,,,,,,,,,,,,,,,
null,,confidence_buffer,1405495,confidence_buffer,,null,,,,,,,,,,,,,,,,,,
3956.300000190735,,pt2_unique_rating,1409452,US_Cities_List/nat_westpalmbeach.png,,52,,,4,,,,,,,,,,,,,,,
null,,confidence_buffer,1409554,confidence_buffer,,null,,,,,,,,,,,,,,,,,,
3167.5,,pt2_memorable_rating,1412723,US_Cities_List/nat_westpalmbeach.png,,52,,,4,,,,,,,,,,,,,,,
null,,confidence_buffer,1412824,confidence_buffer,,null,,,,,,,,,,,,,,,,,,
2257,,recognition_phase,1415083,US_Cities_List/nat_westpalmbeach.png,,52,,,,,,new,1,0.9811320754716981,,,,,,,,,,
null,,confidence_buffer,1415185,confidence_buffer,,null,,,,,,,,,,,,,,,,,,
null,,thebreak,1415686,break,,null,,,,,,,,,,,,,,,,,,
2495.2000000476837,,pt2_realistic_rating,1418182,US_Cities_List/nat_coeurdalene.png,,53,US_Cities_List/nat_coeurdalene.png,NAT,5,,,,,,,,,,,,,,,
null,,confidence_buffer,1418284,confidence_buffer,,null,,,,,,,,,,,,,,,,,,
2280.600000143051,,pt2_unique_rating,1420565,US_Cities_List/nat_coeurdalene.png,,50,,,2,,,,,,,,,,,,,,,
null,,confidence_buffer,1420667,confidence_buffer,,null,,,,,,,,,,,,,,,,,,
1008,,pt2_memorable_rating,1421676,US_Cities_List/nat_coeurdalene.png,,50,,,2,,,,,,,,,,,,,,,
null,,confidence_buffer,1421778,confidence_buffer,,null,,,,,,,,,,,,,,,,,,
1396.7000000476837,,probe_rating,1423176,probe_rating,,51,,,,3,1,,,,,,,,,,,,,
null,,confidence_buffer,1423278,confidence_buffer,,null,,,,,,,,,,,,,,,,,,
1970.7000000476837,,recognition_phase,1425250,US_Cities_List/nat_coeurdalene.png,,52,,,,,,new,1,0.9814814814814815,,,,,,,,,,
null,,confidence_buffer,1425351,confidence_buffer,,null,,,,,,,,,,,,,,,,,,
null,,thebreak,1425854,break,,null,,,,,,,,,,,,,,,,,,
7399.700000047684,,pt2_realistic_rating,1433254,Fictional_Cities_List/img_natural_22.png,,51,Fictional_Cities_List/img_natural_22.png,NAT,3,,,,,,,,,,,,,,,
null,,confidence_buffer,1433356,confidence_buffer,,null,,,,,,,,,,,,,,,,,,
1537.5,,probe_rating,1434894,probe_rating,,50,,,,2,1,,,,,,,,,,,,,
null,,confidence_buffer,1434996,confidence_buffer,,null,,,,,,,,,,,,,,,,,,
2085.7999999523163,,pt2_unique_rating,1437083,Fictional_Cities_List/img_natural_22.png,,51,,,3,,,,,,,,,,,,,,,
null,,confidence_buffer,1437184,confidence_buffer,,null,,,,,,,,,,,,,,,,,,
1969.5,,pt2_memorable_rating,1439154,Fictional_Cities_List/img_natural_22.png,,50,,,2,,,,,,,,,,,,,,,
null,,confidence_buffer,1439256,confidence_buffer,,null,,,,,,,,,,,,,,,,,,
3118.0999999046326,,recognition_phase,1442375,Fictional_Cities_List/img_natural_22.png,,52,,,,,,new,1,0.9818181818181818,,,,,,,,,,
null,,confidence_buffer,1442477,confidence_buffer,,null,,,,,,,,,,,,,,,,,,
null,,thebreak,1442978,break,,null,,,,,,,,,,,,,,,,,,
3438.300000190735,,pt2_realistic_rating,1446418,US_Cities_List/nat_carmel.png,,53,US_Cities_List/nat_carmel.png,NAT,5,,,,,,,,,,,,,,,
null,,confidence_buffer,1446521,confidence_buffer,,null,,,,,,,,,,,,,,,,,,
1716.9000000953674,,pt2_unique_rating,1448239,US_Cities_List/nat_carmel.png,,53,,,5,,,,,,,,,,,,,,,
null,,confidence_buffer,1448341,confidence_buffer,,null,,,,,,,,,,,,,,,,,,
1263,,pt2_memorable_rating,1449605,US_Cities_List/nat_carmel.png,,53,,,5,,,,,,,,,,,,,,,
null,,confidence_buffer,1449712,confidence_buffer,,null,,,,,,,,,,,,,,,,,,
2047.4000000953674,,recognition_phase,1451760,US_Cities_List/nat_carmel.png,,52,,,,,,new,1,0.9821428571428571,,,,,,,,,,
null,,confidence_buffer,1451862,confidence_buffer,,null,,,,,,,,,,,,,,,,,,
null,,thebreak,1452364,break,,null,,,,,,,,,,,,,,,,,,
2921.100000143051,,pt2_realistic_rating,1455286,Fictional_Cities_List/img_natural_11.png,,53,Fictional_Cities_List/img_natural_11.png,NAT,5,,,,,,,,,,,,,,,
null,,confidence_buffer,1455388,confidence_buffer,,null,,,,,,,,,,,,,,,,,,
1445.5,,pt2_unique_rating,1456834,Fictional_Cities_List/img_natural_11.png,,52,,,4,,,,,,,,,,,,,,,
null,,confidence_buffer,1456936,confidence_buffer,,null,,,,,,,,,,,,,,,,,,
803,,pt2_memorable_rating,1457740,Fictional_Cities_List/img_natural_11.png,,52,,,4,,,,,,,,,,,,,,,
null,,confidence_buffer,1457843,confidence_buffer,,null,,,,,,,,,,,,,,,,,,
1101.6000001430511,,probe_rating,1458946,probe_rating,,51,,,,3,1,,,,,,,,,,,,,
null,,confidence_buffer,1459049,confidence_buffer,,null,,,,,,,,,,,,,,,,,,
2192.9000000953674,,recognition_phase,1461244,Fictional_Cities_List/img_natural_11.png,,49,,,,,,old,1,0.9824561403508771,,,,,,,,,,
null,,confidence_buffer,1461346,confidence_buffer,,null,,,,,,,,,,,,,,,,,,
null,,thebreak,1461847,break,,null,,,,,,,,,,,,,,,,,,
2574,,pt2_realistic_rating,1464422,US_Cities_List/mm_westpalmbeach.png,,52,US_Cities_List/mm_westpalmbeach.png,MM,4,,,,,,,,,,,,,,,
null,,confidence_buffer,1464524,confidence_buffer,,null,,,,,,,,,,,,,,,,,,
1381,,pt2_unique_rating,1465906,US_Cities_List/mm_westpalmbeach.png,,51,,,3,,,,,,,,,,,,,,,
null,,confidence_buffer,1466007,confidence_buffer,,null,,,,,,,,,,,,,,,,,,
1433.1999998092651,,pt2_memorable_rating,1467441,US_Cities_List/mm_westpalmbeach.png,,50,,,2,,,,,,,,,,,,,,,
null,,confidence_buffer,1467543,confidence_buffer,,null,,,,,,,,,,,,,,,,,,
1068,,recognition_phase,1468612,US_Cities_List/mm_westpalmbeach.png,,49,,,,,,old,1,0.9827586206896551,,,,,,,,,,
null,,confidence_buffer,1468713,confidence_buffer,,null,,,,,,,,,,,,,,,,,,
null,,thebreak,1469215,break,,null,,,,,,,,,,,,,,,,,,
4056.899999856949,,pt2_realistic_rating,1473272,US_Cities_List/mm_coeurdalene.png,,52,US_Cities_List/mm_coeurdalene.png,MM,4,,,,,,,,,,,,,,,
null,,confidence_buffer,1473374,confidence_buffer,,null,,,,,,,,,,,,,,,,,,
1490.7000000476837,,pt2_unique_rating,1474866,US_Cities_List/mm_coeurdalene.png,,50,,,2,,,,,,,,,,,,,,,
null,,confidence_buffer,1474968,confidence_buffer,,null,,,,,,,,,,,,,,,,,,
932.0999999046326,,pt2_memorable_rating,1475901,US_Cities_List/mm_coeurdalene.png,,50,,,2,,,,,,,,,,,,,,,
null,,confidence_buffer,1476003,confidence_buffer,,null,,,,,,,,,,,,,,,,,,
1323.5999999046326,,recognition_phase,1477328,US_Cities_List/mm_coeurdalene.png,,49,,,,,,old,1,0.9830508474576272,,,,,,,,,,
null,,confidence_buffer,1477430,confidence_buffer,,null,,,,,,,,,,,,,,,,,,
null,,thebreak,1477932,break,,null,,,,,,,,,,,,,,,,,,
11919.899999856949,,pt2_realistic_rating,1489853,Fictional_Cities_List/img_natural_03.png,,50,Fictional_Cities_List/img_natural_03.png,NAT,2,,,,,,,,,,,,,,,
null,,confidence_buffer,1489955,confidence_buffer,,null,,,,,,,,,,,,,,,,,,
2293.0999999046326,,pt2_unique_rating,1492249,Fictional_Cities_List/img_natural_03.png,,50,,,2,,,,,,,,,,,,,,,
null,,confidence_buffer,1492351,confidence_buffer,,null,,,,,,,,,,,,,,,,,,
2010.6000001430511,,pt2_memorable_rating,1494364,Fictional_Cities_List/img_natural_03.png,,50,,,2,,,,,,,,,,,,,,,
null,,confidence_buffer,1494466,confidence_buffer,,null,,,,,,,,,,,,,,,,,,
3679.2000000476837,,recognition_phase,1498147,Fictional_Cities_List/img_natural_03.png,,52,,,,,,new,0,0.9666666666666667,,,,,,,,,,
null,,confidence_buffer,1498248,confidence_buffer,,null,,,,,,,,,,,,,,,,,,
null,,thebreak,1498750,break,,null,,,,,,,,,,,,,,,,,,
,,survey,1907185,survey-questions,,,,,,,,,,,none,high,No, nothing,No strategies, just paid attention to the pics, I enjoy these type of visual studies.,I took it to mean had I seen such an image before (in real life or otherwise).,It's sometimes hard to define what is memorable - that's more than highly subjective.,What I consider unique may not be the case elsewhere for instance.,Could it exist in real life.,No,The pics could have been larger while the text smaller - with full screen no adjustment could be made - Thanks!
