rt,responses,trial_type,time_elapsed,stimulus,button_pressed,key_press,name_trial,city_type,rating,probe,probe_accuracy,response,correct,accuracy,problems,smooth,distraction,strategies,familiar,memorable,unique,realistic,similar,comments
5781.699999928474,{worker_id:6352c60b4a9850783773f265},id_enter,5788,,,,,,,,,,,,,,,,,,,,,
2038.7000000476837,,fullscreen,7829,fullscreen,0,,,,,,,,,,,,,,,,,,,
3760.899999976158,,intro_0,11594,instruct,,32,,,,,,,,,,,,,,,,,,
6692.5,,intro_1,18289,instruct,,32,,,,,,,,,,,,,,,,,,
6412.399999976158,,intro_2,24702,instruct,,32,,,,,,,,,,,,,,,,,,
null,,instruct_dir_4,26204,instruct,,null,,,,,,,,,,,,,,,,,,
null,,thebreak,26705,break,,null,,,,,,,,,,,,,,,,,,
7801.799999952316,,familiar_rating,34508,Fictional_Cities_List/img_natural_21.png,,49,Fictional_Cities_List/img_natural_21.png,NAT,1,,,,,,,,,,,,,,,
null,,confidence_buffer,34610,confidence_buffer,,null,,,,,,,,,,,,,,,,,,
2959.2000000476837,,unique_rating,37570,Fictional_Cities_List/img_natural_21.png,,51,,,3,,,,,,,,,,,,,,,
null,,confidence_buffer,37672,confidence_buffer,,null,,,,,,,,,,,,,,,,,,
1680.6000000238419,,memorable_rating,39353,Fictional_Cities_List/img_natural_21.png,,49,,,1,,,,,,,,,,,,,,,
null,,confidence_buffer,39454,confidence_buffer,,null,,,,,,,,,,,,,,,,,,
null,,thebreak,39957,break,,null,,,,,,,,,,,,,,,,,,
4206.399999976158,,familiar_rating,44164,US_Cities_List/nat_sitka.png,,51,US_Cities_List/nat_sitka.png,NAT,3,,,,,,,,,,,,,,,
null,,confidence_buffer,44266,confidence_buffer,,null,,,,,,,,,,,,,,,,,,
2146.5,,unique_rating,46413,US_Cities_List/nat_sitka.png,,52,,,4,,,,,,,,,,,,,,,
null,,confidence_buffer,46514,confidence_buffer,,null,,,,,,,,,,,,,,,,,,
1661.3999999761581,,memorable_rating,48176,US_Cities_List/nat_sitka.png,,52,,,4,,,,,,,,,,,,,,,
null,,confidence_buffer,48278,confidence_buffer,,null,,,,,,,,,,,,,,,,,,
null,,thebreak,48780,break,,null,,,,,,,,,,,,,,,,,,
1968.4000000953674,,familiar_rating,50749,US_Cities_List/nat_boulder.png,,49,US_Cities_List/nat_boulder.png,NAT,1,,,,,,,,,,,,,,,
null,,confidence_buffer,50851,confidence_buffer,,null,,,,,,,,,,,,,,,,,,
2014.5,,unique_rating,52866,US_Cities_List/nat_boulder.png,,53,,,5,,,,,,,,,,,,,,,
null,,confidence_buffer,52969,confidence_buffer,,null,,,,,,,,,,,,,,,,,,
2238.7000000476837,,memorable_rating,55208,US_Cities_List/nat_boulder.png,,52,,,4,,,,,,,,,,,,,,,
null,,confidence_buffer,55309,confidence_buffer,,null,,,,,,,,,,,,,,,,,,
null,,thebreak,55811,break,,null,,,,,,,,,,,,,,,,,,
3077.3000000715256,,familiar_rating,58888,Fictional_Cities_List/img_natural_27.png,,49,Fictional_Cities_List/img_natural_27.png,NAT,1,,,,,,,,,,,,,,,
null,,confidence_buffer,58990,confidence_buffer,,null,,,,,,,,,,,,,,,,,,
3440.5,,unique_rating,62432,Fictional_Cities_List/img_natural_27.png,,52,,,4,,,,,,,,,,,,,,,
null,,confidence_buffer,62534,confidence_buffer,,null,,,,,,,,,,,,,,,,,,
1752.3999999761581,,memorable_rating,64287,Fictional_Cities_List/img_natural_27.png,,50,,,2,,,,,,,,,,,,,,,
null,,confidence_buffer,64388,confidence_buffer,,null,,,,,,,,,,,,,,,,,,
null,,thebreak,64889,break,,null,,,,,,,,,,,,,,,,,,
6923.399999976158,,familiar_rating,71813,US_Cities_List/nat_westpalmbeach.png,,51,US_Cities_List/nat_westpalmbeach.png,NAT,3,,,,,,,,,,,,,,,
null,,confidence_buffer,71914,confidence_buffer,,null,,,,,,,,,,,,,,,,,,
1687.6000000238419,,unique_rating,73603,US_Cities_List/nat_westpalmbeach.png,,52,,,4,,,,,,,,,,,,,,,
null,,confidence_buffer,73704,confidence_buffer,,null,,,,,,,,,,,,,,,,,,
2270.399999976158,,memorable_rating,75975,US_Cities_List/nat_westpalmbeach.png,,51,,,3,,,,,,,,,,,,,,,
null,,confidence_buffer,76080,confidence_buffer,,null,,,,,,,,,,,,,,,,,,
3591.600000023842,,probe_rating,79673,probe_rating,,52,,,,4,1,,,,,,,,,,,,,
null,,confidence_buffer,79774,confidence_buffer,,null,,,,,,,,,,,,,,,,,,
null,,thebreak,80276,break,,null,,,,,,,,,,,,,,,,,,
4443.5,,familiar_rating,84720,Fictional_Cities_List/img_manmade_16.png,,51,Fictional_Cities_List/img_manmade_16.png,MM,3,,,,,,,,,,,,,,,
null,,confidence_buffer,84822,confidence_buffer,,null,,,,,,,,,,,,,,,,,,
1746.3000000715256,,unique_rating,86569,Fictional_Cities_List/img_manmade_16.png,,50,,,2,,,,,,,,,,,,,,,
null,,confidence_buffer,86672,confidence_buffer,,null,,,,,,,,,,,,,,,,,,
1589.8999999761581,,memorable_rating,88263,Fictional_Cities_List/img_manmade_16.png,,49,,,1,,,,,,,,,,,,,,,
null,,confidence_buffer,88365,confidence_buffer,,null,,,,,,,,,,,,,,,,,,
null,,thebreak,88868,break,,null,,,,,,,,,,,,,,,,,,
3017.7999999523163,,familiar_rating,91887,Fictional_Cities_List/img_natural_16.png,,49,Fictional_Cities_List/img_natural_16.png,NAT,1,,,,,,,,,,,,,,,
null,,confidence_buffer,91988,confidence_buffer,,null,,,,,,,,,,,,,,,,,,
1947.5,,unique_rating,93936,Fictional_Cities_List/img_natural_16.png,,51,,,3,,,,,,,,,,,,,,,
null,,confidence_buffer,94039,confidence_buffer,,null,,,,,,,,,,,,,,,,,,
952,,memorable_rating,94991,Fictional_Cities_List/img_natural_16.png,,50,,,2,,,,,,,,,,,,,,,
null,,confidence_buffer,95093,confidence_buffer,,null,,,,,,,,,,,,,,,,,,
null,,thebreak,95607,break,,null,,,,,,,,,,,,,,,,,,
6761.800000071526,,familiar_rating,102370,Fictional_Cities_List/img_natural_06.png,,50,Fictional_Cities_List/img_natural_06.png,NAT,2,,,,,,,,,,,,,,,
null,,confidence_buffer,102471,confidence_buffer,,null,,,,,,,,,,,,,,,,,,
1724.3999999761581,,unique_rating,104196,Fictional_Cities_List/img_natural_06.png,,53,,,5,,,,,,,,,,,,,,,
null,,confidence_buffer,104298,confidence_buffer,,null,,,,,,,,,,,,,,,,,,
1537.3000000715256,,memorable_rating,105836,Fictional_Cities_List/img_natural_06.png,,52,,,4,,,,,,,,,,,,,,,
null,,confidence_buffer,105951,confidence_buffer,,null,,,,,,,,,,,,,,,,,,
null,,thebreak,106453,break,,null,,,,,,,,,,,,,,,,,,
4909.899999976158,,familiar_rating,111363,Fictional_Cities_List/img_manmade_07.png,,52,Fictional_Cities_List/img_manmade_07.png,MM,4,,,,,,,,,,,,,,,
null,,confidence_buffer,111466,confidence_buffer,,null,,,,,,,,,,,,,,,,,,
2588.5,,unique_rating,114056,Fictional_Cities_List/img_manmade_07.png,,51,,,3,,,,,,,,,,,,,,,
null,,confidence_buffer,114157,confidence_buffer,,null,,,,,,,,,,,,,,,,,,
3159.2999999523163,,memorable_rating,117317,Fictional_Cities_List/img_manmade_07.png,,51,,,3,,,,,,,,,,,,,,,
null,,confidence_buffer,117419,confidence_buffer,,null,,,,,,,,,,,,,,,,,,
null,,thebreak,117920,break,,null,,,,,,,,,,,,,,,,,,
2008,,familiar_rating,119929,US_Cities_List/nat_peoria.png,,49,US_Cities_List/nat_peoria.png,NAT,1,,,,,,,,,,,,,,,
null,,confidence_buffer,120030,confidence_buffer,,null,,,,,,,,,,,,,,,,,,
2395.5999999046326,,unique_rating,122427,US_Cities_List/nat_peoria.png,,50,,,2,,,,,,,,,,,,,,,
null,,confidence_buffer,122528,confidence_buffer,,null,,,,,,,,,,,,,,,,,,
1040.5999999046326,,memorable_rating,123569,US_Cities_List/nat_peoria.png,,50,,,2,,,,,,,,,,,,,,,
null,,confidence_buffer,123670,confidence_buffer,,null,,,,,,,,,,,,,,,,,,
null,,thebreak,124171,break,,null,,,,,,,,,,,,,,,,,,
4375.200000047684,,familiar_rating,128547,Fictional_Cities_List/img_manmade_36.png,,51,Fictional_Cities_List/img_manmade_36.png,MM,3,,,,,,,,,,,,,,,
null,,confidence_buffer,128649,confidence_buffer,,null,,,,,,,,,,,,,,,,,,
2328.2999999523163,,unique_rating,130978,Fictional_Cities_List/img_manmade_36.png,,52,,,4,,,,,,,,,,,,,,,
null,,confidence_buffer,131079,confidence_buffer,,null,,,,,,,,,,,,,,,,,,
2609.7999999523163,,memorable_rating,133690,Fictional_Cities_List/img_manmade_36.png,,52,,,4,,,,,,,,,,,,,,,
null,,confidence_buffer,133792,confidence_buffer,,null,,,,,,,,,,,,,,,,,,
null,,thebreak,134293,break,,null,,,,,,,,,,,,,,,,,,
4364,,familiar_rating,138657,US_Cities_List/mm_bisbee.png,,50,US_Cities_List/mm_bisbee.png,MM,2,,,,,,,,,,,,,,,
null,,confidence_buffer,138760,confidence_buffer,,null,,,,,,,,,,,,,,,,,,
2181,,unique_rating,140941,US_Cities_List/mm_bisbee.png,,49,,,1,,,,,,,,,,,,,,,
null,,confidence_buffer,141043,confidence_buffer,,null,,,,,,,,,,,,,,,,,,
1867.9000000953674,,memorable_rating,142912,US_Cities_List/mm_bisbee.png,,50,,,2,,,,,,,,,,,,,,,
null,,confidence_buffer,143013,confidence_buffer,,null,,,,,,,,,,,,,,,,,,
null,,thebreak,143514,break,,null,,,,,,,,,,,,,,,,,,
3074.399999976158,,familiar_rating,146589,Fictional_Cities_List/img_natural_45.png,,49,Fictional_Cities_List/img_natural_45.png,NAT,1,,,,,,,,,,,,,,,
null,,confidence_buffer,146691,confidence_buffer,,null,,,,,,,,,,,,,,,,,,
2808.600000023842,,unique_rating,149500,Fictional_Cities_List/img_natural_45.png,,50,,,2,,,,,,,,,,,,,,,
null,,confidence_buffer,149602,confidence_buffer,,null,,,,,,,,,,,,,,,,,,
1492.6000000238419,,memorable_rating,151096,Fictional_Cities_List/img_natural_45.png,,49,,,1,,,,,,,,,,,,,,,
null,,confidence_buffer,151198,confidence_buffer,,null,,,,,,,,,,,,,,,,,,
null,,thebreak,151699,break,,null,,,,,,,,,,,,,,,,,,
1798.5,,familiar_rating,153498,US_Cities_List/nat_hilo.png,,49,US_Cities_List/nat_hilo.png,NAT,1,,,,,,,,,,,,,,,
null,,confidence_buffer,153610,confidence_buffer,,null,,,,,,,,,,,,,,,,,,
2847.399999976158,,unique_rating,156459,US_Cities_List/nat_hilo.png,,52,,,4,,,,,,,,,,,,,,,
null,,confidence_buffer,156564,confidence_buffer,,null,,,,,,,,,,,,,,,,,,
1654.7000000476837,,memorable_rating,158220,US_Cities_List/nat_hilo.png,,51,,,3,,,,,,,,,,,,,,,
null,,confidence_buffer,158321,confidence_buffer,,null,,,,,,,,,,,,,,,,,,
null,,thebreak,158823,break,,null,,,,,,,,,,,,,,,,,,
3098,,familiar_rating,161921,Fictional_Cities_List/img_manmade_13.png,,49,Fictional_Cities_List/img_manmade_13.png,MM,1,,,,,,,,,,,,,,,
null,,confidence_buffer,162023,confidence_buffer,,null,,,,,,,,,,,,,,,,,,
3269,,unique_rating,165293,Fictional_Cities_List/img_manmade_13.png,,51,,,3,,,,,,,,,,,,,,,
null,,confidence_buffer,165394,confidence_buffer,,null,,,,,,,,,,,,,,,,,,
1793.7999999523163,,memorable_rating,167189,Fictional_Cities_List/img_manmade_13.png,,50,,,2,,,,,,,,,,,,,,,
null,,confidence_buffer,167302,confidence_buffer,,null,,,,,,,,,,,,,,,,,,
null,,thebreak,167804,break,,null,,,,,,,,,,,,,,,,,,
5105.700000047684,,familiar_rating,172911,Fictional_Cities_List/img_natural_37.png,,53,Fictional_Cities_List/img_natural_37.png,NAT,5,,,,,,,,,,,,,,,
null,,confidence_buffer,173012,confidence_buffer,,null,,,,,,,,,,,,,,,,,,
1516,,unique_rating,174529,Fictional_Cities_List/img_natural_37.png,,53,,,5,,,,,,,,,,,,,,,
null,,confidence_buffer,174630,confidence_buffer,,null,,,,,,,,,,,,,,,,,,
1414.5,,memorable_rating,176045,Fictional_Cities_List/img_natural_37.png,,53,,,5,,,,,,,,,,,,,,,
null,,confidence_buffer,176147,confidence_buffer,,null,,,,,,,,,,,,,,,,,,
null,,thebreak,176648,break,,null,,,,,,,,,,,,,,,,,,
2409.7000000476837,,familiar_rating,179058,US_Cities_List/mm_peoria.png,,49,US_Cities_List/mm_peoria.png,MM,1,,,,,,,,,,,,,,,
null,,confidence_buffer,179160,confidence_buffer,,null,,,,,,,,,,,,,,,,,,
1636.3000000715256,,unique_rating,180797,US_Cities_List/mm_peoria.png,,53,,,5,,,,,,,,,,,,,,,
null,,confidence_buffer,180898,confidence_buffer,,null,,,,,,,,,,,,,,,,,,
3111,,memorable_rating,184009,US_Cities_List/mm_peoria.png,,52,,,4,,,,,,,,,,,,,,,
null,,confidence_buffer,184110,confidence_buffer,,null,,,,,,,,,,,,,,,,,,
null,,thebreak,184612,break,,null,,,,,,,,,,,,,,,,,,
4092.100000023842,,familiar_rating,188705,Fictional_Cities_List/img_manmade_24.png,,49,Fictional_Cities_List/img_manmade_24.png,MM,1,,,,,,,,,,,,,,,
null,,confidence_buffer,188807,confidence_buffer,,null,,,,,,,,,,,,,,,,,,
1711.4000000953674,,unique_rating,190519,Fictional_Cities_List/img_manmade_24.png,,50,,,2,,,,,,,,,,,,,,,
null,,confidence_buffer,190620,confidence_buffer,,null,,,,,,,,,,,,,,,,,,
1722.3999999761581,,memorable_rating,192343,Fictional_Cities_List/img_manmade_24.png,,51,,,3,,,,,,,,,,,,,,,
null,,confidence_buffer,192444,confidence_buffer,,null,,,,,,,,,,,,,,,,,,
null,,thebreak,192945,break,,null,,,,,,,,,,,,,,,,,,
2130.7999999523163,,familiar_rating,195076,Fictional_Cities_List/img_natural_24.png,,49,Fictional_Cities_List/img_natural_24.png,NAT,1,,,,,,,,,,,,,,,
null,,confidence_buffer,195178,confidence_buffer,,null,,,,,,,,,,,,,,,,,,
2353.2999999523163,,unique_rating,197532,Fictional_Cities_List/img_natural_24.png,,52,,,4,,,,,,,,,,,,,,,
null,,confidence_buffer,197634,confidence_buffer,,null,,,,,,,,,,,,,,,,,,
1552.1000000238419,,memorable_rating,199187,Fictional_Cities_List/img_natural_24.png,,51,,,3,,,,,,,,,,,,,,,
null,,confidence_buffer,199288,confidence_buffer,,null,,,,,,,,,,,,,,,,,,
null,,thebreak,199789,break,,null,,,,,,,,,,,,,,,,,,
1974.2000000476837,,familiar_rating,201764,Fictional_Cities_List/img_manmade_46.png,,49,Fictional_Cities_List/img_manmade_46.png,MM,1,,,,,,,,,,,,,,,
null,,confidence_buffer,201866,confidence_buffer,,null,,,,,,,,,,,,,,,,,,
2330,,unique_rating,204196,Fictional_Cities_List/img_manmade_46.png,,51,,,3,,,,,,,,,,,,,,,
null,,confidence_buffer,204299,confidence_buffer,,null,,,,,,,,,,,,,,,,,,
1354.8000000715256,,memorable_rating,205654,Fictional_Cities_List/img_manmade_46.png,,51,,,3,,,,,,,,,,,,,,,
null,,confidence_buffer,205756,confidence_buffer,,null,,,,,,,,,,,,,,,,,,
null,,thebreak,206257,break,,null,,,,,,,,,,,,,,,,,,
3833.5,,familiar_rating,210091,US_Cities_List/mm_delawarecity.png,,50,US_Cities_List/mm_delawarecity.png,MM,2,,,,,,,,,,,,,,,
null,,confidence_buffer,210192,confidence_buffer,,null,,,,,,,,,,,,,,,,,,
2306,,unique_rating,212499,US_Cities_List/mm_delawarecity.png,,52,,,4,,,,,,,,,,,,,,,
null,,confidence_buffer,212600,confidence_buffer,,null,,,,,,,,,,,,,,,,,,
1743.2999999523163,,memorable_rating,214344,US_Cities_List/mm_delawarecity.png,,51,,,3,,,,,,,,,,,,,,,
null,,confidence_buffer,214446,confidence_buffer,,null,,,,,,,,,,,,,,,,,,
null,,thebreak,214947,break,,null,,,,,,,,,,,,,,,,,,
2227.600000023842,,familiar_rating,217175,US_Cities_List/mm_healdsburg.png,,49,US_Cities_List/mm_healdsburg.png,MM,1,,,,,,,,,,,,,,,
null,,confidence_buffer,217277,confidence_buffer,,null,,,,,,,,,,,,,,,,,,
2377.9000000953674,,unique_rating,219656,US_Cities_List/mm_healdsburg.png,,52,,,4,,,,,,,,,,,,,,,
null,,confidence_buffer,219758,confidence_buffer,,null,,,,,,,,,,,,,,,,,,
1438.2999999523163,,memorable_rating,221197,US_Cities_List/mm_healdsburg.png,,52,,,4,,,,,,,,,,,,,,,
null,,confidence_buffer,221299,confidence_buffer,,null,,,,,,,,,,,,,,,,,,
null,,thebreak,221801,break,,null,,,,,,,,,,,,,,,,,,
3061.5,,familiar_rating,224863,US_Cities_List/nat_healdsburg.png,,50,US_Cities_List/nat_healdsburg.png,NAT,2,,,,,,,,,,,,,,,
null,,confidence_buffer,224966,confidence_buffer,,null,,,,,,,,,,,,,,,,,,
1540.6000000238419,,unique_rating,226508,US_Cities_List/nat_healdsburg.png,,50,,,2,,,,,,,,,,,,,,,
null,,confidence_buffer,226608,confidence_buffer,,null,,,,,,,,,,,,,,,,,,
2417.5,,memorable_rating,229026,US_Cities_List/nat_healdsburg.png,,49,,,1,,,,,,,,,,,,,,,
null,,confidence_buffer,229128,confidence_buffer,,null,,,,,,,,,,,,,,,,,,
null,,thebreak,229629,break,,null,,,,,,,,,,,,,,,,,,
4942.800000071526,,familiar_rating,234574,Fictional_Cities_List/img_manmade_45.png,,50,Fictional_Cities_List/img_manmade_45.png,MM,2,,,,,,,,,,,,,,,
null,,confidence_buffer,234675,confidence_buffer,,null,,,,,,,,,,,,,,,,,,
1499.8999999761581,,unique_rating,236176,Fictional_Cities_List/img_manmade_45.png,,50,,,2,,,,,,,,,,,,,,,
null,,confidence_buffer,236278,confidence_buffer,,null,,,,,,,,,,,,,,,,,,
1828.8999999761581,,probe_rating,238107,probe_rating,,53,,,,5,1,,,,,,,,,,,,,
null,,confidence_buffer,238210,confidence_buffer,,null,,,,,,,,,,,,,,,,,,
1736.5,,memorable_rating,239948,Fictional_Cities_List/img_manmade_45.png,,50,,,2,,,,,,,,,,,,,,,
null,,confidence_buffer,240059,confidence_buffer,,null,,,,,,,,,,,,,,,,,,
null,,thebreak,240561,break,,null,,,,,,,,,,,,,,,,,,
2709.399999976158,,familiar_rating,243271,US_Cities_List/nat_carmel.png,,49,US_Cities_List/nat_carmel.png,NAT,1,,,,,,,,,,,,,,,
null,,confidence_buffer,243373,confidence_buffer,,null,,,,,,,,,,,,,,,,,,
1992,,unique_rating,245366,US_Cities_List/nat_carmel.png,,51,,,3,,,,,,,,,,,,,,,
null,,confidence_buffer,245469,confidence_buffer,,null,,,,,,,,,,,,,,,,,,
934.9000000953674,,memorable_rating,246404,US_Cities_List/nat_carmel.png,,50,,,2,,,,,,,,,,,,,,,
null,,confidence_buffer,246507,confidence_buffer,,null,,,,,,,,,,,,,,,,,,
null,,thebreak,247008,break,,null,,,,,,,,,,,,,,,,,,
8091.300000071526,,familiar_rating,255100,Fictional_Cities_List/img_natural_50.png,,50,Fictional_Cities_List/img_natural_50.png,NAT,2,,,,,,,,,,,,,,,
null,,confidence_buffer,255203,confidence_buffer,,null,,,,,,,,,,,,,,,,,,
2841.2000000476837,,unique_rating,258045,Fictional_Cities_List/img_natural_50.png,,50,,,2,,,,,,,,,,,,,,,
null,,confidence_buffer,258146,confidence_buffer,,null,,,,,,,,,,,,,,,,,,
1369.7999999523163,,memorable_rating,259517,Fictional_Cities_List/img_natural_50.png,,49,,,1,,,,,,,,,,,,,,,
null,,confidence_buffer,259618,confidence_buffer,,null,,,,,,,,,,,,,,,,,,
null,,thebreak,260119,break,,null,,,,,,,,,,,,,,,,,,
3874.2000000476837,,familiar_rating,263994,US_Cities_List/mm_hotsprings.png,,50,US_Cities_List/mm_hotsprings.png,MM,2,,,,,,,,,,,,,,,
null,,confidence_buffer,264095,confidence_buffer,,null,,,,,,,,,,,,,,,,,,
2891.7999999523163,,unique_rating,266987,US_Cities_List/mm_hotsprings.png,,50,,,2,,,,,,,,,,,,,,,
null,,confidence_buffer,267088,confidence_buffer,,null,,,,,,,,,,,,,,,,,,
853.3999999761581,,memorable_rating,267942,US_Cities_List/mm_hotsprings.png,,49,,,1,,,,,,,,,,,,,,,
null,,confidence_buffer,268044,confidence_buffer,,null,,,,,,,,,,,,,,,,,,
null,,thebreak,268546,break,,null,,,,,,,,,,,,,,,,,,
2175.1999999284744,,familiar_rating,270723,US_Cities_List/mm_abilene.png,,49,US_Cities_List/mm_abilene.png,MM,1,,,,,,,,,,,,,,,
null,,confidence_buffer,270824,confidence_buffer,,null,,,,,,,,,,,,,,,,,,
1923.9000000953674,,unique_rating,272749,US_Cities_List/mm_abilene.png,,53,,,5,,,,,,,,,,,,,,,
null,,confidence_buffer,272864,confidence_buffer,,null,,,,,,,,,,,,,,,,,,
1457.2000000476837,,memorable_rating,274322,US_Cities_List/mm_abilene.png,,52,,,4,,,,,,,,,,,,,,,
null,,confidence_buffer,274423,confidence_buffer,,null,,,,,,,,,,,,,,,,,,
null,,thebreak,274924,break,,null,,,,,,,,,,,,,,,,,,
4058.100000023842,,familiar_rating,278983,US_Cities_List/mm_boulder.png,,49,US_Cities_List/mm_boulder.png,MM,1,,,,,,,,,,,,,,,
null,,confidence_buffer,279085,confidence_buffer,,null,,,,,,,,,,,,,,,,,,
1587.3999999761581,,unique_rating,280674,US_Cities_List/mm_boulder.png,,51,,,3,,,,,,,,,,,,,,,
null,,confidence_buffer,280775,confidence_buffer,,null,,,,,,,,,,,,,,,,,,
1738.7999999523163,,probe_rating,282514,probe_rating,,52,,,,4,1,,,,,,,,,,,,,
null,,confidence_buffer,282616,confidence_buffer,,null,,,,,,,,,,,,,,,,,,
1986.5,,memorable_rating,284603,US_Cities_List/mm_boulder.png,,50,,,2,,,,,,,,,,,,,,,
null,,confidence_buffer,284704,confidence_buffer,,null,,,,,,,,,,,,,,,,,,
null,,thebreak,285206,break,,null,,,,,,,,,,,,,,,,,,
2138.399999976158,,familiar_rating,287345,US_Cities_List/mm_coeurdalene.png,,49,US_Cities_List/mm_coeurdalene.png,MM,1,,,,,,,,,,,,,,,
null,,confidence_buffer,287446,confidence_buffer,,null,,,,,,,,,,,,,,,,,,
2202.0999999046326,,probe_rating,289649,probe_rating,,53,,,,5,1,,,,,,,,,,,,,
null,,confidence_buffer,289751,confidence_buffer,,null,,,,,,,,,,,,,,,,,,
2033.7999999523163,,unique_rating,291786,US_Cities_List/mm_coeurdalene.png,,51,,,3,,,,,,,,,,,,,,,
null,,confidence_buffer,291888,confidence_buffer,,null,,,,,,,,,,,,,,,,,,
1512.2000000476837,,memorable_rating,293401,US_Cities_List/mm_coeurdalene.png,,50,,,2,,,,,,,,,,,,,,,
null,,confidence_buffer,293504,confidence_buffer,,null,,,,,,,,,,,,,,,,,,
null,,thebreak,294005,break,,null,,,,,,,,,,,,,,,,,,
15891.699999928474,,intro_0,309897,instruct,,32,,,,,,,,,,,,,,,,,,
5309.899999976158,,intro_1,315208,instruct,,32,,,,,,,,,,,,,,,,,,
9196.699999928474,,intro_2,324405,instruct,,32,,,,,,,,,,,,,,,,,,
null,,instruct_dir_4,325907,instruct,,null,,,,,,,,,,,,,,,,,,
6154.300000071526,,pt2_realistic_rating,332062,Fictional_Cities_List/img_manmade_26.png,,50,Fictional_Cities_List/img_manmade_26.png,MM,2,,,,,,,,,,,,,,,
null,,confidence_buffer,332164,confidence_buffer,,null,,,,,,,,,,,,,,,,,,
2619.100000023842,,pt2_unique_rating,334783,Fictional_Cities_List/img_manmade_26.png,,52,,,4,,,,,,,,,,,,,,,
null,,confidence_buffer,334885,confidence_buffer,,null,,,,,,,,,,,,,,,,,,
1349,,pt2_memorable_rating,336234,Fictional_Cities_List/img_manmade_26.png,,50,,,2,,,,,,,,,,,,,,,
null,,confidence_buffer,336335,confidence_buffer,,null,,,,,,,,,,,,,,,,,,
1915,,recognition_phase,338251,Fictional_Cities_List/img_manmade_26.png,,52,,,,,,new,1,1,,,,,,,,,,
null,,confidence_buffer,338353,confidence_buffer,,null,,,,,,,,,,,,,,,,,,
null,,thebreak,338854,break,,null,,,,,,,,,,,,,,,,,,
5362.399999976158,,pt2_realistic_rating,344217,Fictional_Cities_List/img_natural_36.png,,52,Fictional_Cities_List/img_natural_36.png,NAT,4,,,,,,,,,,,,,,,
null,,confidence_buffer,344318,confidence_buffer,,null,,,,,,,,,,,,,,,,,,
1522.6000000238419,,pt2_unique_rating,345842,Fictional_Cities_List/img_natural_36.png,,51,,,3,,,,,,,,,,,,,,,
null,,confidence_buffer,345943,confidence_buffer,,null,,,,,,,,,,,,,,,,,,
2625.899999976158,,pt2_memorable_rating,348570,Fictional_Cities_List/img_natural_36.png,,51,,,3,,,,,,,,,,,,,,,
null,,confidence_buffer,348672,confidence_buffer,,null,,,,,,,,,,,,,,,,,,
2175,,recognition_phase,350848,Fictional_Cities_List/img_natural_36.png,,51,,,,,,new,1,1,,,,,,,,,,
null,,confidence_buffer,350951,confidence_buffer,,null,,,,,,,,,,,,,,,,,,
null,,thebreak,351452,break,,null,,,,,,,,,,,,,,,,,,
3295.100000023842,,pt2_realistic_rating,354747,US_Cities_List/mm_hotsprings.png,,52,US_Cities_List/mm_hotsprings.png,MM,4,,,,,,,,,,,,,,,
null,,confidence_buffer,354848,confidence_buffer,,null,,,,,,,,,,,,,,,,,,
2312.899999976158,,pt2_unique_rating,357162,US_Cities_List/mm_hotsprings.png,,51,,,3,,,,,,,,,,,,,,,
null,,confidence_buffer,357265,confidence_buffer,,null,,,,,,,,,,,,,,,,,,
1309.4000000953674,,pt2_memorable_rating,358575,US_Cities_List/mm_hotsprings.png,,50,,,2,,,,,,,,,,,,,,,
null,,confidence_buffer,358677,confidence_buffer,,null,,,,,,,,,,,,,,,,,,
2416.399999976158,,recognition_phase,361094,US_Cities_List/mm_hotsprings.png,,49,,,,,,old,1,1,,,,,,,,,,
null,,confidence_buffer,361196,confidence_buffer,,null,,,,,,,,,,,,,,,,,,
null,,thebreak,361704,break,,null,,,,,,,,,,,,,,,,,,
4608.899999976158,,pt2_realistic_rating,366314,US_Cities_List/nat_athens.png,,51,US_Cities_List/nat_athens.png,NAT,3,,,,,,,,,,,,,,,
null,,confidence_buffer,366415,confidence_buffer,,null,,,,,,,,,,,,,,,,,,
1814,,pt2_unique_rating,368229,US_Cities_List/nat_athens.png,,50,,,2,,,,,,,,,,,,,,,
null,,confidence_buffer,368331,confidence_buffer,,null,,,,,,,,,,,,,,,,,,
1060.5,,pt2_memorable_rating,369393,US_Cities_List/nat_athens.png,,50,,,2,,,,,,,,,,,,,,,
null,,confidence_buffer,369495,confidence_buffer,,null,,,,,,,,,,,,,,,,,,
1935.8999999761581,,recognition_phase,371431,US_Cities_List/nat_athens.png,,52,,,,,,new,1,1,,,,,,,,,,
null,,confidence_buffer,371532,confidence_buffer,,null,,,,,,,,,,,,,,,,,,
null,,thebreak,372033,break,,null,,,,,,,,,,,,,,,,,,
2262.600000023842,,pt2_realistic_rating,374296,US_Cities_List/nat_healdsburg.png,,52,US_Cities_List/nat_healdsburg.png,NAT,4,,,,,,,,,,,,,,,
null,,confidence_buffer,374398,confidence_buffer,,null,,,,,,,,,,,,,,,,,,
1579.2999999523163,,pt2_unique_rating,375978,US_Cities_List/nat_healdsburg.png,,50,,,2,,,,,,,,,,,,,,,
null,,confidence_buffer,376080,confidence_buffer,,null,,,,,,,,,,,,,,,,,,
1582.1000000238419,,pt2_memorable_rating,377664,US_Cities_List/nat_healdsburg.png,,50,,,2,,,,,,,,,,,,,,,
null,,confidence_buffer,377767,confidence_buffer,,null,,,,,,,,,,,,,,,,,,
1526.1999999284744,,recognition_phase,379294,US_Cities_List/nat_healdsburg.png,,49,,,,,,old,1,1,,,,,,,,,,
null,,confidence_buffer,379396,confidence_buffer,,null,,,,,,,,,,,,,,,,,,
null,,thebreak,379897,break,,null,,,,,,,,,,,,,,,,,,
2589,,pt2_realistic_rating,382487,Fictional_Cities_List/img_natural_37.png,,53,Fictional_Cities_List/img_natural_37.png,NAT,5,,,,,,,,,,,,,,,
null,,confidence_buffer,382587,confidence_buffer,,null,,,,,,,,,,,,,,,,,,
1661.3999999761581,,pt2_unique_rating,384249,Fictional_Cities_List/img_natural_37.png,,53,,,5,,,,,,,,,,,,,,,
null,,confidence_buffer,384353,confidence_buffer,,null,,,,,,,,,,,,,,,,,,
2072,,pt2_memorable_rating,386426,Fictional_Cities_List/img_natural_37.png,,53,,,5,,,,,,,,,,,,,,,
null,,confidence_buffer,386528,confidence_buffer,,null,,,,,,,,,,,,,,,,,,
1670.7999999523163,,probe_rating,388199,probe_rating,,53,,,,5,1,,,,,,,,,,,,,
null,,confidence_buffer,388301,confidence_buffer,,null,,,,,,,,,,,,,,,,,,
1781.3999999761581,,recognition_phase,390084,Fictional_Cities_List/img_natural_37.png,,49,,,,,,old,1,1,,,,,,,,,,
null,,confidence_buffer,390185,confidence_buffer,,null,,,,,,,,,,,,,,,,,,
null,,thebreak,390687,break,,null,,,,,,,,,,,,,,,,,,
2797.600000023842,,pt2_realistic_rating,393486,Fictional_Cities_List/img_natural_24.png,,50,Fictional_Cities_List/img_natural_24.png,NAT,2,,,,,,,,,,,,,,,
null,,confidence_buffer,393588,confidence_buffer,,null,,,,,,,,,,,,,,,,,,
1727.2000000476837,,probe_rating,395316,probe_rating,,51,,,,3,1,,,,,,,,,,,,,
null,,confidence_buffer,395418,confidence_buffer,,null,,,,,,,,,,,,,,,,,,
2142.2999999523163,,pt2_unique_rating,397562,Fictional_Cities_List/img_natural_24.png,,50,,,2,,,,,,,,,,,,,,,
null,,confidence_buffer,397664,confidence_buffer,,null,,,,,,,,,,,,,,,,,,
2375.600000023842,,pt2_memorable_rating,400041,Fictional_Cities_List/img_natural_24.png,,50,,,2,,,,,,,,,,,,,,,
null,,confidence_buffer,400149,confidence_buffer,,null,,,,,,,,,,,,,,,,,,
1464.7000000476837,,recognition_phase,401614,Fictional_Cities_List/img_natural_24.png,,49,,,,,,old,1,1,,,,,,,,,,
null,,confidence_buffer,401716,confidence_buffer,,null,,,,,,,,,,,,,,,,,,
null,,thebreak,402217,break,,null,,,,,,,,,,,,,,,,,,
2058.2999999523163,,pt2_realistic_rating,404276,US_Cities_List/nat_boulder.png,,52,US_Cities_List/nat_boulder.png,NAT,4,,,,,,,,,,,,,,,
null,,confidence_buffer,404377,confidence_buffer,,null,,,,,,,,,,,,,,,,,,
2033.0999999046326,,pt2_unique_rating,406411,US_Cities_List/nat_boulder.png,,53,,,5,,,,,,,,,,,,,,,
null,,confidence_buffer,406513,confidence_buffer,,null,,,,,,,,,,,,,,,,,,
1143.6000000238419,,pt2_memorable_rating,407657,US_Cities_List/nat_boulder.png,,52,,,4,,,,,,,,,,,,,,,
null,,confidence_buffer,407758,confidence_buffer,,null,,,,,,,,,,,,,,,,,,
1866,,recognition_phase,409625,US_Cities_List/nat_boulder.png,,49,,,,,,old,1,1,,,,,,,,,,
null,,confidence_buffer,409727,confidence_buffer,,null,,,,,,,,,,,,,,,,,,
null,,thebreak,410228,break,,null,,,,,,,,,,,,,,,,,,
4924.5,,pt2_realistic_rating,415153,US_Cities_List/mm_peoria.png,,53,US_Cities_List/mm_peoria.png,MM,5,,,,,,,,,,,,,,,
null,,confidence_buffer,415255,confidence_buffer,,null,,,,,,,,,,,,,,,,,,
1249.4000000953674,,pt2_unique_rating,416505,US_Cities_List/mm_peoria.png,,53,,,5,,,,,,,,,,,,,,,
null,,confidence_buffer,416607,confidence_buffer,,null,,,,,,,,,,,,,,,,,,
1220,,pt2_memorable_rating,417827,US_Cities_List/mm_peoria.png,,53,,,5,,,,,,,,,,,,,,,
null,,confidence_buffer,417929,confidence_buffer,,null,,,,,,,,,,,,,,,,,,
1317.7999999523163,,recognition_phase,419247,US_Cities_List/mm_peoria.png,,49,,,,,,old,1,1,,,,,,,,,,
null,,confidence_buffer,419349,confidence_buffer,,null,,,,,,,,,,,,,,,,,,
null,,thebreak,419850,break,,null,,,,,,,,,,,,,,,,,,
2026.1000000238419,,pt2_realistic_rating,421877,US_Cities_List/mm_coeurdalene.png,,52,US_Cities_List/mm_coeurdalene.png,MM,4,,,,,,,,,,,,,,,
null,,confidence_buffer,421979,confidence_buffer,,null,,,,,,,,,,,,,,,,,,
1471,,pt2_unique_rating,423452,US_Cities_List/mm_coeurdalene.png,,51,,,3,,,,,,,,,,,,,,,
null,,confidence_buffer,423553,confidence_buffer,,null,,,,,,,,,,,,,,,,,,
841.8999999761581,,pt2_memorable_rating,424396,US_Cities_List/mm_coeurdalene.png,,50,,,2,,,,,,,,,,,,,,,
null,,confidence_buffer,424498,confidence_buffer,,null,,,,,,,,,,,,,,,,,,
1478.1000000238419,,recognition_phase,425977,US_Cities_List/mm_coeurdalene.png,,49,,,,,,old,1,1,,,,,,,,,,
null,,confidence_buffer,426078,confidence_buffer,,null,,,,,,,,,,,,,,,,,,
null,,thebreak,426579,break,,null,,,,,,,,,,,,,,,,,,
1845.3999999761581,,pt2_realistic_rating,428426,Fictional_Cities_List/img_manmade_50.png,,50,Fictional_Cities_List/img_manmade_50.png,MM,2,,,,,,,,,,,,,,,
null,,confidence_buffer,428528,confidence_buffer,,null,,,,,,,,,,,,,,,,,,
1083.5,,probe_rating,429612,probe_rating,,50,,,,2,1,,,,,,,,,,,,,
null,,confidence_buffer,429715,confidence_buffer,,null,,,,,,,,,,,,,,,,,,
1873.5,,pt2_unique_rating,431589,Fictional_Cities_List/img_manmade_50.png,,50,,,2,,,,,,,,,,,,,,,
null,,confidence_buffer,431698,confidence_buffer,,null,,,,,,,,,,,,,,,,,,
1413.1999999284744,,pt2_memorable_rating,433113,Fictional_Cities_List/img_manmade_50.png,,50,,,2,,,,,,,,,,,,,,,
null,,confidence_buffer,433215,confidence_buffer,,null,,,,,,,,,,,,,,,,,,
1205.3999999761581,,recognition_phase,434421,Fictional_Cities_List/img_manmade_50.png,,52,,,,,,new,1,1,,,,,,,,,,
null,,confidence_buffer,434523,confidence_buffer,,null,,,,,,,,,,,,,,,,,,
null,,thebreak,435024,break,,null,,,,,,,,,,,,,,,,,,
3576.5,,pt2_realistic_rating,438601,US_Cities_List/mm_hilo.png,,51,US_Cities_List/mm_hilo.png,MM,3,,,,,,,,,,,,,,,
null,,confidence_buffer,438704,confidence_buffer,,null,,,,,,,,,,,,,,,,,,
3515.9000000953674,,pt2_unique_rating,442220,US_Cities_List/mm_hilo.png,,51,,,3,,,,,,,,,,,,,,,
null,,confidence_buffer,442324,confidence_buffer,,null,,,,,,,,,,,,,,,,,,
1527,,pt2_memorable_rating,443852,US_Cities_List/mm_hilo.png,,51,,,3,,,,,,,,,,,,,,,
null,,confidence_buffer,443953,confidence_buffer,,null,,,,,,,,,,,,,,,,,,
1409.1000000238419,,recognition_phase,445363,US_Cities_List/mm_hilo.png,,52,,,,,,new,1,1,,,,,,,,,,
null,,confidence_buffer,445465,confidence_buffer,,null,,,,,,,,,,,,,,,,,,
null,,thebreak,445971,break,,null,,,,,,,,,,,,,,,,,,
3825.899999976158,,pt2_realistic_rating,449798,Fictional_Cities_List/img_manmade_06.png,,52,Fictional_Cities_List/img_manmade_06.png,MM,4,,,,,,,,,,,,,,,
null,,confidence_buffer,449900,confidence_buffer,,null,,,,,,,,,,,,,,,,,,
1728.3000000715256,,pt2_unique_rating,451629,Fictional_Cities_List/img_manmade_06.png,,51,,,3,,,,,,,,,,,,,,,
null,,confidence_buffer,451745,confidence_buffer,,null,,,,,,,,,,,,,,,,,,
1257.1000000238419,,probe_rating,453003,probe_rating,,53,,,,5,1,,,,,,,,,,,,,
null,,confidence_buffer,453105,confidence_buffer,,null,,,,,,,,,,,,,,,,,,
1617.3999999761581,,pt2_memorable_rating,454723,Fictional_Cities_List/img_manmade_06.png,,51,,,3,,,,,,,,,,,,,,,
null,,confidence_buffer,454826,confidence_buffer,,null,,,,,,,,,,,,,,,,,,
1702.1000000238419,,recognition_phase,456528,Fictional_Cities_List/img_manmade_06.png,,52,,,,,,new,1,1,,,,,,,,,,
null,,confidence_buffer,456630,confidence_buffer,,null,,,,,,,,,,,,,,,,,,
null,,thebreak,457132,break,,null,,,,,,,,,,,,,,,,,,
3060.100000023842,,pt2_realistic_rating,460193,Fictional_Cities_List/img_natural_16.png,,49,Fictional_Cities_List/img_natural_16.png,NAT,1,,,,,,,,,,,,,,,
null,,confidence_buffer,460294,confidence_buffer,,null,,,,,,,,,,,,,,,,,,
2204.1999999284744,,pt2_unique_rating,462500,Fictional_Cities_List/img_natural_16.png,,52,,,4,,,,,,,,,,,,,,,
null,,confidence_buffer,462607,confidence_buffer,,null,,,,,,,,,,,,,,,,,,
1545.3999999761581,,pt2_memorable_rating,464153,Fictional_Cities_List/img_natural_16.png,,51,,,3,,,,,,,,,,,,,,,
null,,confidence_buffer,464255,confidence_buffer,,null,,,,,,,,,,,,,,,,,,
1462.5,,recognition_phase,465718,Fictional_Cities_List/img_natural_16.png,,49,,,,,,old,1,1,,,,,,,,,,
null,,confidence_buffer,465819,confidence_buffer,,null,,,,,,,,,,,,,,,,,,
null,,thebreak,466321,break,,null,,,,,,,,,,,,,,,,,,
2337,,pt2_realistic_rating,468659,US_Cities_List/mm_healdsburg.png,,53,US_Cities_List/mm_healdsburg.png,MM,5,,,,,,,,,,,,,,,
null,,confidence_buffer,468763,confidence_buffer,,null,,,,,,,,,,,,,,,,,,
1970.8000000715256,,pt2_unique_rating,470734,US_Cities_List/mm_healdsburg.png,,52,,,4,,,,,,,,,,,,,,,
null,,confidence_buffer,470836,confidence_buffer,,null,,,,,,,,,,,,,,,,,,
2293,,pt2_memorable_rating,473130,US_Cities_List/mm_healdsburg.png,,52,,,4,,,,,,,,,,,,,,,
null,,confidence_buffer,473232,confidence_buffer,,null,,,,,,,,,,,,,,,,,,
1610.2999999523163,,recognition_phase,474843,US_Cities_List/mm_healdsburg.png,,49,,,,,,old,1,1,,,,,,,,,,
null,,confidence_buffer,474944,confidence_buffer,,null,,,,,,,,,,,,,,,,,,
null,,thebreak,475446,break,,null,,,,,,,,,,,,,,,,,,
2319.2999999523163,,pt2_realistic_rating,477767,US_Cities_List/mm_bisbee.png,,53,US_Cities_List/mm_bisbee.png,MM,5,,,,,,,,,,,,,,,
null,,confidence_buffer,477868,confidence_buffer,,null,,,,,,,,,,,,,,,,,,
1248.3999999761581,,pt2_unique_rating,479118,US_Cities_List/mm_bisbee.png,,51,,,3,,,,,,,,,,,,,,,
null,,confidence_buffer,479219,confidence_buffer,,null,,,,,,,,,,,,,,,,,,
778.3999999761581,,pt2_memorable_rating,479999,US_Cities_List/mm_bisbee.png,,50,,,2,,,,,,,,,,,,,,,
null,,confidence_buffer,480102,confidence_buffer,,null,,,,,,,,,,,,,,,,,,
1455.2000000476837,,recognition_phase,481558,US_Cities_List/mm_bisbee.png,,49,,,,,,old,1,1,,,,,,,,,,
null,,confidence_buffer,481659,confidence_buffer,,null,,,,,,,,,,,,,,,,,,
null,,thebreak,482160,break,,null,,,,,,,,,,,,,,,,,,
2676.399999976158,,pt2_realistic_rating,484837,US_Cities_List/nat_coeurdalene.png,,53,US_Cities_List/nat_coeurdalene.png,NAT,5,,,,,,,,,,,,,,,
null,,confidence_buffer,484939,confidence_buffer,,null,,,,,,,,,,,,,,,,,,
2601.399999976158,,pt2_unique_rating,487541,US_Cities_List/nat_coeurdalene.png,,51,,,3,,,,,,,,,,,,,,,
null,,confidence_buffer,487643,confidence_buffer,,null,,,,,,,,,,,,,,,,,,
1105.3000000715256,,pt2_memorable_rating,488749,US_Cities_List/nat_coeurdalene.png,,50,,,2,,,,,,,,,,,,,,,
null,,confidence_buffer,488858,confidence_buffer,,null,,,,,,,,,,,,,,,,,,
1783.5,,recognition_phase,490642,US_Cities_List/nat_coeurdalene.png,,52,,,,,,new,1,1,,,,,,,,,,
null,,confidence_buffer,490743,confidence_buffer,,null,,,,,,,,,,,,,,,,,,
null,,thebreak,491245,break,,null,,,,,,,,,,,,,,,,,,
2017.8000000715256,,pt2_realistic_rating,493264,Fictional_Cities_List/img_natural_27.png,,50,Fictional_Cities_List/img_natural_27.png,NAT,2,,,,,,,,,,,,,,,
null,,confidence_buffer,493366,confidence_buffer,,null,,,,,,,,,,,,,,,,,,
1154.2999999523163,,pt2_unique_rating,494521,Fictional_Cities_List/img_natural_27.png,,51,,,3,,,,,,,,,,,,,,,
null,,confidence_buffer,494623,confidence_buffer,,null,,,,,,,,,,,,,,,,,,
792.8999999761581,,pt2_memorable_rating,495416,Fictional_Cities_List/img_natural_27.png,,50,,,2,,,,,,,,,,,,,,,
null,,confidence_buffer,495518,confidence_buffer,,null,,,,,,,,,,,,,,,,,,
1267.5,,recognition_phase,496787,Fictional_Cities_List/img_natural_27.png,,49,,,,,,old,1,1,,,,,,,,,,
null,,confidence_buffer,496888,confidence_buffer,,null,,,,,,,,,,,,,,,,,,
null,,thebreak,497400,break,,null,,,,,,,,,,,,,,,,,,
1844.6999999284744,,pt2_realistic_rating,499246,Fictional_Cities_List/img_natural_13.png,,49,Fictional_Cities_List/img_natural_13.png,NAT,1,,,,,,,,,,,,,,,
null,,confidence_buffer,499348,confidence_buffer,,null,,,,,,,,,,,,,,,,,,
1580.5,,pt2_unique_rating,500929,Fictional_Cities_List/img_natural_13.png,,51,,,3,,,,,,,,,,,,,,,
null,,confidence_buffer,501038,confidence_buffer,,null,,,,,,,,,,,,,,,,,,
939.2000000476837,,pt2_memorable_rating,501978,Fictional_Cities_List/img_natural_13.png,,50,,,2,,,,,,,,,,,,,,,
null,,confidence_buffer,502079,confidence_buffer,,null,,,,,,,,,,,,,,,,,,
1962.1000000238419,,recognition_phase,504043,Fictional_Cities_List/img_natural_13.png,,52,,,,,,new,1,1,,,,,,,,,,
null,,confidence_buffer,504144,confidence_buffer,,null,,,,,,,,,,,,,,,,,,
null,,thebreak,504646,break,,null,,,,,,,,,,,,,,,,,,
2066.5,,pt2_realistic_rating,506713,Fictional_Cities_List/img_manmade_24.png,,52,Fictional_Cities_List/img_manmade_24.png,MM,4,,,,,,,,,,,,,,,
null,,confidence_buffer,506815,confidence_buffer,,null,,,,,,,,,,,,,,,,,,
1036,,pt2_unique_rating,507852,Fictional_Cities_List/img_manmade_24.png,,50,,,2,,,,,,,,,,,,,,,
null,,confidence_buffer,507954,confidence_buffer,,null,,,,,,,,,,,,,,,,,,
2102.100000023842,,pt2_memorable_rating,510056,Fictional_Cities_List/img_manmade_24.png,,50,,,2,,,,,,,,,,,,,,,
null,,confidence_buffer,510158,confidence_buffer,,null,,,,,,,,,,,,,,,,,,
1420,,recognition_phase,511579,Fictional_Cities_List/img_manmade_24.png,,49,,,,,,old,1,1,,,,,,,,,,
null,,confidence_buffer,511681,confidence_buffer,,null,,,,,,,,,,,,,,,,,,
null,,thebreak,512183,break,,null,,,,,,,,,,,,,,,,,,
3091.600000023842,,pt2_realistic_rating,515276,US_Cities_List/mm_athens.png,,53,US_Cities_List/mm_athens.png,MM,5,,,,,,,,,,,,,,,
null,,confidence_buffer,515377,confidence_buffer,,null,,,,,,,,,,,,,,,,,,
1517.7000000476837,,pt2_unique_rating,516896,US_Cities_List/mm_athens.png,,50,,,2,,,,,,,,,,,,,,,
null,,confidence_buffer,516998,confidence_buffer,,null,,,,,,,,,,,,,,,,,,
1248.0999999046326,,pt2_memorable_rating,518248,US_Cities_List/mm_athens.png,,50,,,2,,,,,,,,,,,,,,,
null,,confidence_buffer,518349,confidence_buffer,,null,,,,,,,,,,,,,,,,,,
1700,,probe_rating,520049,probe_rating,,49,,,,1,1,,,,,,,,,,,,,
null,,confidence_buffer,520152,confidence_buffer,,null,,,,,,,,,,,,,,,,,,
1599.5,,recognition_phase,521752,US_Cities_List/mm_athens.png,,52,,,,,,new,1,1,,,,,,,,,,
null,,confidence_buffer,521853,confidence_buffer,,null,,,,,,,,,,,,,,,,,,
null,,thebreak,522355,break,,null,,,,,,,,,,,,,,,,,,
4334.700000047684,,pt2_realistic_rating,526690,US_Cities_List/mm_boulder.png,,53,US_Cities_List/mm_boulder.png,MM,5,,,,,,,,,,,,,,,
null,,confidence_buffer,526793,confidence_buffer,,null,,,,,,,,,,,,,,,,,,
2004.2000000476837,,pt2_unique_rating,528798,US_Cities_List/mm_boulder.png,,52,,,4,,,,,,,,,,,,,,,
null,,confidence_buffer,528900,confidence_buffer,,null,,,,,,,,,,,,,,,,,,
1307.6000000238419,,pt2_memorable_rating,530208,US_Cities_List/mm_boulder.png,,50,,,2,,,,,,,,,,,,,,,
null,,confidence_buffer,530309,confidence_buffer,,null,,,,,,,,,,,,,,,,,,
1559.1999999284744,,recognition_phase,531869,US_Cities_List/mm_boulder.png,,49,,,,,,old,1,1,,,,,,,,,,
null,,confidence_buffer,531972,confidence_buffer,,null,,,,,,,,,,,,,,,,,,
null,,thebreak,532474,break,,null,,,,,,,,,,,,,,,,,,
2771.100000023842,,pt2_realistic_rating,535246,US_Cities_List/nat_carmel.png,,51,US_Cities_List/nat_carmel.png,NAT,3,,,,,,,,,,,,,,,
null,,confidence_buffer,535349,confidence_buffer,,null,,,,,,,,,,,,,,,,,,
1714,,pt2_unique_rating,537063,US_Cities_List/nat_carmel.png,,51,,,3,,,,,,,,,,,,,,,
null,,confidence_buffer,537164,confidence_buffer,,null,,,,,,,,,,,,,,,,,,
834.3999999761581,,pt2_memorable_rating,537999,US_Cities_List/nat_carmel.png,,50,,,2,,,,,,,,,,,,,,,
null,,confidence_buffer,538101,confidence_buffer,,null,,,,,,,,,,,,,,,,,,
1254.8000000715256,,recognition_phase,539357,US_Cities_List/nat_carmel.png,,49,,,,,,old,1,1,,,,,,,,,,
null,,confidence_buffer,539458,confidence_buffer,,null,,,,,,,,,,,,,,,,,,
null,,thebreak,539959,break,,null,,,,,,,,,,,,,,,,,,
4327.600000023842,,pt2_realistic_rating,544287,Fictional_Cities_List/img_natural_50.png,,52,Fictional_Cities_List/img_natural_50.png,NAT,4,,,,,,,,,,,,,,,
null,,confidence_buffer,544389,confidence_buffer,,null,,,,,,,,,,,,,,,,,,
1447.7999999523163,,pt2_unique_rating,545837,Fictional_Cities_List/img_natural_50.png,,50,,,2,,,,,,,,,,,,,,,
null,,confidence_buffer,545939,confidence_buffer,,null,,,,,,,,,,,,,,,,,,
913,,pt2_memorable_rating,546854,Fictional_Cities_List/img_natural_50.png,,50,,,2,,,,,,,,,,,,,,,
null,,confidence_buffer,546956,confidence_buffer,,null,,,,,,,,,,,,,,,,,,
1310.1999999284744,,recognition_phase,548267,Fictional_Cities_List/img_natural_50.png,,49,,,,,,old,1,1,,,,,,,,,,
null,,confidence_buffer,548368,confidence_buffer,,null,,,,,,,,,,,,,,,,,,
null,,thebreak,548869,break,,null,,,,,,,,,,,,,,,,,,
2821.7999999523163,,pt2_realistic_rating,551692,Fictional_Cities_List/img_manmade_21.png,,53,Fictional_Cities_List/img_manmade_21.png,MM,5,,,,,,,,,,,,,,,
null,,confidence_buffer,551793,confidence_buffer,,null,,,,,,,,,,,,,,,,,,
1730.3999999761581,,pt2_unique_rating,553524,Fictional_Cities_List/img_manmade_21.png,,53,,,5,,,,,,,,,,,,,,,
null,,confidence_buffer,553625,confidence_buffer,,null,,,,,,,,,,,,,,,,,,
1356.7999999523163,,pt2_memorable_rating,554984,Fictional_Cities_List/img_manmade_21.png,,53,,,5,,,,,,,,,,,,,,,
null,,confidence_buffer,555086,confidence_buffer,,null,,,,,,,,,,,,,,,,,,
2881.8000000715256,,recognition_phase,557969,Fictional_Cities_List/img_manmade_21.png,,52,,,,,,new,1,1,,,,,,,,,,
null,,confidence_buffer,558070,confidence_buffer,,null,,,,,,,,,,,,,,,,,,
null,,thebreak,558571,break,,null,,,,,,,,,,,,,,,,,,
2691.100000023842,,pt2_realistic_rating,561262,Fictional_Cities_List/img_natural_46.png,,52,Fictional_Cities_List/img_natural_46.png,NAT,4,,,,,,,,,,,,,,,
null,,confidence_buffer,561363,confidence_buffer,,null,,,,,,,,,,,,,,,,,,
1750,,pt2_unique_rating,563114,Fictional_Cities_List/img_natural_46.png,,52,,,4,,,,,,,,,,,,,,,
null,,confidence_buffer,563216,confidence_buffer,,null,,,,,,,,,,,,,,,,,,
1149.7999999523163,,pt2_memorable_rating,564366,Fictional_Cities_List/img_natural_46.png,,52,,,4,,,,,,,,,,,,,,,
null,,confidence_buffer,564468,confidence_buffer,,null,,,,,,,,,,,,,,,,,,
2243.7999999523163,,recognition_phase,566713,Fictional_Cities_List/img_natural_46.png,,52,,,,,,new,1,1,,,,,,,,,,
null,,confidence_buffer,566816,confidence_buffer,,null,,,,,,,,,,,,,,,,,,
null,,thebreak,567318,break,,null,,,,,,,,,,,,,,,,,,
3624.600000023842,,pt2_realistic_rating,570943,Fictional_Cities_List/img_manmade_45.png,,52,Fictional_Cities_List/img_manmade_45.png,MM,4,,,,,,,,,,,,,,,
null,,confidence_buffer,571045,confidence_buffer,,null,,,,,,,,,,,,,,,,,,
1129.2000000476837,,pt2_unique_rating,572175,Fictional_Cities_List/img_manmade_45.png,,51,,,3,,,,,,,,,,,,,,,
null,,confidence_buffer,572277,confidence_buffer,,null,,,,,,,,,,,,,,,,,,
701.7000000476837,,pt2_memorable_rating,572979,Fictional_Cities_List/img_manmade_45.png,,50,,,2,,,,,,,,,,,,,,,
null,,confidence_buffer,573080,confidence_buffer,,null,,,,,,,,,,,,,,,,,,
1583.0999999046326,,recognition_phase,574664,Fictional_Cities_List/img_manmade_45.png,,49,,,,,,old,1,1,,,,,,,,,,
null,,confidence_buffer,574767,confidence_buffer,,null,,,,,,,,,,,,,,,,,,
null,,thebreak,575268,break,,null,,,,,,,,,,,,,,,,,,
5069.100000023842,,pt2_realistic_rating,580338,US_Cities_List/nat_sitka.png,,53,US_Cities_List/nat_sitka.png,NAT,5,,,,,,,,,,,,,,,
null,,confidence_buffer,580440,confidence_buffer,,null,,,,,,,,,,,,,,,,,,
1166.5,,pt2_unique_rating,581608,US_Cities_List/nat_sitka.png,,52,,,4,,,,,,,,,,,,,,,
null,,confidence_buffer,581709,confidence_buffer,,null,,,,,,,,,,,,,,,,,,
929.1000000238419,,pt2_memorable_rating,582638,US_Cities_List/nat_sitka.png,,52,,,4,,,,,,,,,,,,,,,
null,,confidence_buffer,582740,confidence_buffer,,null,,,,,,,,,,,,,,,,,,
2503.3000000715256,,recognition_phase,585244,US_Cities_List/nat_sitka.png,,49,,,,,,old,1,1,,,,,,,,,,
null,,confidence_buffer,585346,confidence_buffer,,null,,,,,,,,,,,,,,,,,,
null,,thebreak,585848,break,,null,,,,,,,,,,,,,,,,,,
2099.5,,pt2_realistic_rating,587948,Fictional_Cities_List/img_manmade_13.png,,51,Fictional_Cities_List/img_manmade_13.png,MM,3,,,,,,,,,,,,,,,
null,,confidence_buffer,588051,confidence_buffer,,null,,,,,,,,,,,,,,,,,,
2795.899999976158,,pt2_unique_rating,590847,Fictional_Cities_List/img_manmade_13.png,,51,,,3,,,,,,,,,,,,,,,
null,,confidence_buffer,590949,confidence_buffer,,null,,,,,,,,,,,,,,,,,,
1409,,probe_rating,592359,probe_rating,,51,,,,3,1,,,,,,,,,,,,,
null,,confidence_buffer,592460,confidence_buffer,,null,,,,,,,,,,,,,,,,,,
1611.7000000476837,,pt2_memorable_rating,594073,Fictional_Cities_List/img_manmade_13.png,,50,,,2,,,,,,,,,,,,,,,
null,,confidence_buffer,594176,confidence_buffer,,null,,,,,,,,,,,,,,,,,,
1055.3000000715256,,recognition_phase,595231,Fictional_Cities_List/img_manmade_13.png,,49,,,,,,old,1,1,,,,,,,,,,
null,,confidence_buffer,595334,confidence_buffer,,null,,,,,,,,,,,,,,,,,,
null,,thebreak,595836,break,,null,,,,,,,,,,,,,,,,,,
2225.100000023842,,pt2_realistic_rating,598063,US_Cities_List/nat_hilo.png,,51,US_Cities_List/nat_hilo.png,NAT,3,,,,,,,,,,,,,,,
null,,confidence_buffer,598163,confidence_buffer,,null,,,,,,,,,,,,,,,,,,
1769.6999999284744,,pt2_unique_rating,599934,US_Cities_List/nat_hilo.png,,51,,,3,,,,,,,,,,,,,,,
null,,confidence_buffer,600035,confidence_buffer,,null,,,,,,,,,,,,,,,,,,
978,,pt2_memorable_rating,601014,US_Cities_List/nat_hilo.png,,50,,,2,,,,,,,,,,,,,,,
null,,confidence_buffer,601115,confidence_buffer,,null,,,,,,,,,,,,,,,,,,
1347,,recognition_phase,602463,US_Cities_List/nat_hilo.png,,49,,,,,,old,1,1,,,,,,,,,,
null,,confidence_buffer,602566,confidence_buffer,,null,,,,,,,,,,,,,,,,,,
null,,thebreak,603068,break,,null,,,,,,,,,,,,,,,,,,
3570.0999999046326,,pt2_realistic_rating,606639,Fictional_Cities_List/img_natural_34.png,,53,Fictional_Cities_List/img_natural_34.png,NAT,5,,,,,,,,,,,,,,,
null,,confidence_buffer,606741,confidence_buffer,,null,,,,,,,,,,,,,,,,,,
2879.1999999284744,,pt2_unique_rating,609621,Fictional_Cities_List/img_natural_34.png,,52,,,4,,,,,,,,,,,,,,,
null,,confidence_buffer,609724,confidence_buffer,,null,,,,,,,,,,,,,,,,,,
1447.7999999523163,,pt2_memorable_rating,611172,Fictional_Cities_List/img_natural_34.png,,51,,,3,,,,,,,,,,,,,,,
null,,confidence_buffer,611275,confidence_buffer,,null,,,,,,,,,,,,,,,,,,
4581,,recognition_phase,615856,Fictional_Cities_List/img_natural_34.png,,52,,,,,,new,1,1,,,,,,,,,,
null,,confidence_buffer,615959,confidence_buffer,,null,,,,,,,,,,,,,,,,,,
null,,thebreak,616460,break,,null,,,,,,,,,,,,,,,,,,
2073.5,,pt2_realistic_rating,618535,US_Cities_List/nat_okoboji.png,,52,US_Cities_List/nat_okoboji.png,NAT,4,,,,,,,,,,,,,,,
null,,confidence_buffer,618636,confidence_buffer,,null,,,,,,,,,,,,,,,,,,
1138.5,,pt2_unique_rating,619777,US_Cities_List/nat_okoboji.png,,51,,,3,,,,,,,,,,,,,,,
null,,confidence_buffer,619879,confidence_buffer,,null,,,,,,,,,,,,,,,,,,
1418.8999999761581,,pt2_memorable_rating,621299,US_Cities_List/nat_okoboji.png,,51,,,3,,,,,,,,,,,,,,,
null,,confidence_buffer,621406,confidence_buffer,,null,,,,,,,,,,,,,,,,,,
1289.5,,probe_rating,622697,probe_rating,,49,,,,1,1,,,,,,,,,,,,,
null,,confidence_buffer,622799,confidence_buffer,,null,,,,,,,,,,,,,,,,,,
1723.8000000715256,,recognition_phase,624525,US_Cities_List/nat_okoboji.png,,52,,,,,,new,1,1,,,,,,,,,,
null,,confidence_buffer,624626,confidence_buffer,,null,,,,,,,,,,,,,,,,,,
null,,thebreak,625127,break,,null,,,,,,,,,,,,,,,,,,
3741.5,,pt2_realistic_rating,628870,US_Cities_List/mm_westpalmbeach.png,,50,US_Cities_List/mm_westpalmbeach.png,MM,2,,,,,,,,,,,,,,,
null,,confidence_buffer,628972,confidence_buffer,,null,,,,,,,,,,,,,,,,,,
1145.1000000238419,,pt2_unique_rating,630118,US_Cities_List/mm_westpalmbeach.png,,53,,,5,,,,,,,,,,,,,,,
null,,confidence_buffer,630219,confidence_buffer,,null,,,,,,,,,,,,,,,,,,
1024.2999999523163,,pt2_memorable_rating,631244,US_Cities_List/mm_westpalmbeach.png,,52,,,4,,,,,,,,,,,,,,,
null,,confidence_buffer,631346,confidence_buffer,,null,,,,,,,,,,,,,,,,,,
1710.7999999523163,,probe_rating,633057,probe_rating,,51,,,,3,1,,,,,,,,,,,,,
null,,confidence_buffer,633159,confidence_buffer,,null,,,,,,,,,,,,,,,,,,
1591.1999999284744,,recognition_phase,634751,US_Cities_List/mm_westpalmbeach.png,,52,,,,,,new,1,1,,,,,,,,,,
null,,confidence_buffer,634852,confidence_buffer,,null,,,,,,,,,,,,,,,,,,
null,,thebreak,635353,break,,null,,,,,,,,,,,,,,,,,,
2339.2999999523163,,pt2_realistic_rating,637693,US_Cities_List/mm_okoboji.png,,52,US_Cities_List/mm_okoboji.png,MM,4,,,,,,,,,,,,,,,
null,,confidence_buffer,637795,confidence_buffer,,null,,,,,,,,,,,,,,,,,,
2055.600000023842,,pt2_unique_rating,639852,US_Cities_List/mm_okoboji.png,,52,,,4,,,,,,,,,,,,,,,
null,,confidence_buffer,639954,confidence_buffer,,null,,,,,,,,,,,,,,,,,,
1063.9000000953674,,pt2_memorable_rating,641019,US_Cities_List/mm_okoboji.png,,51,,,3,,,,,,,,,,,,,,,
null,,confidence_buffer,641120,confidence_buffer,,null,,,,,,,,,,,,,,,,,,
1290,,recognition_phase,642411,US_Cities_List/mm_okoboji.png,,52,,,,,,new,1,1,,,,,,,,,,
null,,confidence_buffer,642513,confidence_buffer,,null,,,,,,,,,,,,,,,,,,
null,,thebreak,643014,break,,null,,,,,,,,,,,,,,,,,,
2458.600000023842,,pt2_realistic_rating,645473,US_Cities_List/nat_bisbee.png,,51,US_Cities_List/nat_bisbee.png,NAT,3,,,,,,,,,,,,,,,
null,,confidence_buffer,645574,confidence_buffer,,null,,,,,,,,,,,,,,,,,,
1680.6000000238419,,pt2_unique_rating,647255,US_Cities_List/nat_bisbee.png,,52,,,4,,,,,,,,,,,,,,,
null,,confidence_buffer,647357,confidence_buffer,,null,,,,,,,,,,,,,,,,,,
1209.4000000953674,,pt2_memorable_rating,648567,US_Cities_List/nat_bisbee.png,,51,,,3,,,,,,,,,,,,,,,
null,,confidence_buffer,648669,confidence_buffer,,null,,,,,,,,,,,,,,,,,,
1542,,recognition_phase,650211,US_Cities_List/nat_bisbee.png,,52,,,,,,new,1,1,,,,,,,,,,
null,,confidence_buffer,650314,confidence_buffer,,null,,,,,,,,,,,,,,,,,,
null,,thebreak,650816,break,,null,,,,,,,,,,,,,,,,,,
2546.7000000476837,,pt2_realistic_rating,653364,Fictional_Cities_List/img_manmade_07.png,,53,Fictional_Cities_List/img_manmade_07.png,MM,5,,,,,,,,,,,,,,,
null,,confidence_buffer,653466,confidence_buffer,,null,,,,,,,,,,,,,,,,,,
1398.8000000715256,,pt2_unique_rating,654866,Fictional_Cities_List/img_manmade_07.png,,51,,,3,,,,,,,,,,,,,,,
null,,confidence_buffer,654968,confidence_buffer,,null,,,,,,,,,,,,,,,,,,
1578,,pt2_memorable_rating,656548,Fictional_Cities_List/img_manmade_07.png,,50,,,2,,,,,,,,,,,,,,,
null,,confidence_buffer,656649,confidence_buffer,,null,,,,,,,,,,,,,,,,,,
1753.5999999046326,,recognition_phase,658404,Fictional_Cities_List/img_manmade_07.png,,49,,,,,,old,1,1,,,,,,,,,,
null,,confidence_buffer,658506,confidence_buffer,,null,,,,,,,,,,,,,,,,,,
null,,thebreak,659013,break,,null,,,,,,,,,,,,,,,,,,
3802.399999976158,,pt2_realistic_rating,662817,US_Cities_List/nat_peoria.png,,53,US_Cities_List/nat_peoria.png,NAT,5,,,,,,,,,,,,,,,
null,,confidence_buffer,662919,confidence_buffer,,null,,,,,,,,,,,,,,,,,,
1225.8000000715256,,pt2_unique_rating,664145,US_Cities_List/nat_peoria.png,,51,,,3,,,,,,,,,,,,,,,
null,,confidence_buffer,664247,confidence_buffer,,null,,,,,,,,,,,,,,,,,,
2175.7000000476837,,pt2_memorable_rating,666423,US_Cities_List/nat_peoria.png,,50,,,2,,,,,,,,,,,,,,,
null,,confidence_buffer,666526,confidence_buffer,,null,,,,,,,,,,,,,,,,,,
1925,,recognition_phase,668451,US_Cities_List/nat_peoria.png,,49,,,,,,old,1,1,,,,,,,,,,
null,,confidence_buffer,668553,confidence_buffer,,null,,,,,,,,,,,,,,,,,,
null,,thebreak,669055,break,,null,,,,,,,,,,,,,,,,,,
7606.100000023842,,pt2_realistic_rating,676663,Fictional_Cities_List/img_manmade_36.png,,53,Fictional_Cities_List/img_manmade_36.png,MM,5,,,,,,,,,,,,,,,
null,,confidence_buffer,676765,confidence_buffer,,null,,,,,,,,,,,,,,,,,,
5038.699999928474,,pt2_unique_rating,681805,Fictional_Cities_List/img_manmade_36.png,,52,,,4,,,,,,,,,,,,,,,
null,,confidence_buffer,681907,confidence_buffer,,null,,,,,,,,,,,,,,,,,,
1297,,pt2_memorable_rating,683205,Fictional_Cities_List/img_manmade_36.png,,51,,,3,,,,,,,,,,,,,,,
null,,confidence_buffer,683307,confidence_buffer,,null,,,,,,,,,,,,,,,,,,
1699.8999999761581,,probe_rating,685008,probe_rating,,53,,,,5,1,,,,,,,,,,,,,
null,,confidence_buffer,685109,confidence_buffer,,null,,,,,,,,,,,,,,,,,,
4769.700000047684,,recognition_phase,689879,Fictional_Cities_List/img_manmade_36.png,,49,,,,,,old,1,1,,,,,,,,,,
null,,confidence_buffer,689983,confidence_buffer,,null,,,,,,,,,,,,,,,,,,
null,,thebreak,690486,break,,null,,,,,,,,,,,,,,,,,,
2525.5,,pt2_realistic_rating,693012,US_Cities_List/nat_cornwall.png,,53,US_Cities_List/nat_cornwall.png,NAT,5,,,,,,,,,,,,,,,
null,,confidence_buffer,693114,confidence_buffer,,null,,,,,,,,,,,,,,,,,,
1302.3999999761581,,pt2_unique_rating,694418,US_Cities_List/nat_cornwall.png,,52,,,4,,,,,,,,,,,,,,,
null,,confidence_buffer,694521,confidence_buffer,,null,,,,,,,,,,,,,,,,,,
1886.7000000476837,,pt2_memorable_rating,696409,US_Cities_List/nat_cornwall.png,,51,,,3,,,,,,,,,,,,,,,
null,,confidence_buffer,696512,confidence_buffer,,null,,,,,,,,,,,,,,,,,,
2675,,recognition_phase,699187,US_Cities_List/nat_cornwall.png,,52,,,,,,new,1,1,,,,,,,,,,
null,,confidence_buffer,699288,confidence_buffer,,null,,,,,,,,,,,,,,,,,,
null,,thebreak,699790,break,,null,,,,,,,,,,,,,,,,,,
2594.399999976158,,pt2_realistic_rating,702385,US_Cities_List/nat_hotsprings.png,,52,US_Cities_List/nat_hotsprings.png,NAT,4,,,,,,,,,,,,,,,
null,,confidence_buffer,702487,confidence_buffer,,null,,,,,,,,,,,,,,,,,,
1369.4000000953674,,pt2_unique_rating,703857,US_Cities_List/nat_hotsprings.png,,53,,,5,,,,,,,,,,,,,,,
null,,confidence_buffer,703959,confidence_buffer,,null,,,,,,,,,,,,,,,,,,
5567.5,,pt2_memorable_rating,709527,US_Cities_List/nat_hotsprings.png,,52,,,4,,,,,,,,,,,,,,,
null,,confidence_buffer,709628,confidence_buffer,,null,,,,,,,,,,,,,,,,,,
2038.1999999284744,,recognition_phase,711667,US_Cities_List/nat_hotsprings.png,,52,,,,,,new,1,1,,,,,,,,,,
null,,confidence_buffer,711769,confidence_buffer,,null,,,,,,,,,,,,,,,,,,
null,,thebreak,712270,break,,null,,,,,,,,,,,,,,,,,,
4897.5,,pt2_realistic_rating,717168,US_Cities_List/mm_delawarecity.png,,52,US_Cities_List/mm_delawarecity.png,MM,4,,,,,,,,,,,,,,,
null,,confidence_buffer,717270,confidence_buffer,,null,,,,,,,,,,,,,,,,,,
1952.8999999761581,,pt2_unique_rating,719223,US_Cities_List/mm_delawarecity.png,,51,,,3,,,,,,,,,,,,,,,
null,,confidence_buffer,719325,confidence_buffer,,null,,,,,,,,,,,,,,,,,,
1126.3999999761581,,pt2_memorable_rating,720453,US_Cities_List/mm_delawarecity.png,,51,,,3,,,,,,,,,,,,,,,
null,,confidence_buffer,720554,confidence_buffer,,null,,,,,,,,,,,,,,,,,,
1315.3999999761581,,recognition_phase,721871,US_Cities_List/mm_delawarecity.png,,49,,,,,,old,1,1,,,,,,,,,,
null,,confidence_buffer,721973,confidence_buffer,,null,,,,,,,,,,,,,,,,,,
null,,thebreak,722475,break,,null,,,,,,,,,,,,,,,,,,
2057,,pt2_realistic_rating,724533,US_Cities_List/mm_carmel.png,,51,US_Cities_List/mm_carmel.png,MM,3,,,,,,,,,,,,,,,
null,,confidence_buffer,724635,confidence_buffer,,null,,,,,,,,,,,,,,,,,,
1250.2999999523163,,pt2_unique_rating,725886,US_Cities_List/mm_carmel.png,,50,,,2,,,,,,,,,,,,,,,
null,,confidence_buffer,725988,confidence_buffer,,null,,,,,,,,,,,,,,,,,,
1133.0999999046326,,pt2_memorable_rating,727122,US_Cities_List/mm_carmel.png,,50,,,2,,,,,,,,,,,,,,,
null,,confidence_buffer,727224,confidence_buffer,,null,,,,,,,,,,,,,,,,,,
1439.3000000715256,,recognition_phase,728665,US_Cities_List/mm_carmel.png,,52,,,,,,new,1,1,,,,,,,,,,
null,,confidence_buffer,728766,confidence_buffer,,null,,,,,,,,,,,,,,,,,,
null,,thebreak,729268,break,,null,,,,,,,,,,,,,,,,,,
2257,,pt2_realistic_rating,731526,US_Cities_List/mm_abilene.png,,52,US_Cities_List/mm_abilene.png,MM,4,,,,,,,,,,,,,,,
null,,confidence_buffer,731627,confidence_buffer,,null,,,,,,,,,,,,,,,,,,
1479.2999999523163,,probe_rating,733107,probe_rating,,49,,,,1,1,,,,,,,,,,,,,
null,,confidence_buffer,733208,confidence_buffer,,null,,,,,,,,,,,,,,,,,,
1471.2999999523163,,pt2_unique_rating,734680,US_Cities_List/mm_abilene.png,,52,,,4,,,,,,,,,,,,,,,
null,,confidence_buffer,734782,confidence_buffer,,null,,,,,,,,,,,,,,,,,,
1843.6000000238419,,pt2_memorable_rating,736626,US_Cities_List/mm_abilene.png,,52,,,4,,,,,,,,,,,,,,,
null,,confidence_buffer,736729,confidence_buffer,,null,,,,,,,,,,,,,,,,,,
1356.7000000476837,,recognition_phase,738086,US_Cities_List/mm_abilene.png,,49,,,,,,old,1,1,,,,,,,,,,
null,,confidence_buffer,738188,confidence_buffer,,null,,,,,,,,,,,,,,,,,,
null,,thebreak,738690,break,,null,,,,,,,,,,,,,,,,,,
1674.6000000238419,,pt2_realistic_rating,740365,US_Cities_List/nat_delawarecity.png,,53,US_Cities_List/nat_delawarecity.png,NAT,5,,,,,,,,,,,,,,,
null,,confidence_buffer,740467,confidence_buffer,,null,,,,,,,,,,,,,,,,,,
1844.2999999523163,,pt2_unique_rating,742312,US_Cities_List/nat_delawarecity.png,,51,,,3,,,,,,,,,,,,,,,
null,,confidence_buffer,742414,confidence_buffer,,null,,,,,,,,,,,,,,,,,,
1084.2999999523163,,pt2_memorable_rating,743499,US_Cities_List/nat_delawarecity.png,,51,,,3,,,,,,,,,,,,,,,
null,,confidence_buffer,743613,confidence_buffer,,null,,,,,,,,,,,,,,,,,,
2943.399999976158,,recognition_phase,746557,US_Cities_List/nat_delawarecity.png,,52,,,,,,new,1,1,,,,,,,,,,
null,,confidence_buffer,746659,confidence_buffer,,null,,,,,,,,,,,,,,,,,,
null,,thebreak,747161,break,,null,,,,,,,,,,,,,,,,,,
4490.399999976158,,pt2_realistic_rating,751652,US_Cities_List/nat_westpalmbeach.png,,52,US_Cities_List/nat_westpalmbeach.png,NAT,4,,,,,,,,,,,,,,,
null,,confidence_buffer,751754,confidence_buffer,,null,,,,,,,,,,,,,,,,,,
1804.1000000238419,,pt2_unique_rating,753559,US_Cities_List/nat_westpalmbeach.png,,50,,,2,,,,,,,,,,,,,,,
null,,confidence_buffer,753661,confidence_buffer,,null,,,,,,,,,,,,,,,,,,
904.2999999523163,,pt2_memorable_rating,754566,US_Cities_List/nat_westpalmbeach.png,,50,,,2,,,,,,,,,,,,,,,
null,,confidence_buffer,754667,confidence_buffer,,null,,,,,,,,,,,,,,,,,,
1901.3000000715256,,recognition_phase,756569,US_Cities_List/nat_westpalmbeach.png,,50,,,,,,old,1,1,,,,,,,,,,
null,,confidence_buffer,756670,confidence_buffer,,null,,,,,,,,,,,,,,,,,,
null,,thebreak,757172,break,,null,,,,,,,,,,,,,,,,,,
3339.7000000476837,,pt2_realistic_rating,760513,Fictional_Cities_List/img_manmade_27.png,,50,Fictional_Cities_List/img_manmade_27.png,MM,2,,,,,,,,,,,,,,,
null,,confidence_buffer,760615,confidence_buffer,,null,,,,,,,,,,,,,,,,,,
2567.7000000476837,,pt2_unique_rating,763183,Fictional_Cities_List/img_manmade_27.png,,51,,,3,,,,,,,,,,,,,,,
null,,confidence_buffer,763285,confidence_buffer,,null,,,,,,,,,,,,,,,,,,
1862.2999999523163,,pt2_memorable_rating,765148,Fictional_Cities_List/img_manmade_27.png,,49,,,1,,,,,,,,,,,,,,,
null,,confidence_buffer,765263,confidence_buffer,,null,,,,,,,,,,,,,,,,,,
2180.3000000715256,,recognition_phase,767444,Fictional_Cities_List/img_manmade_27.png,,52,,,,,,new,1,1,,,,,,,,,,
null,,confidence_buffer,767545,confidence_buffer,,null,,,,,,,,,,,,,,,,,,
null,,thebreak,768047,break,,null,,,,,,,,,,,,,,,,,,
2150.100000023842,,pt2_realistic_rating,770198,Fictional_Cities_List/img_manmade_46.png,,51,Fictional_Cities_List/img_manmade_46.png,MM,3,,,,,,,,,,,,,,,
null,,confidence_buffer,770299,confidence_buffer,,null,,,,,,,,,,,,,,,,,,
2063.8000000715256,,pt2_unique_rating,772364,Fictional_Cities_List/img_manmade_46.png,,52,,,4,,,,,,,,,,,,,,,
null,,confidence_buffer,772466,confidence_buffer,,null,,,,,,,,,,,,,,,,,,
856.8999999761581,,pt2_memorable_rating,773323,Fictional_Cities_List/img_manmade_46.png,,51,,,3,,,,,,,,,,,,,,,
null,,confidence_buffer,773425,confidence_buffer,,null,,,,,,,,,,,,,,,,,,
1590.7999999523163,,recognition_phase,775017,Fictional_Cities_List/img_manmade_46.png,,49,,,,,,old,1,1,,,,,,,,,,
null,,confidence_buffer,775118,confidence_buffer,,null,,,,,,,,,,,,,,,,,,
null,,thebreak,775620,break,,null,,,,,,,,,,,,,,,,,,
2865.5,,pt2_realistic_rating,778486,Fictional_Cities_List/img_manmade_16.png,,51,Fictional_Cities_List/img_manmade_16.png,MM,3,,,,,,,,,,,,,,,
null,,confidence_buffer,778590,confidence_buffer,,null,,,,,,,,,,,,,,,,,,
1571.7000000476837,,pt2_unique_rating,780163,Fictional_Cities_List/img_manmade_16.png,,50,,,2,,,,,,,,,,,,,,,
null,,confidence_buffer,780264,confidence_buffer,,null,,,,,,,,,,,,,,,,,,
1067.8999999761581,,pt2_memorable_rating,781332,Fictional_Cities_List/img_manmade_16.png,,50,,,2,,,,,,,,,,,,,,,
null,,confidence_buffer,781433,confidence_buffer,,null,,,,,,,,,,,,,,,,,,
1963.6999999284744,,recognition_phase,783398,Fictional_Cities_List/img_manmade_16.png,,49,,,,,,old,1,1,,,,,,,,,,
null,,confidence_buffer,783500,confidence_buffer,,null,,,,,,,,,,,,,,,,,,
null,,thebreak,784002,break,,null,,,,,,,,,,,,,,,,,,
3922.399999976158,,pt2_realistic_rating,787925,Fictional_Cities_List/img_manmade_37.png,,49,Fictional_Cities_List/img_manmade_37.png,MM,1,,,,,,,,,,,,,,,
null,,confidence_buffer,788027,confidence_buffer,,null,,,,,,,,,,,,,,,,,,
1840.6999999284744,,pt2_unique_rating,789868,Fictional_Cities_List/img_manmade_37.png,,51,,,3,,,,,,,,,,,,,,,
null,,confidence_buffer,789969,confidence_buffer,,null,,,,,,,,,,,,,,,,,,
978.7000000476837,,pt2_memorable_rating,790949,Fictional_Cities_List/img_manmade_37.png,,50,,,2,,,,,,,,,,,,,,,
null,,confidence_buffer,791052,confidence_buffer,,null,,,,,,,,,,,,,,,,,,
1511.3999999761581,,recognition_phase,792564,Fictional_Cities_List/img_manmade_37.png,,52,,,,,,new,1,1,,,,,,,,,,
null,,confidence_buffer,792665,confidence_buffer,,null,,,,,,,,,,,,,,,,,,
null,,thebreak,793167,break,,null,,,,,,,,,,,,,,,,,,
2489.5999999046326,,pt2_realistic_rating,795657,Fictional_Cities_List/img_natural_45.png,,50,Fictional_Cities_List/img_natural_45.png,NAT,2,,,,,,,,,,,,,,,
null,,confidence_buffer,795760,confidence_buffer,,null,,,,,,,,,,,,,,,,,,
1488.6000000238419,,pt2_unique_rating,797249,Fictional_Cities_List/img_natural_45.png,,51,,,3,,,,,,,,,,,,,,,
null,,confidence_buffer,797363,confidence_buffer,,null,,,,,,,,,,,,,,,,,,
1004.7999999523163,,pt2_memorable_rating,798369,Fictional_Cities_List/img_natural_45.png,,50,,,2,,,,,,,,,,,,,,,
null,,confidence_buffer,798471,confidence_buffer,,null,,,,,,,,,,,,,,,,,,
1347.3999999761581,,recognition_phase,799819,Fictional_Cities_List/img_natural_45.png,,49,,,,,,old,1,1,,,,,,,,,,
null,,confidence_buffer,799933,confidence_buffer,,null,,,,,,,,,,,,,,,,,,
null,,thebreak,800434,break,,null,,,,,,,,,,,,,,,,,,
1830.6000000238419,,pt2_realistic_rating,802266,US_Cities_List/mm_cornwall.png,,52,US_Cities_List/mm_cornwall.png,MM,4,,,,,,,,,,,,,,,
null,,confidence_buffer,802367,confidence_buffer,,null,,,,,,,,,,,,,,,,,,
2115.399999976158,,pt2_unique_rating,804483,US_Cities_List/mm_cornwall.png,,52,,,4,,,,,,,,,,,,,,,
null,,confidence_buffer,804584,confidence_buffer,,null,,,,,,,,,,,,,,,,,,
1280.2999999523163,,pt2_memorable_rating,805865,US_Cities_List/mm_cornwall.png,,51,,,3,,,,,,,,,,,,,,,
null,,confidence_buffer,805966,confidence_buffer,,null,,,,,,,,,,,,,,,,,,
2900.8000000715256,,recognition_phase,808868,US_Cities_List/mm_cornwall.png,,52,,,,,,new,1,1,,,,,,,,,,
null,,confidence_buffer,808970,confidence_buffer,,null,,,,,,,,,,,,,,,,,,
null,,thebreak,809471,break,,null,,,,,,,,,,,,,,,,,,
11840.100000023842,,pt2_realistic_rating,821312,US_Cities_List/nat_abilene.png,,53,US_Cities_List/nat_abilene.png,NAT,5,,,,,,,,,,,,,,,
null,,confidence_buffer,821413,confidence_buffer,,null,,,,,,,,,,,,,,,,,,
1887.7000000476837,,pt2_unique_rating,823301,US_Cities_List/nat_abilene.png,,51,,,3,,,,,,,,,,,,,,,
null,,confidence_buffer,823402,confidence_buffer,,null,,,,,,,,,,,,,,,,,,
743.7000000476837,,pt2_memorable_rating,824146,US_Cities_List/nat_abilene.png,,50,,,2,,,,,,,,,,,,,,,
null,,confidence_buffer,824247,confidence_buffer,,null,,,,,,,,,,,,,,,,,,
1731.1000000238419,,recognition_phase,825979,US_Cities_List/nat_abilene.png,,52,,,,,,new,1,1,,,,,,,,,,
null,,confidence_buffer,826081,confidence_buffer,,null,,,,,,,,,,,,,,,,,,
null,,thebreak,826582,break,,null,,,,,,,,,,,,,,,,,,
2148.600000023842,,pt2_realistic_rating,828732,Fictional_Cities_List/img_natural_42.png,,52,Fictional_Cities_List/img_natural_42.png,NAT,4,,,,,,,,,,,,,,,
null,,confidence_buffer,828833,confidence_buffer,,null,,,,,,,,,,,,,,,,,,
1748,,pt2_unique_rating,830582,Fictional_Cities_List/img_natural_42.png,,53,,,5,,,,,,,,,,,,,,,
null,,confidence_buffer,830684,confidence_buffer,,null,,,,,,,,,,,,,,,,,,
1272,,pt2_memorable_rating,831957,Fictional_Cities_List/img_natural_42.png,,52,,,4,,,,,,,,,,,,,,,
null,,confidence_buffer,832059,confidence_buffer,,null,,,,,,,,,,,,,,,,,,
1851.3999999761581,,recognition_phase,833911,Fictional_Cities_List/img_natural_42.png,,52,,,,,,new,1,1,,,,,,,,,,
null,,confidence_buffer,834012,confidence_buffer,,null,,,,,,,,,,,,,,,,,,
null,,thebreak,834513,break,,null,,,,,,,,,,,,,,,,,,
3124.6999999284744,,pt2_realistic_rating,837638,Fictional_Cities_List/img_manmade_42.png,,51,Fictional_Cities_List/img_manmade_42.png,MM,3,,,,,,,,,,,,,,,
null,,confidence_buffer,837740,confidence_buffer,,null,,,,,,,,,,,,,,,,,,
2569,,pt2_unique_rating,840310,Fictional_Cities_List/img_manmade_42.png,,51,,,3,,,,,,,,,,,,,,,
null,,confidence_buffer,840412,confidence_buffer,,null,,,,,,,,,,,,,,,,,,
702,,pt2_memorable_rating,841115,Fictional_Cities_List/img_manmade_42.png,,51,,,3,,,,,,,,,,,,,,,
null,,confidence_buffer,841217,confidence_buffer,,null,,,,,,,,,,,,,,,,,,
2943.0999999046326,,recognition_phase,844161,Fictional_Cities_List/img_manmade_42.png,,51,,,,,,new,1,1,,,,,,,,,,
null,,confidence_buffer,844263,confidence_buffer,,null,,,,,,,,,,,,,,,,,,
null,,thebreak,844768,break,,null,,,,,,,,,,,,,,,,,,
2011.3000000715256,,pt2_realistic_rating,846780,Fictional_Cities_List/img_natural_21.png,,53,Fictional_Cities_List/img_natural_21.png,NAT,5,,,,,,,,,,,,,,,
null,,confidence_buffer,846881,confidence_buffer,,null,,,,,,,,,,,,,,,,,,
1941.7000000476837,,pt2_unique_rating,848823,Fictional_Cities_List/img_natural_21.png,,51,,,3,,,,,,,,,,,,,,,
null,,confidence_buffer,848925,confidence_buffer,,null,,,,,,,,,,,,,,,,,,
929.6000000238419,,pt2_memorable_rating,849856,Fictional_Cities_List/img_natural_21.png,,50,,,2,,,,,,,,,,,,,,,
null,,confidence_buffer,849958,confidence_buffer,,null,,,,,,,,,,,,,,,,,,
1407.0999999046326,,probe_rating,851366,probe_rating,,52,,,,4,1,,,,,,,,,,,,,
null,,confidence_buffer,851467,confidence_buffer,,null,,,,,,,,,,,,,,,,,,
2615.600000023842,,recognition_phase,854084,Fictional_Cities_List/img_natural_21.png,,51,,,,,,new,0,0.9818181818181818,,,,,,,,,,
null,,confidence_buffer,854186,confidence_buffer,,null,,,,,,,,,,,,,,,,,,
null,,thebreak,854687,break,,null,,,,,,,,,,,,,,,,,,
2804.5999999046326,,pt2_realistic_rating,857492,Fictional_Cities_List/img_natural_06.png,,53,Fictional_Cities_List/img_natural_06.png,NAT,5,,,,,,,,,,,,,,,
null,,confidence_buffer,857594,confidence_buffer,,null,,,,,,,,,,,,,,,,,,
2125.2000000476837,,pt2_unique_rating,859719,Fictional_Cities_List/img_natural_06.png,,52,,,4,,,,,,,,,,,,,,,
null,,confidence_buffer,859821,confidence_buffer,,null,,,,,,,,,,,,,,,,,,
1166.6000000238419,,pt2_memorable_rating,860988,Fictional_Cities_List/img_natural_06.png,,50,,,2,,,,,,,,,,,,,,,
null,,confidence_buffer,861089,confidence_buffer,,null,,,,,,,,,,,,,,,,,,
2217.5,,recognition_phase,863307,Fictional_Cities_List/img_natural_06.png,,50,,,,,,old,1,0.9821428571428571,,,,,,,,,,
null,,confidence_buffer,863409,confidence_buffer,,null,,,,,,,,,,,,,,,,,,
null,,thebreak,863910,break,,null,,,,,,,,,,,,,,,,,,
4688.799999952316,,pt2_realistic_rating,868600,US_Cities_List/mm_sitka.png,,51,US_Cities_List/mm_sitka.png,MM,3,,,,,,,,,,,,,,,
null,,confidence_buffer,868701,confidence_buffer,,null,,,,,,,,,,,,,,,,,,
1670,,pt2_unique_rating,870372,US_Cities_List/mm_sitka.png,,52,,,4,,,,,,,,,,,,,,,
null,,confidence_buffer,870472,confidence_buffer,,null,,,,,,,,,,,,,,,,,,
834.8999999761581,,pt2_memorable_rating,871308,US_Cities_List/mm_sitka.png,,51,,,3,,,,,,,,,,,,,,,
null,,confidence_buffer,871409,confidence_buffer,,null,,,,,,,,,,,,,,,,,,
1221.5,,recognition_phase,872631,US_Cities_List/mm_sitka.png,,52,,,,,,new,1,0.9824561403508771,,,,,,,,,,
null,,confidence_buffer,872732,confidence_buffer,,null,,,,,,,,,,,,,,,,,,
null,,thebreak,873233,break,,null,,,,,,,,,,,,,,,,,,
2467.899999976158,,pt2_realistic_rating,875702,Fictional_Cities_List/img_natural_07.png,,52,Fictional_Cities_List/img_natural_07.png,NAT,4,,,,,,,,,,,,,,,
null,,confidence_buffer,875803,confidence_buffer,,null,,,,,,,,,,,,,,,,,,
3750.7000000476837,,pt2_unique_rating,879555,Fictional_Cities_List/img_natural_07.png,,52,,,4,,,,,,,,,,,,,,,
null,,confidence_buffer,879657,confidence_buffer,,null,,,,,,,,,,,,,,,,,,
1504.2000000476837,,pt2_memorable_rating,881162,Fictional_Cities_List/img_natural_07.png,,51,,,3,,,,,,,,,,,,,,,
null,,confidence_buffer,881264,confidence_buffer,,null,,,,,,,,,,,,,,,,,,
3276.2000000476837,,recognition_phase,884541,Fictional_Cities_List/img_natural_07.png,,52,,,,,,new,1,0.9827586206896551,,,,,,,,,,
null,,confidence_buffer,884643,confidence_buffer,,null,,,,,,,,,,,,,,,,,,
null,,thebreak,885145,break,,null,,,,,,,,,,,,,,,,,,
4230.100000023842,,pt2_realistic_rating,889376,Fictional_Cities_List/img_natural_26.png,,50,Fictional_Cities_List/img_natural_26.png,NAT,2,,,,,,,,,,,,,,,
null,,confidence_buffer,889478,confidence_buffer,,null,,,,,,,,,,,,,,,,,,
1710.8000000715256,,pt2_unique_rating,891190,Fictional_Cities_List/img_natural_26.png,,53,,,5,,,,,,,,,,,,,,,
null,,confidence_buffer,891291,confidence_buffer,,null,,,,,,,,,,,,,,,,,,
1413.3999999761581,,pt2_memorable_rating,892705,Fictional_Cities_List/img_natural_26.png,,51,,,3,,,,,,,,,,,,,,,
null,,confidence_buffer,892808,confidence_buffer,,null,,,,,,,,,,,,,,,,,,
1386.7000000476837,,recognition_phase,894196,Fictional_Cities_List/img_natural_26.png,,52,,,,,,new,1,0.9830508474576272,,,,,,,,,,
null,,confidence_buffer,894297,confidence_buffer,,null,,,,,,,,,,,,,,,,,,
null,,thebreak,894798,break,,null,,,,,,,,,,,,,,,,,,
2553,,pt2_realistic_rating,897352,Fictional_Cities_List/img_manmade_34.png,,52,Fictional_Cities_List/img_manmade_34.png,MM,4,,,,,,,,,,,,,,,
null,,confidence_buffer,897452,confidence_buffer,,null,,,,,,,,,,,,,,,,,,
1378.7999999523163,,pt2_unique_rating,898832,Fictional_Cities_List/img_manmade_34.png,,51,,,3,,,,,,,,,,,,,,,
null,,confidence_buffer,898934,confidence_buffer,,null,,,,,,,,,,,,,,,,,,
1803.1000000238419,,probe_rating,900738,probe_rating,,51,,,,3,1,,,,,,,,,,,,,
null,,confidence_buffer,900839,confidence_buffer,,null,,,,,,,,,,,,,,,,,,
1468.3000000715256,,pt2_memorable_rating,902309,Fictional_Cities_List/img_manmade_34.png,,51,,,3,,,,,,,,,,,,,,,
null,,confidence_buffer,902413,confidence_buffer,,null,,,,,,,,,,,,,,,,,,
1336.5,,recognition_phase,903750,Fictional_Cities_List/img_manmade_34.png,,52,,,,,,new,1,0.9833333333333333,,,,,,,,,,
null,,confidence_buffer,903851,confidence_buffer,,null,,,,,,,,,,,,,,,,,,
null,,thebreak,904353,break,,null,,,,,,,,,,,,,,,,,,
,,survey,1128390,survey-questions,,,,,,,,,,,none,high,no my attention was on the task,i didnt use any strategies per se, i just relied on my memory and paying attention,if  i knew i had seen them before i gave a high number,i relied on memory which i think is good to give an accurate answer,this was easy, if it looked odd or just not right i felt that it deserved a higher number,i looked for obvious AI images and looked at the composition of the images to decide what got a high number,no i have not,n/a
