rt,responses,trial_type,time_elapsed,stimulus,button_pressed,key_press,name_trial,city_type,rating,probe,probe_accuracy,response,correct,accuracy,problems,smooth,distraction,strategies,familiar,memorable,unique,realistic,similar,comments
16148.899999976158,{worker_id:6316cc3a5fbb98d30e5e15c3},id_enter,16151,,,,,,,,,,,,,,,,,,,,,
18507.100000023842,,fullscreen,34661,fullscreen,0,,,,,,,,,,,,,,,,,,,
8611,,intro_0,43274,instruct,,32,,,,,,,,,,,,,,,,,,
11671,,intro_1,54946,instruct,,32,,,,,,,,,,,,,,,,,,
7871,,intro_2,62817,instruct,,32,,,,,,,,,,,,,,,,,,
null,,instruct_dir_4,64319,instruct,,null,,,,,,,,,,,,,,,,,,
null,,thebreak,64820,break,,null,,,,,,,,,,,,,,,,,,
9460.899999976158,,familiar_rating,74282,US_Cities_List/nat_boulder.png,,49,US_Cities_List/nat_boulder.png,NAT,1,,,,,,,,,,,,,,,
null,,confidence_buffer,74384,confidence_buffer,,null,,,,,,,,,,,,,,,,,,
7272.600000023842,,probe_rating,81657,probe_rating,,49,,,,1,1,,,,,,,,,,,,,
null,,confidence_buffer,81760,confidence_buffer,,null,,,,,,,,,,,,,,,,,,
14136.799999952316,,unique_rating,95898,US_Cities_List/nat_boulder.png,,49,,,1,,,,,,,,,,,,,,,
null,,confidence_buffer,95999,confidence_buffer,,null,,,,,,,,,,,,,,,,,,
5937.600000023842,,memorable_rating,101937,US_Cities_List/nat_boulder.png,,51,,,3,,,,,,,,,,,,,,,
null,,confidence_buffer,102039,confidence_buffer,,null,,,,,,,,,,,,,,,,,,
null,,thebreak,102540,break,,null,,,,,,,,,,,,,,,,,,
8108.399999976158,,familiar_rating,110649,Fictional_Cities_List/img_natural_46.png,,49,Fictional_Cities_List/img_natural_46.png,NAT,1,,,,,,,,,,,,,,,
null,,confidence_buffer,110751,confidence_buffer,,null,,,,,,,,,,,,,,,,,,
8865.299999952316,,unique_rating,119617,Fictional_Cities_List/img_natural_46.png,,50,,,2,,,,,,,,,,,,,,,
null,,confidence_buffer,119720,confidence_buffer,,null,,,,,,,,,,,,,,,,,,
3256.600000023842,,memorable_rating,122977,Fictional_Cities_List/img_natural_46.png,,52,,,4,,,,,,,,,,,,,,,
null,,confidence_buffer,123079,confidence_buffer,,null,,,,,,,,,,,,,,,,,,
null,,thebreak,123580,break,,null,,,,,,,,,,,,,,,,,,
5836.399999976158,,familiar_rating,129417,Fictional_Cities_List/img_natural_06.png,,49,Fictional_Cities_List/img_natural_06.png,NAT,1,,,,,,,,,,,,,,,
null,,confidence_buffer,129519,confidence_buffer,,null,,,,,,,,,,,,,,,,,,
4913.800000071526,,unique_rating,134433,Fictional_Cities_List/img_natural_06.png,,51,,,3,,,,,,,,,,,,,,,
null,,confidence_buffer,134534,confidence_buffer,,null,,,,,,,,,,,,,,,,,,
3058.2000000476837,,memorable_rating,137593,Fictional_Cities_List/img_natural_06.png,,50,,,2,,,,,,,,,,,,,,,
null,,confidence_buffer,137695,confidence_buffer,,null,,,,,,,,,,,,,,,,,,
null,,thebreak,138196,break,,null,,,,,,,,,,,,,,,,,,
6628.5,,familiar_rating,144825,Fictional_Cities_List/img_natural_13.png,,49,Fictional_Cities_List/img_natural_13.png,NAT,1,,,,,,,,,,,,,,,
null,,confidence_buffer,144927,confidence_buffer,,null,,,,,,,,,,,,,,,,,,
5545.100000023842,,unique_rating,150473,Fictional_Cities_List/img_natural_13.png,,50,,,2,,,,,,,,,,,,,,,
null,,confidence_buffer,150574,confidence_buffer,,null,,,,,,,,,,,,,,,,,,
8778.700000047684,,memorable_rating,159354,Fictional_Cities_List/img_natural_13.png,,50,,,2,,,,,,,,,,,,,,,
null,,confidence_buffer,159455,confidence_buffer,,null,,,,,,,,,,,,,,,,,,
null,,thebreak,159957,break,,null,,,,,,,,,,,,,,,,,,
5643.5,,familiar_rating,165601,Fictional_Cities_List/img_natural_38.png,,49,Fictional_Cities_List/img_natural_38.png,NAT,1,,,,,,,,,,,,,,,
null,,confidence_buffer,165703,confidence_buffer,,null,,,,,,,,,,,,,,,,,,
6985.399999976158,,unique_rating,172689,Fictional_Cities_List/img_natural_38.png,,49,,,1,,,,,,,,,,,,,,,
null,,confidence_buffer,172790,confidence_buffer,,null,,,,,,,,,,,,,,,,,,
3153.7000000476837,,memorable_rating,175945,Fictional_Cities_List/img_natural_38.png,,49,,,1,,,,,,,,,,,,,,,
null,,confidence_buffer,176046,confidence_buffer,,null,,,,,,,,,,,,,,,,,,
null,,thebreak,176547,break,,null,,,,,,,,,,,,,,,,,,
6925.199999928474,,familiar_rating,183473,US_Cities_List/nat_okoboji.png,,49,US_Cities_List/nat_okoboji.png,NAT,1,,,,,,,,,,,,,,,
null,,confidence_buffer,183574,confidence_buffer,,null,,,,,,,,,,,,,,,,,,
3634.1999999284744,,unique_rating,187209,US_Cities_List/nat_okoboji.png,,49,,,1,,,,,,,,,,,,,,,
null,,confidence_buffer,187310,confidence_buffer,,null,,,,,,,,,,,,,,,,,,
809.6000000238419,,memorable_rating,188121,US_Cities_List/nat_okoboji.png,,49,,,1,,,,,,,,,,,,,,,
null,,confidence_buffer,188222,confidence_buffer,,null,,,,,,,,,,,,,,,,,,
null,,thebreak,188723,break,,null,,,,,,,,,,,,,,,,,,
6757.199999928474,,familiar_rating,195481,US_Cities_List/nat_coeurdalene.png,,49,US_Cities_List/nat_coeurdalene.png,NAT,1,,,,,,,,,,,,,,,
null,,confidence_buffer,195588,confidence_buffer,,null,,,,,,,,,,,,,,,,,,
4611.800000071526,,unique_rating,200201,US_Cities_List/nat_coeurdalene.png,,50,,,2,,,,,,,,,,,,,,,
null,,confidence_buffer,200302,confidence_buffer,,null,,,,,,,,,,,,,,,,,,
3985.399999976158,,memorable_rating,204289,US_Cities_List/nat_coeurdalene.png,,49,,,1,,,,,,,,,,,,,,,
null,,confidence_buffer,204390,confidence_buffer,,null,,,,,,,,,,,,,,,,,,
null,,thebreak,204891,break,,null,,,,,,,,,,,,,,,,,,
3701,,familiar_rating,208593,Fictional_Cities_List/img_manmade_13.png,,49,Fictional_Cities_List/img_manmade_13.png,MM,1,,,,,,,,,,,,,,,
null,,confidence_buffer,208694,confidence_buffer,,null,,,,,,,,,,,,,,,,,,
7521.600000023842,,unique_rating,216217,Fictional_Cities_List/img_manmade_13.png,,51,,,3,,,,,,,,,,,,,,,
null,,confidence_buffer,216318,confidence_buffer,,null,,,,,,,,,,,,,,,,,,
5017.700000047684,,memorable_rating,221337,Fictional_Cities_List/img_manmade_13.png,,51,,,3,,,,,,,,,,,,,,,
null,,confidence_buffer,221438,confidence_buffer,,null,,,,,,,,,,,,,,,,,,
null,,thebreak,221939,break,,null,,,,,,,,,,,,,,,,,,
8821,,familiar_rating,230761,US_Cities_List/nat_hilo.png,,49,US_Cities_List/nat_hilo.png,NAT,1,,,,,,,,,,,,,,,
null,,confidence_buffer,230862,confidence_buffer,,null,,,,,,,,,,,,,,,,,,
6289.700000047684,,unique_rating,237153,US_Cities_List/nat_hilo.png,,51,,,3,,,,,,,,,,,,,,,
null,,confidence_buffer,237255,confidence_buffer,,null,,,,,,,,,,,,,,,,,,
3729.100000023842,,memorable_rating,240985,US_Cities_List/nat_hilo.png,,50,,,2,,,,,,,,,,,,,,,
null,,confidence_buffer,241087,confidence_buffer,,null,,,,,,,,,,,,,,,,,,
null,,thebreak,241589,break,,null,,,,,,,,,,,,,,,,,,
3915.100000023842,,familiar_rating,245505,US_Cities_List/nat_sitka.png,,49,US_Cities_List/nat_sitka.png,NAT,1,,,,,,,,,,,,,,,
null,,confidence_buffer,245606,confidence_buffer,,null,,,,,,,,,,,,,,,,,,
6345.5,,unique_rating,251953,US_Cities_List/nat_sitka.png,,50,,,2,,,,,,,,,,,,,,,
null,,confidence_buffer,252055,confidence_buffer,,null,,,,,,,,,,,,,,,,,,
3969.1999999284744,,memorable_rating,256024,US_Cities_List/nat_sitka.png,,50,,,2,,,,,,,,,,,,,,,
null,,confidence_buffer,256126,confidence_buffer,,null,,,,,,,,,,,,,,,,,,
null,,thebreak,256627,break,,null,,,,,,,,,,,,,,,,,,
4557.199999928474,,familiar_rating,261185,US_Cities_List/nat_healdsburg.png,,49,US_Cities_List/nat_healdsburg.png,NAT,1,,,,,,,,,,,,,,,
null,,confidence_buffer,261286,confidence_buffer,,null,,,,,,,,,,,,,,,,,,
5434,,unique_rating,266721,US_Cities_List/nat_healdsburg.png,,49,,,1,,,,,,,,,,,,,,,
null,,confidence_buffer,266822,confidence_buffer,,null,,,,,,,,,,,,,,,,,,
4081.399999976158,,memorable_rating,270905,US_Cities_List/nat_healdsburg.png,,49,,,1,,,,,,,,,,,,,,,
null,,confidence_buffer,271006,confidence_buffer,,null,,,,,,,,,,,,,,,,,,
null,,thebreak,271507,break,,null,,,,,,,,,,,,,,,,,,
6132.5,,familiar_rating,277640,US_Cities_List/mm_westpalmbeach.png,,49,US_Cities_List/mm_westpalmbeach.png,MM,1,,,,,,,,,,,,,,,
null,,confidence_buffer,277743,confidence_buffer,,null,,,,,,,,,,,,,,,,,,
6288.5,,unique_rating,284032,US_Cities_List/mm_westpalmbeach.png,,52,,,4,,,,,,,,,,,,,,,
null,,confidence_buffer,284146,confidence_buffer,,null,,,,,,,,,,,,,,,,,,
7214.100000023842,,memorable_rating,291361,US_Cities_List/mm_westpalmbeach.png,,53,,,5,,,,,,,,,,,,,,,
null,,confidence_buffer,291461,confidence_buffer,,null,,,,,,,,,,,,,,,,,,
null,,thebreak,291963,break,,null,,,,,,,,,,,,,,,,,,
5708.100000023842,,familiar_rating,297672,US_Cities_List/mm_cornwall.png,,49,US_Cities_List/mm_cornwall.png,MM,1,,,,,,,,,,,,,,,
null,,confidence_buffer,297774,confidence_buffer,,null,,,,,,,,,,,,,,,,,,
4057.600000023842,,unique_rating,301832,US_Cities_List/mm_cornwall.png,,51,,,3,,,,,,,,,,,,,,,
null,,confidence_buffer,301935,confidence_buffer,,null,,,,,,,,,,,,,,,,,,
7136.5,,memorable_rating,309072,US_Cities_List/mm_cornwall.png,,50,,,2,,,,,,,,,,,,,,,
null,,confidence_buffer,309180,confidence_buffer,,null,,,,,,,,,,,,,,,,,,
null,,thebreak,309680,break,,null,,,,,,,,,,,,,,,,,,
3807.1999999284744,,familiar_rating,313488,US_Cities_List/nat_athens.png,,49,US_Cities_List/nat_athens.png,NAT,1,,,,,,,,,,,,,,,
null,,confidence_buffer,313589,confidence_buffer,,null,,,,,,,,,,,,,,,,,,
9250,,unique_rating,322840,US_Cities_List/nat_athens.png,,49,,,1,,,,,,,,,,,,,,,
null,,confidence_buffer,322941,confidence_buffer,,null,,,,,,,,,,,,,,,,,,
4034.4000000953674,,memorable_rating,326976,US_Cities_List/nat_athens.png,,50,,,2,,,,,,,,,,,,,,,
null,,confidence_buffer,327077,confidence_buffer,,null,,,,,,,,,,,,,,,,,,
null,,thebreak,327581,break,,null,,,,,,,,,,,,,,,,,,
7050.399999976158,,familiar_rating,334632,US_Cities_List/mm_hilo.png,,49,US_Cities_List/mm_hilo.png,MM,1,,,,,,,,,,,,,,,
null,,confidence_buffer,334734,confidence_buffer,,null,,,,,,,,,,,,,,,,,,
10153.900000095367,,unique_rating,344888,US_Cities_List/mm_hilo.png,,51,,,3,,,,,,,,,,,,,,,
null,,confidence_buffer,344990,confidence_buffer,,null,,,,,,,,,,,,,,,,,,
5121.399999976158,,memorable_rating,350112,US_Cities_List/mm_hilo.png,,50,,,2,,,,,,,,,,,,,,,
null,,confidence_buffer,350214,confidence_buffer,,null,,,,,,,,,,,,,,,,,,
null,,thebreak,350716,break,,null,,,,,,,,,,,,,,,,,,
6363,,familiar_rating,357080,Fictional_Cities_List/img_natural_36.png,,49,Fictional_Cities_List/img_natural_36.png,NAT,1,,,,,,,,,,,,,,,
null,,confidence_buffer,357181,confidence_buffer,,null,,,,,,,,,,,,,,,,,,
6458,,unique_rating,363640,Fictional_Cities_List/img_natural_36.png,,50,,,2,,,,,,,,,,,,,,,
null,,confidence_buffer,363742,confidence_buffer,,null,,,,,,,,,,,,,,,,,,
3417.600000023842,,memorable_rating,367160,Fictional_Cities_List/img_natural_36.png,,50,,,2,,,,,,,,,,,,,,,
null,,confidence_buffer,367261,confidence_buffer,,null,,,,,,,,,,,,,,,,,,
null,,thebreak,367762,break,,null,,,,,,,,,,,,,,,,,,
4077.2999999523163,,familiar_rating,371840,US_Cities_List/mm_hotsprings.png,,49,US_Cities_List/mm_hotsprings.png,MM,1,,,,,,,,,,,,,,,
null,,confidence_buffer,371942,confidence_buffer,,null,,,,,,,,,,,,,,,,,,
8697.899999976158,,unique_rating,380640,US_Cities_List/mm_hotsprings.png,,52,,,4,,,,,,,,,,,,,,,
null,,confidence_buffer,380741,confidence_buffer,,null,,,,,,,,,,,,,,,,,,
4914.099999904633,,memorable_rating,385656,US_Cities_List/mm_hotsprings.png,,52,,,4,,,,,,,,,,,,,,,
null,,confidence_buffer,385757,confidence_buffer,,null,,,,,,,,,,,,,,,,,,
null,,thebreak,386258,break,,null,,,,,,,,,,,,,,,,,,
7204.899999976158,,familiar_rating,393464,Fictional_Cities_List/img_manmade_18.png,,49,Fictional_Cities_List/img_manmade_18.png,MM,1,,,,,,,,,,,,,,,
null,,confidence_buffer,393566,confidence_buffer,,null,,,,,,,,,,,,,,,,,,
5873.299999952316,,unique_rating,399440,Fictional_Cities_List/img_manmade_18.png,,52,,,4,,,,,,,,,,,,,,,
null,,confidence_buffer,399541,confidence_buffer,,null,,,,,,,,,,,,,,,,,,
4561.699999928474,,memorable_rating,404104,Fictional_Cities_List/img_manmade_18.png,,51,,,3,,,,,,,,,,,,,,,
null,,confidence_buffer,404205,confidence_buffer,,null,,,,,,,,,,,,,,,,,,
null,,thebreak,404706,break,,null,,,,,,,,,,,,,,,,,,
5381,,familiar_rating,410088,Fictional_Cities_List/img_manmade_07.png,,49,Fictional_Cities_List/img_manmade_07.png,MM,1,,,,,,,,,,,,,,,
null,,confidence_buffer,410190,confidence_buffer,,null,,,,,,,,,,,,,,,,,,
5729.399999976158,,unique_rating,415920,Fictional_Cities_List/img_manmade_07.png,,52,,,4,,,,,,,,,,,,,,,
null,,confidence_buffer,416021,confidence_buffer,,null,,,,,,,,,,,,,,,,,,
7633.700000047684,,memorable_rating,423656,Fictional_Cities_List/img_manmade_07.png,,51,,,3,,,,,,,,,,,,,,,
null,,confidence_buffer,423757,confidence_buffer,,null,,,,,,,,,,,,,,,,,,
null,,thebreak,424261,break,,null,,,,,,,,,,,,,,,,,,
3570.5,,familiar_rating,427832,Fictional_Cities_List/img_manmade_06.png,,49,Fictional_Cities_List/img_manmade_06.png,MM,1,,,,,,,,,,,,,,,
null,,confidence_buffer,427936,confidence_buffer,,null,,,,,,,,,,,,,,,,,,
5758.800000071526,,unique_rating,433696,Fictional_Cities_List/img_manmade_06.png,,51,,,3,,,,,,,,,,,,,,,
null,,confidence_buffer,433798,confidence_buffer,,null,,,,,,,,,,,,,,,,,,
2953,,memorable_rating,436752,Fictional_Cities_List/img_manmade_06.png,,50,,,2,,,,,,,,,,,,,,,
null,,confidence_buffer,436853,confidence_buffer,,null,,,,,,,,,,,,,,,,,,
null,,thebreak,437355,break,,null,,,,,,,,,,,,,,,,,,
3491.7000000476837,,familiar_rating,440848,Fictional_Cities_List/img_manmade_38.png,,49,Fictional_Cities_List/img_manmade_38.png,MM,1,,,,,,,,,,,,,,,
null,,confidence_buffer,440949,confidence_buffer,,null,,,,,,,,,,,,,,,,,,
5161.5,,unique_rating,446112,Fictional_Cities_List/img_manmade_38.png,,51,,,3,,,,,,,,,,,,,,,
null,,confidence_buffer,446227,confidence_buffer,,null,,,,,,,,,,,,,,,,,,
5748.200000047684,,probe_rating,451976,probe_rating,,52,,,,4,1,,,,,,,,,,,,,
null,,confidence_buffer,452078,confidence_buffer,,null,,,,,,,,,,,,,,,,,,
9833,,memorable_rating,461912,Fictional_Cities_List/img_manmade_38.png,,51,,,3,,,,,,,,,,,,,,,
null,,confidence_buffer,462013,confidence_buffer,,null,,,,,,,,,,,,,,,,,,
null,,thebreak,462515,break,,null,,,,,,,,,,,,,,,,,,
5411.600000023842,,familiar_rating,467928,Fictional_Cities_List/img_manmade_39.png,,49,Fictional_Cities_List/img_manmade_39.png,MM,1,,,,,,,,,,,,,,,
null,,confidence_buffer,468029,confidence_buffer,,null,,,,,,,,,,,,,,,,,,
8833.799999952316,,unique_rating,476863,Fictional_Cities_List/img_manmade_39.png,,50,,,2,,,,,,,,,,,,,,,
null,,confidence_buffer,476965,confidence_buffer,,null,,,,,,,,,,,,,,,,,,
5217.699999928474,,memorable_rating,482184,Fictional_Cities_List/img_manmade_39.png,,50,,,2,,,,,,,,,,,,,,,
null,,confidence_buffer,482286,confidence_buffer,,null,,,,,,,,,,,,,,,,,,
null,,thebreak,482787,break,,null,,,,,,,,,,,,,,,,,,
6091.799999952316,,familiar_rating,488879,US_Cities_List/mm_healdsburg.png,,49,US_Cities_List/mm_healdsburg.png,MM,1,,,,,,,,,,,,,,,
null,,confidence_buffer,488980,confidence_buffer,,null,,,,,,,,,,,,,,,,,,
5650.399999976158,,unique_rating,494631,US_Cities_List/mm_healdsburg.png,,52,,,4,,,,,,,,,,,,,,,
null,,confidence_buffer,494732,confidence_buffer,,null,,,,,,,,,,,,,,,,,,
5986.199999928474,,memorable_rating,500719,US_Cities_List/mm_healdsburg.png,,51,,,3,,,,,,,,,,,,,,,
null,,confidence_buffer,500821,confidence_buffer,,null,,,,,,,,,,,,,,,,,,
null,,thebreak,501322,break,,null,,,,,,,,,,,,,,,,,,
3588.899999976158,,familiar_rating,504911,Fictional_Cities_List/img_natural_33.png,,49,Fictional_Cities_List/img_natural_33.png,NAT,1,,,,,,,,,,,,,,,
null,,confidence_buffer,505013,confidence_buffer,,null,,,,,,,,,,,,,,,,,,
5033.600000023842,,unique_rating,510047,Fictional_Cities_List/img_natural_33.png,,53,,,5,,,,,,,,,,,,,,,
null,,confidence_buffer,510149,confidence_buffer,,null,,,,,,,,,,,,,,,,,,
5834,,memorable_rating,515983,Fictional_Cities_List/img_natural_33.png,,52,,,4,,,,,,,,,,,,,,,
null,,confidence_buffer,516085,confidence_buffer,,null,,,,,,,,,,,,,,,,,,
null,,thebreak,516585,break,,null,,,,,,,,,,,,,,,,,,
4373.899999976158,,familiar_rating,520960,Fictional_Cities_List/img_natural_14.png,,49,Fictional_Cities_List/img_natural_14.png,NAT,1,,,,,,,,,,,,,,,
null,,confidence_buffer,521062,confidence_buffer,,null,,,,,,,,,,,,,,,,,,
5392.799999952316,,unique_rating,526455,Fictional_Cities_List/img_natural_14.png,,49,,,1,,,,,,,,,,,,,,,
null,,confidence_buffer,526557,confidence_buffer,,null,,,,,,,,,,,,,,,,,,
5761.600000023842,,memorable_rating,532319,Fictional_Cities_List/img_natural_14.png,,50,,,2,,,,,,,,,,,,,,,
null,,confidence_buffer,532421,confidence_buffer,,null,,,,,,,,,,,,,,,,,,
null,,thebreak,532921,break,,null,,,,,,,,,,,,,,,,,,
5053.200000047684,,familiar_rating,537975,US_Cities_List/mm_abilene.png,,49,US_Cities_List/mm_abilene.png,MM,1,,,,,,,,,,,,,,,
null,,confidence_buffer,538076,confidence_buffer,,null,,,,,,,,,,,,,,,,,,
2482,,unique_rating,540559,US_Cities_List/mm_abilene.png,,53,,,5,,,,,,,,,,,,,,,
null,,confidence_buffer,540661,confidence_buffer,,null,,,,,,,,,,,,,,,,,,
6769.700000047684,,memorable_rating,547431,US_Cities_List/mm_abilene.png,,53,,,5,,,,,,,,,,,,,,,
null,,confidence_buffer,547533,confidence_buffer,,null,,,,,,,,,,,,,,,,,,
3489.8000000715256,,probe_rating,551023,probe_rating,,50,,,,2,1,,,,,,,,,,,,,
null,,confidence_buffer,551126,confidence_buffer,,null,,,,,,,,,,,,,,,,,,
null,,thebreak,551627,break,,null,,,,,,,,,,,,,,,,,,
5635.200000047684,,familiar_rating,557263,US_Cities_List/mm_delawarecity.png,,49,US_Cities_List/mm_delawarecity.png,MM,1,,,,,,,,,,,,,,,
null,,confidence_buffer,557365,confidence_buffer,,null,,,,,,,,,,,,,,,,,,
8105.300000071526,,unique_rating,565471,US_Cities_List/mm_delawarecity.png,,50,,,2,,,,,,,,,,,,,,,
null,,confidence_buffer,565573,confidence_buffer,,null,,,,,,,,,,,,,,,,,,
5993.5,,memorable_rating,571567,US_Cities_List/mm_delawarecity.png,,50,,,2,,,,,,,,,,,,,,,
null,,confidence_buffer,571669,confidence_buffer,,null,,,,,,,,,,,,,,,,,,
null,,thebreak,572170,break,,null,,,,,,,,,,,,,,,,,,
3475.7999999523163,,familiar_rating,575647,Fictional_Cities_List/img_natural_05.png,,49,Fictional_Cities_List/img_natural_05.png,NAT,1,,,,,,,,,,,,,,,
null,,confidence_buffer,575748,confidence_buffer,,null,,,,,,,,,,,,,,,,,,
9626.100000023842,,probe_rating,585375,probe_rating,,49,,,,1,1,,,,,,,,,,,,,
null,,confidence_buffer,585477,confidence_buffer,,null,,,,,,,,,,,,,,,,,,
4601.199999928474,,unique_rating,590079,Fictional_Cities_List/img_natural_05.png,,52,,,4,,,,,,,,,,,,,,,
null,,confidence_buffer,590180,confidence_buffer,,null,,,,,,,,,,,,,,,,,,
4753.800000071526,,memorable_rating,594935,Fictional_Cities_List/img_natural_05.png,,51,,,3,,,,,,,,,,,,,,,
null,,confidence_buffer,595036,confidence_buffer,,null,,,,,,,,,,,,,,,,,,
null,,thebreak,595538,break,,null,,,,,,,,,,,,,,,,,,
4365,,familiar_rating,599903,US_Cities_List/mm_bisbee.png,,49,US_Cities_List/mm_bisbee.png,MM,1,,,,,,,,,,,,,,,
null,,confidence_buffer,600005,confidence_buffer,,null,,,,,,,,,,,,,,,,,,
3817.5,,unique_rating,603823,US_Cities_List/mm_bisbee.png,,49,,,1,,,,,,,,,,,,,,,
null,,confidence_buffer,603925,confidence_buffer,,null,,,,,,,,,,,,,,,,,,
3025.4000000953674,,probe_rating,606951,probe_rating,,51,,,,3,1,,,,,,,,,,,,,
null,,confidence_buffer,607052,confidence_buffer,,null,,,,,,,,,,,,,,,,,,
6722.299999952316,,memorable_rating,613775,US_Cities_List/mm_bisbee.png,,49,,,1,,,,,,,,,,,,,,,
null,,confidence_buffer,613876,confidence_buffer,,null,,,,,,,,,,,,,,,,,,
null,,thebreak,614378,break,,null,,,,,,,,,,,,,,,,,,
5884.600000023842,,familiar_rating,620263,Fictional_Cities_List/img_manmade_16.png,,49,Fictional_Cities_List/img_manmade_16.png,MM,1,,,,,,,,,,,,,,,
null,,confidence_buffer,620364,confidence_buffer,,null,,,,,,,,,,,,,,,,,,
5977.5,,unique_rating,626343,Fictional_Cities_List/img_manmade_16.png,,51,,,3,,,,,,,,,,,,,,,
null,,confidence_buffer,626445,confidence_buffer,,null,,,,,,,,,,,,,,,,,,
4377.600000023842,,memorable_rating,630823,Fictional_Cities_List/img_manmade_16.png,,51,,,3,,,,,,,,,,,,,,,
null,,confidence_buffer,630925,confidence_buffer,,null,,,,,,,,,,,,,,,,,,
null,,thebreak,631426,break,,null,,,,,,,,,,,,,,,,,,
5604,,intro_0,637031,instruct,,32,,,,,,,,,,,,,,,,,,
11335.5,,intro_1,648367,instruct,,32,,,,,,,,,,,,,,,,,,
44455.10000002384,,intro_2,692823,instruct,,32,,,,,,,,,,,,,,,,,,
null,,instruct_dir_4,694323,instruct,,null,,,,,,,,,,,,,,,,,,
11642.5,,pt2_realistic_rating,705966,US_Cities_List/mm_abilene.png,,52,US_Cities_List/mm_abilene.png,MM,4,,,,,,,,,,,,,,,
null,,confidence_buffer,706068,confidence_buffer,,null,,,,,,,,,,,,,,,,,,
7273.900000095367,,pt2_unique_rating,713342,US_Cities_List/mm_abilene.png,,53,,,5,,,,,,,,,,,,,,,
null,,confidence_buffer,713443,confidence_buffer,,null,,,,,,,,,,,,,,,,,,
7570.399999976158,,pt2_memorable_rating,721015,US_Cities_List/mm_abilene.png,,53,,,5,,,,,,,,,,,,,,,
null,,confidence_buffer,721117,confidence_buffer,,null,,,,,,,,,,,,,,,,,,
4952.700000047684,,recognition_phase,726070,US_Cities_List/mm_abilene.png,,49,,,,,,old,1,1,,,,,,,,,,
null,,confidence_buffer,726172,confidence_buffer,,null,,,,,,,,,,,,,,,,,,
null,,thebreak,726674,break,,null,,,,,,,,,,,,,,,,,,
11035.899999976158,,pt2_realistic_rating,737710,US_Cities_List/mm_okoboji.png,,52,US_Cities_List/mm_okoboji.png,MM,4,,,,,,,,,,,,,,,
null,,confidence_buffer,737812,confidence_buffer,,null,,,,,,,,,,,,,,,,,,
2737.100000023842,,probe_rating,740550,probe_rating,,50,,,,2,1,,,,,,,,,,,,,
null,,confidence_buffer,740659,confidence_buffer,,null,,,,,,,,,,,,,,,,,,
7162.800000071526,,pt2_unique_rating,747822,US_Cities_List/mm_okoboji.png,,52,,,4,,,,,,,,,,,,,,,
null,,confidence_buffer,747928,confidence_buffer,,null,,,,,,,,,,,,,,,,,,
4397.200000047684,,pt2_memorable_rating,752326,US_Cities_List/mm_okoboji.png,,52,,,4,,,,,,,,,,,,,,,
null,,confidence_buffer,752427,confidence_buffer,,null,,,,,,,,,,,,,,,,,,
4706,,recognition_phase,757134,US_Cities_List/mm_okoboji.png,,52,,,,,,new,1,1,,,,,,,,,,
null,,confidence_buffer,757235,confidence_buffer,,null,,,,,,,,,,,,,,,,,,
null,,thebreak,757736,break,,null,,,,,,,,,,,,,,,,,,
17765,,pt2_realistic_rating,775502,US_Cities_List/nat_bisbee.png,,53,US_Cities_List/nat_bisbee.png,NAT,5,,,,,,,,,,,,,,,
null,,confidence_buffer,775604,confidence_buffer,,null,,,,,,,,,,,,,,,,,,
6801.200000047684,,pt2_unique_rating,782406,US_Cities_List/nat_bisbee.png,,50,,,2,,,,,,,,,,,,,,,
null,,confidence_buffer,782508,confidence_buffer,,null,,,,,,,,,,,,,,,,,,
3194.2999999523163,,pt2_memorable_rating,785703,US_Cities_List/nat_bisbee.png,,50,,,2,,,,,,,,,,,,,,,
null,,confidence_buffer,785805,confidence_buffer,,null,,,,,,,,,,,,,,,,,,
5624.699999928474,,recognition_phase,791430,US_Cities_List/nat_bisbee.png,,52,,,,,,new,1,1,,,,,,,,,,
null,,confidence_buffer,791531,confidence_buffer,,null,,,,,,,,,,,,,,,,,,
null,,thebreak,792033,break,,null,,,,,,,,,,,,,,,,,,
7684,,pt2_realistic_rating,799718,Fictional_Cities_List/img_natural_16.png,,49,Fictional_Cities_List/img_natural_16.png,NAT,1,,,,,,,,,,,,,,,
null,,confidence_buffer,799820,confidence_buffer,,null,,,,,,,,,,,,,,,,,,
4633.5,,pt2_unique_rating,804454,Fictional_Cities_List/img_natural_16.png,,50,,,2,,,,,,,,,,,,,,,
null,,confidence_buffer,804556,confidence_buffer,,null,,,,,,,,,,,,,,,,,,
2097.100000023842,,probe_rating,806654,probe_rating,,51,,,,3,1,,,,,,,,,,,,,
null,,confidence_buffer,806756,confidence_buffer,,null,,,,,,,,,,,,,,,,,,
5321.399999976158,,pt2_memorable_rating,812078,Fictional_Cities_List/img_natural_16.png,,51,,,3,,,,,,,,,,,,,,,
null,,confidence_buffer,812179,confidence_buffer,,null,,,,,,,,,,,,,,,,,,
3418.399999976158,,recognition_phase,815599,Fictional_Cities_List/img_natural_16.png,,52,,,,,,new,1,1,,,,,,,,,,
null,,confidence_buffer,815700,confidence_buffer,,null,,,,,,,,,,,,,,,,,,
null,,thebreak,816201,break,,null,,,,,,,,,,,,,,,,,,
9420.299999952316,,pt2_realistic_rating,825622,Fictional_Cities_List/img_manmade_18.png,,53,Fictional_Cities_List/img_manmade_18.png,MM,5,,,,,,,,,,,,,,,
null,,confidence_buffer,825723,confidence_buffer,,null,,,,,,,,,,,,,,,,,,
5113.800000071526,,pt2_unique_rating,830838,Fictional_Cities_List/img_manmade_18.png,,52,,,4,,,,,,,,,,,,,,,
null,,confidence_buffer,830940,confidence_buffer,,null,,,,,,,,,,,,,,,,,,
3448.600000023842,,pt2_memorable_rating,834390,Fictional_Cities_List/img_manmade_18.png,,52,,,4,,,,,,,,,,,,,,,
null,,confidence_buffer,834492,confidence_buffer,,null,,,,,,,,,,,,,,,,,,
5385.399999976158,,recognition_phase,839878,Fictional_Cities_List/img_manmade_18.png,,49,,,,,,old,1,1,,,,,,,,,,
null,,confidence_buffer,839980,confidence_buffer,,null,,,,,,,,,,,,,,,,,,
null,,thebreak,840481,break,,null,,,,,,,,,,,,,,,,,,
6916,,pt2_realistic_rating,847398,US_Cities_List/nat_hotsprings.png,,50,US_Cities_List/nat_hotsprings.png,NAT,2,,,,,,,,,,,,,,,
null,,confidence_buffer,847499,confidence_buffer,,null,,,,,,,,,,,,,,,,,,
6913.799999952316,,pt2_unique_rating,854414,US_Cities_List/nat_hotsprings.png,,50,,,2,,,,,,,,,,,,,,,
null,,confidence_buffer,854515,confidence_buffer,,null,,,,,,,,,,,,,,,,,,
6266.100000023842,,pt2_memorable_rating,860782,US_Cities_List/nat_hotsprings.png,,50,,,2,,,,,,,,,,,,,,,
null,,confidence_buffer,860883,confidence_buffer,,null,,,,,,,,,,,,,,,,,,
4625.700000047684,,recognition_phase,865510,US_Cities_List/nat_hotsprings.png,,52,,,,,,new,1,1,,,,,,,,,,
null,,confidence_buffer,865611,confidence_buffer,,null,,,,,,,,,,,,,,,,,,
null,,thebreak,866112,break,,null,,,,,,,,,,,,,,,,,,
6709.5,,pt2_realistic_rating,872822,Fictional_Cities_List/img_manmade_36.png,,52,Fictional_Cities_List/img_manmade_36.png,MM,4,,,,,,,,,,,,,,,
null,,confidence_buffer,872929,confidence_buffer,,null,,,,,,,,,,,,,,,,,,
5315.899999976158,,pt2_unique_rating,878246,Fictional_Cities_List/img_manmade_36.png,,53,,,5,,,,,,,,,,,,,,,
null,,confidence_buffer,878347,confidence_buffer,,null,,,,,,,,,,,,,,,,,,
4209.699999928474,,pt2_memorable_rating,882557,Fictional_Cities_List/img_manmade_36.png,,53,,,5,,,,,,,,,,,,,,,
null,,confidence_buffer,882659,confidence_buffer,,null,,,,,,,,,,,,,,,,,,
2865.5,,probe_rating,885526,probe_rating,,52,,,,4,1,,,,,,,,,,,,,
null,,confidence_buffer,885627,confidence_buffer,,null,,,,,,,,,,,,,,,,,,
4842.200000047684,,recognition_phase,890470,Fictional_Cities_List/img_manmade_36.png,,52,,,,,,new,1,1,,,,,,,,,,
null,,confidence_buffer,890571,confidence_buffer,,null,,,,,,,,,,,,,,,,,,
null,,thebreak,891072,break,,null,,,,,,,,,,,,,,,,,,
6380.399999976158,,pt2_realistic_rating,897454,US_Cities_List/mm_cornwall.png,,53,US_Cities_List/mm_cornwall.png,MM,5,,,,,,,,,,,,,,,
null,,confidence_buffer,897555,confidence_buffer,,null,,,,,,,,,,,,,,,,,,
5001.700000047684,,pt2_unique_rating,902558,US_Cities_List/mm_cornwall.png,,51,,,3,,,,,,,,,,,,,,,
null,,confidence_buffer,902660,confidence_buffer,,null,,,,,,,,,,,,,,,,,,
4200.5,,pt2_memorable_rating,906861,US_Cities_List/mm_cornwall.png,,50,,,2,,,,,,,,,,,,,,,
null,,confidence_buffer,906962,confidence_buffer,,null,,,,,,,,,,,,,,,,,,
5650.199999928474,,recognition_phase,912613,US_Cities_List/mm_cornwall.png,,51,,,,,,new,0,0.875,,,,,,,,,,
null,,confidence_buffer,912714,confidence_buffer,,null,,,,,,,,,,,,,,,,,,
null,,thebreak,913216,break,,null,,,,,,,,,,,,,,,,,,
7581,,pt2_realistic_rating,920797,US_Cities_List/nat_peoria.png,,53,US_Cities_List/nat_peoria.png,NAT,5,,,,,,,,,,,,,,,
null,,confidence_buffer,920900,confidence_buffer,,null,,,,,,,,,,,,,,,,,,
4065,,pt2_unique_rating,924966,US_Cities_List/nat_peoria.png,,49,,,1,,,,,,,,,,,,,,,
null,,confidence_buffer,925067,confidence_buffer,,null,,,,,,,,,,,,,,,,,,
3345.5,,pt2_memorable_rating,928413,US_Cities_List/nat_peoria.png,,49,,,1,,,,,,,,,,,,,,,
null,,confidence_buffer,928515,confidence_buffer,,null,,,,,,,,,,,,,,,,,,
1986,,probe_rating,930501,probe_rating,,49,,,,1,1,,,,,,,,,,,,,
null,,confidence_buffer,930603,confidence_buffer,,null,,,,,,,,,,,,,,,,,,
7729.699999928474,,recognition_phase,938334,US_Cities_List/nat_peoria.png,,51,,,,,,new,1,0.8888888888888888,,,,,,,,,,
null,,confidence_buffer,938435,confidence_buffer,,null,,,,,,,,,,,,,,,,,,
null,,thebreak,938937,break,,null,,,,,,,,,,,,,,,,,,
6820,,pt2_realistic_rating,945757,Fictional_Cities_List/img_natural_08.png,,52,Fictional_Cities_List/img_natural_08.png,NAT,4,,,,,,,,,,,,,,,
null,,confidence_buffer,945859,confidence_buffer,,null,,,,,,,,,,,,,,,,,,
5697.699999928474,,pt2_unique_rating,951557,Fictional_Cities_List/img_natural_08.png,,51,,,3,,,,,,,,,,,,,,,
null,,confidence_buffer,951659,confidence_buffer,,null,,,,,,,,,,,,,,,,,,
3985.5,,pt2_memorable_rating,955645,Fictional_Cities_List/img_natural_08.png,,51,,,3,,,,,,,,,,,,,,,
null,,confidence_buffer,955747,confidence_buffer,,null,,,,,,,,,,,,,,,,,,
2785.2000000476837,,probe_rating,958533,probe_rating,,51,,,,3,1,,,,,,,,,,,,,
null,,confidence_buffer,958635,confidence_buffer,,null,,,,,,,,,,,,,,,,,,
10953.5,,recognition_phase,969589,Fictional_Cities_List/img_natural_08.png,,50,,,,,,old,0,0.8,,,,,,,,,,
null,,confidence_buffer,969691,confidence_buffer,,null,,,,,,,,,,,,,,,,,,
null,,thebreak,970192,break,,null,,,,,,,,,,,,,,,,,,
9764.700000047684,,pt2_realistic_rating,979957,Fictional_Cities_List/img_natural_07.png,,53,Fictional_Cities_List/img_natural_07.png,NAT,5,,,,,,,,,,,,,,,
null,,confidence_buffer,980059,confidence_buffer,,null,,,,,,,,,,,,,,,,,,
2065.2000000476837,,probe_rating,982125,probe_rating,,52,,,,4,1,,,,,,,,,,,,,
null,,confidence_buffer,982227,confidence_buffer,,null,,,,,,,,,,,,,,,,,,
3945.600000023842,,pt2_unique_rating,986173,Fictional_Cities_List/img_natural_07.png,,52,,,4,,,,,,,,,,,,,,,
null,,confidence_buffer,986274,confidence_buffer,,null,,,,,,,,,,,,,,,,,,
3346.2000000476837,,pt2_memorable_rating,989621,Fictional_Cities_List/img_natural_07.png,,51,,,3,,,,,,,,,,,,,,,
null,,confidence_buffer,989730,confidence_buffer,,null,,,,,,,,,,,,,,,,,,
3874.7999999523163,,recognition_phase,993605,Fictional_Cities_List/img_natural_07.png,,52,,,,,,new,1,0.8181818181818182,,,,,,,,,,
null,,confidence_buffer,993707,confidence_buffer,,null,,,,,,,,,,,,,,,,,,
null,,thebreak,994208,break,,null,,,,,,,,,,,,,,,,,,
7172.199999928474,,pt2_realistic_rating,1001381,Fictional_Cities_List/img_natural_38.png,,52,Fictional_Cities_List/img_natural_38.png,NAT,4,,,,,,,,,,,,,,,
null,,confidence_buffer,1001483,confidence_buffer,,null,,,,,,,,,,,,,,,,,,
3329.7000000476837,,pt2_unique_rating,1004813,Fictional_Cities_List/img_natural_38.png,,50,,,2,,,,,,,,,,,,,,,
null,,confidence_buffer,1004915,confidence_buffer,,null,,,,,,,,,,,,,,,,,,
2481.399999976158,,pt2_memorable_rating,1007397,Fictional_Cities_List/img_natural_38.png,,50,,,2,,,,,,,,,,,,,,,
null,,confidence_buffer,1007499,confidence_buffer,,null,,,,,,,,,,,,,,,,,,
4985.099999904633,,recognition_phase,1012485,Fictional_Cities_List/img_natural_38.png,,50,,,,,,old,1,0.8333333333333334,,,,,,,,,,
null,,confidence_buffer,1012586,confidence_buffer,,null,,,,,,,,,,,,,,,,,,
null,,thebreak,1013087,break,,null,,,,,,,,,,,,,,,,,,
9205,,pt2_realistic_rating,1022293,Fictional_Cities_List/img_manmade_33.png,,52,Fictional_Cities_List/img_manmade_33.png,MM,4,,,,,,,,,,,,,,,
null,,confidence_buffer,1022396,confidence_buffer,,null,,,,,,,,,,,,,,,,,,
4240.200000047684,,pt2_unique_rating,1026637,Fictional_Cities_List/img_manmade_33.png,,53,,,5,,,,,,,,,,,,,,,
null,,confidence_buffer,1026738,confidence_buffer,,null,,,,,,,,,,,,,,,,,,
2562.4000000953674,,probe_rating,1029301,probe_rating,,49,,,,1,1,,,,,,,,,,,,,
null,,confidence_buffer,1029403,confidence_buffer,,null,,,,,,,,,,,,,,,,,,
5161.5,,pt2_memorable_rating,1034565,Fictional_Cities_List/img_manmade_33.png,,53,,,5,,,,,,,,,,,,,,,
null,,confidence_buffer,1034667,confidence_buffer,,null,,,,,,,,,,,,,,,,,,
3329,,recognition_phase,1037997,Fictional_Cities_List/img_manmade_33.png,,52,,,,,,new,1,0.8461538461538461,,,,,,,,,,
null,,confidence_buffer,1038098,confidence_buffer,,null,,,,,,,,,,,,,,,,,,
null,,thebreak,1038599,break,,null,,,,,,,,,,,,,,,,,,
5860.5,,pt2_realistic_rating,1044461,US_Cities_List/nat_healdsburg.png,,53,US_Cities_List/nat_healdsburg.png,NAT,5,,,,,,,,,,,,,,,
null,,confidence_buffer,1044562,confidence_buffer,,null,,,,,,,,,,,,,,,,,,
3506.399999976158,,pt2_unique_rating,1048069,US_Cities_List/nat_healdsburg.png,,49,,,1,,,,,,,,,,,,,,,
null,,confidence_buffer,1048170,confidence_buffer,,null,,,,,,,,,,,,,,,,,,
1938.1000000238419,,pt2_memorable_rating,1050109,US_Cities_List/nat_healdsburg.png,,49,,,1,,,,,,,,,,,,,,,
null,,confidence_buffer,1050210,confidence_buffer,,null,,,,,,,,,,,,,,,,,,
6657.800000071526,,recognition_phase,1056869,US_Cities_List/nat_healdsburg.png,,50,,,,,,old,1,0.8571428571428571,,,,,,,,,,
null,,confidence_buffer,1056970,confidence_buffer,,null,,,,,,,,,,,,,,,,,,
null,,thebreak,1057471,break,,null,,,,,,,,,,,,,,,,,,
4445.399999976158,,pt2_realistic_rating,1061917,US_Cities_List/mm_healdsburg.png,,53,US_Cities_List/mm_healdsburg.png,MM,5,,,,,,,,,,,,,,,
null,,confidence_buffer,1062018,confidence_buffer,,null,,,,,,,,,,,,,,,,,,
2689.8000000715256,,pt2_unique_rating,1064709,US_Cities_List/mm_healdsburg.png,,53,,,5,,,,,,,,,,,,,,,
null,,confidence_buffer,1064811,confidence_buffer,,null,,,,,,,,,,,,,,,,,,
4169,,pt2_memorable_rating,1068981,US_Cities_List/mm_healdsburg.png,,53,,,5,,,,,,,,,,,,,,,
null,,confidence_buffer,1069082,confidence_buffer,,null,,,,,,,,,,,,,,,,,,
4105.900000095367,,recognition_phase,1073189,US_Cities_List/mm_healdsburg.png,,49,,,,,,old,1,0.8666666666666667,,,,,,,,,,
null,,confidence_buffer,1073290,confidence_buffer,,null,,,,,,,,,,,,,,,,,,
null,,thebreak,1073791,break,,null,,,,,,,,,,,,,,,,,,
6700.600000023842,,pt2_realistic_rating,1080493,Fictional_Cities_List/img_natural_36.png,,53,Fictional_Cities_List/img_natural_36.png,NAT,5,,,,,,,,,,,,,,,
null,,confidence_buffer,1080595,confidence_buffer,,null,,,,,,,,,,,,,,,,,,
4640.600000023842,,pt2_unique_rating,1085237,Fictional_Cities_List/img_natural_36.png,,49,,,1,,,,,,,,,,,,,,,
null,,confidence_buffer,1085338,confidence_buffer,,null,,,,,,,,,,,,,,,,,,
6305.399999976158,,pt2_memorable_rating,1091644,Fictional_Cities_List/img_natural_36.png,,50,,,2,,,,,,,,,,,,,,,
null,,confidence_buffer,1091746,confidence_buffer,,null,,,,,,,,,,,,,,,,,,
4594,,recognition_phase,1096341,Fictional_Cities_List/img_natural_36.png,,50,,,,,,old,1,0.875,,,,,,,,,,
null,,confidence_buffer,1096442,confidence_buffer,,null,,,,,,,,,,,,,,,,,,
null,,thebreak,1096944,break,,null,,,,,,,,,,,,,,,,,,
3619.2999999523163,,pt2_realistic_rating,1100564,Fictional_Cities_List/img_manmade_07.png,,53,Fictional_Cities_List/img_manmade_07.png,MM,5,,,,,,,,,,,,,,,
null,,confidence_buffer,1100665,confidence_buffer,,null,,,,,,,,,,,,,,,,,,
8882.399999976158,,pt2_unique_rating,1109549,Fictional_Cities_List/img_manmade_07.png,,52,,,4,,,,,,,,,,,,,,,
null,,confidence_buffer,1109651,confidence_buffer,,null,,,,,,,,,,,,,,,,,,
3849,,pt2_memorable_rating,1113500,Fictional_Cities_List/img_manmade_07.png,,51,,,3,,,,,,,,,,,,,,,
null,,confidence_buffer,1113602,confidence_buffer,,null,,,,,,,,,,,,,,,,,,
2825.6999999284744,,probe_rating,1116428,probe_rating,,49,,,,1,1,,,,,,,,,,,,,
null,,confidence_buffer,1116530,confidence_buffer,,null,,,,,,,,,,,,,,,,,,
5225.799999952316,,recognition_phase,1121757,Fictional_Cities_List/img_manmade_07.png,,50,,,,,,old,1,0.8823529411764706,,,,,,,,,,
null,,confidence_buffer,1121859,confidence_buffer,,null,,,,,,,,,,,,,,,,,,
null,,thebreak,1122360,break,,null,,,,,,,,,,,,,,,,,,
6683.799999952316,,pt2_realistic_rating,1129044,US_Cities_List/nat_coeurdalene.png,,53,US_Cities_List/nat_coeurdalene.png,NAT,5,,,,,,,,,,,,,,,
null,,confidence_buffer,1129146,confidence_buffer,,null,,,,,,,,,,,,,,,,,,
3977.899999976158,,pt2_unique_rating,1133124,US_Cities_List/nat_coeurdalene.png,,49,,,1,,,,,,,,,,,,,,,
null,,confidence_buffer,1133226,confidence_buffer,,null,,,,,,,,,,,,,,,,,,
2937.399999976158,,pt2_memorable_rating,1136165,US_Cities_List/nat_coeurdalene.png,,49,,,1,,,,,,,,,,,,,,,
null,,confidence_buffer,1136266,confidence_buffer,,null,,,,,,,,,,,,,,,,,,
6361.799999952316,,recognition_phase,1142628,US_Cities_List/nat_coeurdalene.png,,51,,,,,,new,0,0.8333333333333334,,,,,,,,,,
null,,confidence_buffer,1142730,confidence_buffer,,null,,,,,,,,,,,,,,,,,,
null,,thebreak,1143232,break,,null,,,,,,,,,,,,,,,,,,
5300.100000023842,,pt2_realistic_rating,1148532,US_Cities_List/mm_westpalmbeach.png,,53,US_Cities_List/mm_westpalmbeach.png,MM,5,,,,,,,,,,,,,,,
null,,confidence_buffer,1148634,confidence_buffer,,null,,,,,,,,,,,,,,,,,,
4233.700000047684,,pt2_unique_rating,1152868,US_Cities_List/mm_westpalmbeach.png,,53,,,5,,,,,,,,,,,,,,,
null,,confidence_buffer,1152971,confidence_buffer,,null,,,,,,,,,,,,,,,,,,
2736.9000000953674,,pt2_memorable_rating,1155708,US_Cities_List/mm_westpalmbeach.png,,53,,,5,,,,,,,,,,,,,,,
null,,confidence_buffer,1155810,confidence_buffer,,null,,,,,,,,,,,,,,,,,,
3241.6999999284744,,recognition_phase,1159052,US_Cities_List/mm_westpalmbeach.png,,49,,,,,,old,1,0.8421052631578947,,,,,,,,,,
null,,confidence_buffer,1159154,confidence_buffer,,null,,,,,,,,,,,,,,,,,,
null,,thebreak,1159656,break,,null,,,,,,,,,,,,,,,,,,
5115.700000047684,,pt2_realistic_rating,1164772,US_Cities_List/nat_abilene.png,,53,US_Cities_List/nat_abilene.png,NAT,5,,,,,,,,,,,,,,,
null,,confidence_buffer,1164881,confidence_buffer,,null,,,,,,,,,,,,,,,,,,
5762.199999928474,,pt2_unique_rating,1170644,US_Cities_List/nat_abilene.png,,50,,,2,,,,,,,,,,,,,,,
null,,confidence_buffer,1170745,confidence_buffer,,null,,,,,,,,,,,,,,,,,,
8234,,pt2_memorable_rating,1178980,US_Cities_List/nat_abilene.png,,50,,,2,,,,,,,,,,,,,,,
null,,confidence_buffer,1179081,confidence_buffer,,null,,,,,,,,,,,,,,,,,,
2418.4000000953674,,probe_rating,1181500,probe_rating,,53,,,,5,1,,,,,,,,,,,,,
null,,confidence_buffer,1181601,confidence_buffer,,null,,,,,,,,,,,,,,,,,,
3617.6999999284744,,recognition_phase,1185220,US_Cities_List/nat_abilene.png,,52,,,,,,new,1,0.85,,,,,,,,,,
null,,confidence_buffer,1185321,confidence_buffer,,null,,,,,,,,,,,,,,,,,,
null,,thebreak,1185822,break,,null,,,,,,,,,,,,,,,,,,
9309.600000023842,,pt2_realistic_rating,1195132,Fictional_Cities_List/img_manmade_13.png,,51,Fictional_Cities_List/img_manmade_13.png,MM,3,,,,,,,,,,,,,,,
null,,confidence_buffer,1195234,confidence_buffer,,null,,,,,,,,,,,,,,,,,,
4272.899999976158,,pt2_unique_rating,1199508,Fictional_Cities_List/img_manmade_13.png,,52,,,4,,,,,,,,,,,,,,,
null,,confidence_buffer,1199609,confidence_buffer,,null,,,,,,,,,,,,,,,,,,
4146.100000023842,,pt2_memorable_rating,1203756,Fictional_Cities_List/img_manmade_13.png,,51,,,3,,,,,,,,,,,,,,,
null,,confidence_buffer,1203857,confidence_buffer,,null,,,,,,,,,,,,,,,,,,
2234.5,,probe_rating,1206092,probe_rating,,50,,,,2,1,,,,,,,,,,,,,
null,,confidence_buffer,1206194,confidence_buffer,,null,,,,,,,,,,,,,,,,,,
4897.199999928474,,recognition_phase,1211092,Fictional_Cities_List/img_manmade_13.png,,49,,,,,,old,1,0.8571428571428571,,,,,,,,,,
null,,confidence_buffer,1211193,confidence_buffer,,null,,,,,,,,,,,,,,,,,,
null,,thebreak,1211695,break,,null,,,,,,,,,,,,,,,,,,
5100.600000023842,,pt2_realistic_rating,1216796,US_Cities_List/mm_hotsprings.png,,53,US_Cities_List/mm_hotsprings.png,MM,5,,,,,,,,,,,,,,,
null,,confidence_buffer,1216898,confidence_buffer,,null,,,,,,,,,,,,,,,,,,
6545.5,,pt2_unique_rating,1223444,US_Cities_List/mm_hotsprings.png,,53,,,5,,,,,,,,,,,,,,,
null,,confidence_buffer,1223545,confidence_buffer,,null,,,,,,,,,,,,,,,,,,
1898,,probe_rating,1225444,probe_rating,,52,,,,4,1,,,,,,,,,,,,,
null,,confidence_buffer,1225546,confidence_buffer,,null,,,,,,,,,,,,,,,,,,
4209.399999976158,,pt2_memorable_rating,1229756,US_Cities_List/mm_hotsprings.png,,52,,,4,,,,,,,,,,,,,,,
null,,confidence_buffer,1229858,confidence_buffer,,null,,,,,,,,,,,,,,,,,,
2641.4000000953674,,recognition_phase,1232500,US_Cities_List/mm_hotsprings.png,,49,,,,,,old,1,0.8636363636363636,,,,,,,,,,
null,,confidence_buffer,1232601,confidence_buffer,,null,,,,,,,,,,,,,,,,,,
null,,thebreak,1233103,break,,null,,,,,,,,,,,,,,,,,,
6956.599999904633,,pt2_realistic_rating,1240060,Fictional_Cities_List/img_manmade_08.png,,49,Fictional_Cities_List/img_manmade_08.png,MM,1,,,,,,,,,,,,,,,
null,,confidence_buffer,1240161,confidence_buffer,,null,,,,,,,,,,,,,,,,,,
1018.3999999761581,,probe_rating,1241180,probe_rating,,49,,,,1,1,,,,,,,,,,,,,
null,,confidence_buffer,1241281,confidence_buffer,,null,,,,,,,,,,,,,,,,,,
6233.600000023842,,pt2_unique_rating,1247516,Fictional_Cities_List/img_manmade_08.png,,51,,,3,,,,,,,,,,,,,,,
null,,confidence_buffer,1247617,confidence_buffer,,null,,,,,,,,,,,,,,,,,,
5281.899999976158,,pt2_memorable_rating,1252900,Fictional_Cities_List/img_manmade_08.png,,50,,,2,,,,,,,,,,,,,,,
null,,confidence_buffer,1253001,confidence_buffer,,null,,,,,,,,,,,,,,,,,,
4258.200000047684,,recognition_phase,1257260,Fictional_Cities_List/img_manmade_08.png,,50,,,,,,old,0,0.8260869565217391,,,,,,,,,,
null,,confidence_buffer,1257361,confidence_buffer,,null,,,,,,,,,,,,,,,,,,
null,,thebreak,1257862,break,,null,,,,,,,,,,,,,,,,,,
3989,,pt2_realistic_rating,1261852,Fictional_Cities_List/img_manmade_39.png,,53,Fictional_Cities_List/img_manmade_39.png,MM,5,,,,,,,,,,,,,,,
null,,confidence_buffer,1261963,confidence_buffer,,null,,,,,,,,,,,,,,,,,,
3496,,pt2_unique_rating,1265460,Fictional_Cities_List/img_manmade_39.png,,49,,,1,,,,,,,,,,,,,,,
null,,confidence_buffer,1265561,confidence_buffer,,null,,,,,,,,,,,,,,,,,,
2505.899999976158,,pt2_memorable_rating,1268068,Fictional_Cities_List/img_manmade_39.png,,49,,,1,,,,,,,,,,,,,,,
null,,confidence_buffer,1268169,confidence_buffer,,null,,,,,,,,,,,,,,,,,,
4921.900000095367,,recognition_phase,1273092,Fictional_Cities_List/img_manmade_39.png,,52,,,,,,new,0,0.7916666666666666,,,,,,,,,,
null,,confidence_buffer,1273194,confidence_buffer,,null,,,,,,,,,,,,,,,,,,
null,,thebreak,1273696,break,,null,,,,,,,,,,,,,,,,,,
7683.600000023842,,pt2_realistic_rating,1281380,Fictional_Cities_List/img_natural_45.png,,50,Fictional_Cities_List/img_natural_45.png,NAT,2,,,,,,,,,,,,,,,
null,,confidence_buffer,1281481,confidence_buffer,,null,,,,,,,,,,,,,,,,,,
3121.600000023842,,pt2_unique_rating,1284604,Fictional_Cities_List/img_natural_45.png,,49,,,1,,,,,,,,,,,,,,,
null,,confidence_buffer,1284705,confidence_buffer,,null,,,,,,,,,,,,,,,,,,
2441.399999976158,,pt2_memorable_rating,1287148,Fictional_Cities_List/img_natural_45.png,,49,,,1,,,,,,,,,,,,,,,
null,,confidence_buffer,1287250,confidence_buffer,,null,,,,,,,,,,,,,,,,,,
2193.3000000715256,,probe_rating,1289444,probe_rating,,53,,,,5,1,,,,,,,,,,,,,
null,,confidence_buffer,1289545,confidence_buffer,,null,,,,,,,,,,,,,,,,,,
5818.400000095367,,recognition_phase,1295364,Fictional_Cities_List/img_natural_45.png,,51,,,,,,new,1,0.8,,,,,,,,,,
null,,confidence_buffer,1295465,confidence_buffer,,null,,,,,,,,,,,,,,,,,,
null,,thebreak,1295965,break,,null,,,,,,,,,,,,,,,,,,
5085.199999928474,,pt2_realistic_rating,1301052,US_Cities_List/mm_athens.png,,53,US_Cities_List/mm_athens.png,MM,5,,,,,,,,,,,,,,,
null,,confidence_buffer,1301164,confidence_buffer,,null,,,,,,,,,,,,,,,,,,
3871.100000023842,,pt2_unique_rating,1305036,US_Cities_List/mm_athens.png,,50,,,2,,,,,,,,,,,,,,,
null,,confidence_buffer,1305137,confidence_buffer,,null,,,,,,,,,,,,,,,,,,
2665.8000000715256,,pt2_memorable_rating,1307804,US_Cities_List/mm_athens.png,,49,,,1,,,,,,,,,,,,,,,
null,,confidence_buffer,1307905,confidence_buffer,,null,,,,,,,,,,,,,,,,,,
3385.6999999284744,,recognition_phase,1311292,US_Cities_List/mm_athens.png,,52,,,,,,new,1,0.8076923076923077,,,,,,,,,,
null,,confidence_buffer,1311393,confidence_buffer,,null,,,,,,,,,,,,,,,,,,
null,,thebreak,1311894,break,,null,,,,,,,,,,,,,,,,,,
2788.600000023842,,pt2_realistic_rating,1314683,Fictional_Cities_List/img_natural_05.png,,49,Fictional_Cities_List/img_natural_05.png,NAT,1,,,,,,,,,,,,,,,
null,,confidence_buffer,1314785,confidence_buffer,,null,,,,,,,,,,,,,,,,,,
5962.399999976158,,pt2_unique_rating,1320748,Fictional_Cities_List/img_natural_05.png,,51,,,3,,,,,,,,,,,,,,,
null,,confidence_buffer,1320849,confidence_buffer,,null,,,,,,,,,,,,,,,,,,
4105.799999952316,,pt2_memorable_rating,1324955,Fictional_Cities_List/img_natural_05.png,,51,,,3,,,,,,,,,,,,,,,
null,,confidence_buffer,1325057,confidence_buffer,,null,,,,,,,,,,,,,,,,,,
5145.799999952316,,recognition_phase,1330204,Fictional_Cities_List/img_natural_05.png,,49,,,,,,old,1,0.8148148148148148,,,,,,,,,,
null,,confidence_buffer,1330305,confidence_buffer,,null,,,,,,,,,,,,,,,,,,
null,,thebreak,1330807,break,,null,,,,,,,,,,,,,,,,,,
5596.100000023842,,pt2_realistic_rating,1336404,Fictional_Cities_List/img_manmade_16.png,,49,Fictional_Cities_List/img_manmade_16.png,MM,1,,,,,,,,,,,,,,,
null,,confidence_buffer,1336506,confidence_buffer,,null,,,,,,,,,,,,,,,,,,
4688.799999952316,,pt2_unique_rating,1341195,Fictional_Cities_List/img_manmade_16.png,,52,,,4,,,,,,,,,,,,,,,
null,,confidence_buffer,1341297,confidence_buffer,,null,,,,,,,,,,,,,,,,,,
4210,,pt2_memorable_rating,1345507,Fictional_Cities_List/img_manmade_16.png,,52,,,4,,,,,,,,,,,,,,,
null,,confidence_buffer,1345610,confidence_buffer,,null,,,,,,,,,,,,,,,,,,
2352.7999999523163,,probe_rating,1347963,probe_rating,,53,,,,5,1,,,,,,,,,,,,,
null,,confidence_buffer,1348065,confidence_buffer,,null,,,,,,,,,,,,,,,,,,
3537.2999999523163,,recognition_phase,1351603,Fictional_Cities_List/img_manmade_16.png,,49,,,,,,old,1,0.8214285714285714,,,,,,,,,,
null,,confidence_buffer,1351705,confidence_buffer,,null,,,,,,,,,,,,,,,,,,
null,,thebreak,1352206,break,,null,,,,,,,,,,,,,,,,,,
3548.2000000476837,,pt2_realistic_rating,1355755,US_Cities_List/mm_bisbee.png,,53,US_Cities_List/mm_bisbee.png,MM,5,,,,,,,,,,,,,,,
null,,confidence_buffer,1355856,confidence_buffer,,null,,,,,,,,,,,,,,,,,,
4442.5,,pt2_unique_rating,1360300,US_Cities_List/mm_bisbee.png,,49,,,1,,,,,,,,,,,,,,,
null,,confidence_buffer,1360401,confidence_buffer,,null,,,,,,,,,,,,,,,,,,
2105.8000000715256,,pt2_memorable_rating,1362507,US_Cities_List/mm_bisbee.png,,49,,,1,,,,,,,,,,,,,,,
null,,confidence_buffer,1362609,confidence_buffer,,null,,,,,,,,,,,,,,,,,,
4474,,recognition_phase,1367083,US_Cities_List/mm_bisbee.png,,51,,,,,,new,0,0.7931034482758621,,,,,,,,,,
null,,confidence_buffer,1367185,confidence_buffer,,null,,,,,,,,,,,,,,,,,,
null,,thebreak,1367686,break,,null,,,,,,,,,,,,,,,,,,
5300.200000047684,,pt2_realistic_rating,1372987,US_Cities_List/mm_boulder.png,,53,US_Cities_List/mm_boulder.png,MM,5,,,,,,,,,,,,,,,
null,,confidence_buffer,1373089,confidence_buffer,,null,,,,,,,,,,,,,,,,,,
4682.299999952316,,pt2_unique_rating,1377772,US_Cities_List/mm_boulder.png,,50,,,2,,,,,,,,,,,,,,,
null,,confidence_buffer,1377873,confidence_buffer,,null,,,,,,,,,,,,,,,,,,
3329.600000023842,,pt2_memorable_rating,1381203,US_Cities_List/mm_boulder.png,,49,,,1,,,,,,,,,,,,,,,
null,,confidence_buffer,1381304,confidence_buffer,,null,,,,,,,,,,,,,,,,,,
4290.099999904633,,recognition_phase,1385595,US_Cities_List/mm_boulder.png,,52,,,,,,new,1,0.8,,,,,,,,,,
null,,confidence_buffer,1385697,confidence_buffer,,null,,,,,,,,,,,,,,,,,,
null,,thebreak,1386198,break,,null,,,,,,,,,,,,,,,,,,
4076.2000000476837,,pt2_realistic_rating,1390275,US_Cities_List/mm_coeurdalene.png,,53,US_Cities_List/mm_coeurdalene.png,MM,5,,,,,,,,,,,,,,,
null,,confidence_buffer,1390377,confidence_buffer,,null,,,,,,,,,,,,,,,,,,
2449.5,,pt2_unique_rating,1392827,US_Cities_List/mm_coeurdalene.png,,49,,,1,,,,,,,,,,,,,,,
null,,confidence_buffer,1392930,confidence_buffer,,null,,,,,,,,,,,,,,,,,,
2096.5,,pt2_memorable_rating,1395027,US_Cities_List/mm_coeurdalene.png,,49,,,1,,,,,,,,,,,,,,,
null,,confidence_buffer,1395128,confidence_buffer,,null,,,,,,,,,,,,,,,,,,
4106.5,,recognition_phase,1399235,US_Cities_List/mm_coeurdalene.png,,51,,,,,,new,1,0.8064516129032258,,,,,,,,,,
null,,confidence_buffer,1399337,confidence_buffer,,null,,,,,,,,,,,,,,,,,,
null,,thebreak,1399838,break,,null,,,,,,,,,,,,,,,,,,
6628.200000047684,,pt2_realistic_rating,1406467,Fictional_Cities_List/img_natural_06.png,,51,Fictional_Cities_List/img_natural_06.png,NAT,3,,,,,,,,,,,,,,,
null,,confidence_buffer,1406570,confidence_buffer,,null,,,,,,,,,,,,,,,,,,
4680.899999976158,,pt2_unique_rating,1411251,Fictional_Cities_List/img_natural_06.png,,52,,,4,,,,,,,,,,,,,,,
null,,confidence_buffer,1411354,confidence_buffer,,null,,,,,,,,,,,,,,,,,,
5096.700000047684,,pt2_memorable_rating,1416451,Fictional_Cities_List/img_natural_06.png,,52,,,4,,,,,,,,,,,,,,,
null,,confidence_buffer,1416552,confidence_buffer,,null,,,,,,,,,,,,,,,,,,
2954.2999999523163,,recognition_phase,1419507,Fictional_Cities_List/img_natural_06.png,,49,,,,,,old,1,0.8125,,,,,,,,,,
null,,confidence_buffer,1419608,confidence_buffer,,null,,,,,,,,,,,,,,,,,,
null,,thebreak,1420109,break,,null,,,,,,,,,,,,,,,,,,
10445.200000047684,,pt2_realistic_rating,1430555,Fictional_Cities_List/img_manmade_45.png,,51,Fictional_Cities_List/img_manmade_45.png,MM,3,,,,,,,,,,,,,,,
null,,confidence_buffer,1430657,confidence_buffer,,null,,,,,,,,,,,,,,,,,,
3633.600000023842,,pt2_unique_rating,1434291,Fictional_Cities_List/img_manmade_45.png,,50,,,2,,,,,,,,,,,,,,,
null,,confidence_buffer,1434393,confidence_buffer,,null,,,,,,,,,,,,,,,,,,
3617.5,,pt2_memorable_rating,1438011,Fictional_Cities_List/img_manmade_45.png,,50,,,2,,,,,,,,,,,,,,,
null,,confidence_buffer,1438123,confidence_buffer,,null,,,,,,,,,,,,,,,,,,
5071.299999952316,,recognition_phase,1443195,Fictional_Cities_List/img_manmade_45.png,,52,,,,,,new,1,0.8181818181818182,,,,,,,,,,
null,,confidence_buffer,1443296,confidence_buffer,,null,,,,,,,,,,,,,,,,,,
null,,thebreak,1443797,break,,null,,,,,,,,,,,,,,,,,,
5573.400000095367,,pt2_realistic_rating,1449371,US_Cities_List/mm_sitka.png,,53,US_Cities_List/mm_sitka.png,MM,5,,,,,,,,,,,,,,,
null,,confidence_buffer,1449473,confidence_buffer,,null,,,,,,,,,,,,,,,,,,
2329.5999999046326,,probe_rating,1451803,probe_rating,,50,,,,2,1,,,,,,,,,,,,,
null,,confidence_buffer,1451904,confidence_buffer,,null,,,,,,,,,,,,,,,,,,
3409.7999999523163,,pt2_unique_rating,1455315,US_Cities_List/mm_sitka.png,,50,,,2,,,,,,,,,,,,,,,
null,,confidence_buffer,1455416,confidence_buffer,,null,,,,,,,,,,,,,,,,,,
3697.9000000953674,,pt2_memorable_rating,1459115,US_Cities_List/mm_sitka.png,,50,,,2,,,,,,,,,,,,,,,
null,,confidence_buffer,1459216,confidence_buffer,,null,,,,,,,,,,,,,,,,,,
3090.100000023842,,recognition_phase,1462307,US_Cities_List/mm_sitka.png,,52,,,,,,new,1,0.8235294117647058,,,,,,,,,,
null,,confidence_buffer,1462409,confidence_buffer,,null,,,,,,,,,,,,,,,,,,
null,,thebreak,1462910,break,,null,,,,,,,,,,,,,,,,,,
4500.199999928474,,pt2_realistic_rating,1467411,Fictional_Cities_List/img_manmade_06.png,,53,Fictional_Cities_List/img_manmade_06.png,MM,5,,,,,,,,,,,,,,,
null,,confidence_buffer,1467512,confidence_buffer,,null,,,,,,,,,,,,,,,,,,
4305.900000095367,,pt2_unique_rating,1471819,Fictional_Cities_List/img_manmade_06.png,,51,,,3,,,,,,,,,,,,,,,
null,,confidence_buffer,1471921,confidence_buffer,,null,,,,,,,,,,,,,,,,,,
2793.3000000715256,,pt2_memorable_rating,1474715,Fictional_Cities_List/img_manmade_06.png,,51,,,3,,,,,,,,,,,,,,,
null,,confidence_buffer,1474816,confidence_buffer,,null,,,,,,,,,,,,,,,,,,
3107,,recognition_phase,1477924,Fictional_Cities_List/img_manmade_06.png,,49,,,,,,old,1,0.8285714285714286,,,,,,,,,,
null,,confidence_buffer,1478025,confidence_buffer,,null,,,,,,,,,,,,,,,,,,
null,,thebreak,1478525,break,,null,,,,,,,,,,,,,,,,,,
2500.5,,pt2_realistic_rating,1481027,US_Cities_List/nat_westpalmbeach.png,,49,US_Cities_List/nat_westpalmbeach.png,NAT,1,,,,,,,,,,,,,,,
null,,confidence_buffer,1481128,confidence_buffer,,null,,,,,,,,,,,,,,,,,,
2025.6000000238419,,probe_rating,1483155,probe_rating,,51,,,,3,1,,,,,,,,,,,,,
null,,confidence_buffer,1483256,confidence_buffer,,null,,,,,,,,,,,,,,,,,,
4689.800000071526,,pt2_unique_rating,1487947,US_Cities_List/nat_westpalmbeach.png,,49,,,1,,,,,,,,,,,,,,,
null,,confidence_buffer,1488048,confidence_buffer,,null,,,,,,,,,,,,,,,,,,
3177.600000023842,,pt2_memorable_rating,1491227,US_Cities_List/nat_westpalmbeach.png,,50,,,2,,,,,,,,,,,,,,,
null,,confidence_buffer,1491328,confidence_buffer,,null,,,,,,,,,,,,,,,,,,
3369.600000023842,,recognition_phase,1494699,US_Cities_List/nat_westpalmbeach.png,,52,,,,,,new,1,0.8333333333333334,,,,,,,,,,
null,,confidence_buffer,1494801,confidence_buffer,,null,,,,,,,,,,,,,,,,,,
null,,thebreak,1495302,break,,null,,,,,,,,,,,,,,,,,,
2443.600000023842,,pt2_realistic_rating,1497747,Fictional_Cities_List/img_manmade_35.png,,49,Fictional_Cities_List/img_manmade_35.png,MM,1,,,,,,,,,,,,,,,
null,,confidence_buffer,1497848,confidence_buffer,,null,,,,,,,,,,,,,,,,,,
6889.800000071526,,pt2_unique_rating,1504739,Fictional_Cities_List/img_manmade_35.png,,50,,,2,,,,,,,,,,,,,,,
null,,confidence_buffer,1504843,confidence_buffer,,null,,,,,,,,,,,,,,,,,,
4055,,pt2_memorable_rating,1508899,Fictional_Cities_List/img_manmade_35.png,,50,,,2,,,,,,,,,,,,,,,
null,,confidence_buffer,1509000,confidence_buffer,,null,,,,,,,,,,,,,,,,,,
2505.899999976158,,recognition_phase,1511507,Fictional_Cities_List/img_manmade_35.png,,52,,,,,,new,1,0.8378378378378378,,,,,,,,,,
null,,confidence_buffer,1511608,confidence_buffer,,null,,,,,,,,,,,,,,,,,,
null,,thebreak,1512109,break,,null,,,,,,,,,,,,,,,,,,
4085.2000000476837,,pt2_realistic_rating,1516195,Fictional_Cities_List/img_natural_39.png,,53,Fictional_Cities_List/img_natural_39.png,NAT,5,,,,,,,,,,,,,,,
null,,confidence_buffer,1516296,confidence_buffer,,null,,,,,,,,,,,,,,,,,,
4049.5,,pt2_unique_rating,1520347,Fictional_Cities_List/img_natural_39.png,,49,,,1,,,,,,,,,,,,,,,
null,,confidence_buffer,1520448,confidence_buffer,,null,,,,,,,,,,,,,,,,,,
2394.100000023842,,pt2_memorable_rating,1522842,Fictional_Cities_List/img_natural_39.png,,49,,,1,,,,,,,,,,,,,,,
null,,confidence_buffer,1522944,confidence_buffer,,null,,,,,,,,,,,,,,,,,,
2505.600000023842,,probe_rating,1525450,probe_rating,,53,,,,5,1,,,,,,,,,,,,,
null,,confidence_buffer,1525559,confidence_buffer,,null,,,,,,,,,,,,,,,,,,
4939.100000023842,,recognition_phase,1530499,Fictional_Cities_List/img_natural_39.png,,51,,,,,,new,1,0.8421052631578947,,,,,,,,,,
null,,confidence_buffer,1530600,confidence_buffer,,null,,,,,,,,,,,,,,,,,,
null,,thebreak,1531102,break,,null,,,,,,,,,,,,,,,,,,
3780.100000023842,,pt2_realistic_rating,1534883,Fictional_Cities_List/img_manmade_46.png,,50,Fictional_Cities_List/img_manmade_46.png,MM,2,,,,,,,,,,,,,,,
null,,confidence_buffer,1534985,confidence_buffer,,null,,,,,,,,,,,,,,,,,,
5553,,pt2_unique_rating,1540539,Fictional_Cities_List/img_manmade_46.png,,50,,,2,,,,,,,,,,,,,,,
null,,confidence_buffer,1540640,confidence_buffer,,null,,,,,,,,,,,,,,,,,,
4049.2999999523163,,pt2_memorable_rating,1544690,Fictional_Cities_List/img_manmade_46.png,,49,,,1,,,,,,,,,,,,,,,
null,,confidence_buffer,1544792,confidence_buffer,,null,,,,,,,,,,,,,,,,,,
3002.100000023842,,recognition_phase,1547794,Fictional_Cities_List/img_manmade_46.png,,52,,,,,,new,1,0.8461538461538461,,,,,,,,,,
null,,confidence_buffer,1547895,confidence_buffer,,null,,,,,,,,,,,,,,,,,,
null,,thebreak,1548397,break,,null,,,,,,,,,,,,,,,,,,
5205.100000023842,,pt2_realistic_rating,1553603,US_Cities_List/nat_athens.png,,53,US_Cities_List/nat_athens.png,NAT,5,,,,,,,,,,,,,,,
null,,confidence_buffer,1553704,confidence_buffer,,null,,,,,,,,,,,,,,,,,,
3161.5,,pt2_unique_rating,1556866,US_Cities_List/nat_athens.png,,49,,,1,,,,,,,,,,,,,,,
null,,confidence_buffer,1556967,confidence_buffer,,null,,,,,,,,,,,,,,,,,,
2746.5,,pt2_memorable_rating,1559714,US_Cities_List/nat_athens.png,,49,,,1,,,,,,,,,,,,,,,
null,,confidence_buffer,1559815,confidence_buffer,,null,,,,,,,,,,,,,,,,,,
5042.199999928474,,recognition_phase,1564858,US_Cities_List/nat_athens.png,,51,,,,,,new,0,0.825,,,,,,,,,,
null,,confidence_buffer,1564960,confidence_buffer,,null,,,,,,,,,,,,,,,,,,
null,,thebreak,1565461,break,,null,,,,,,,,,,,,,,,,,,
6044.200000047684,,pt2_realistic_rating,1571506,US_Cities_List/nat_okoboji.png,,50,US_Cities_List/nat_okoboji.png,NAT,2,,,,,,,,,,,,,,,
null,,confidence_buffer,1571608,confidence_buffer,,null,,,,,,,,,,,,,,,,,,
2321.5,,pt2_unique_rating,1573930,US_Cities_List/nat_okoboji.png,,49,,,1,,,,,,,,,,,,,,,
null,,confidence_buffer,1574032,confidence_buffer,,null,,,,,,,,,,,,,,,,,,
2698,,pt2_memorable_rating,1576730,US_Cities_List/nat_okoboji.png,,49,,,1,,,,,,,,,,,,,,,
null,,confidence_buffer,1576832,confidence_buffer,,null,,,,,,,,,,,,,,,,,,
3481.3000000715256,,recognition_phase,1580314,US_Cities_List/nat_okoboji.png,,49,,,,,,old,1,0.8292682926829268,,,,,,,,,,
null,,confidence_buffer,1580416,confidence_buffer,,null,,,,,,,,,,,,,,,,,,
null,,thebreak,1580916,break,,null,,,,,,,,,,,,,,,,,,
3237.100000023842,,pt2_realistic_rating,1584154,US_Cities_List/nat_delawarecity.png,,53,US_Cities_List/nat_delawarecity.png,NAT,5,,,,,,,,,,,,,,,
null,,confidence_buffer,1584256,confidence_buffer,,null,,,,,,,,,,,,,,,,,,
3129.899999976158,,pt2_unique_rating,1587386,US_Cities_List/nat_delawarecity.png,,49,,,1,,,,,,,,,,,,,,,
null,,confidence_buffer,1587487,confidence_buffer,,null,,,,,,,,,,,,,,,,,,
2602.3000000715256,,pt2_memorable_rating,1590090,US_Cities_List/nat_delawarecity.png,,49,,,1,,,,,,,,,,,,,,,
null,,confidence_buffer,1590192,confidence_buffer,,null,,,,,,,,,,,,,,,,,,
3137.399999976158,,recognition_phase,1593330,US_Cities_List/nat_delawarecity.png,,51,,,,,,new,1,0.8333333333333334,,,,,,,,,,
null,,confidence_buffer,1593432,confidence_buffer,,null,,,,,,,,,,,,,,,,,,
null,,thebreak,1593933,break,,null,,,,,,,,,,,,,,,,,,
6964.800000071526,,pt2_realistic_rating,1600898,US_Cities_List/mm_carmel.png,,52,US_Cities_List/mm_carmel.png,MM,4,,,,,,,,,,,,,,,
null,,confidence_buffer,1601000,confidence_buffer,,null,,,,,,,,,,,,,,,,,,
5442,,pt2_unique_rating,1606442,US_Cities_List/mm_carmel.png,,51,,,3,,,,,,,,,,,,,,,
null,,confidence_buffer,1606544,confidence_buffer,,null,,,,,,,,,,,,,,,,,,
3609.100000023842,,pt2_memorable_rating,1610154,US_Cities_List/mm_carmel.png,,50,,,2,,,,,,,,,,,,,,,
null,,confidence_buffer,1610256,confidence_buffer,,null,,,,,,,,,,,,,,,,,,
2777.8000000715256,,recognition_phase,1613034,US_Cities_List/mm_carmel.png,,51,,,,,,new,1,0.8372093023255814,,,,,,,,,,
null,,confidence_buffer,1613136,confidence_buffer,,null,,,,,,,,,,,,,,,,,,
null,,thebreak,1613637,break,,null,,,,,,,,,,,,,,,,,,
3924,,pt2_realistic_rating,1617562,US_Cities_List/nat_sitka.png,,53,US_Cities_List/nat_sitka.png,NAT,5,,,,,,,,,,,,,,,
null,,confidence_buffer,1617663,confidence_buffer,,null,,,,,,,,,,,,,,,,,,
5834.100000023842,,pt2_unique_rating,1623498,US_Cities_List/nat_sitka.png,,50,,,2,,,,,,,,,,,,,,,
null,,confidence_buffer,1623599,confidence_buffer,,null,,,,,,,,,,,,,,,,,,
3593.899999976158,,pt2_memorable_rating,1627194,US_Cities_List/nat_sitka.png,,50,,,2,,,,,,,,,,,,,,,
null,,confidence_buffer,1627297,confidence_buffer,,null,,,,,,,,,,,,,,,,,,
3200.600000023842,,recognition_phase,1630498,US_Cities_List/nat_sitka.png,,50,,,,,,old,1,0.8409090909090909,,,,,,,,,,
null,,confidence_buffer,1630599,confidence_buffer,,null,,,,,,,,,,,,,,,,,,
null,,thebreak,1631100,break,,null,,,,,,,,,,,,,,,,,,
8229.700000047684,,pt2_realistic_rating,1639330,Fictional_Cities_List/img_manmade_14.png,,50,Fictional_Cities_List/img_manmade_14.png,MM,2,,,,,,,,,,,,,,,
null,,confidence_buffer,1639432,confidence_buffer,,null,,,,,,,,,,,,,,,,,,
3369.5,,pt2_unique_rating,1642802,Fictional_Cities_List/img_manmade_14.png,,51,,,3,,,,,,,,,,,,,,,
null,,confidence_buffer,1642904,confidence_buffer,,null,,,,,,,,,,,,,,,,,,
4225.5,,pt2_memorable_rating,1647130,Fictional_Cities_List/img_manmade_14.png,,50,,,2,,,,,,,,,,,,,,,
null,,confidence_buffer,1647232,confidence_buffer,,null,,,,,,,,,,,,,,,,,,
6265.799999952316,,recognition_phase,1653498,Fictional_Cities_List/img_manmade_14.png,,52,,,,,,new,1,0.8444444444444444,,,,,,,,,,
null,,confidence_buffer,1653600,confidence_buffer,,null,,,,,,,,,,,,,,,,,,
null,,thebreak,1654101,break,,null,,,,,,,,,,,,,,,,,,
9276.299999952316,,pt2_realistic_rating,1663378,Fictional_Cities_List/img_natural_35.png,,49,Fictional_Cities_List/img_natural_35.png,NAT,1,,,,,,,,,,,,,,,
null,,confidence_buffer,1663479,confidence_buffer,,null,,,,,,,,,,,,,,,,,,
3794.2000000476837,,pt2_unique_rating,1667274,Fictional_Cities_List/img_natural_35.png,,50,,,2,,,,,,,,,,,,,,,
null,,confidence_buffer,1667376,confidence_buffer,,null,,,,,,,,,,,,,,,,,,
3441.5,,pt2_memorable_rating,1670818,Fictional_Cities_List/img_natural_35.png,,50,,,2,,,,,,,,,,,,,,,
null,,confidence_buffer,1670919,confidence_buffer,,null,,,,,,,,,,,,,,,,,,
3529.7999999523163,,recognition_phase,1674450,Fictional_Cities_List/img_natural_35.png,,50,,,,,,old,0,0.8260869565217391,,,,,,,,,,
null,,confidence_buffer,1674552,confidence_buffer,,null,,,,,,,,,,,,,,,,,,
null,,thebreak,1675053,break,,null,,,,,,,,,,,,,,,,,,
3980.5,,pt2_realistic_rating,1679034,US_Cities_List/mm_peoria.png,,53,US_Cities_List/mm_peoria.png,MM,5,,,,,,,,,,,,,,,
null,,confidence_buffer,1679135,confidence_buffer,,null,,,,,,,,,,,,,,,,,,
2441.600000023842,,pt2_unique_rating,1681578,US_Cities_List/mm_peoria.png,,53,,,5,,,,,,,,,,,,,,,
null,,confidence_buffer,1681679,confidence_buffer,,null,,,,,,,,,,,,,,,,,,
3681.5,,pt2_memorable_rating,1685362,US_Cities_List/mm_peoria.png,,53,,,5,,,,,,,,,,,,,,,
null,,confidence_buffer,1685463,confidence_buffer,,null,,,,,,,,,,,,,,,,,,
4442.099999904633,,recognition_phase,1689906,US_Cities_List/mm_peoria.png,,52,,,,,,new,1,0.8297872340425532,,,,,,,,,,
null,,confidence_buffer,1690008,confidence_buffer,,null,,,,,,,,,,,,,,,,,,
null,,thebreak,1690509,break,,null,,,,,,,,,,,,,,,,,,
5620.100000023842,,pt2_realistic_rating,1696130,US_Cities_List/mm_delawarecity.png,,53,US_Cities_List/mm_delawarecity.png,MM,5,,,,,,,,,,,,,,,
null,,confidence_buffer,1696231,confidence_buffer,,null,,,,,,,,,,,,,,,,,,
4530.600000023842,,pt2_unique_rating,1700763,US_Cities_List/mm_delawarecity.png,,51,,,3,,,,,,,,,,,,,,,
null,,confidence_buffer,1700864,confidence_buffer,,null,,,,,,,,,,,,,,,,,,
2680.899999976158,,pt2_memorable_rating,1703546,US_Cities_List/mm_delawarecity.png,,50,,,2,,,,,,,,,,,,,,,
null,,confidence_buffer,1703647,confidence_buffer,,null,,,,,,,,,,,,,,,,,,
4017.7000000476837,,recognition_phase,1707666,US_Cities_List/mm_delawarecity.png,,50,,,,,,old,1,0.8333333333333334,,,,,,,,,,
null,,confidence_buffer,1707767,confidence_buffer,,null,,,,,,,,,,,,,,,,,,
null,,thebreak,1708268,break,,null,,,,,,,,,,,,,,,,,,
9325,,pt2_realistic_rating,1717594,US_Cities_List/nat_boulder.png,,50,US_Cities_List/nat_boulder.png,NAT,2,,,,,,,,,,,,,,,
null,,confidence_buffer,1717695,confidence_buffer,,null,,,,,,,,,,,,,,,,,,
3417.8000000715256,,pt2_unique_rating,1721114,US_Cities_List/nat_boulder.png,,51,,,3,,,,,,,,,,,,,,,
null,,confidence_buffer,1721215,confidence_buffer,,null,,,,,,,,,,,,,,,,,,
3521.7000000476837,,pt2_memorable_rating,1724738,US_Cities_List/nat_boulder.png,,51,,,3,,,,,,,,,,,,,,,
null,,confidence_buffer,1724839,confidence_buffer,,null,,,,,,,,,,,,,,,,,,
2601.399999976158,,recognition_phase,1727442,US_Cities_List/nat_boulder.png,,49,,,,,,old,1,0.8367346938775511,,,,,,,,,,
null,,confidence_buffer,1727543,confidence_buffer,,null,,,,,,,,,,,,,,,,,,
null,,thebreak,1728044,break,,null,,,,,,,,,,,,,,,,,,
7364.399999976158,,pt2_realistic_rating,1735410,US_Cities_List/nat_hilo.png,,50,US_Cities_List/nat_hilo.png,NAT,2,,,,,,,,,,,,,,,
null,,confidence_buffer,1735512,confidence_buffer,,null,,,,,,,,,,,,,,,,,,
3865.2000000476837,,pt2_unique_rating,1739378,US_Cities_List/nat_hilo.png,,50,,,2,,,,,,,,,,,,,,,
null,,confidence_buffer,1739480,confidence_buffer,,null,,,,,,,,,,,,,,,,,,
6489.200000047684,,pt2_memorable_rating,1745970,US_Cities_List/nat_hilo.png,,50,,,2,,,,,,,,,,,,,,,
null,,confidence_buffer,1746072,confidence_buffer,,null,,,,,,,,,,,,,,,,,,
2249.100000023842,,recognition_phase,1748321,US_Cities_List/nat_hilo.png,,49,,,,,,old,1,0.84,,,,,,,,,,
null,,confidence_buffer,1748423,confidence_buffer,,null,,,,,,,,,,,,,,,,,,
null,,thebreak,1748924,break,,null,,,,,,,,,,,,,,,,,,
3300.399999976158,,pt2_realistic_rating,1752226,US_Cities_List/nat_carmel.png,,53,US_Cities_List/nat_carmel.png,NAT,5,,,,,,,,,,,,,,,
null,,confidence_buffer,1752328,confidence_buffer,,null,,,,,,,,,,,,,,,,,,
1824.6000000238419,,probe_rating,1754153,probe_rating,,49,,,,1,1,,,,,,,,,,,,,
null,,confidence_buffer,1754255,confidence_buffer,,null,,,,,,,,,,,,,,,,,,
4897.600000023842,,pt2_unique_rating,1759154,US_Cities_List/nat_carmel.png,,49,,,1,,,,,,,,,,,,,,,
null,,confidence_buffer,1759255,confidence_buffer,,null,,,,,,,,,,,,,,,,,,
3153.5,,pt2_memorable_rating,1762409,US_Cities_List/nat_carmel.png,,50,,,2,,,,,,,,,,,,,,,
null,,confidence_buffer,1762511,confidence_buffer,,null,,,,,,,,,,,,,,,,,,
4001.8000000715256,,recognition_phase,1766513,US_Cities_List/nat_carmel.png,,52,,,,,,new,1,0.8431372549019608,,,,,,,,,,
null,,confidence_buffer,1766615,confidence_buffer,,null,,,,,,,,,,,,,,,,,,
null,,thebreak,1767117,break,,null,,,,,,,,,,,,,,,,,,
4164.200000047684,,pt2_realistic_rating,1771282,Fictional_Cities_List/img_natural_46.png,,52,Fictional_Cities_List/img_natural_46.png,NAT,4,,,,,,,,,,,,,,,
null,,confidence_buffer,1771395,confidence_buffer,,null,,,,,,,,,,,,,,,,,,
5365.200000047684,,pt2_unique_rating,1776761,Fictional_Cities_List/img_natural_46.png,,52,,,4,,,,,,,,,,,,,,,
null,,confidence_buffer,1776866,confidence_buffer,,null,,,,,,,,,,,,,,,,,,
2094.100000023842,,probe_rating,1778961,probe_rating,,53,,,,5,1,,,,,,,,,,,,,
null,,confidence_buffer,1779067,confidence_buffer,,null,,,,,,,,,,,,,,,,,,
5517.399999976158,,pt2_memorable_rating,1784585,Fictional_Cities_List/img_natural_46.png,,52,,,4,,,,,,,,,,,,,,,
null,,confidence_buffer,1784687,confidence_buffer,,null,,,,,,,,,,,,,,,,,,
3265,,recognition_phase,1787953,Fictional_Cities_List/img_natural_46.png,,49,,,,,,old,1,0.8461538461538461,,,,,,,,,,
null,,confidence_buffer,1788055,confidence_buffer,,null,,,,,,,,,,,,,,,,,,
null,,thebreak,1788556,break,,null,,,,,,,,,,,,,,,,,,
5196.5,,pt2_realistic_rating,1793753,US_Cities_List/mm_hilo.png,,53,US_Cities_List/mm_hilo.png,MM,5,,,,,,,,,,,,,,,
null,,confidence_buffer,1793855,confidence_buffer,,null,,,,,,,,,,,,,,,,,,
4489.899999976158,,pt2_unique_rating,1798345,US_Cities_List/mm_hilo.png,,51,,,3,,,,,,,,,,,,,,,
null,,confidence_buffer,1798447,confidence_buffer,,null,,,,,,,,,,,,,,,,,,
3569.3000000715256,,pt2_memorable_rating,1802017,US_Cities_List/mm_hilo.png,,50,,,2,,,,,,,,,,,,,,,
null,,confidence_buffer,1802119,confidence_buffer,,null,,,,,,,,,,,,,,,,,,
2105.8000000715256,,recognition_phase,1804225,US_Cities_List/mm_hilo.png,,49,,,,,,old,1,0.8490566037735849,,,,,,,,,,
null,,confidence_buffer,1804326,confidence_buffer,,null,,,,,,,,,,,,,,,,,,
null,,thebreak,1804827,break,,null,,,,,,,,,,,,,,,,,,
6893.100000023842,,pt2_realistic_rating,1811721,Fictional_Cities_List/img_manmade_05.png,,50,Fictional_Cities_List/img_manmade_05.png,MM,2,,,,,,,,,,,,,,,
null,,confidence_buffer,1811822,confidence_buffer,,null,,,,,,,,,,,,,,,,,,
3385.899999976158,,pt2_unique_rating,1815209,Fictional_Cities_List/img_manmade_05.png,,52,,,4,,,,,,,,,,,,,,,
null,,confidence_buffer,1815311,confidence_buffer,,null,,,,,,,,,,,,,,,,,,
3177.5,,pt2_memorable_rating,1818489,Fictional_Cities_List/img_manmade_05.png,,52,,,4,,,,,,,,,,,,,,,
null,,confidence_buffer,1818591,confidence_buffer,,null,,,,,,,,,,,,,,,,,,
3497.8000000715256,,recognition_phase,1822089,Fictional_Cities_List/img_manmade_05.png,,52,,,,,,new,1,0.8518518518518519,,,,,,,,,,
null,,confidence_buffer,1822192,confidence_buffer,,null,,,,,,,,,,,,,,,,,,
null,,thebreak,1822692,break,,null,,,,,,,,,,,,,,,,,,
5124,,pt2_realistic_rating,1827817,Fictional_Cities_List/img_natural_14.png,,49,Fictional_Cities_List/img_natural_14.png,NAT,1,,,,,,,,,,,,,,,
null,,confidence_buffer,1827919,confidence_buffer,,null,,,,,,,,,,,,,,,,,,
3417.2999999523163,,pt2_unique_rating,1831337,Fictional_Cities_List/img_natural_14.png,,49,,,1,,,,,,,,,,,,,,,
null,,confidence_buffer,1831439,confidence_buffer,,null,,,,,,,,,,,,,,,,,,
2273.7000000476837,,pt2_memorable_rating,1833713,Fictional_Cities_List/img_natural_14.png,,50,,,2,,,,,,,,,,,,,,,
null,,confidence_buffer,1833815,confidence_buffer,,null,,,,,,,,,,,,,,,,,,
4737.299999952316,,recognition_phase,1838553,Fictional_Cities_List/img_natural_14.png,,50,,,,,,old,1,0.8545454545454545,,,,,,,,,,
null,,confidence_buffer,1838655,confidence_buffer,,null,,,,,,,,,,,,,,,,,,
null,,thebreak,1839157,break,,null,,,,,,,,,,,,,,,,,,
4067.7999999523163,,pt2_realistic_rating,1843225,Fictional_Cities_List/img_natural_18.png,,53,Fictional_Cities_List/img_natural_18.png,NAT,5,,,,,,,,,,,,,,,
null,,confidence_buffer,1843327,confidence_buffer,,null,,,,,,,,,,,,,,,,,,
5345.199999928474,,pt2_unique_rating,1848673,Fictional_Cities_List/img_natural_18.png,,51,,,3,,,,,,,,,,,,,,,
null,,confidence_buffer,1848775,confidence_buffer,,null,,,,,,,,,,,,,,,,,,
3065.6999999284744,,pt2_memorable_rating,1851841,Fictional_Cities_List/img_natural_18.png,,50,,,2,,,,,,,,,,,,,,,
null,,confidence_buffer,1851943,confidence_buffer,,null,,,,,,,,,,,,,,,,,,
4680.699999928474,,recognition_phase,1856625,Fictional_Cities_List/img_natural_18.png,,52,,,,,,new,1,0.8571428571428571,,,,,,,,,,
null,,confidence_buffer,1856727,confidence_buffer,,null,,,,,,,,,,,,,,,,,,
null,,thebreak,1857228,break,,null,,,,,,,,,,,,,,,,,,
5364.799999952316,,pt2_realistic_rating,1862593,Fictional_Cities_List/img_natural_13.png,,49,Fictional_Cities_List/img_natural_13.png,NAT,1,,,,,,,,,,,,,,,
null,,confidence_buffer,1862695,confidence_buffer,,null,,,,,,,,,,,,,,,,,,
8409.600000023842,,pt2_unique_rating,1871105,Fictional_Cities_List/img_natural_13.png,,50,,,2,,,,,,,,,,,,,,,
null,,confidence_buffer,1871206,confidence_buffer,,null,,,,,,,,,,,,,,,,,,
4130.100000023842,,pt2_memorable_rating,1875337,Fictional_Cities_List/img_natural_13.png,,50,,,2,,,,,,,,,,,,,,,
null,,confidence_buffer,1875439,confidence_buffer,,null,,,,,,,,,,,,,,,,,,
3033.5999999046326,,recognition_phase,1878473,Fictional_Cities_List/img_natural_13.png,,50,,,,,,old,1,0.8596491228070176,,,,,,,,,,
null,,confidence_buffer,1878574,confidence_buffer,,null,,,,,,,,,,,,,,,,,,
null,,thebreak,1879075,break,,null,,,,,,,,,,,,,,,,,,
3612.6999999284744,,pt2_realistic_rating,1882689,US_Cities_List/nat_cornwall.png,,53,US_Cities_List/nat_cornwall.png,NAT,5,,,,,,,,,,,,,,,
null,,confidence_buffer,1882791,confidence_buffer,,null,,,,,,,,,,,,,,,,,,
4025.600000023842,,pt2_unique_rating,1886817,US_Cities_List/nat_cornwall.png,,49,,,1,,,,,,,,,,,,,,,
null,,confidence_buffer,1886918,confidence_buffer,,null,,,,,,,,,,,,,,,,,,
1897.8000000715256,,probe_rating,1888817,probe_rating,,49,,,,1,1,,,,,,,,,,,,,
null,,confidence_buffer,1888918,confidence_buffer,,null,,,,,,,,,,,,,,,,,,
5473.899999976158,,pt2_memorable_rating,1894392,US_Cities_List/nat_cornwall.png,,49,,,1,,,,,,,,,,,,,,,
null,,confidence_buffer,1894498,confidence_buffer,,null,,,,,,,,,,,,,,,,,,
6246.299999952316,,recognition_phase,1900745,US_Cities_List/nat_cornwall.png,,52,,,,,,new,1,0.8620689655172413,,,,,,,,,,
null,,confidence_buffer,1900847,confidence_buffer,,null,,,,,,,,,,,,,,,,,,
null,,thebreak,1901349,break,,null,,,,,,,,,,,,,,,,,,
3827.4000000953674,,pt2_realistic_rating,1905177,Fictional_Cities_List/img_natural_33.png,,52,Fictional_Cities_List/img_natural_33.png,NAT,4,,,,,,,,,,,,,,,
null,,confidence_buffer,1905278,confidence_buffer,,null,,,,,,,,,,,,,,,,,,
5697.900000095367,,pt2_unique_rating,1910977,Fictional_Cities_List/img_natural_33.png,,52,,,4,,,,,,,,,,,,,,,
null,,confidence_buffer,1911078,confidence_buffer,,null,,,,,,,,,,,,,,,,,,
2369.8000000715256,,pt2_memorable_rating,1913449,Fictional_Cities_List/img_natural_33.png,,52,,,4,,,,,,,,,,,,,,,
null,,confidence_buffer,1913550,confidence_buffer,,null,,,,,,,,,,,,,,,,,,
2489.7000000476837,,probe_rating,1916041,probe_rating,,51,,,,3,1,,,,,,,,,,,,,
null,,confidence_buffer,1916145,confidence_buffer,,null,,,,,,,,,,,,,,,,,,
3159,,recognition_phase,1919305,Fictional_Cities_List/img_natural_33.png,,49,,,,,,old,1,0.864406779661017,,,,,,,,,,
null,,confidence_buffer,1919406,confidence_buffer,,null,,,,,,,,,,,,,,,,,,
null,,thebreak,1919907,break,,null,,,,,,,,,,,,,,,,,,
3357.2999999523163,,pt2_realistic_rating,1923265,Fictional_Cities_List/img_manmade_38.png,,53,Fictional_Cities_List/img_manmade_38.png,MM,5,,,,,,,,,,,,,,,
null,,confidence_buffer,1923366,confidence_buffer,,null,,,,,,,,,,,,,,,,,,
5073.5,,pt2_unique_rating,1928441,Fictional_Cities_List/img_manmade_38.png,,51,,,3,,,,,,,,,,,,,,,
null,,confidence_buffer,1928542,confidence_buffer,,null,,,,,,,,,,,,,,,,,,
4233.600000023842,,pt2_memorable_rating,1932777,Fictional_Cities_List/img_manmade_38.png,,51,,,3,,,,,,,,,,,,,,,
null,,confidence_buffer,1932878,confidence_buffer,,null,,,,,,,,,,,,,,,,,,
3241.7999999523163,,recognition_phase,1936121,Fictional_Cities_List/img_manmade_38.png,,49,,,,,,old,1,0.8666666666666667,,,,,,,,,,
null,,confidence_buffer,1936222,confidence_buffer,,null,,,,,,,,,,,,,,,,,,
null,,thebreak,1936724,break,,null,,,,,,,,,,,,,,,,,,
,,survey,2341981,survey-questions,,,,,,,,,,,none,high,No,I wasn't using any strategies other than staying focused and paying attention.,Based on whether or not I'd seen that image before.,Based on how confident I felt that I could remember it later on.,Based on other images I've seen over my lifetime.,Based on how an image looked compared to real life thing, places, etc. that I've seen before.,No, this is a first.,The excessive amount of attention checks was distracting.
