rt,responses,trial_type,time_elapsed,stimulus,button_pressed,key_press,name_trial,city_type,rating,probe,probe_accuracy,response,correct,accuracy,problems,smooth,distraction,strategies,familiar,memorable,unique,realistic,similar,comments
4598.9000000059605,{worker_id:63e7f2a754618d35c2b61ba5},id_enter,4609,,,,,,,,,,,,,,,,,,,,,
15467,,fullscreen,20083,fullscreen,0,,,,,,,,,,,,,,,,,,,
8071.699999988079,,intro_0,28156,instruct,,32,,,,,,,,,,,,,,,,,,
10520.09999999404,,intro_1,38678,instruct,,32,,,,,,,,,,,,,,,,,,
6726.5,,intro_2,45407,instruct,,32,,,,,,,,,,,,,,,,,,
null,,instruct_dir_4,46909,instruct,,null,,,,,,,,,,,,,,,,,,
null,,thebreak,47418,break,,null,,,,,,,,,,,,,,,,,,
9521.699999988079,,familiar_rating,56941,US_Cities_List/mm_orr.png,,49,US_Cities_List/mm_orr.png,MM,1,,,,,,,,,,,,,,,
null,,confidence_buffer,57043,confidence_buffer,,null,,,,,,,,,,,,,,,,,,
5951.899999976158,,unique_rating,62996,US_Cities_List/mm_orr.png,,51,,,3,,,,,,,,,,,,,,,
null,,confidence_buffer,63098,confidence_buffer,,null,,,,,,,,,,,,,,,,,,
4255.200000017881,,memorable_rating,67354,US_Cities_List/mm_orr.png,,51,,,3,,,,,,,,,,,,,,,
null,,confidence_buffer,67456,confidence_buffer,,null,,,,,,,,,,,,,,,,,,
null,,thebreak,67959,break,,null,,,,,,,,,,,,,,,,,,
6775.699999988079,,familiar_rating,74737,US_Cities_List/mm_bisbee.png,,50,US_Cities_List/mm_bisbee.png,MM,2,,,,,,,,,,,,,,,
null,,confidence_buffer,74840,confidence_buffer,,null,,,,,,,,,,,,,,,,,,
3501.0999999940395,,unique_rating,78342,US_Cities_List/mm_bisbee.png,,50,,,2,,,,,,,,,,,,,,,
null,,confidence_buffer,78445,confidence_buffer,,null,,,,,,,,,,,,,,,,,,
5381.800000011921,,memorable_rating,83828,US_Cities_List/mm_bisbee.png,,49,,,1,,,,,,,,,,,,,,,
null,,confidence_buffer,83930,confidence_buffer,,null,,,,,,,,,,,,,,,,,,
8308.90000000596,,probe_rating,92240,probe_rating,,52,,,,4,1,,,,,,,,,,,,,
null,,confidence_buffer,92342,confidence_buffer,,null,,,,,,,,,,,,,,,,,,
null,,thebreak,92844,break,,null,,,,,,,,,,,,,,,,,,
5880.300000011921,,familiar_rating,98726,Fictional_Cities_List/img_manmade_06.png,,52,Fictional_Cities_List/img_manmade_06.png,MM,4,,,,,,,,,,,,,,,
null,,confidence_buffer,98829,confidence_buffer,,null,,,,,,,,,,,,,,,,,,
5699.700000017881,,unique_rating,104530,Fictional_Cities_List/img_manmade_06.png,,49,,,1,,,,,,,,,,,,,,,
null,,confidence_buffer,104633,confidence_buffer,,null,,,,,,,,,,,,,,,,,,
2453.699999988079,,memorable_rating,107088,Fictional_Cities_List/img_manmade_06.png,,51,,,3,,,,,,,,,,,,,,,
null,,confidence_buffer,107190,confidence_buffer,,null,,,,,,,,,,,,,,,,,,
null,,thebreak,107691,break,,null,,,,,,,,,,,,,,,,,,
4241.5,,familiar_rating,111934,Fictional_Cities_List/img_natural_22.png,,50,Fictional_Cities_List/img_natural_22.png,NAT,2,,,,,,,,,,,,,,,
null,,confidence_buffer,112036,confidence_buffer,,null,,,,,,,,,,,,,,,,,,
3078.300000011921,,unique_rating,115116,Fictional_Cities_List/img_natural_22.png,,50,,,2,,,,,,,,,,,,,,,
null,,confidence_buffer,115218,confidence_buffer,,null,,,,,,,,,,,,,,,,,,
1983.9000000059605,,memorable_rating,117202,Fictional_Cities_List/img_natural_22.png,,49,,,1,,,,,,,,,,,,,,,
null,,confidence_buffer,117304,confidence_buffer,,null,,,,,,,,,,,,,,,,,,
null,,thebreak,117805,break,,null,,,,,,,,,,,,,,,,,,
6514,,familiar_rating,124320,US_Cities_List/mm_sanantonio.png,,53,US_Cities_List/mm_sanantonio.png,MM,5,,,,,,,,,,,,,,,
null,,confidence_buffer,124422,confidence_buffer,,null,,,,,,,,,,,,,,,,,,
2271.699999988079,,unique_rating,126695,US_Cities_List/mm_sanantonio.png,,52,,,4,,,,,,,,,,,,,,,
null,,confidence_buffer,126796,confidence_buffer,,null,,,,,,,,,,,,,,,,,,
2794.199999988079,,memorable_rating,129592,US_Cities_List/mm_sanantonio.png,,52,,,4,,,,,,,,,,,,,,,
null,,confidence_buffer,129693,confidence_buffer,,null,,,,,,,,,,,,,,,,,,
null,,thebreak,130195,break,,null,,,,,,,,,,,,,,,,,,
2720.199999988079,,familiar_rating,132916,Fictional_Cities_List/img_manmade_07.png,,52,Fictional_Cities_List/img_manmade_07.png,MM,4,,,,,,,,,,,,,,,
null,,confidence_buffer,133018,confidence_buffer,,null,,,,,,,,,,,,,,,,,,
2546.4000000059605,,unique_rating,135565,Fictional_Cities_List/img_manmade_07.png,,50,,,2,,,,,,,,,,,,,,,
null,,confidence_buffer,135667,confidence_buffer,,null,,,,,,,,,,,,,,,,,,
2093.9000000059605,,memorable_rating,137762,Fictional_Cities_List/img_manmade_07.png,,50,,,2,,,,,,,,,,,,,,,
null,,confidence_buffer,137866,confidence_buffer,,null,,,,,,,,,,,,,,,,,,
null,,thebreak,138367,break,,null,,,,,,,,,,,,,,,,,,
3679.9000000059605,,familiar_rating,142048,Fictional_Cities_List/img_manmade_43.png,,51,Fictional_Cities_List/img_manmade_43.png,MM,3,,,,,,,,,,,,,,,
null,,confidence_buffer,142150,confidence_buffer,,null,,,,,,,,,,,,,,,,,,
3920,,unique_rating,146071,Fictional_Cities_List/img_manmade_43.png,,52,,,4,,,,,,,,,,,,,,,
null,,confidence_buffer,146175,confidence_buffer,,null,,,,,,,,,,,,,,,,,,
1510.0999999940395,,memorable_rating,147686,Fictional_Cities_List/img_manmade_43.png,,52,,,4,,,,,,,,,,,,,,,
null,,confidence_buffer,147788,confidence_buffer,,null,,,,,,,,,,,,,,,,,,
null,,thebreak,148293,break,,null,,,,,,,,,,,,,,,,,,
3678.0999999940395,,familiar_rating,151972,US_Cities_List/nat_newport.png,,53,US_Cities_List/nat_newport.png,NAT,5,,,,,,,,,,,,,,,
null,,confidence_buffer,152073,confidence_buffer,,null,,,,,,,,,,,,,,,,,,
2647.4000000059605,,unique_rating,154721,US_Cities_List/nat_newport.png,,50,,,2,,,,,,,,,,,,,,,
null,,confidence_buffer,154823,confidence_buffer,,null,,,,,,,,,,,,,,,,,,
3264.5,,memorable_rating,158089,US_Cities_List/nat_newport.png,,51,,,3,,,,,,,,,,,,,,,
null,,confidence_buffer,158190,confidence_buffer,,null,,,,,,,,,,,,,,,,,,
null,,thebreak,158692,break,,null,,,,,,,,,,,,,,,,,,
3348.699999988079,,familiar_rating,162041,US_Cities_List/nat_healdsburg.png,,53,US_Cities_List/nat_healdsburg.png,NAT,5,,,,,,,,,,,,,,,
null,,confidence_buffer,162143,confidence_buffer,,null,,,,,,,,,,,,,,,,,,
2878.199999988079,,unique_rating,165022,US_Cities_List/nat_healdsburg.png,,50,,,2,,,,,,,,,,,,,,,
null,,confidence_buffer,165126,confidence_buffer,,null,,,,,,,,,,,,,,,,,,
2388.4000000059605,,probe_rating,167516,probe_rating,,51,,,,3,1,,,,,,,,,,,,,
null,,confidence_buffer,167618,confidence_buffer,,null,,,,,,,,,,,,,,,,,,
2871.5999999940395,,memorable_rating,170491,US_Cities_List/nat_healdsburg.png,,53,,,5,,,,,,,,,,,,,,,
null,,confidence_buffer,170594,confidence_buffer,,null,,,,,,,,,,,,,,,,,,
null,,thebreak,171098,break,,null,,,,,,,,,,,,,,,,,,
3014.5,,familiar_rating,174114,US_Cities_List/nat_parkcity.png,,52,US_Cities_List/nat_parkcity.png,NAT,4,,,,,,,,,,,,,,,
null,,confidence_buffer,174217,confidence_buffer,,null,,,,,,,,,,,,,,,,,,
4260.4000000059605,,unique_rating,178480,US_Cities_List/nat_parkcity.png,,51,,,3,,,,,,,,,,,,,,,
null,,confidence_buffer,178582,confidence_buffer,,null,,,,,,,,,,,,,,,,,,
1400,,memorable_rating,179983,US_Cities_List/nat_parkcity.png,,51,,,3,,,,,,,,,,,,,,,
null,,confidence_buffer,180084,confidence_buffer,,null,,,,,,,,,,,,,,,,,,
null,,thebreak,180586,break,,null,,,,,,,,,,,,,,,,,,
3361.9000000059605,,familiar_rating,183949,Fictional_Cities_List/img_natural_07.png,,52,Fictional_Cities_List/img_natural_07.png,NAT,4,,,,,,,,,,,,,,,
null,,confidence_buffer,184052,confidence_buffer,,null,,,,,,,,,,,,,,,,,,
2415.300000011921,,probe_rating,186468,probe_rating,,50,,,,2,1,,,,,,,,,,,,,
null,,confidence_buffer,186570,confidence_buffer,,null,,,,,,,,,,,,,,,,,,
2504.2000000178814,,unique_rating,189075,Fictional_Cities_List/img_natural_07.png,,51,,,3,,,,,,,,,,,,,,,
null,,confidence_buffer,189176,confidence_buffer,,null,,,,,,,,,,,,,,,,,,
1864.2999999821186,,memorable_rating,191042,Fictional_Cities_List/img_natural_07.png,,52,,,4,,,,,,,,,,,,,,,
null,,confidence_buffer,191144,confidence_buffer,,null,,,,,,,,,,,,,,,,,,
null,,thebreak,191657,break,,null,,,,,,,,,,,,,,,,,,
3701.699999988079,,familiar_rating,195360,Fictional_Cities_List/img_natural_05.png,,50,Fictional_Cities_List/img_natural_05.png,NAT,2,,,,,,,,,,,,,,,
null,,confidence_buffer,195461,confidence_buffer,,null,,,,,,,,,,,,,,,,,,
2633.5999999940395,,unique_rating,198095,Fictional_Cities_List/img_natural_05.png,,51,,,3,,,,,,,,,,,,,,,
null,,confidence_buffer,198197,confidence_buffer,,null,,,,,,,,,,,,,,,,,,
2200,,memorable_rating,200398,Fictional_Cities_List/img_natural_05.png,,50,,,2,,,,,,,,,,,,,,,
null,,confidence_buffer,200500,confidence_buffer,,null,,,,,,,,,,,,,,,,,,
null,,thebreak,201002,break,,null,,,,,,,,,,,,,,,,,,
3833.7999999821186,,familiar_rating,204836,Fictional_Cities_List/img_manmade_27.png,,50,Fictional_Cities_List/img_manmade_27.png,MM,2,,,,,,,,,,,,,,,
null,,confidence_buffer,204938,confidence_buffer,,null,,,,,,,,,,,,,,,,,,
2799.300000011921,,unique_rating,207739,Fictional_Cities_List/img_manmade_27.png,,51,,,3,,,,,,,,,,,,,,,
null,,confidence_buffer,207842,confidence_buffer,,null,,,,,,,,,,,,,,,,,,
2654.2999999821186,,memorable_rating,210497,Fictional_Cities_List/img_manmade_27.png,,50,,,2,,,,,,,,,,,,,,,
null,,confidence_buffer,210598,confidence_buffer,,null,,,,,,,,,,,,,,,,,,
null,,thebreak,211099,break,,null,,,,,,,,,,,,,,,,,,
3860.5,,familiar_rating,214960,US_Cities_List/mm_cody.png,,51,US_Cities_List/mm_cody.png,MM,3,,,,,,,,,,,,,,,
null,,confidence_buffer,215062,confidence_buffer,,null,,,,,,,,,,,,,,,,,,
2935.800000011921,,unique_rating,217998,US_Cities_List/mm_cody.png,,51,,,3,,,,,,,,,,,,,,,
null,,confidence_buffer,218100,confidence_buffer,,null,,,,,,,,,,,,,,,,,,
1176.300000011921,,memorable_rating,219279,US_Cities_List/mm_cody.png,,51,,,3,,,,,,,,,,,,,,,
null,,confidence_buffer,219381,confidence_buffer,,null,,,,,,,,,,,,,,,,,,
null,,thebreak,219883,break,,null,,,,,,,,,,,,,,,,,,
3376.800000011921,,familiar_rating,223260,US_Cities_List/mm_huntsville.png,,53,US_Cities_List/mm_huntsville.png,MM,5,,,,,,,,,,,,,,,
null,,confidence_buffer,223362,confidence_buffer,,null,,,,,,,,,,,,,,,,,,
3814.5,,unique_rating,227178,US_Cities_List/mm_huntsville.png,,53,,,5,,,,,,,,,,,,,,,
null,,confidence_buffer,227280,confidence_buffer,,null,,,,,,,,,,,,,,,,,,
1344.300000011921,,memorable_rating,228625,US_Cities_List/mm_huntsville.png,,53,,,5,,,,,,,,,,,,,,,
null,,confidence_buffer,228727,confidence_buffer,,null,,,,,,,,,,,,,,,,,,
null,,thebreak,229229,break,,null,,,,,,,,,,,,,,,,,,
3499.0999999940395,,familiar_rating,232729,Fictional_Cities_List/img_natural_01.png,,53,Fictional_Cities_List/img_natural_01.png,NAT,5,,,,,,,,,,,,,,,
null,,confidence_buffer,232830,confidence_buffer,,null,,,,,,,,,,,,,,,,,,
2510.9000000059605,,unique_rating,235342,Fictional_Cities_List/img_natural_01.png,,50,,,2,,,,,,,,,,,,,,,
null,,confidence_buffer,235444,confidence_buffer,,null,,,,,,,,,,,,,,,,,,
1094.5999999940395,,memorable_rating,236541,Fictional_Cities_List/img_natural_01.png,,51,,,3,,,,,,,,,,,,,,,
null,,confidence_buffer,236643,confidence_buffer,,null,,,,,,,,,,,,,,,,,,
1880.699999988079,,probe_rating,238525,probe_rating,,51,,,,3,1,,,,,,,,,,,,,
null,,confidence_buffer,238626,confidence_buffer,,null,,,,,,,,,,,,,,,,,,
null,,thebreak,239127,break,,null,,,,,,,,,,,,,,,,,,
3739.699999988079,,familiar_rating,242867,Fictional_Cities_List/img_manmade_19.png,,49,Fictional_Cities_List/img_manmade_19.png,MM,1,,,,,,,,,,,,,,,
null,,confidence_buffer,242971,confidence_buffer,,null,,,,,,,,,,,,,,,,,,
2886.5999999940395,,unique_rating,245859,Fictional_Cities_List/img_manmade_19.png,,52,,,4,,,,,,,,,,,,,,,
null,,confidence_buffer,245960,confidence_buffer,,null,,,,,,,,,,,,,,,,,,
1591.7999999821186,,memorable_rating,247553,Fictional_Cities_List/img_manmade_19.png,,53,,,5,,,,,,,,,,,,,,,
null,,confidence_buffer,247654,confidence_buffer,,null,,,,,,,,,,,,,,,,,,
null,,thebreak,248156,break,,null,,,,,,,,,,,,,,,,,,
2737.100000023842,,familiar_rating,250896,US_Cities_List/nat_assateagueisland.png,,52,US_Cities_List/nat_assateagueisland.png,NAT,4,,,,,,,,,,,,,,,
null,,confidence_buffer,250999,confidence_buffer,,null,,,,,,,,,,,,,,,,,,
1550.9000000059605,,unique_rating,252550,US_Cities_List/nat_assateagueisland.png,,51,,,3,,,,,,,,,,,,,,,
null,,confidence_buffer,252653,confidence_buffer,,null,,,,,,,,,,,,,,,,,,
2151.5,,memorable_rating,254805,US_Cities_List/nat_assateagueisland.png,,51,,,3,,,,,,,,,,,,,,,
null,,confidence_buffer,254906,confidence_buffer,,null,,,,,,,,,,,,,,,,,,
null,,thebreak,255409,break,,null,,,,,,,,,,,,,,,,,,
4705.5,,familiar_rating,260115,US_Cities_List/mm_yukon.png,,49,US_Cities_List/mm_yukon.png,MM,1,,,,,,,,,,,,,,,
null,,confidence_buffer,260217,confidence_buffer,,null,,,,,,,,,,,,,,,,,,
3559.7999999821186,,unique_rating,263778,US_Cities_List/mm_yukon.png,,52,,,4,,,,,,,,,,,,,,,
null,,confidence_buffer,263879,confidence_buffer,,null,,,,,,,,,,,,,,,,,,
1992.8999999761581,,memorable_rating,265873,US_Cities_List/mm_yukon.png,,52,,,4,,,,,,,,,,,,,,,
null,,confidence_buffer,265976,confidence_buffer,,null,,,,,,,,,,,,,,,,,,
null,,thebreak,266478,break,,null,,,,,,,,,,,,,,,,,,
2823.899999976158,,familiar_rating,269303,Fictional_Cities_List/img_natural_11.png,,50,Fictional_Cities_List/img_natural_11.png,NAT,2,,,,,,,,,,,,,,,
null,,confidence_buffer,269404,confidence_buffer,,null,,,,,,,,,,,,,,,,,,
2168.7000000178814,,unique_rating,271574,Fictional_Cities_List/img_natural_11.png,,50,,,2,,,,,,,,,,,,,,,
null,,confidence_buffer,271675,confidence_buffer,,null,,,,,,,,,,,,,,,,,,
896.4000000059605,,memorable_rating,272573,Fictional_Cities_List/img_natural_11.png,,50,,,2,,,,,,,,,,,,,,,
null,,confidence_buffer,272674,confidence_buffer,,null,,,,,,,,,,,,,,,,,,
2288.5,,probe_rating,274964,probe_rating,,50,,,,2,1,,,,,,,,,,,,,
null,,confidence_buffer,275068,confidence_buffer,,null,,,,,,,,,,,,,,,,,,
null,,thebreak,275571,break,,null,,,,,,,,,,,,,,,,,,
2401.5999999940395,,familiar_rating,277973,US_Cities_List/nat_barharbor.png,,52,US_Cities_List/nat_barharbor.png,NAT,4,,,,,,,,,,,,,,,
null,,confidence_buffer,278075,confidence_buffer,,null,,,,,,,,,,,,,,,,,,
1934.0999999940395,,unique_rating,280010,US_Cities_List/nat_barharbor.png,,51,,,3,,,,,,,,,,,,,,,
null,,confidence_buffer,280111,confidence_buffer,,null,,,,,,,,,,,,,,,,,,
1514.7000000178814,,memorable_rating,281627,US_Cities_List/nat_barharbor.png,,51,,,3,,,,,,,,,,,,,,,
null,,confidence_buffer,281729,confidence_buffer,,null,,,,,,,,,,,,,,,,,,
null,,thebreak,282230,break,,null,,,,,,,,,,,,,,,,,,
4096.899999976158,,familiar_rating,286328,Fictional_Cities_List/img_natural_49.png,,51,Fictional_Cities_List/img_natural_49.png,NAT,3,,,,,,,,,,,,,,,
null,,confidence_buffer,286432,confidence_buffer,,null,,,,,,,,,,,,,,,,,,
2308.5,,unique_rating,288741,Fictional_Cities_List/img_natural_49.png,,51,,,3,,,,,,,,,,,,,,,
null,,confidence_buffer,288843,confidence_buffer,,null,,,,,,,,,,,,,,,,,,
1905.5,,memorable_rating,290750,Fictional_Cities_List/img_natural_49.png,,50,,,2,,,,,,,,,,,,,,,
null,,confidence_buffer,290854,confidence_buffer,,null,,,,,,,,,,,,,,,,,,
null,,thebreak,291355,break,,null,,,,,,,,,,,,,,,,,,
3272.5,,familiar_rating,294628,US_Cities_List/mm_westpalmbeach.png,,49,US_Cities_List/mm_westpalmbeach.png,MM,1,,,,,,,,,,,,,,,
null,,confidence_buffer,294729,confidence_buffer,,null,,,,,,,,,,,,,,,,,,
1881,,unique_rating,296611,US_Cities_List/mm_westpalmbeach.png,,53,,,5,,,,,,,,,,,,,,,
null,,confidence_buffer,296713,confidence_buffer,,null,,,,,,,,,,,,,,,,,,
1159.199999988079,,memorable_rating,297876,US_Cities_List/mm_westpalmbeach.png,,53,,,5,,,,,,,,,,,,,,,
null,,confidence_buffer,297978,confidence_buffer,,null,,,,,,,,,,,,,,,,,,
null,,thebreak,298479,break,,null,,,,,,,,,,,,,,,,,,
3823.5999999940395,,familiar_rating,302304,US_Cities_List/mm_duck.png,,51,US_Cities_List/mm_duck.png,MM,3,,,,,,,,,,,,,,,
null,,confidence_buffer,302405,confidence_buffer,,null,,,,,,,,,,,,,,,,,,
1680.699999988079,,unique_rating,304087,US_Cities_List/mm_duck.png,,51,,,3,,,,,,,,,,,,,,,
null,,confidence_buffer,304188,confidence_buffer,,null,,,,,,,,,,,,,,,,,,
1402.9000000059605,,memorable_rating,305591,US_Cities_List/mm_duck.png,,50,,,2,,,,,,,,,,,,,,,
null,,confidence_buffer,305694,confidence_buffer,,null,,,,,,,,,,,,,,,,,,
null,,thebreak,306194,break,,null,,,,,,,,,,,,,,,,,,
2417.5,,familiar_rating,308613,US_Cities_List/nat_racine.png,,52,US_Cities_List/nat_racine.png,NAT,4,,,,,,,,,,,,,,,
null,,confidence_buffer,308714,confidence_buffer,,null,,,,,,,,,,,,,,,,,,
3544.7999999821186,,unique_rating,312260,US_Cities_List/nat_racine.png,,50,,,2,,,,,,,,,,,,,,,
null,,confidence_buffer,312365,confidence_buffer,,null,,,,,,,,,,,,,,,,,,
2053.199999988079,,memorable_rating,314419,US_Cities_List/nat_racine.png,,51,,,3,,,,,,,,,,,,,,,
null,,confidence_buffer,314520,confidence_buffer,,null,,,,,,,,,,,,,,,,,,
null,,thebreak,315021,break,,null,,,,,,,,,,,,,,,,,,
2787,,familiar_rating,317811,US_Cities_List/nat_bisbee.png,,50,US_Cities_List/nat_bisbee.png,NAT,2,,,,,,,,,,,,,,,
null,,confidence_buffer,317913,confidence_buffer,,null,,,,,,,,,,,,,,,,,,
2253.5,,unique_rating,320168,US_Cities_List/nat_bisbee.png,,52,,,4,,,,,,,,,,,,,,,
null,,confidence_buffer,320270,confidence_buffer,,null,,,,,,,,,,,,,,,,,,
2040.5999999940395,,memorable_rating,322311,US_Cities_List/nat_bisbee.png,,51,,,3,,,,,,,,,,,,,,,
null,,confidence_buffer,322413,confidence_buffer,,null,,,,,,,,,,,,,,,,,,
null,,thebreak,322917,break,,null,,,,,,,,,,,,,,,,,,
6206.5,,familiar_rating,329125,Fictional_Cities_List/img_manmade_22.png,,50,Fictional_Cities_List/img_manmade_22.png,MM,2,,,,,,,,,,,,,,,
null,,confidence_buffer,329226,confidence_buffer,,null,,,,,,,,,,,,,,,,,,
1936.2000000178814,,unique_rating,331163,Fictional_Cities_List/img_manmade_22.png,,53,,,5,,,,,,,,,,,,,,,
null,,confidence_buffer,331264,confidence_buffer,,null,,,,,,,,,,,,,,,,,,
985.6999999880791,,memorable_rating,332251,Fictional_Cities_List/img_manmade_22.png,,53,,,5,,,,,,,,,,,,,,,
null,,confidence_buffer,332352,confidence_buffer,,null,,,,,,,,,,,,,,,,,,
null,,thebreak,332854,break,,null,,,,,,,,,,,,,,,,,,
2978,,familiar_rating,335833,Fictional_Cities_List/img_manmade_03.png,,49,Fictional_Cities_List/img_manmade_03.png,MM,1,,,,,,,,,,,,,,,
null,,confidence_buffer,335934,confidence_buffer,,null,,,,,,,,,,,,,,,,,,
2082,,unique_rating,338017,Fictional_Cities_List/img_manmade_03.png,,53,,,5,,,,,,,,,,,,,,,
null,,confidence_buffer,338119,confidence_buffer,,null,,,,,,,,,,,,,,,,,,
1487.300000011921,,memorable_rating,339607,Fictional_Cities_List/img_manmade_03.png,,52,,,4,,,,,,,,,,,,,,,
null,,confidence_buffer,339709,confidence_buffer,,null,,,,,,,,,,,,,,,,,,
null,,thebreak,340211,break,,null,,,,,,,,,,,,,,,,,,
3817,,familiar_rating,344029,Fictional_Cities_List/img_natural_20.png,,49,Fictional_Cities_List/img_natural_20.png,NAT,1,,,,,,,,,,,,,,,
null,,confidence_buffer,344130,confidence_buffer,,null,,,,,,,,,,,,,,,,,,
2585.0999999940395,,unique_rating,346716,Fictional_Cities_List/img_natural_20.png,,52,,,4,,,,,,,,,,,,,,,
null,,confidence_buffer,346819,confidence_buffer,,null,,,,,,,,,,,,,,,,,,
1458.3999999761581,,memorable_rating,348278,Fictional_Cities_List/img_natural_20.png,,50,,,2,,,,,,,,,,,,,,,
null,,confidence_buffer,348380,confidence_buffer,,null,,,,,,,,,,,,,,,,,,
null,,thebreak,348896,break,,null,,,,,,,,,,,,,,,,,,
2250.5999999940395,,familiar_rating,351148,Fictional_Cities_List/img_natural_28.png,,50,Fictional_Cities_List/img_natural_28.png,NAT,2,,,,,,,,,,,,,,,
null,,confidence_buffer,351249,confidence_buffer,,null,,,,,,,,,,,,,,,,,,
3382.5,,unique_rating,354633,Fictional_Cities_List/img_natural_28.png,,50,,,2,,,,,,,,,,,,,,,
null,,confidence_buffer,354735,confidence_buffer,,null,,,,,,,,,,,,,,,,,,
1072.0999999940395,,memorable_rating,355807,Fictional_Cities_List/img_natural_28.png,,49,,,1,,,,,,,,,,,,,,,
null,,confidence_buffer,355910,confidence_buffer,,null,,,,,,,,,,,,,,,,,,
2496,,probe_rating,358407,probe_rating,,51,,,,3,1,,,,,,,,,,,,,
null,,confidence_buffer,358508,confidence_buffer,,null,,,,,,,,,,,,,,,,,,
null,,thebreak,359009,break,,null,,,,,,,,,,,,,,,,,,
6067.4000000059605,,intro_0,365077,instruct,,32,,,,,,,,,,,,,,,,,,
7970.4000000059605,,intro_1,373050,instruct,,32,,,,,,,,,,,,,,,,,,
7801.800000011921,,intro_2,380853,instruct,,32,,,,,,,,,,,,,,,,,,
null,,instruct_dir_4,382355,instruct,,null,,,,,,,,,,,,,,,,,,
11746.299999982119,,pt2_realistic_rating,394104,Fictional_Cities_List/img_natural_11.png,,50,Fictional_Cities_List/img_natural_11.png,NAT,2,,,,,,,,,,,,,,,
null,,confidence_buffer,394207,confidence_buffer,,null,,,,,,,,,,,,,,,,,,
4686.5999999940395,,pt2_unique_rating,398895,Fictional_Cities_List/img_natural_11.png,,50,,,2,,,,,,,,,,,,,,,
null,,confidence_buffer,398997,confidence_buffer,,null,,,,,,,,,,,,,,,,,,
2158.399999976158,,pt2_memorable_rating,401156,Fictional_Cities_List/img_natural_11.png,,50,,,2,,,,,,,,,,,,,,,
null,,confidence_buffer,401257,confidence_buffer,,null,,,,,,,,,,,,,,,,,,
5054.9000000059605,,recognition_phase,406313,Fictional_Cities_List/img_natural_11.png,,49,,,,,,old,1,1,,,,,,,,,,
null,,confidence_buffer,406417,confidence_buffer,,null,,,,,,,,,,,,,,,,,,
null,,thebreak,406919,break,,null,,,,,,,,,,,,,,,,,,
4358.600000023842,,pt2_realistic_rating,411279,US_Cities_List/nat_huntsville.png,,50,US_Cities_List/nat_huntsville.png,NAT,2,,,,,,,,,,,,,,,
null,,confidence_buffer,411381,confidence_buffer,,null,,,,,,,,,,,,,,,,,,
3578.600000023842,,pt2_unique_rating,414961,US_Cities_List/nat_huntsville.png,,51,,,3,,,,,,,,,,,,,,,
null,,confidence_buffer,415062,confidence_buffer,,null,,,,,,,,,,,,,,,,,,
2109.2999999821186,,pt2_memorable_rating,417173,US_Cities_List/nat_huntsville.png,,51,,,3,,,,,,,,,,,,,,,
null,,confidence_buffer,417274,confidence_buffer,,null,,,,,,,,,,,,,,,,,,
3407.4000000059605,,recognition_phase,420683,US_Cities_List/nat_huntsville.png,,49,,,,,,old,0,0.5,,,,,,,,,,
null,,confidence_buffer,420788,confidence_buffer,,null,,,,,,,,,,,,,,,,,,
null,,thebreak,421290,break,,null,,,,,,,,,,,,,,,,,,
4102.799999982119,,pt2_realistic_rating,425393,Fictional_Cities_List/img_manmade_11.png,,49,Fictional_Cities_List/img_manmade_11.png,MM,1,,,,,,,,,,,,,,,
null,,confidence_buffer,425495,confidence_buffer,,null,,,,,,,,,,,,,,,,,,
2611.0999999940395,,pt2_unique_rating,428107,Fictional_Cities_List/img_manmade_11.png,,51,,,3,,,,,,,,,,,,,,,
null,,confidence_buffer,428209,confidence_buffer,,null,,,,,,,,,,,,,,,,,,
2237.0999999940395,,probe_rating,430447,probe_rating,,51,,,,3,1,,,,,,,,,,,,,
null,,confidence_buffer,430549,confidence_buffer,,null,,,,,,,,,,,,,,,,,,
2247.899999976158,,pt2_memorable_rating,432798,Fictional_Cities_List/img_manmade_11.png,,50,,,2,,,,,,,,,,,,,,,
null,,confidence_buffer,432900,confidence_buffer,,null,,,,,,,,,,,,,,,,,,
3697.300000011921,,recognition_phase,436599,Fictional_Cities_List/img_manmade_11.png,,52,,,,,,new,1,0.6666666666666666,,,,,,,,,,
null,,confidence_buffer,436702,confidence_buffer,,null,,,,,,,,,,,,,,,,,,
null,,thebreak,437203,break,,null,,,,,,,,,,,,,,,,,,
3478.5999999940395,,pt2_realistic_rating,440684,Fictional_Cities_List/img_natural_43.png,,52,Fictional_Cities_List/img_natural_43.png,NAT,4,,,,,,,,,,,,,,,
null,,confidence_buffer,440810,confidence_buffer,,null,,,,,,,,,,,,,,,,,,
1997.5999999940395,,pt2_unique_rating,442809,Fictional_Cities_List/img_natural_43.png,,51,,,3,,,,,,,,,,,,,,,
null,,confidence_buffer,442910,confidence_buffer,,null,,,,,,,,,,,,,,,,,,
2225.5999999940395,,pt2_memorable_rating,445136,Fictional_Cities_List/img_natural_43.png,,51,,,3,,,,,,,,,,,,,,,
null,,confidence_buffer,445239,confidence_buffer,,null,,,,,,,,,,,,,,,,,,
4277.5,,recognition_phase,449518,Fictional_Cities_List/img_natural_43.png,,52,,,,,,new,1,0.75,,,,,,,,,,
null,,confidence_buffer,449628,confidence_buffer,,null,,,,,,,,,,,,,,,,,,
null,,thebreak,450130,break,,null,,,,,,,,,,,,,,,,,,
5760.5999999940395,,pt2_realistic_rating,455891,US_Cities_List/nat_assateagueisland.png,,51,US_Cities_List/nat_assateagueisland.png,NAT,3,,,,,,,,,,,,,,,
null,,confidence_buffer,455993,confidence_buffer,,null,,,,,,,,,,,,,,,,,,
1632.7000000178814,,pt2_unique_rating,457627,US_Cities_List/nat_assateagueisland.png,,51,,,3,,,,,,,,,,,,,,,
null,,confidence_buffer,457728,confidence_buffer,,null,,,,,,,,,,,,,,,,,,
2743.800000011921,,pt2_memorable_rating,460473,US_Cities_List/nat_assateagueisland.png,,51,,,3,,,,,,,,,,,,,,,
null,,confidence_buffer,460574,confidence_buffer,,null,,,,,,,,,,,,,,,,,,
3209.0999999940395,,recognition_phase,463784,US_Cities_List/nat_assateagueisland.png,,49,,,,,,old,1,0.8,,,,,,,,,,
null,,confidence_buffer,463886,confidence_buffer,,null,,,,,,,,,,,,,,,,,,
null,,thebreak,464389,break,,null,,,,,,,,,,,,,,,,,,
8343.199999988079,,pt2_realistic_rating,472735,US_Cities_List/mm_orr.png,,51,US_Cities_List/mm_orr.png,MM,3,,,,,,,,,,,,,,,
null,,confidence_buffer,472838,confidence_buffer,,null,,,,,,,,,,,,,,,,,,
3187.2000000178814,,pt2_unique_rating,476026,US_Cities_List/mm_orr.png,,51,,,3,,,,,,,,,,,,,,,
null,,confidence_buffer,476127,confidence_buffer,,null,,,,,,,,,,,,,,,,,,
1962.5999999940395,,pt2_memorable_rating,478091,US_Cities_List/mm_orr.png,,51,,,3,,,,,,,,,,,,,,,
null,,confidence_buffer,478192,confidence_buffer,,null,,,,,,,,,,,,,,,,,,
3087.0999999940395,,recognition_phase,481280,US_Cities_List/mm_orr.png,,49,,,,,,old,1,0.8333333333333334,,,,,,,,,,
null,,confidence_buffer,481381,confidence_buffer,,null,,,,,,,,,,,,,,,,,,
null,,thebreak,481882,break,,null,,,,,,,,,,,,,,,,,,
5116.200000017881,,pt2_realistic_rating,486999,US_Cities_List/mm_hilo.png,,50,US_Cities_List/mm_hilo.png,MM,2,,,,,,,,,,,,,,,
null,,confidence_buffer,487101,confidence_buffer,,null,,,,,,,,,,,,,,,,,,
2133.899999976158,,pt2_unique_rating,489236,US_Cities_List/mm_hilo.png,,52,,,4,,,,,,,,,,,,,,,
null,,confidence_buffer,489339,confidence_buffer,,null,,,,,,,,,,,,,,,,,,
1697.2000000178814,,pt2_memorable_rating,491037,US_Cities_List/mm_hilo.png,,51,,,3,,,,,,,,,,,,,,,
null,,confidence_buffer,491139,confidence_buffer,,null,,,,,,,,,,,,,,,,,,
4237.200000017881,,recognition_phase,495377,US_Cities_List/mm_hilo.png,,52,,,,,,new,1,0.8571428571428571,,,,,,,,,,
null,,confidence_buffer,495479,confidence_buffer,,null,,,,,,,,,,,,,,,,,,
null,,thebreak,495980,break,,null,,,,,,,,,,,,,,,,,,
2692,,pt2_realistic_rating,498673,US_Cities_List/mm_huntsville.png,,53,US_Cities_List/mm_huntsville.png,MM,5,,,,,,,,,,,,,,,
null,,confidence_buffer,498778,confidence_buffer,,null,,,,,,,,,,,,,,,,,,
3931.5999999940395,,pt2_unique_rating,502711,US_Cities_List/mm_huntsville.png,,53,,,5,,,,,,,,,,,,,,,
null,,confidence_buffer,502814,confidence_buffer,,null,,,,,,,,,,,,,,,,,,
1006.8000000119209,,pt2_memorable_rating,503822,US_Cities_List/mm_huntsville.png,,53,,,5,,,,,,,,,,,,,,,
null,,confidence_buffer,503923,confidence_buffer,,null,,,,,,,,,,,,,,,,,,
2663.5999999940395,,recognition_phase,506588,US_Cities_List/mm_huntsville.png,,49,,,,,,old,1,0.875,,,,,,,,,,
null,,confidence_buffer,506689,confidence_buffer,,null,,,,,,,,,,,,,,,,,,
null,,thebreak,507190,break,,null,,,,,,,,,,,,,,,,,,
3582.5,,pt2_realistic_rating,510774,US_Cities_List/nat_racine.png,,52,US_Cities_List/nat_racine.png,NAT,4,,,,,,,,,,,,,,,
null,,confidence_buffer,510876,confidence_buffer,,null,,,,,,,,,,,,,,,,,,
2316.4000000059605,,pt2_unique_rating,513193,US_Cities_List/nat_racine.png,,51,,,3,,,,,,,,,,,,,,,
null,,confidence_buffer,513295,confidence_buffer,,null,,,,,,,,,,,,,,,,,,
3233,,pt2_memorable_rating,516529,US_Cities_List/nat_racine.png,,51,,,3,,,,,,,,,,,,,,,
null,,confidence_buffer,516631,confidence_buffer,,null,,,,,,,,,,,,,,,,,,
2103.800000011921,,recognition_phase,518735,US_Cities_List/nat_racine.png,,49,,,,,,old,1,0.8888888888888888,,,,,,,,,,
null,,confidence_buffer,518836,confidence_buffer,,null,,,,,,,,,,,,,,,,,,
null,,thebreak,519338,break,,null,,,,,,,,,,,,,,,,,,
3258.5999999940395,,pt2_realistic_rating,522598,Fictional_Cities_List/img_natural_21.png,,53,Fictional_Cities_List/img_natural_21.png,NAT,5,,,,,,,,,,,,,,,
null,,confidence_buffer,522701,confidence_buffer,,null,,,,,,,,,,,,,,,,,,
2357.699999988079,,pt2_unique_rating,525060,Fictional_Cities_List/img_natural_21.png,,50,,,2,,,,,,,,,,,,,,,
null,,confidence_buffer,525161,confidence_buffer,,null,,,,,,,,,,,,,,,,,,
2112.899999976158,,pt2_memorable_rating,527275,Fictional_Cities_List/img_natural_21.png,,51,,,3,,,,,,,,,,,,,,,
null,,confidence_buffer,527376,confidence_buffer,,null,,,,,,,,,,,,,,,,,,
2120.800000011921,,recognition_phase,529498,Fictional_Cities_List/img_natural_21.png,,52,,,,,,new,1,0.9,,,,,,,,,,
null,,confidence_buffer,529599,confidence_buffer,,null,,,,,,,,,,,,,,,,,,
null,,thebreak,530100,break,,null,,,,,,,,,,,,,,,,,,
5475.700000017881,,pt2_realistic_rating,535577,Fictional_Cities_List/img_manmade_24.png,,53,Fictional_Cities_List/img_manmade_24.png,MM,5,,,,,,,,,,,,,,,
null,,confidence_buffer,535680,confidence_buffer,,null,,,,,,,,,,,,,,,,,,
3940.0999999940395,,pt2_unique_rating,539622,Fictional_Cities_List/img_manmade_24.png,,50,,,2,,,,,,,,,,,,,,,
null,,confidence_buffer,539724,confidence_buffer,,null,,,,,,,,,,,,,,,,,,
1520.199999988079,,pt2_memorable_rating,541245,Fictional_Cities_List/img_manmade_24.png,,51,,,3,,,,,,,,,,,,,,,
null,,confidence_buffer,541360,confidence_buffer,,null,,,,,,,,,,,,,,,,,,
2531.0999999940395,,recognition_phase,543892,Fictional_Cities_List/img_manmade_24.png,,52,,,,,,new,1,0.9090909090909091,,,,,,,,,,
null,,confidence_buffer,543993,confidence_buffer,,null,,,,,,,,,,,,,,,,,,
null,,thebreak,544500,break,,null,,,,,,,,,,,,,,,,,,
3101.4000000059605,,pt2_realistic_rating,547602,US_Cities_List/nat_alliance.png,,51,US_Cities_List/nat_alliance.png,NAT,3,,,,,,,,,,,,,,,
null,,confidence_buffer,547703,confidence_buffer,,null,,,,,,,,,,,,,,,,,,
2291.5999999940395,,pt2_unique_rating,549996,US_Cities_List/nat_alliance.png,,52,,,4,,,,,,,,,,,,,,,
null,,confidence_buffer,550097,confidence_buffer,,null,,,,,,,,,,,,,,,,,,
2310,,probe_rating,552408,probe_rating,,52,,,,4,1,,,,,,,,,,,,,
null,,confidence_buffer,552511,confidence_buffer,,null,,,,,,,,,,,,,,,,,,
3196.5999999940395,,pt2_memorable_rating,555710,US_Cities_List/nat_alliance.png,,51,,,3,,,,,,,,,,,,,,,
null,,confidence_buffer,555811,confidence_buffer,,null,,,,,,,,,,,,,,,,,,
2153.5999999940395,,recognition_phase,557966,US_Cities_List/nat_alliance.png,,52,,,,,,new,1,0.9166666666666666,,,,,,,,,,
null,,confidence_buffer,558069,confidence_buffer,,null,,,,,,,,,,,,,,,,,,
null,,thebreak,558571,break,,null,,,,,,,,,,,,,,,,,,
3495.600000023842,,pt2_realistic_rating,562067,US_Cities_List/nat_natchez.png,,52,US_Cities_List/nat_natchez.png,NAT,4,,,,,,,,,,,,,,,
null,,confidence_buffer,562169,confidence_buffer,,null,,,,,,,,,,,,,,,,,,
2890.0999999940395,,pt2_unique_rating,565061,US_Cities_List/nat_natchez.png,,53,,,5,,,,,,,,,,,,,,,
null,,confidence_buffer,565162,confidence_buffer,,null,,,,,,,,,,,,,,,,,,
2278.300000011921,,probe_rating,567442,probe_rating,,52,,,,4,1,,,,,,,,,,,,,
null,,confidence_buffer,567545,confidence_buffer,,null,,,,,,,,,,,,,,,,,,
2535.4000000059605,,pt2_memorable_rating,570082,US_Cities_List/nat_natchez.png,,52,,,4,,,,,,,,,,,,,,,
null,,confidence_buffer,570184,confidence_buffer,,null,,,,,,,,,,,,,,,,,,
2694.7999999821186,,recognition_phase,572879,US_Cities_List/nat_natchez.png,,52,,,,,,new,1,0.9230769230769231,,,,,,,,,,
null,,confidence_buffer,572981,confidence_buffer,,null,,,,,,,,,,,,,,,,,,
null,,thebreak,573485,break,,null,,,,,,,,,,,,,,,,,,
5640.0999999940395,,pt2_realistic_rating,579126,Fictional_Cities_List/img_manmade_05.png,,49,Fictional_Cities_List/img_manmade_05.png,MM,1,,,,,,,,,,,,,,,
null,,confidence_buffer,579228,confidence_buffer,,null,,,,,,,,,,,,,,,,,,
2870.4000000059605,,pt2_unique_rating,582099,Fictional_Cities_List/img_manmade_05.png,,52,,,4,,,,,,,,,,,,,,,
null,,confidence_buffer,582200,confidence_buffer,,null,,,,,,,,,,,,,,,,,,
1545.0999999940395,,pt2_memorable_rating,583746,Fictional_Cities_List/img_manmade_05.png,,52,,,4,,,,,,,,,,,,,,,
null,,confidence_buffer,583848,confidence_buffer,,null,,,,,,,,,,,,,,,,,,
1832.5,,recognition_phase,585681,Fictional_Cities_List/img_manmade_05.png,,52,,,,,,new,1,0.9285714285714286,,,,,,,,,,
null,,confidence_buffer,585783,confidence_buffer,,null,,,,,,,,,,,,,,,,,,
null,,thebreak,586285,break,,null,,,,,,,,,,,,,,,,,,
4105.800000011921,,pt2_realistic_rating,590391,Fictional_Cities_List/img_natural_24.png,,50,Fictional_Cities_List/img_natural_24.png,NAT,2,,,,,,,,,,,,,,,
null,,confidence_buffer,590493,confidence_buffer,,null,,,,,,,,,,,,,,,,,,
2615.899999976158,,pt2_unique_rating,593110,Fictional_Cities_List/img_natural_24.png,,51,,,3,,,,,,,,,,,,,,,
null,,confidence_buffer,593211,confidence_buffer,,null,,,,,,,,,,,,,,,,,,
2962.5,,pt2_memorable_rating,596175,Fictional_Cities_List/img_natural_24.png,,51,,,3,,,,,,,,,,,,,,,
null,,confidence_buffer,596277,confidence_buffer,,null,,,,,,,,,,,,,,,,,,
2077.9000000059605,,recognition_phase,598356,Fictional_Cities_List/img_natural_24.png,,52,,,,,,new,1,0.9333333333333333,,,,,,,,,,
null,,confidence_buffer,598459,confidence_buffer,,null,,,,,,,,,,,,,,,,,,
null,,thebreak,598961,break,,null,,,,,,,,,,,,,,,,,,
3783.9000000059605,,pt2_realistic_rating,602747,Fictional_Cities_List/img_natural_27.png,,50,Fictional_Cities_List/img_natural_27.png,NAT,2,,,,,,,,,,,,,,,
null,,confidence_buffer,602849,confidence_buffer,,null,,,,,,,,,,,,,,,,,,
2909.5999999940395,,pt2_unique_rating,605760,Fictional_Cities_List/img_natural_27.png,,50,,,2,,,,,,,,,,,,,,,
null,,confidence_buffer,605861,confidence_buffer,,null,,,,,,,,,,,,,,,,,,
2210.100000023842,,pt2_memorable_rating,608071,Fictional_Cities_List/img_natural_27.png,,50,,,2,,,,,,,,,,,,,,,
null,,confidence_buffer,608173,confidence_buffer,,null,,,,,,,,,,,,,,,,,,
2128.7000000178814,,recognition_phase,610303,Fictional_Cities_List/img_natural_27.png,,52,,,,,,new,1,0.9375,,,,,,,,,,
null,,confidence_buffer,610406,confidence_buffer,,null,,,,,,,,,,,,,,,,,,
null,,thebreak,610908,break,,null,,,,,,,,,,,,,,,,,,
3639.2000000178814,,pt2_realistic_rating,614548,US_Cities_List/mm_abilene.png,,51,US_Cities_List/mm_abilene.png,MM,3,,,,,,,,,,,,,,,
null,,confidence_buffer,614649,confidence_buffer,,null,,,,,,,,,,,,,,,,,,
1721.0999999940395,,pt2_unique_rating,616371,US_Cities_List/mm_abilene.png,,53,,,5,,,,,,,,,,,,,,,
null,,confidence_buffer,616474,confidence_buffer,,null,,,,,,,,,,,,,,,,,,
954.6000000238419,,pt2_memorable_rating,617430,US_Cities_List/mm_abilene.png,,52,,,4,,,,,,,,,,,,,,,
null,,confidence_buffer,617532,confidence_buffer,,null,,,,,,,,,,,,,,,,,,
2253.100000023842,,recognition_phase,619786,US_Cities_List/mm_abilene.png,,52,,,,,,new,1,0.9411764705882353,,,,,,,,,,
null,,confidence_buffer,619887,confidence_buffer,,null,,,,,,,,,,,,,,,,,,
null,,thebreak,620391,break,,null,,,,,,,,,,,,,,,,,,
2696.4000000059605,,pt2_realistic_rating,623088,Fictional_Cities_List/img_manmade_20.png,,53,Fictional_Cities_List/img_manmade_20.png,MM,5,,,,,,,,,,,,,,,
null,,confidence_buffer,623190,confidence_buffer,,null,,,,,,,,,,,,,,,,,,
1888,,pt2_unique_rating,625079,Fictional_Cities_List/img_manmade_20.png,,51,,,3,,,,,,,,,,,,,,,
null,,confidence_buffer,625181,confidence_buffer,,null,,,,,,,,,,,,,,,,,,
1073.7999999821186,,pt2_memorable_rating,626255,Fictional_Cities_List/img_manmade_20.png,,51,,,3,,,,,,,,,,,,,,,
null,,confidence_buffer,626357,confidence_buffer,,null,,,,,,,,,,,,,,,,,,
1855.7999999821186,,recognition_phase,628214,Fictional_Cities_List/img_manmade_20.png,,52,,,,,,new,1,0.9444444444444444,,,,,,,,,,
null,,confidence_buffer,628315,confidence_buffer,,null,,,,,,,,,,,,,,,,,,
null,,thebreak,628816,break,,null,,,,,,,,,,,,,,,,,,
6642.0999999940395,,pt2_realistic_rating,635459,US_Cities_List/mm_yukon.png,,52,US_Cities_List/mm_yukon.png,MM,4,,,,,,,,,,,,,,,
null,,confidence_buffer,635563,confidence_buffer,,null,,,,,,,,,,,,,,,,,,
2613.0999999940395,,pt2_unique_rating,638177,US_Cities_List/mm_yukon.png,,51,,,3,,,,,,,,,,,,,,,
null,,confidence_buffer,638280,confidence_buffer,,null,,,,,,,,,,,,,,,,,,
1486.7999999821186,,pt2_memorable_rating,639769,US_Cities_List/mm_yukon.png,,51,,,3,,,,,,,,,,,,,,,
null,,confidence_buffer,639872,confidence_buffer,,null,,,,,,,,,,,,,,,,,,
2199.2000000178814,,recognition_phase,642072,US_Cities_List/mm_yukon.png,,49,,,,,,old,1,0.9473684210526315,,,,,,,,,,
null,,confidence_buffer,642174,confidence_buffer,,null,,,,,,,,,,,,,,,,,,
null,,thebreak,642675,break,,null,,,,,,,,,,,,,,,,,,
2322,,pt2_realistic_rating,644998,Fictional_Cities_List/img_natural_19.png,,50,Fictional_Cities_List/img_natural_19.png,NAT,2,,,,,,,,,,,,,,,
null,,confidence_buffer,645099,confidence_buffer,,null,,,,,,,,,,,,,,,,,,
1810.3999999761581,,pt2_unique_rating,646910,Fictional_Cities_List/img_natural_19.png,,50,,,2,,,,,,,,,,,,,,,
null,,confidence_buffer,647021,confidence_buffer,,null,,,,,,,,,,,,,,,,,,
1223,,pt2_memorable_rating,648245,Fictional_Cities_List/img_natural_19.png,,50,,,2,,,,,,,,,,,,,,,
null,,confidence_buffer,648347,confidence_buffer,,null,,,,,,,,,,,,,,,,,,
2039.0999999940395,,recognition_phase,650388,Fictional_Cities_List/img_natural_19.png,,52,,,,,,new,1,0.95,,,,,,,,,,
null,,confidence_buffer,650489,confidence_buffer,,null,,,,,,,,,,,,,,,,,,
null,,thebreak,650990,break,,null,,,,,,,,,,,,,,,,,,
3443.399999976158,,pt2_realistic_rating,654435,Fictional_Cities_List/img_manmade_22.png,,51,Fictional_Cities_List/img_manmade_22.png,MM,3,,,,,,,,,,,,,,,
null,,confidence_buffer,654537,confidence_buffer,,null,,,,,,,,,,,,,,,,,,
2718.899999976158,,pt2_unique_rating,657257,Fictional_Cities_List/img_manmade_22.png,,53,,,5,,,,,,,,,,,,,,,
null,,confidence_buffer,657358,confidence_buffer,,null,,,,,,,,,,,,,,,,,,
1411.2999999821186,,probe_rating,658770,probe_rating,,53,,,,5,1,,,,,,,,,,,,,
null,,confidence_buffer,658873,confidence_buffer,,null,,,,,,,,,,,,,,,,,,
1669.4000000059605,,pt2_memorable_rating,660543,Fictional_Cities_List/img_manmade_22.png,,53,,,5,,,,,,,,,,,,,,,
null,,confidence_buffer,660644,confidence_buffer,,null,,,,,,,,,,,,,,,,,,
2016.9000000059605,,recognition_phase,662662,Fictional_Cities_List/img_manmade_22.png,,49,,,,,,old,1,0.9523809523809523,,,,,,,,,,
null,,confidence_buffer,662764,confidence_buffer,,null,,,,,,,,,,,,,,,,,,
null,,thebreak,663265,break,,null,,,,,,,,,,,,,,,,,,
3611.7000000178814,,pt2_realistic_rating,666878,Fictional_Cities_List/img_manmade_03.png,,50,Fictional_Cities_List/img_manmade_03.png,MM,2,,,,,,,,,,,,,,,
null,,confidence_buffer,666981,confidence_buffer,,null,,,,,,,,,,,,,,,,,,
2509.2000000178814,,pt2_unique_rating,669491,Fictional_Cities_List/img_manmade_03.png,,52,,,4,,,,,,,,,,,,,,,
null,,confidence_buffer,669593,confidence_buffer,,null,,,,,,,,,,,,,,,,,,
1792.4000000059605,,pt2_memorable_rating,671386,Fictional_Cities_List/img_manmade_03.png,,52,,,4,,,,,,,,,,,,,,,
null,,confidence_buffer,671488,confidence_buffer,,null,,,,,,,,,,,,,,,,,,
1617.0999999940395,,recognition_phase,673106,Fictional_Cities_List/img_manmade_03.png,,49,,,,,,old,1,0.9545454545454546,,,,,,,,,,
null,,confidence_buffer,673209,confidence_buffer,,null,,,,,,,,,,,,,,,,,,
null,,thebreak,673710,break,,null,,,,,,,,,,,,,,,,,,
3027.9000000059605,,pt2_realistic_rating,676739,Fictional_Cities_List/img_manmade_28.png,,49,Fictional_Cities_List/img_manmade_28.png,MM,1,,,,,,,,,,,,,,,
null,,confidence_buffer,676841,confidence_buffer,,null,,,,,,,,,,,,,,,,,,
2373.5,,pt2_unique_rating,679215,Fictional_Cities_List/img_manmade_28.png,,52,,,4,,,,,,,,,,,,,,,
null,,confidence_buffer,679317,confidence_buffer,,null,,,,,,,,,,,,,,,,,,
2136.4000000059605,,pt2_memorable_rating,681454,Fictional_Cities_List/img_manmade_28.png,,51,,,3,,,,,,,,,,,,,,,
null,,confidence_buffer,681557,confidence_buffer,,null,,,,,,,,,,,,,,,,,,
2613.2999999821186,,probe_rating,684173,probe_rating,,51,,,,3,1,,,,,,,,,,,,,
null,,confidence_buffer,684275,confidence_buffer,,null,,,,,,,,,,,,,,,,,,
2664.300000011921,,recognition_phase,686940,Fictional_Cities_List/img_manmade_28.png,,52,,,,,,new,1,0.9565217391304348,,,,,,,,,,
null,,confidence_buffer,687042,confidence_buffer,,null,,,,,,,,,,,,,,,,,,
null,,thebreak,687542,break,,null,,,,,,,,,,,,,,,,,,
9272.5,,pt2_realistic_rating,696816,US_Cities_List/mm_duck.png,,50,US_Cities_List/mm_duck.png,MM,2,,,,,,,,,,,,,,,
null,,confidence_buffer,696918,confidence_buffer,,null,,,,,,,,,,,,,,,,,,
5198.300000011921,,pt2_unique_rating,702117,US_Cities_List/mm_duck.png,,52,,,4,,,,,,,,,,,,,,,
null,,confidence_buffer,702218,confidence_buffer,,null,,,,,,,,,,,,,,,,,,
3129.0999999940395,,pt2_memorable_rating,705349,US_Cities_List/mm_duck.png,,52,,,4,,,,,,,,,,,,,,,
null,,confidence_buffer,705452,confidence_buffer,,null,,,,,,,,,,,,,,,,,,
1934.5,,recognition_phase,707387,US_Cities_List/mm_duck.png,,52,,,,,,new,0,0.9166666666666666,,,,,,,,,,
null,,confidence_buffer,707489,confidence_buffer,,null,,,,,,,,,,,,,,,,,,
null,,thebreak,707991,break,,null,,,,,,,,,,,,,,,,,,
2968.9000000059605,,pt2_realistic_rating,710961,US_Cities_List/nat_peoria.png,,53,US_Cities_List/nat_peoria.png,NAT,5,,,,,,,,,,,,,,,
null,,confidence_buffer,711062,confidence_buffer,,null,,,,,,,,,,,,,,,,,,
2505,,pt2_unique_rating,713568,US_Cities_List/nat_peoria.png,,50,,,2,,,,,,,,,,,,,,,
null,,confidence_buffer,713671,confidence_buffer,,null,,,,,,,,,,,,,,,,,,
1591.199999988079,,pt2_memorable_rating,715263,US_Cities_List/nat_peoria.png,,51,,,3,,,,,,,,,,,,,,,
null,,confidence_buffer,715374,confidence_buffer,,null,,,,,,,,,,,,,,,,,,
2503.5999999940395,,recognition_phase,717881,US_Cities_List/nat_peoria.png,,52,,,,,,new,1,0.92,,,,,,,,,,
null,,confidence_buffer,717992,confidence_buffer,,null,,,,,,,,,,,,,,,,,,
null,,thebreak,718496,break,,null,,,,,,,,,,,,,,,,,,
2932.199999988079,,pt2_realistic_rating,721430,Fictional_Cities_List/img_natural_03.png,,49,Fictional_Cities_List/img_natural_03.png,NAT,1,,,,,,,,,,,,,,,
null,,confidence_buffer,721534,confidence_buffer,,null,,,,,,,,,,,,,,,,,,
2187.800000011921,,pt2_unique_rating,723723,Fictional_Cities_List/img_natural_03.png,,51,,,3,,,,,,,,,,,,,,,
null,,confidence_buffer,723824,confidence_buffer,,null,,,,,,,,,,,,,,,,,,
2305.4000000059605,,pt2_memorable_rating,726130,Fictional_Cities_List/img_natural_03.png,,50,,,2,,,,,,,,,,,,,,,
null,,confidence_buffer,726231,confidence_buffer,,null,,,,,,,,,,,,,,,,,,
2106.5999999940395,,recognition_phase,728340,Fictional_Cities_List/img_natural_03.png,,52,,,,,,new,1,0.9230769230769231,,,,,,,,,,
null,,confidence_buffer,728441,confidence_buffer,,null,,,,,,,,,,,,,,,,,,
null,,thebreak,728943,break,,null,,,,,,,,,,,,,,,,,,
3855.9000000059605,,pt2_realistic_rating,732799,Fictional_Cities_List/img_natural_05.png,,49,Fictional_Cities_List/img_natural_05.png,NAT,1,,,,,,,,,,,,,,,
null,,confidence_buffer,732900,confidence_buffer,,null,,,,,,,,,,,,,,,,,,
1880.2999999821186,,pt2_unique_rating,734782,Fictional_Cities_List/img_natural_05.png,,50,,,2,,,,,,,,,,,,,,,
null,,confidence_buffer,734884,confidence_buffer,,null,,,,,,,,,,,,,,,,,,
1930.699999988079,,pt2_memorable_rating,736816,Fictional_Cities_List/img_natural_05.png,,49,,,1,,,,,,,,,,,,,,,
null,,confidence_buffer,736918,confidence_buffer,,null,,,,,,,,,,,,,,,,,,
1933.7000000178814,,recognition_phase,738853,Fictional_Cities_List/img_natural_05.png,,52,,,,,,new,0,0.8888888888888888,,,,,,,,,,
null,,confidence_buffer,738955,confidence_buffer,,null,,,,,,,,,,,,,,,,,,
null,,thebreak,739469,break,,null,,,,,,,,,,,,,,,,,,
3908.5,,pt2_realistic_rating,743378,US_Cities_List/nat_hilo.png,,50,US_Cities_List/nat_hilo.png,NAT,2,,,,,,,,,,,,,,,
null,,confidence_buffer,743480,confidence_buffer,,null,,,,,,,,,,,,,,,,,,
1810,,pt2_unique_rating,745291,US_Cities_List/nat_hilo.png,,51,,,3,,,,,,,,,,,,,,,
null,,confidence_buffer,745393,confidence_buffer,,null,,,,,,,,,,,,,,,,,,
2248.300000011921,,pt2_memorable_rating,747642,US_Cities_List/nat_hilo.png,,52,,,4,,,,,,,,,,,,,,,
null,,confidence_buffer,747745,confidence_buffer,,null,,,,,,,,,,,,,,,,,,
2015.199999988079,,recognition_phase,749761,US_Cities_List/nat_hilo.png,,52,,,,,,new,1,0.8928571428571429,,,,,,,,,,
null,,confidence_buffer,749863,confidence_buffer,,null,,,,,,,,,,,,,,,,,,
null,,thebreak,750364,break,,null,,,,,,,,,,,,,,,,,,
3834.5,,pt2_realistic_rating,754200,US_Cities_List/nat_parkcity.png,,52,US_Cities_List/nat_parkcity.png,NAT,4,,,,,,,,,,,,,,,
null,,confidence_buffer,754301,confidence_buffer,,null,,,,,,,,,,,,,,,,,,
1734.800000011921,,pt2_unique_rating,756037,US_Cities_List/nat_parkcity.png,,50,,,2,,,,,,,,,,,,,,,
null,,confidence_buffer,756139,confidence_buffer,,null,,,,,,,,,,,,,,,,,,
2303.0999999940395,,pt2_memorable_rating,758443,US_Cities_List/nat_parkcity.png,,50,,,2,,,,,,,,,,,,,,,
null,,confidence_buffer,758545,confidence_buffer,,null,,,,,,,,,,,,,,,,,,
3626,,recognition_phase,762173,US_Cities_List/nat_parkcity.png,,49,,,,,,old,1,0.896551724137931,,,,,,,,,,
null,,confidence_buffer,762289,confidence_buffer,,null,,,,,,,,,,,,,,,,,,
null,,thebreak,762792,break,,null,,,,,,,,,,,,,,,,,,
5704.5999999940395,,pt2_realistic_rating,768497,US_Cities_List/mm_capemay.png,,53,US_Cities_List/mm_capemay.png,MM,5,,,,,,,,,,,,,,,
null,,confidence_buffer,768600,confidence_buffer,,null,,,,,,,,,,,,,,,,,,
2148.5999999940395,,pt2_unique_rating,770750,US_Cities_List/mm_capemay.png,,50,,,2,,,,,,,,,,,,,,,
null,,confidence_buffer,770852,confidence_buffer,,null,,,,,,,,,,,,,,,,,,
1314.2999999821186,,pt2_memorable_rating,772168,US_Cities_List/mm_capemay.png,,51,,,3,,,,,,,,,,,,,,,
null,,confidence_buffer,772269,confidence_buffer,,null,,,,,,,,,,,,,,,,,,
2773.899999976158,,recognition_phase,775044,US_Cities_List/mm_capemay.png,,50,,,,,,old,0,0.8666666666666667,,,,,,,,,,
null,,confidence_buffer,775146,confidence_buffer,,null,,,,,,,,,,,,,,,,,,
null,,thebreak,775647,break,,null,,,,,,,,,,,,,,,,,,
2675.4000000059605,,pt2_realistic_rating,778324,Fictional_Cities_List/img_manmade_21.png,,53,Fictional_Cities_List/img_manmade_21.png,MM,5,,,,,,,,,,,,,,,
null,,confidence_buffer,778426,confidence_buffer,,null,,,,,,,,,,,,,,,,,,
2462.5999999940395,,pt2_unique_rating,780890,Fictional_Cities_List/img_manmade_21.png,,52,,,4,,,,,,,,,,,,,,,
null,,confidence_buffer,780994,confidence_buffer,,null,,,,,,,,,,,,,,,,,,
2085.2999999821186,,probe_rating,783080,probe_rating,,51,,,,3,1,,,,,,,,,,,,,
null,,confidence_buffer,783182,confidence_buffer,,null,,,,,,,,,,,,,,,,,,
1273.4000000059605,,pt2_memorable_rating,784456,Fictional_Cities_List/img_manmade_21.png,,51,,,3,,,,,,,,,,,,,,,
null,,confidence_buffer,784557,confidence_buffer,,null,,,,,,,,,,,,,,,,,,
2107.0999999940395,,recognition_phase,786666,Fictional_Cities_List/img_manmade_21.png,,52,,,,,,new,1,0.8709677419354839,,,,,,,,,,
null,,confidence_buffer,786768,confidence_buffer,,null,,,,,,,,,,,,,,,,,,
null,,thebreak,787269,break,,null,,,,,,,,,,,,,,,,,,
3439.0999999940395,,pt2_realistic_rating,790709,Fictional_Cities_List/img_natural_07.png,,52,Fictional_Cities_List/img_natural_07.png,NAT,4,,,,,,,,,,,,,,,
null,,confidence_buffer,790810,confidence_buffer,,null,,,,,,,,,,,,,,,,,,
2562.2999999821186,,pt2_unique_rating,793373,Fictional_Cities_List/img_natural_07.png,,51,,,3,,,,,,,,,,,,,,,
null,,confidence_buffer,793476,confidence_buffer,,null,,,,,,,,,,,,,,,,,,
1454.5,,pt2_memorable_rating,794931,Fictional_Cities_List/img_natural_07.png,,51,,,3,,,,,,,,,,,,,,,
null,,confidence_buffer,795034,confidence_buffer,,null,,,,,,,,,,,,,,,,,,
2143.7000000178814,,recognition_phase,797179,Fictional_Cities_List/img_natural_07.png,,52,,,,,,new,0,0.84375,,,,,,,,,,
null,,confidence_buffer,797280,confidence_buffer,,null,,,,,,,,,,,,,,,,,,
null,,thebreak,797782,break,,null,,,,,,,,,,,,,,,,,,
5256.299999982119,,pt2_realistic_rating,803039,US_Cities_List/mm_cody.png,,52,US_Cities_List/mm_cody.png,MM,4,,,,,,,,,,,,,,,
null,,confidence_buffer,803140,confidence_buffer,,null,,,,,,,,,,,,,,,,,,
1561.9000000059605,,pt2_unique_rating,804703,US_Cities_List/mm_cody.png,,52,,,4,,,,,,,,,,,,,,,
null,,confidence_buffer,804805,confidence_buffer,,null,,,,,,,,,,,,,,,,,,
1184.5,,pt2_memorable_rating,805990,US_Cities_List/mm_cody.png,,52,,,4,,,,,,,,,,,,,,,
null,,confidence_buffer,806091,confidence_buffer,,null,,,,,,,,,,,,,,,,,,
2027.6000000238419,,recognition_phase,808120,US_Cities_List/mm_cody.png,,50,,,,,,old,1,0.8484848484848485,,,,,,,,,,
null,,confidence_buffer,808222,confidence_buffer,,null,,,,,,,,,,,,,,,,,,
null,,thebreak,808724,break,,null,,,,,,,,,,,,,,,,,,
3000,,pt2_realistic_rating,811725,US_Cities_List/nat_healdsburg.png,,52,US_Cities_List/nat_healdsburg.png,NAT,4,,,,,,,,,,,,,,,
null,,confidence_buffer,811827,confidence_buffer,,null,,,,,,,,,,,,,,,,,,
1766.9000000059605,,probe_rating,813595,probe_rating,,51,,,,3,1,,,,,,,,,,,,,
null,,confidence_buffer,813696,confidence_buffer,,null,,,,,,,,,,,,,,,,,,
2823.9000000059605,,pt2_unique_rating,816521,US_Cities_List/nat_healdsburg.png,,50,,,2,,,,,,,,,,,,,,,
null,,confidence_buffer,816623,confidence_buffer,,null,,,,,,,,,,,,,,,,,,
1585.7000000178814,,pt2_memorable_rating,818210,US_Cities_List/nat_healdsburg.png,,50,,,2,,,,,,,,,,,,,,,
null,,confidence_buffer,818315,confidence_buffer,,null,,,,,,,,,,,,,,,,,,
3491.5,,recognition_phase,821807,US_Cities_List/nat_healdsburg.png,,51,,,,,,new,0,0.8235294117647058,,,,,,,,,,
null,,confidence_buffer,821908,confidence_buffer,,null,,,,,,,,,,,,,,,,,,
null,,thebreak,822410,break,,null,,,,,,,,,,,,,,,,,,
3082.0999999940395,,pt2_realistic_rating,825493,US_Cities_List/mm_berkeleysprings.png,,53,US_Cities_List/mm_berkeleysprings.png,MM,5,,,,,,,,,,,,,,,
null,,confidence_buffer,825594,confidence_buffer,,null,,,,,,,,,,,,,,,,,,
2811.399999976158,,pt2_unique_rating,828407,US_Cities_List/mm_berkeleysprings.png,,52,,,4,,,,,,,,,,,,,,,
null,,confidence_buffer,828509,confidence_buffer,,null,,,,,,,,,,,,,,,,,,
1398.2999999821186,,probe_rating,829909,probe_rating,,51,,,,3,1,,,,,,,,,,,,,
null,,confidence_buffer,830012,confidence_buffer,,null,,,,,,,,,,,,,,,,,,
6963.5,,pt2_memorable_rating,836976,US_Cities_List/mm_berkeleysprings.png,,52,,,4,,,,,,,,,,,,,,,
null,,confidence_buffer,837078,confidence_buffer,,null,,,,,,,,,,,,,,,,,,
2873.699999988079,,recognition_phase,839953,US_Cities_List/mm_berkeleysprings.png,,52,,,,,,new,1,0.8285714285714286,,,,,,,,,,
null,,confidence_buffer,840055,confidence_buffer,,null,,,,,,,,,,,,,,,,,,
null,,thebreak,840556,break,,null,,,,,,,,,,,,,,,,,,
3016.5999999940395,,pt2_realistic_rating,843574,Fictional_Cities_List/img_natural_01.png,,53,Fictional_Cities_List/img_natural_01.png,NAT,5,,,,,,,,,,,,,,,
null,,confidence_buffer,843675,confidence_buffer,,null,,,,,,,,,,,,,,,,,,
2745,,pt2_unique_rating,846421,Fictional_Cities_List/img_natural_01.png,,50,,,2,,,,,,,,,,,,,,,
null,,confidence_buffer,846525,confidence_buffer,,null,,,,,,,,,,,,,,,,,,
1757.300000011921,,pt2_memorable_rating,848283,Fictional_Cities_List/img_natural_01.png,,50,,,2,,,,,,,,,,,,,,,
null,,confidence_buffer,848385,confidence_buffer,,null,,,,,,,,,,,,,,,,,,
3041.7000000178814,,recognition_phase,851429,Fictional_Cities_List/img_natural_01.png,,49,,,,,,old,1,0.8333333333333334,,,,,,,,,,
null,,confidence_buffer,851532,confidence_buffer,,null,,,,,,,,,,,,,,,,,,
null,,thebreak,852033,break,,null,,,,,,,,,,,,,,,,,,
2249.2000000178814,,pt2_realistic_rating,854283,US_Cities_List/nat_bisbee.png,,52,US_Cities_List/nat_bisbee.png,NAT,4,,,,,,,,,,,,,,,
null,,confidence_buffer,854386,confidence_buffer,,null,,,,,,,,,,,,,,,,,,
2708.7999999821186,,pt2_unique_rating,857095,US_Cities_List/nat_bisbee.png,,50,,,2,,,,,,,,,,,,,,,
null,,confidence_buffer,857197,confidence_buffer,,null,,,,,,,,,,,,,,,,,,
1337.5,,pt2_memorable_rating,858536,US_Cities_List/nat_bisbee.png,,50,,,2,,,,,,,,,,,,,,,
null,,confidence_buffer,858638,confidence_buffer,,null,,,,,,,,,,,,,,,,,,
3152.199999988079,,recognition_phase,861791,US_Cities_List/nat_bisbee.png,,50,,,,,,old,1,0.8378378378378378,,,,,,,,,,
null,,confidence_buffer,861893,confidence_buffer,,null,,,,,,,,,,,,,,,,,,
null,,thebreak,862394,break,,null,,,,,,,,,,,,,,,,,,
2976.2999999821186,,pt2_realistic_rating,865371,Fictional_Cities_List/img_manmade_49.png,,53,Fictional_Cities_List/img_manmade_49.png,MM,5,,,,,,,,,,,,,,,
null,,confidence_buffer,865474,confidence_buffer,,null,,,,,,,,,,,,,,,,,,
2230,,pt2_unique_rating,867706,Fictional_Cities_List/img_manmade_49.png,,51,,,3,,,,,,,,,,,,,,,
null,,confidence_buffer,867807,confidence_buffer,,null,,,,,,,,,,,,,,,,,,
1800.9000000059605,,probe_rating,869609,probe_rating,,52,,,,4,1,,,,,,,,,,,,,
null,,confidence_buffer,869712,confidence_buffer,,null,,,,,,,,,,,,,,,,,,
2736.5999999940395,,pt2_memorable_rating,872451,Fictional_Cities_List/img_manmade_49.png,,52,,,4,,,,,,,,,,,,,,,
null,,confidence_buffer,872553,confidence_buffer,,null,,,,,,,,,,,,,,,,,,
3876.5999999940395,,recognition_phase,876430,Fictional_Cities_List/img_manmade_49.png,,52,,,,,,new,1,0.8421052631578947,,,,,,,,,,
null,,confidence_buffer,876531,confidence_buffer,,null,,,,,,,,,,,,,,,,,,
null,,thebreak,877033,break,,null,,,,,,,,,,,,,,,,,,
2843.5999999940395,,pt2_realistic_rating,879877,Fictional_Cities_List/img_natural_22.png,,49,Fictional_Cities_List/img_natural_22.png,NAT,1,,,,,,,,,,,,,,,
null,,confidence_buffer,879979,confidence_buffer,,null,,,,,,,,,,,,,,,,,,
1600.4000000059605,,pt2_unique_rating,881580,Fictional_Cities_List/img_natural_22.png,,50,,,2,,,,,,,,,,,,,,,
null,,confidence_buffer,881682,confidence_buffer,,null,,,,,,,,,,,,,,,,,,
2592.800000011921,,pt2_memorable_rating,884278,Fictional_Cities_List/img_natural_22.png,,50,,,2,,,,,,,,,,,,,,,
null,,confidence_buffer,884380,confidence_buffer,,null,,,,,,,,,,,,,,,,,,
2318.5,,recognition_phase,886700,Fictional_Cities_List/img_natural_22.png,,52,,,,,,new,0,0.8205128205128205,,,,,,,,,,
null,,confidence_buffer,886802,confidence_buffer,,null,,,,,,,,,,,,,,,,,,
null,,thebreak,887303,break,,null,,,,,,,,,,,,,,,,,,
3266.0999999940395,,pt2_realistic_rating,890570,US_Cities_List/mm_bisbee.png,,53,US_Cities_List/mm_bisbee.png,MM,5,,,,,,,,,,,,,,,
null,,confidence_buffer,890672,confidence_buffer,,null,,,,,,,,,,,,,,,,,,
2551,,probe_rating,893224,probe_rating,,53,,,,5,1,,,,,,,,,,,,,
null,,confidence_buffer,893325,confidence_buffer,,null,,,,,,,,,,,,,,,,,,
2400.9000000059605,,pt2_unique_rating,895727,US_Cities_List/mm_bisbee.png,,51,,,3,,,,,,,,,,,,,,,
null,,confidence_buffer,895828,confidence_buffer,,null,,,,,,,,,,,,,,,,,,
3375.0999999940395,,pt2_memorable_rating,899204,US_Cities_List/mm_bisbee.png,,51,,,3,,,,,,,,,,,,,,,
null,,confidence_buffer,899306,confidence_buffer,,null,,,,,,,,,,,,,,,,,,
2000,,recognition_phase,901307,US_Cities_List/mm_bisbee.png,,50,,,,,,old,1,0.825,,,,,,,,,,
null,,confidence_buffer,901409,confidence_buffer,,null,,,,,,,,,,,,,,,,,,
null,,thebreak,901914,break,,null,,,,,,,,,,,,,,,,,,
2720.0999999940395,,pt2_realistic_rating,904635,Fictional_Cities_List/img_manmade_01.png,,52,Fictional_Cities_List/img_manmade_01.png,MM,4,,,,,,,,,,,,,,,
null,,confidence_buffer,904736,confidence_buffer,,null,,,,,,,,,,,,,,,,,,
2494.800000011921,,pt2_unique_rating,907236,Fictional_Cities_List/img_manmade_01.png,,52,,,4,,,,,,,,,,,,,,,
null,,confidence_buffer,907338,confidence_buffer,,null,,,,,,,,,,,,,,,,,,
1015.7000000178814,,pt2_memorable_rating,908354,Fictional_Cities_List/img_manmade_01.png,,52,,,4,,,,,,,,,,,,,,,
null,,confidence_buffer,908455,confidence_buffer,,null,,,,,,,,,,,,,,,,,,
5940.700000017881,,recognition_phase,914397,Fictional_Cities_List/img_manmade_01.png,,52,,,,,,new,1,0.8292682926829268,,,,,,,,,,
null,,confidence_buffer,914498,confidence_buffer,,null,,,,,,,,,,,,,,,,,,
null,,thebreak,915000,break,,null,,,,,,,,,,,,,,,,,,
2219.4000000059605,,pt2_realistic_rating,917221,Fictional_Cities_List/img_manmade_07.png,,53,Fictional_Cities_List/img_manmade_07.png,MM,5,,,,,,,,,,,,,,,
null,,confidence_buffer,917322,confidence_buffer,,null,,,,,,,,,,,,,,,,,,
1810.5999999940395,,pt2_unique_rating,919134,Fictional_Cities_List/img_manmade_07.png,,50,,,2,,,,,,,,,,,,,,,
null,,confidence_buffer,919235,confidence_buffer,,null,,,,,,,,,,,,,,,,,,
1486.7000000178814,,pt2_memorable_rating,920723,Fictional_Cities_List/img_manmade_07.png,,51,,,3,,,,,,,,,,,,,,,
null,,confidence_buffer,920824,confidence_buffer,,null,,,,,,,,,,,,,,,,,,
2032.300000011921,,probe_rating,922857,probe_rating,,50,,,,2,1,,,,,,,,,,,,,
null,,confidence_buffer,922959,confidence_buffer,,null,,,,,,,,,,,,,,,,,,
2936.2000000178814,,recognition_phase,925896,Fictional_Cities_List/img_manmade_07.png,,49,,,,,,old,1,0.8333333333333334,,,,,,,,,,
null,,confidence_buffer,925998,confidence_buffer,,null,,,,,,,,,,,,,,,,,,
null,,thebreak,926499,break,,null,,,,,,,,,,,,,,,,,,
2884.4000000059605,,pt2_realistic_rating,929384,Fictional_Cities_List/img_manmade_27.png,,50,Fictional_Cities_List/img_manmade_27.png,MM,2,,,,,,,,,,,,,,,
null,,confidence_buffer,929487,confidence_buffer,,null,,,,,,,,,,,,,,,,,,
958.0999999940395,,pt2_unique_rating,930446,Fictional_Cities_List/img_manmade_27.png,,50,,,2,,,,,,,,,,,,,,,
null,,confidence_buffer,930549,confidence_buffer,,null,,,,,,,,,,,,,,,,,,
2079.399999976158,,pt2_memorable_rating,932630,Fictional_Cities_List/img_manmade_27.png,,52,,,4,,,,,,,,,,,,,,,
null,,confidence_buffer,932732,confidence_buffer,,null,,,,,,,,,,,,,,,,,,
1871.9000000059605,,probe_rating,934604,probe_rating,,53,,,,5,1,,,,,,,,,,,,,
null,,confidence_buffer,934707,confidence_buffer,,null,,,,,,,,,,,,,,,,,,
2359.300000011921,,recognition_phase,937067,Fictional_Cities_List/img_manmade_27.png,,49,,,,,,old,1,0.8372093023255814,,,,,,,,,,
null,,confidence_buffer,937168,confidence_buffer,,null,,,,,,,,,,,,,,,,,,
null,,thebreak,937670,break,,null,,,,,,,,,,,,,,,,,,
3116.0999999940395,,pt2_realistic_rating,940787,US_Cities_List/mm_newport.png,,51,US_Cities_List/mm_newport.png,MM,3,,,,,,,,,,,,,,,
null,,confidence_buffer,940889,confidence_buffer,,null,,,,,,,,,,,,,,,,,,
2448.800000011921,,pt2_unique_rating,943339,US_Cities_List/mm_newport.png,,52,,,4,,,,,,,,,,,,,,,
null,,confidence_buffer,943441,confidence_buffer,,null,,,,,,,,,,,,,,,,,,
1032.0999999940395,,pt2_memorable_rating,944474,US_Cities_List/mm_newport.png,,52,,,4,,,,,,,,,,,,,,,
null,,confidence_buffer,944575,confidence_buffer,,null,,,,,,,,,,,,,,,,,,
2375,,recognition_phase,946951,US_Cities_List/mm_newport.png,,52,,,,,,new,1,0.8409090909090909,,,,,,,,,,
null,,confidence_buffer,947053,confidence_buffer,,null,,,,,,,,,,,,,,,,,,
null,,thebreak,947555,break,,null,,,,,,,,,,,,,,,,,,
2489.0999999940395,,pt2_realistic_rating,950045,Fictional_Cities_List/img_manmade_06.png,,53,Fictional_Cities_List/img_manmade_06.png,MM,5,,,,,,,,,,,,,,,
null,,confidence_buffer,950147,confidence_buffer,,null,,,,,,,,,,,,,,,,,,
2192.0999999940395,,pt2_unique_rating,952340,Fictional_Cities_List/img_manmade_06.png,,50,,,2,,,,,,,,,,,,,,,
null,,confidence_buffer,952443,confidence_buffer,,null,,,,,,,,,,,,,,,,,,
1184.800000011921,,pt2_memorable_rating,953629,Fictional_Cities_List/img_manmade_06.png,,51,,,3,,,,,,,,,,,,,,,
null,,confidence_buffer,953732,confidence_buffer,,null,,,,,,,,,,,,,,,,,,
4277.5999999940395,,recognition_phase,958010,Fictional_Cities_List/img_manmade_06.png,,49,,,,,,old,1,0.8444444444444444,,,,,,,,,,
null,,confidence_buffer,958121,confidence_buffer,,null,,,,,,,,,,,,,,,,,,
null,,thebreak,958621,break,,null,,,,,,,,,,,,,,,,,,
2154.300000011921,,pt2_realistic_rating,960777,US_Cities_List/nat_newport.png,,53,US_Cities_List/nat_newport.png,NAT,5,,,,,,,,,,,,,,,
null,,confidence_buffer,960878,confidence_buffer,,null,,,,,,,,,,,,,,,,,,
2544.9000000059605,,pt2_unique_rating,963424,US_Cities_List/nat_newport.png,,49,,,1,,,,,,,,,,,,,,,
null,,confidence_buffer,963526,confidence_buffer,,null,,,,,,,,,,,,,,,,,,
1481.0999999940395,,pt2_memorable_rating,965009,US_Cities_List/nat_newport.png,,50,,,2,,,,,,,,,,,,,,,
null,,confidence_buffer,965111,confidence_buffer,,null,,,,,,,,,,,,,,,,,,
3335.0999999940395,,recognition_phase,968447,US_Cities_List/nat_newport.png,,49,,,,,,old,1,0.8478260869565217,,,,,,,,,,
null,,confidence_buffer,968548,confidence_buffer,,null,,,,,,,,,,,,,,,,,,
null,,thebreak,969049,break,,null,,,,,,,,,,,,,,,,,,
3073.300000011921,,pt2_realistic_rating,972123,Fictional_Cities_List/img_natural_20.png,,51,Fictional_Cities_List/img_natural_20.png,NAT,3,,,,,,,,,,,,,,,
null,,confidence_buffer,972224,confidence_buffer,,null,,,,,,,,,,,,,,,,,,
1714.199999988079,,pt2_unique_rating,973939,Fictional_Cities_List/img_natural_20.png,,51,,,3,,,,,,,,,,,,,,,
null,,confidence_buffer,974042,confidence_buffer,,null,,,,,,,,,,,,,,,,,,
1424.199999988079,,pt2_memorable_rating,975467,Fictional_Cities_List/img_natural_20.png,,51,,,3,,,,,,,,,,,,,,,
null,,confidence_buffer,975571,confidence_buffer,,null,,,,,,,,,,,,,,,,,,
2781.4000000059605,,recognition_phase,978354,Fictional_Cities_List/img_natural_20.png,,49,,,,,,old,1,0.851063829787234,,,,,,,,,,
null,,confidence_buffer,978456,confidence_buffer,,null,,,,,,,,,,,,,,,,,,
null,,thebreak,978957,break,,null,,,,,,,,,,,,,,,,,,
2698.2999999821186,,pt2_realistic_rating,981656,US_Cities_List/mm_albuquerque.png,,53,US_Cities_List/mm_albuquerque.png,MM,5,,,,,,,,,,,,,,,
null,,confidence_buffer,981758,confidence_buffer,,null,,,,,,,,,,,,,,,,,,
3566.2999999821186,,pt2_unique_rating,985325,US_Cities_List/mm_albuquerque.png,,50,,,2,,,,,,,,,,,,,,,
null,,confidence_buffer,985428,confidence_buffer,,null,,,,,,,,,,,,,,,,,,
1936.300000011921,,pt2_memorable_rating,987365,US_Cities_List/mm_albuquerque.png,,51,,,3,,,,,,,,,,,,,,,
null,,confidence_buffer,987466,confidence_buffer,,null,,,,,,,,,,,,,,,,,,
2025.6000000238419,,recognition_phase,989493,US_Cities_List/mm_albuquerque.png,,52,,,,,,new,1,0.8541666666666666,,,,,,,,,,
null,,confidence_buffer,989594,confidence_buffer,,null,,,,,,,,,,,,,,,,,,
null,,thebreak,990096,break,,null,,,,,,,,,,,,,,,,,,
3440.0999999940395,,pt2_realistic_rating,993538,Fictional_Cities_List/img_natural_06.png,,51,Fictional_Cities_List/img_natural_06.png,NAT,3,,,,,,,,,,,,,,,
null,,confidence_buffer,993639,confidence_buffer,,null,,,,,,,,,,,,,,,,,,
1705.800000011921,,pt2_unique_rating,995345,Fictional_Cities_List/img_natural_06.png,,52,,,4,,,,,,,,,,,,,,,
null,,confidence_buffer,995447,confidence_buffer,,null,,,,,,,,,,,,,,,,,,
1968,,pt2_memorable_rating,997416,Fictional_Cities_List/img_natural_06.png,,51,,,3,,,,,,,,,,,,,,,
null,,confidence_buffer,997517,confidence_buffer,,null,,,,,,,,,,,,,,,,,,
2643.0999999940395,,recognition_phase,1000161,Fictional_Cities_List/img_natural_06.png,,52,,,,,,new,1,0.8571428571428571,,,,,,,,,,
null,,confidence_buffer,1000262,confidence_buffer,,null,,,,,,,,,,,,,,,,,,
null,,thebreak,1000765,break,,null,,,,,,,,,,,,,,,,,,
3007.800000011921,,pt2_realistic_rating,1003774,Fictional_Cities_List/img_manmade_43.png,,52,Fictional_Cities_List/img_manmade_43.png,MM,4,,,,,,,,,,,,,,,
null,,confidence_buffer,1003875,confidence_buffer,,null,,,,,,,,,,,,,,,,,,
2600,,pt2_unique_rating,1006476,Fictional_Cities_List/img_manmade_43.png,,51,,,3,,,,,,,,,,,,,,,
null,,confidence_buffer,1006578,confidence_buffer,,null,,,,,,,,,,,,,,,,,,
2105,,pt2_memorable_rating,1008684,Fictional_Cities_List/img_manmade_43.png,,52,,,4,,,,,,,,,,,,,,,
null,,confidence_buffer,1008788,confidence_buffer,,null,,,,,,,,,,,,,,,,,,
3197.2999999821186,,recognition_phase,1011987,Fictional_Cities_List/img_manmade_43.png,,52,,,,,,new,0,0.84,,,,,,,,,,
null,,confidence_buffer,1012091,confidence_buffer,,null,,,,,,,,,,,,,,,,,,
null,,thebreak,1012593,break,,null,,,,,,,,,,,,,,,,,,
3086.9000000059605,,pt2_realistic_rating,1015680,Fictional_Cities_List/img_natural_49.png,,52,Fictional_Cities_List/img_natural_49.png,NAT,4,,,,,,,,,,,,,,,
null,,confidence_buffer,1015782,confidence_buffer,,null,,,,,,,,,,,,,,,,,,
1793.2999999821186,,pt2_unique_rating,1017576,Fictional_Cities_List/img_natural_49.png,,51,,,3,,,,,,,,,,,,,,,
null,,confidence_buffer,1017681,confidence_buffer,,null,,,,,,,,,,,,,,,,,,
1815,,pt2_memorable_rating,1019498,Fictional_Cities_List/img_natural_49.png,,51,,,3,,,,,,,,,,,,,,,
null,,confidence_buffer,1019600,confidence_buffer,,null,,,,,,,,,,,,,,,,,,
1972.1000000238419,,probe_rating,1021574,probe_rating,,51,,,,3,1,,,,,,,,,,,,,
null,,confidence_buffer,1021684,confidence_buffer,,null,,,,,,,,,,,,,,,,,,
2151.800000011921,,recognition_phase,1023837,Fictional_Cities_List/img_natural_49.png,,52,,,,,,new,0,0.8235294117647058,,,,,,,,,,
null,,confidence_buffer,1023940,confidence_buffer,,null,,,,,,,,,,,,,,,,,,
null,,thebreak,1024440,break,,null,,,,,,,,,,,,,,,,,,
2866.0999999940395,,pt2_realistic_rating,1027307,US_Cities_List/nat_gardnerville.png,,51,US_Cities_List/nat_gardnerville.png,NAT,3,,,,,,,,,,,,,,,
null,,confidence_buffer,1027409,confidence_buffer,,null,,,,,,,,,,,,,,,,,,
2299.4000000059605,,pt2_unique_rating,1029709,US_Cities_List/nat_gardnerville.png,,50,,,2,,,,,,,,,,,,,,,
null,,confidence_buffer,1029812,confidence_buffer,,null,,,,,,,,,,,,,,,,,,
1484.300000011921,,pt2_memorable_rating,1031297,US_Cities_List/nat_gardnerville.png,,50,,,2,,,,,,,,,,,,,,,
null,,confidence_buffer,1031398,confidence_buffer,,null,,,,,,,,,,,,,,,,,,
2217.0999999940395,,recognition_phase,1033616,US_Cities_List/nat_gardnerville.png,,52,,,,,,new,1,0.8269230769230769,,,,,,,,,,
null,,confidence_buffer,1033718,confidence_buffer,,null,,,,,,,,,,,,,,,,,,
null,,thebreak,1034220,break,,null,,,,,,,,,,,,,,,,,,
5585,,pt2_realistic_rating,1039806,US_Cities_List/mm_westpalmbeach.png,,51,US_Cities_List/mm_westpalmbeach.png,MM,3,,,,,,,,,,,,,,,
null,,confidence_buffer,1039908,confidence_buffer,,null,,,,,,,,,,,,,,,,,,
2119.199999988079,,pt2_unique_rating,1042029,US_Cities_List/mm_westpalmbeach.png,,53,,,5,,,,,,,,,,,,,,,
null,,confidence_buffer,1042130,confidence_buffer,,null,,,,,,,,,,,,,,,,,,
1199.800000011921,,pt2_memorable_rating,1043331,US_Cities_List/mm_westpalmbeach.png,,53,,,5,,,,,,,,,,,,,,,
null,,confidence_buffer,1043433,confidence_buffer,,null,,,,,,,,,,,,,,,,,,
2247.7000000178814,,recognition_phase,1045683,US_Cities_List/mm_westpalmbeach.png,,49,,,,,,old,1,0.8301886792452831,,,,,,,,,,
null,,confidence_buffer,1045784,confidence_buffer,,null,,,,,,,,,,,,,,,,,,
null,,thebreak,1046286,break,,null,,,,,,,,,,,,,,,,,,
3514.2000000178814,,pt2_realistic_rating,1049802,US_Cities_List/nat_watkinsglen.png,,52,US_Cities_List/nat_watkinsglen.png,NAT,4,,,,,,,,,,,,,,,
null,,confidence_buffer,1049903,confidence_buffer,,null,,,,,,,,,,,,,,,,,,
3047.5999999940395,,pt2_unique_rating,1052951,US_Cities_List/nat_watkinsglen.png,,51,,,3,,,,,,,,,,,,,,,
null,,confidence_buffer,1053053,confidence_buffer,,null,,,,,,,,,,,,,,,,,,
1783.7999999821186,,pt2_memorable_rating,1054838,US_Cities_List/nat_watkinsglen.png,,51,,,3,,,,,,,,,,,,,,,
null,,confidence_buffer,1054939,confidence_buffer,,null,,,,,,,,,,,,,,,,,,
3289.2000000178814,,recognition_phase,1058230,US_Cities_List/nat_watkinsglen.png,,49,,,,,,old,0,0.8148148148148148,,,,,,,,,,
null,,confidence_buffer,1058331,confidence_buffer,,null,,,,,,,,,,,,,,,,,,
null,,thebreak,1058832,break,,null,,,,,,,,,,,,,,,,,,
4171.4000000059605,,pt2_realistic_rating,1063005,Fictional_Cities_List/img_natural_28.png,,49,Fictional_Cities_List/img_natural_28.png,NAT,1,,,,,,,,,,,,,,,
null,,confidence_buffer,1063109,confidence_buffer,,null,,,,,,,,,,,,,,,,,,
1934.5,,pt2_unique_rating,1065044,Fictional_Cities_List/img_natural_28.png,,50,,,2,,,,,,,,,,,,,,,
null,,confidence_buffer,1065145,confidence_buffer,,null,,,,,,,,,,,,,,,,,,
1375.2999999821186,,pt2_memorable_rating,1066521,Fictional_Cities_List/img_natural_28.png,,49,,,1,,,,,,,,,,,,,,,
null,,confidence_buffer,1066624,confidence_buffer,,null,,,,,,,,,,,,,,,,,,
2343,,recognition_phase,1068968,Fictional_Cities_List/img_natural_28.png,,52,,,,,,new,0,0.8,,,,,,,,,,
null,,confidence_buffer,1069070,confidence_buffer,,null,,,,,,,,,,,,,,,,,,
null,,thebreak,1069572,break,,null,,,,,,,,,,,,,,,,,,
6866.299999982119,,pt2_realistic_rating,1076439,US_Cities_List/mm_sanantonio.png,,51,US_Cities_List/mm_sanantonio.png,MM,3,,,,,,,,,,,,,,,
null,,confidence_buffer,1076540,confidence_buffer,,null,,,,,,,,,,,,,,,,,,
1887.5,,pt2_unique_rating,1078428,US_Cities_List/mm_sanantonio.png,,53,,,5,,,,,,,,,,,,,,,
null,,confidence_buffer,1078531,confidence_buffer,,null,,,,,,,,,,,,,,,,,,
960.7000000178814,,pt2_memorable_rating,1079492,US_Cities_List/mm_sanantonio.png,,53,,,5,,,,,,,,,,,,,,,
null,,confidence_buffer,1079594,confidence_buffer,,null,,,,,,,,,,,,,,,,,,
1887.699999988079,,recognition_phase,1081482,US_Cities_List/mm_sanantonio.png,,49,,,,,,old,1,0.8035714285714286,,,,,,,,,,
null,,confidence_buffer,1081584,confidence_buffer,,null,,,,,,,,,,,,,,,,,,
null,,thebreak,1082085,break,,null,,,,,,,,,,,,,,,,,,
2359.800000011921,,pt2_realistic_rating,1084449,US_Cities_List/nat_barharbor.png,,53,US_Cities_List/nat_barharbor.png,NAT,5,,,,,,,,,,,,,,,
null,,confidence_buffer,1084550,confidence_buffer,,null,,,,,,,,,,,,,,,,,,
2961.800000011921,,pt2_unique_rating,1087515,US_Cities_List/nat_barharbor.png,,50,,,2,,,,,,,,,,,,,,,
null,,confidence_buffer,1087617,confidence_buffer,,null,,,,,,,,,,,,,,,,,,
1446.0999999940395,,pt2_memorable_rating,1089064,US_Cities_List/nat_barharbor.png,,51,,,3,,,,,,,,,,,,,,,
null,,confidence_buffer,1089167,confidence_buffer,,null,,,,,,,,,,,,,,,,,,
2477.899999976158,,recognition_phase,1091646,US_Cities_List/nat_barharbor.png,,49,,,,,,old,1,0.8070175438596491,,,,,,,,,,
null,,confidence_buffer,1091748,confidence_buffer,,null,,,,,,,,,,,,,,,,,,
null,,thebreak,1092250,break,,null,,,,,,,,,,,,,,,,,,
3138.899999976158,,pt2_realistic_rating,1095391,US_Cities_List/mm_bowlinggreen.png,,53,US_Cities_List/mm_bowlinggreen.png,MM,5,,,,,,,,,,,,,,,
null,,confidence_buffer,1095493,confidence_buffer,,null,,,,,,,,,,,,,,,,,,
2614,,pt2_unique_rating,1098108,US_Cities_List/mm_bowlinggreen.png,,51,,,3,,,,,,,,,,,,,,,
null,,confidence_buffer,1098212,confidence_buffer,,null,,,,,,,,,,,,,,,,,,
1662.6000000238419,,pt2_memorable_rating,1099875,US_Cities_List/mm_bowlinggreen.png,,52,,,4,,,,,,,,,,,,,,,
null,,confidence_buffer,1099978,confidence_buffer,,null,,,,,,,,,,,,,,,,,,
2405.9000000059605,,recognition_phase,1102385,US_Cities_List/mm_bowlinggreen.png,,52,,,,,,new,1,0.8103448275862069,,,,,,,,,,
null,,confidence_buffer,1102487,confidence_buffer,,null,,,,,,,,,,,,,,,,,,
null,,thebreak,1102988,break,,null,,,,,,,,,,,,,,,,,,
2780.199999988079,,pt2_realistic_rating,1105769,Fictional_Cities_List/img_manmade_19.png,,53,Fictional_Cities_List/img_manmade_19.png,MM,5,,,,,,,,,,,,,,,
null,,confidence_buffer,1105873,confidence_buffer,,null,,,,,,,,,,,,,,,,,,
1326,,probe_rating,1107201,probe_rating,,53,,,,5,1,,,,,,,,,,,,,
null,,confidence_buffer,1107304,confidence_buffer,,null,,,,,,,,,,,,,,,,,,
2237.800000011921,,pt2_unique_rating,1109543,Fictional_Cities_List/img_manmade_19.png,,52,,,4,,,,,,,,,,,,,,,
null,,confidence_buffer,1109644,confidence_buffer,,null,,,,,,,,,,,,,,,,,,
1432.7999999821186,,pt2_memorable_rating,1111077,Fictional_Cities_List/img_manmade_19.png,,52,,,4,,,,,,,,,,,,,,,
null,,confidence_buffer,1111190,confidence_buffer,,null,,,,,,,,,,,,,,,,,,
3795.9000000059605,,recognition_phase,1114987,Fictional_Cities_List/img_manmade_19.png,,49,,,,,,old,1,0.8135593220338984,,,,,,,,,,
null,,confidence_buffer,1115090,confidence_buffer,,null,,,,,,,,,,,,,,,,,,
null,,thebreak,1115593,break,,null,,,,,,,,,,,,,,,,,,
2912,,pt2_realistic_rating,1118507,US_Cities_List/nat_okoboji.png,,52,US_Cities_List/nat_okoboji.png,NAT,4,,,,,,,,,,,,,,,
null,,confidence_buffer,1118610,confidence_buffer,,null,,,,,,,,,,,,,,,,,,
2382.9000000059605,,pt2_unique_rating,1120994,US_Cities_List/nat_okoboji.png,,51,,,3,,,,,,,,,,,,,,,
null,,confidence_buffer,1121096,confidence_buffer,,null,,,,,,,,,,,,,,,,,,
1710.5999999940395,,pt2_memorable_rating,1122808,US_Cities_List/nat_okoboji.png,,52,,,4,,,,,,,,,,,,,,,
null,,confidence_buffer,1122909,confidence_buffer,,null,,,,,,,,,,,,,,,,,,
2129,,recognition_phase,1125040,US_Cities_List/nat_okoboji.png,,52,,,,,,new,1,0.8166666666666667,,,,,,,,,,
null,,confidence_buffer,1125143,confidence_buffer,,null,,,,,,,,,,,,,,,,,,
null,,thebreak,1125644,break,,null,,,,,,,,,,,,,,,,,,
,,survey,1333350,survey-questions,,,,,,,,,,,none,high,no,i just tried to remember what i had seen before and answer the questions as they come up,is it a slice of americana or scenes i am familiar with,does it make me think of something similar,is it something i dont see all the time,does it look like something that actually exists,no,no
