rt,responses,trial_type,time_elapsed,stimulus,button_pressed,key_press,name_trial,city_type,rating,probe,probe_accuracy,response,correct,accuracy,problems,smooth,distraction,strategies,familiar,memorable,unique,realistic,similar,comments
7617.300000011921,{worker_id:64aff8a2c8ddc83286a349c3},id_enter,7621,,,,,,,,,,,,,,,,,,,,,
9848.800000011921,,fullscreen,17477,fullscreen,0,,,,,,,,,,,,,,,,,,,
5700.300000011921,,intro_0,23181,instruct,,32,,,,,,,,,,,,,,,,,,
9560,,intro_1,32744,instruct,,32,,,,,,,,,,,,,,,,,,
5955,,intro_2,38701,instruct,,32,,,,,,,,,,,,,,,,,,
null,,instruct_dir_4,40202,instruct,,null,,,,,,,,,,,,,,,,,,
null,,thebreak,40705,break,,null,,,,,,,,,,,,,,,,,,
9444.5,,familiar_rating,50152,Fictional_Cities_List/img_natural_22.png,,49,Fictional_Cities_List/img_natural_22.png,NAT,1,,,,,,,,,,,,,,,
null,,confidence_buffer,50257,confidence_buffer,,null,,,,,,,,,,,,,,,,,,
8832.300000011921,,unique_rating,59092,Fictional_Cities_List/img_natural_22.png,,50,,,2,,,,,,,,,,,,,,,
null,,confidence_buffer,59195,confidence_buffer,,null,,,,,,,,,,,,,,,,,,
6754.199999988079,,memorable_rating,65952,Fictional_Cities_List/img_natural_22.png,,50,,,2,,,,,,,,,,,,,,,
null,,confidence_buffer,66054,confidence_buffer,,null,,,,,,,,,,,,,,,,,,
null,,thebreak,66555,break,,null,,,,,,,,,,,,,,,,,,
7024.699999988079,,familiar_rating,73583,US_Cities_List/mm_sitka.png,,49,US_Cities_List/mm_sitka.png,MM,1,,,,,,,,,,,,,,,
null,,confidence_buffer,73688,confidence_buffer,,null,,,,,,,,,,,,,,,,,,
11452.5,,unique_rating,85143,US_Cities_List/mm_sitka.png,,52,,,4,,,,,,,,,,,,,,,
null,,confidence_buffer,85245,confidence_buffer,,null,,,,,,,,,,,,,,,,,,
2205.199999988079,,memorable_rating,87452,US_Cities_List/mm_sitka.png,,52,,,4,,,,,,,,,,,,,,,
null,,confidence_buffer,87554,confidence_buffer,,null,,,,,,,,,,,,,,,,,,
null,,thebreak,88057,break,,null,,,,,,,,,,,,,,,,,,
9290.100000023842,,familiar_rating,97349,Fictional_Cities_List/img_manmade_45.png,,49,Fictional_Cities_List/img_manmade_45.png,MM,1,,,,,,,,,,,,,,,
null,,confidence_buffer,97451,confidence_buffer,,null,,,,,,,,,,,,,,,,,,
3928.699999988079,,unique_rating,101382,Fictional_Cities_List/img_manmade_45.png,,50,,,2,,,,,,,,,,,,,,,
null,,confidence_buffer,101485,confidence_buffer,,null,,,,,,,,,,,,,,,,,,
2825.100000023842,,memorable_rating,104312,Fictional_Cities_List/img_manmade_45.png,,50,,,2,,,,,,,,,,,,,,,
null,,confidence_buffer,104414,confidence_buffer,,null,,,,,,,,,,,,,,,,,,
null,,thebreak,104918,break,,null,,,,,,,,,,,,,,,,,,
5202.399999976158,,familiar_rating,110123,Fictional_Cities_List/img_natural_20.png,,49,Fictional_Cities_List/img_natural_20.png,NAT,1,,,,,,,,,,,,,,,
null,,confidence_buffer,110228,confidence_buffer,,null,,,,,,,,,,,,,,,,,,
3813.300000011921,,unique_rating,114044,Fictional_Cities_List/img_natural_20.png,,52,,,4,,,,,,,,,,,,,,,
null,,confidence_buffer,114146,confidence_buffer,,null,,,,,,,,,,,,,,,,,,
5175.199999988079,,memorable_rating,119324,Fictional_Cities_List/img_natural_20.png,,53,,,5,,,,,,,,,,,,,,,
null,,confidence_buffer,119426,confidence_buffer,,null,,,,,,,,,,,,,,,,,,
null,,thebreak,119928,break,,null,,,,,,,,,,,,,,,,,,
7092.699999988079,,familiar_rating,127023,Fictional_Cities_List/img_manmade_06.png,,49,Fictional_Cities_List/img_manmade_06.png,MM,1,,,,,,,,,,,,,,,
null,,confidence_buffer,127127,confidence_buffer,,null,,,,,,,,,,,,,,,,,,
6642.099999964237,,unique_rating,133771,Fictional_Cities_List/img_manmade_06.png,,50,,,2,,,,,,,,,,,,,,,
null,,confidence_buffer,133873,confidence_buffer,,null,,,,,,,,,,,,,,,,,,
9227.599999964237,,memorable_rating,143101,Fictional_Cities_List/img_manmade_06.png,,50,,,2,,,,,,,,,,,,,,,
null,,confidence_buffer,143204,confidence_buffer,,null,,,,,,,,,,,,,,,,,,
null,,thebreak,143707,break,,null,,,,,,,,,,,,,,,,,,
6093.100000023842,,familiar_rating,149802,US_Cities_List/mm_hilo.png,,49,US_Cities_List/mm_hilo.png,MM,1,,,,,,,,,,,,,,,
null,,confidence_buffer,149905,confidence_buffer,,null,,,,,,,,,,,,,,,,,,
5754.299999952316,,unique_rating,155661,US_Cities_List/mm_hilo.png,,52,,,4,,,,,,,,,,,,,,,
null,,confidence_buffer,155763,confidence_buffer,,null,,,,,,,,,,,,,,,,,,
6470.800000011921,,memorable_rating,162235,US_Cities_List/mm_hilo.png,,52,,,4,,,,,,,,,,,,,,,
null,,confidence_buffer,162337,confidence_buffer,,null,,,,,,,,,,,,,,,,,,
null,,thebreak,162839,break,,null,,,,,,,,,,,,,,,,,,
7466,,familiar_rating,170307,US_Cities_List/mm_coeurdalene.png,,49,US_Cities_List/mm_coeurdalene.png,MM,1,,,,,,,,,,,,,,,
null,,confidence_buffer,170409,confidence_buffer,,null,,,,,,,,,,,,,,,,,,
2193,,unique_rating,172603,US_Cities_List/mm_coeurdalene.png,,49,,,1,,,,,,,,,,,,,,,
null,,confidence_buffer,172706,confidence_buffer,,null,,,,,,,,,,,,,,,,,,
4461.599999964237,,memorable_rating,177169,US_Cities_List/mm_coeurdalene.png,,49,,,1,,,,,,,,,,,,,,,
null,,confidence_buffer,177271,confidence_buffer,,null,,,,,,,,,,,,,,,,,,
null,,thebreak,177772,break,,null,,,,,,,,,,,,,,,,,,
6765,,familiar_rating,184539,Fictional_Cities_List/img_manmade_16.png,,49,Fictional_Cities_List/img_manmade_16.png,MM,1,,,,,,,,,,,,,,,
null,,confidence_buffer,184641,confidence_buffer,,null,,,,,,,,,,,,,,,,,,
12311,,unique_rating,196955,Fictional_Cities_List/img_manmade_16.png,,52,,,4,,,,,,,,,,,,,,,
null,,confidence_buffer,197058,confidence_buffer,,null,,,,,,,,,,,,,,,,,,
4144.5,,memorable_rating,201204,Fictional_Cities_List/img_manmade_16.png,,52,,,4,,,,,,,,,,,,,,,
null,,confidence_buffer,201306,confidence_buffer,,null,,,,,,,,,,,,,,,,,,
null,,thebreak,201808,break,,null,,,,,,,,,,,,,,,,,,
3242.199999988079,,familiar_rating,205052,Fictional_Cities_List/img_natural_25.png,,49,Fictional_Cities_List/img_natural_25.png,NAT,1,,,,,,,,,,,,,,,
null,,confidence_buffer,205154,confidence_buffer,,null,,,,,,,,,,,,,,,,,,
5776.100000023842,,unique_rating,210932,Fictional_Cities_List/img_natural_25.png,,53,,,5,,,,,,,,,,,,,,,
null,,confidence_buffer,211035,confidence_buffer,,null,,,,,,,,,,,,,,,,,,
6716.5,,memorable_rating,217754,Fictional_Cities_List/img_natural_25.png,,53,,,5,,,,,,,,,,,,,,,
null,,confidence_buffer,217856,confidence_buffer,,null,,,,,,,,,,,,,,,,,,
null,,thebreak,218357,break,,null,,,,,,,,,,,,,,,,,,
3624.599999964237,,familiar_rating,221982,US_Cities_List/nat_healdsburg.png,,49,US_Cities_List/nat_healdsburg.png,NAT,1,,,,,,,,,,,,,,,
null,,confidence_buffer,222084,confidence_buffer,,null,,,,,,,,,,,,,,,,,,
5600.199999988079,,probe_rating,227687,probe_rating,,52,,,,4,1,,,,,,,,,,,,,
null,,confidence_buffer,227790,confidence_buffer,,null,,,,,,,,,,,,,,,,,,
11912.5,,unique_rating,239706,US_Cities_List/nat_healdsburg.png,,49,,,1,,,,,,,,,,,,,,,
null,,confidence_buffer,239809,confidence_buffer,,null,,,,,,,,,,,,,,,,,,
2483.699999988079,,memorable_rating,242295,US_Cities_List/nat_healdsburg.png,,49,,,1,,,,,,,,,,,,,,,
null,,confidence_buffer,242398,confidence_buffer,,null,,,,,,,,,,,,,,,,,,
null,,thebreak,242899,break,,null,,,,,,,,,,,,,,,,,,
4853,,familiar_rating,247754,Fictional_Cities_List/img_natural_36.png,,49,Fictional_Cities_List/img_natural_36.png,NAT,1,,,,,,,,,,,,,,,
null,,confidence_buffer,247857,confidence_buffer,,null,,,,,,,,,,,,,,,,,,
7747.900000035763,,unique_rating,255608,Fictional_Cities_List/img_natural_36.png,,51,,,3,,,,,,,,,,,,,,,
null,,confidence_buffer,255711,confidence_buffer,,null,,,,,,,,,,,,,,,,,,
2533.400000035763,,memorable_rating,258246,Fictional_Cities_List/img_natural_36.png,,51,,,3,,,,,,,,,,,,,,,
null,,confidence_buffer,258350,confidence_buffer,,null,,,,,,,,,,,,,,,,,,
null,,thebreak,258852,break,,null,,,,,,,,,,,,,,,,,,
2530.5,,familiar_rating,261383,Fictional_Cities_List/img_natural_45.png,,49,Fictional_Cities_List/img_natural_45.png,NAT,1,,,,,,,,,,,,,,,
null,,confidence_buffer,261485,confidence_buffer,,null,,,,,,,,,,,,,,,,,,
7118.5,,unique_rating,268606,Fictional_Cities_List/img_natural_45.png,,50,,,2,,,,,,,,,,,,,,,
null,,confidence_buffer,268709,confidence_buffer,,null,,,,,,,,,,,,,,,,,,
6112.699999988079,,probe_rating,274823,probe_rating,,52,,,,4,1,,,,,,,,,,,,,
null,,confidence_buffer,274926,confidence_buffer,,null,,,,,,,,,,,,,,,,,,
7090.399999976158,,memorable_rating,282019,Fictional_Cities_List/img_natural_45.png,,51,,,3,,,,,,,,,,,,,,,
null,,confidence_buffer,282122,confidence_buffer,,null,,,,,,,,,,,,,,,,,,
null,,thebreak,282623,break,,null,,,,,,,,,,,,,,,,,,
4331.899999976158,,familiar_rating,286957,US_Cities_List/nat_cornwall.png,,49,US_Cities_List/nat_cornwall.png,NAT,1,,,,,,,,,,,,,,,
null,,confidence_buffer,287060,confidence_buffer,,null,,,,,,,,,,,,,,,,,,
10353.599999964237,,unique_rating,297416,US_Cities_List/nat_cornwall.png,,51,,,3,,,,,,,,,,,,,,,
null,,confidence_buffer,297519,confidence_buffer,,null,,,,,,,,,,,,,,,,,,
2935.800000011921,,memorable_rating,300458,US_Cities_List/nat_cornwall.png,,51,,,3,,,,,,,,,,,,,,,
null,,confidence_buffer,300562,confidence_buffer,,null,,,,,,,,,,,,,,,,,,
2381.7999999523163,,probe_rating,302946,probe_rating,,49,,,,1,1,,,,,,,,,,,,,
null,,confidence_buffer,303050,confidence_buffer,,null,,,,,,,,,,,,,,,,,,
null,,thebreak,303552,break,,null,,,,,,,,,,,,,,,,,,
4243.800000011921,,familiar_rating,307797,US_Cities_List/nat_delawarecity.png,,49,US_Cities_List/nat_delawarecity.png,NAT,1,,,,,,,,,,,,,,,
null,,confidence_buffer,307901,confidence_buffer,,null,,,,,,,,,,,,,,,,,,
3382.100000023842,,probe_rating,311285,probe_rating,,51,,,,3,1,,,,,,,,,,,,,
null,,confidence_buffer,311389,confidence_buffer,,null,,,,,,,,,,,,,,,,,,
3125.2000000476837,,unique_rating,314518,US_Cities_List/nat_delawarecity.png,,50,,,2,,,,,,,,,,,,,,,
null,,confidence_buffer,314622,confidence_buffer,,null,,,,,,,,,,,,,,,,,,
4981.100000023842,,memorable_rating,319606,US_Cities_List/nat_delawarecity.png,,50,,,2,,,,,,,,,,,,,,,
null,,confidence_buffer,319709,confidence_buffer,,null,,,,,,,,,,,,,,,,,,
null,,thebreak,320213,break,,null,,,,,,,,,,,,,,,,,,
5372.400000035763,,familiar_rating,325588,US_Cities_List/nat_abilene.png,,49,US_Cities_List/nat_abilene.png,NAT,1,,,,,,,,,,,,,,,
null,,confidence_buffer,325692,confidence_buffer,,null,,,,,,,,,,,,,,,,,,
4693.099999964237,,unique_rating,330387,US_Cities_List/nat_abilene.png,,51,,,3,,,,,,,,,,,,,,,
null,,confidence_buffer,330489,confidence_buffer,,null,,,,,,,,,,,,,,,,,,
4497.600000023842,,memorable_rating,334988,US_Cities_List/nat_abilene.png,,51,,,3,,,,,,,,,,,,,,,
null,,confidence_buffer,335293,confidence_buffer,,null,,,,,,,,,,,,,,,,,,
null,,thebreak,335798,break,,null,,,,,,,,,,,,,,,,,,
6779.199999988079,,familiar_rating,342580,Fictional_Cities_List/img_manmade_25.png,,49,Fictional_Cities_List/img_manmade_25.png,MM,1,,,,,,,,,,,,,,,
null,,confidence_buffer,342683,confidence_buffer,,null,,,,,,,,,,,,,,,,,,
3628,,unique_rating,346312,Fictional_Cities_List/img_manmade_25.png,,52,,,4,,,,,,,,,,,,,,,
null,,confidence_buffer,346414,confidence_buffer,,null,,,,,,,,,,,,,,,,,,
7420.699999988079,,memorable_rating,353836,Fictional_Cities_List/img_manmade_25.png,,53,,,5,,,,,,,,,,,,,,,
null,,confidence_buffer,353939,confidence_buffer,,null,,,,,,,,,,,,,,,,,,
null,,thebreak,354440,break,,null,,,,,,,,,,,,,,,,,,
4897.800000011921,,familiar_rating,359340,Fictional_Cities_List/img_natural_29.png,,49,Fictional_Cities_List/img_natural_29.png,NAT,1,,,,,,,,,,,,,,,
null,,confidence_buffer,359443,confidence_buffer,,null,,,,,,,,,,,,,,,,,,
3420.7000000476837,,unique_rating,362866,Fictional_Cities_List/img_natural_29.png,,52,,,4,,,,,,,,,,,,,,,
null,,confidence_buffer,362969,confidence_buffer,,null,,,,,,,,,,,,,,,,,,
1429,,memorable_rating,364400,Fictional_Cities_List/img_natural_29.png,,53,,,5,,,,,,,,,,,,,,,
null,,confidence_buffer,364502,confidence_buffer,,null,,,,,,,,,,,,,,,,,,
null,,thebreak,365003,break,,null,,,,,,,,,,,,,,,,,,
6216.099999964237,,familiar_rating,371221,US_Cities_List/mm_bisbee.png,,49,US_Cities_List/mm_bisbee.png,MM,1,,,,,,,,,,,,,,,
null,,confidence_buffer,371323,confidence_buffer,,null,,,,,,,,,,,,,,,,,,
4521.900000035763,,unique_rating,375846,US_Cities_List/mm_bisbee.png,,53,,,5,,,,,,,,,,,,,,,
null,,confidence_buffer,375949,confidence_buffer,,null,,,,,,,,,,,,,,,,,,
4742.100000023842,,memorable_rating,380692,US_Cities_List/mm_bisbee.png,,53,,,5,,,,,,,,,,,,,,,
null,,confidence_buffer,380795,confidence_buffer,,null,,,,,,,,,,,,,,,,,,
null,,thebreak,381297,break,,null,,,,,,,,,,,,,,,,,,
3973.2999999523163,,familiar_rating,385272,Fictional_Cities_List/img_manmade_29.png,,50,Fictional_Cities_List/img_manmade_29.png,MM,2,,,,,,,,,,,,,,,
null,,confidence_buffer,385374,confidence_buffer,,null,,,,,,,,,,,,,,,,,,
3695,,unique_rating,389072,Fictional_Cities_List/img_manmade_29.png,,51,,,3,,,,,,,,,,,,,,,
null,,confidence_buffer,389174,confidence_buffer,,null,,,,,,,,,,,,,,,,,,
3679.699999988079,,memorable_rating,392855,Fictional_Cities_List/img_manmade_29.png,,51,,,3,,,,,,,,,,,,,,,
null,,confidence_buffer,392956,confidence_buffer,,null,,,,,,,,,,,,,,,,,,
null,,thebreak,393458,break,,null,,,,,,,,,,,,,,,,,,
5907.099999964237,,familiar_rating,399367,US_Cities_List/nat_sitka.png,,50,US_Cities_List/nat_sitka.png,NAT,2,,,,,,,,,,,,,,,
null,,confidence_buffer,399469,confidence_buffer,,null,,,,,,,,,,,,,,,,,,
3321,,probe_rating,402792,probe_rating,,50,,,,2,1,,,,,,,,,,,,,
null,,confidence_buffer,402894,confidence_buffer,,null,,,,,,,,,,,,,,,,,,
5285.100000023842,,unique_rating,408180,US_Cities_List/nat_sitka.png,,52,,,4,,,,,,,,,,,,,,,
null,,confidence_buffer,408282,confidence_buffer,,null,,,,,,,,,,,,,,,,,,
2201.600000023842,,memorable_rating,410484,US_Cities_List/nat_sitka.png,,52,,,4,,,,,,,,,,,,,,,
null,,confidence_buffer,410587,confidence_buffer,,null,,,,,,,,,,,,,,,,,,
null,,thebreak,411088,break,,null,,,,,,,,,,,,,,,,,,
5716.5,,familiar_rating,416806,US_Cities_List/mm_westpalmbeach.png,,49,US_Cities_List/mm_westpalmbeach.png,MM,1,,,,,,,,,,,,,,,
null,,confidence_buffer,416909,confidence_buffer,,null,,,,,,,,,,,,,,,,,,
3694.399999976158,,unique_rating,420604,US_Cities_List/mm_westpalmbeach.png,,53,,,5,,,,,,,,,,,,,,,
null,,confidence_buffer,420705,confidence_buffer,,null,,,,,,,,,,,,,,,,,,
3663.7999999523163,,memorable_rating,424371,US_Cities_List/mm_westpalmbeach.png,,53,,,5,,,,,,,,,,,,,,,
null,,confidence_buffer,424473,confidence_buffer,,null,,,,,,,,,,,,,,,,,,
null,,thebreak,424977,break,,null,,,,,,,,,,,,,,,,,,
14256.800000011921,,familiar_rating,439236,US_Cities_List/mm_healdsburg.png,,50,US_Cities_List/mm_healdsburg.png,MM,2,,,,,,,,,,,,,,,
null,,confidence_buffer,439339,confidence_buffer,,null,,,,,,,,,,,,,,,,,,
2956.5,,unique_rating,442298,US_Cities_List/mm_healdsburg.png,,52,,,4,,,,,,,,,,,,,,,
null,,confidence_buffer,442401,confidence_buffer,,null,,,,,,,,,,,,,,,,,,
964.1000000238419,,memorable_rating,443366,US_Cities_List/mm_healdsburg.png,,52,,,4,,,,,,,,,,,,,,,
null,,confidence_buffer,443467,confidence_buffer,,null,,,,,,,,,,,,,,,,,,
null,,thebreak,443969,break,,null,,,,,,,,,,,,,,,,,,
4068.800000011921,,familiar_rating,448040,Fictional_Cities_List/img_manmade_10.png,,49,Fictional_Cities_List/img_manmade_10.png,MM,1,,,,,,,,,,,,,,,
null,,confidence_buffer,448142,confidence_buffer,,null,,,,,,,,,,,,,,,,,,
5293.199999988079,,unique_rating,453438,Fictional_Cities_List/img_manmade_10.png,,53,,,5,,,,,,,,,,,,,,,
null,,confidence_buffer,453540,confidence_buffer,,null,,,,,,,,,,,,,,,,,,
3078.800000011921,,memorable_rating,456620,Fictional_Cities_List/img_manmade_10.png,,52,,,4,,,,,,,,,,,,,,,
null,,confidence_buffer,456723,confidence_buffer,,null,,,,,,,,,,,,,,,,,,
null,,thebreak,457231,break,,null,,,,,,,,,,,,,,,,,,
7306.199999988079,,familiar_rating,464540,US_Cities_List/mm_carmel.png,,49,US_Cities_List/mm_carmel.png,MM,1,,,,,,,,,,,,,,,
null,,confidence_buffer,464644,confidence_buffer,,null,,,,,,,,,,,,,,,,,,
5451.900000035763,,unique_rating,470098,US_Cities_List/mm_carmel.png,,52,,,4,,,,,,,,,,,,,,,
null,,confidence_buffer,470201,confidence_buffer,,null,,,,,,,,,,,,,,,,,,
2293.5,,memorable_rating,472496,US_Cities_List/mm_carmel.png,,51,,,3,,,,,,,,,,,,,,,
null,,confidence_buffer,472598,confidence_buffer,,null,,,,,,,,,,,,,,,,,,
null,,thebreak,473099,break,,null,,,,,,,,,,,,,,,,,,
4598.800000011921,,familiar_rating,477701,US_Cities_List/nat_boulder.png,,49,US_Cities_List/nat_boulder.png,NAT,1,,,,,,,,,,,,,,,
null,,confidence_buffer,477804,confidence_buffer,,null,,,,,,,,,,,,,,,,,,
4121,,unique_rating,481927,US_Cities_List/nat_boulder.png,,51,,,3,,,,,,,,,,,,,,,
null,,confidence_buffer,482029,confidence_buffer,,null,,,,,,,,,,,,,,,,,,
2540.100000023842,,memorable_rating,484572,US_Cities_List/nat_boulder.png,,50,,,2,,,,,,,,,,,,,,,
null,,confidence_buffer,484675,confidence_buffer,,null,,,,,,,,,,,,,,,,,,
2250.900000035763,,probe_rating,486928,probe_rating,,49,,,,1,1,,,,,,,,,,,,,
null,,confidence_buffer,487030,confidence_buffer,,null,,,,,,,,,,,,,,,,,,
null,,thebreak,487533,break,,null,,,,,,,,,,,,,,,,,,
5093.400000035763,,familiar_rating,492628,Fictional_Cities_List/img_manmade_01.png,,49,Fictional_Cities_List/img_manmade_01.png,MM,1,,,,,,,,,,,,,,,
null,,confidence_buffer,492731,confidence_buffer,,null,,,,,,,,,,,,,,,,,,
5378.699999988079,,probe_rating,498112,probe_rating,,51,,,,3,1,,,,,,,,,,,,,
null,,confidence_buffer,498215,confidence_buffer,,null,,,,,,,,,,,,,,,,,,
6640.100000023842,,unique_rating,504858,Fictional_Cities_List/img_manmade_01.png,,51,,,3,,,,,,,,,,,,,,,
null,,confidence_buffer,504960,confidence_buffer,,null,,,,,,,,,,,,,,,,,,
1085.6000000238419,,memorable_rating,506048,Fictional_Cities_List/img_manmade_01.png,,51,,,3,,,,,,,,,,,,,,,
null,,confidence_buffer,506149,confidence_buffer,,null,,,,,,,,,,,,,,,,,,
null,,thebreak,506650,break,,null,,,,,,,,,,,,,,,,,,
5790.5,,familiar_rating,512443,US_Cities_List/nat_bisbee.png,,49,US_Cities_List/nat_bisbee.png,NAT,1,,,,,,,,,,,,,,,
null,,confidence_buffer,512546,confidence_buffer,,null,,,,,,,,,,,,,,,,,,
4658.399999976158,,unique_rating,517207,US_Cities_List/nat_bisbee.png,,51,,,3,,,,,,,,,,,,,,,
null,,confidence_buffer,517460,confidence_buffer,,null,,,,,,,,,,,,,,,,,,
1556.6000000238419,,memorable_rating,519018,US_Cities_List/nat_bisbee.png,,51,,,3,,,,,,,,,,,,,,,
null,,confidence_buffer,519263,confidence_buffer,,null,,,,,,,,,,,,,,,,,,
null,,thebreak,519764,break,,null,,,,,,,,,,,,,,,,,,
5002.5,,familiar_rating,524769,Fictional_Cities_List/img_natural_16.png,,49,Fictional_Cities_List/img_natural_16.png,NAT,1,,,,,,,,,,,,,,,
null,,confidence_buffer,524872,confidence_buffer,,null,,,,,,,,,,,,,,,,,,
5477.599999964237,,unique_rating,530351,Fictional_Cities_List/img_natural_16.png,,51,,,3,,,,,,,,,,,,,,,
null,,confidence_buffer,530453,confidence_buffer,,null,,,,,,,,,,,,,,,,,,
1653.800000011921,,memorable_rating,532109,Fictional_Cities_List/img_natural_16.png,,51,,,3,,,,,,,,,,,,,,,
null,,confidence_buffer,532210,confidence_buffer,,null,,,,,,,,,,,,,,,,,,
null,,thebreak,532713,break,,null,,,,,,,,,,,,,,,,,,
3665,,familiar_rating,536380,US_Cities_List/mm_cornwall.png,,49,US_Cities_List/mm_cornwall.png,MM,1,,,,,,,,,,,,,,,
null,,confidence_buffer,536675,confidence_buffer,,null,,,,,,,,,,,,,,,,,,
2656.899999976158,,unique_rating,539333,US_Cities_List/mm_cornwall.png,,49,,,1,,,,,,,,,,,,,,,
null,,confidence_buffer,539618,confidence_buffer,,null,,,,,,,,,,,,,,,,,,
3397.699999988079,,memorable_rating,543017,US_Cities_List/mm_cornwall.png,,50,,,2,,,,,,,,,,,,,,,
null,,confidence_buffer,543118,confidence_buffer,,null,,,,,,,,,,,,,,,,,,
null,,thebreak,543619,break,,null,,,,,,,,,,,,,,,,,,
6520.300000011921,,familiar_rating,550142,Fictional_Cities_List/img_natural_48.png,,49,Fictional_Cities_List/img_natural_48.png,NAT,1,,,,,,,,,,,,,,,
null,,confidence_buffer,550245,confidence_buffer,,null,,,,,,,,,,,,,,,,,,
6893.400000035763,,unique_rating,557139,Fictional_Cities_List/img_natural_48.png,,50,,,2,,,,,,,,,,,,,,,
null,,confidence_buffer,557243,confidence_buffer,,null,,,,,,,,,,,,,,,,,,
1570.3999999761581,,memorable_rating,558814,Fictional_Cities_List/img_natural_48.png,,50,,,2,,,,,,,,,,,,,,,
null,,confidence_buffer,558915,confidence_buffer,,null,,,,,,,,,,,,,,,,,,
null,,thebreak,559417,break,,null,,,,,,,,,,,,,,,,,,
3387.599999964237,,intro_0,562805,instruct,,32,,,,,,,,,,,,,,,,,,
5133.100000023842,,intro_1,567940,instruct,,32,,,,,,,,,,,,,,,,,,
20749.5,,intro_2,588691,instruct,,32,,,,,,,,,,,,,,,,,,
null,,instruct_dir_4,590202,instruct,,null,,,,,,,,,,,,,,,,,,
14839.199999988079,,pt2_realistic_rating,605044,Fictional_Cities_List/img_natural_20.png,,50,Fictional_Cities_List/img_natural_20.png,NAT,2,,,,,,,,,,,,,,,
null,,confidence_buffer,605147,confidence_buffer,,null,,,,,,,,,,,,,,,,,,
4154.199999988079,,pt2_unique_rating,609303,Fictional_Cities_List/img_natural_20.png,,52,,,4,,,,,,,,,,,,,,,
null,,confidence_buffer,609406,confidence_buffer,,null,,,,,,,,,,,,,,,,,,
2382.699999988079,,pt2_memorable_rating,611791,Fictional_Cities_List/img_natural_20.png,,52,,,4,,,,,,,,,,,,,,,
null,,confidence_buffer,611893,confidence_buffer,,null,,,,,,,,,,,,,,,,,,
3337.399999976158,,recognition_phase,615234,Fictional_Cities_List/img_natural_20.png,,49,,,,,,old,1,1,,,,,,,,,,
null,,confidence_buffer,615337,confidence_buffer,,null,,,,,,,,,,,,,,,,,,
null,,thebreak,615840,break,,null,,,,,,,,,,,,,,,,,,
5487.899999976158,,pt2_realistic_rating,621330,Fictional_Cities_List/img_manmade_08.png,,49,Fictional_Cities_List/img_manmade_08.png,MM,1,,,,,,,,,,,,,,,
null,,confidence_buffer,621431,confidence_buffer,,null,,,,,,,,,,,,,,,,,,
4130.199999988079,,pt2_unique_rating,625563,Fictional_Cities_List/img_manmade_08.png,,51,,,3,,,,,,,,,,,,,,,
null,,confidence_buffer,625666,confidence_buffer,,null,,,,,,,,,,,,,,,,,,
2495.099999964237,,pt2_memorable_rating,628162,Fictional_Cities_List/img_manmade_08.png,,50,,,2,,,,,,,,,,,,,,,
null,,confidence_buffer,628264,confidence_buffer,,null,,,,,,,,,,,,,,,,,,
3267.900000035763,,recognition_phase,631534,Fictional_Cities_List/img_manmade_08.png,,52,,,,,,new,1,1,,,,,,,,,,
null,,confidence_buffer,631636,confidence_buffer,,null,,,,,,,,,,,,,,,,,,
null,,thebreak,632138,break,,null,,,,,,,,,,,,,,,,,,
8124.100000023842,,pt2_realistic_rating,640264,US_Cities_List/nat_hotsprings.png,,50,US_Cities_List/nat_hotsprings.png,NAT,2,,,,,,,,,,,,,,,
null,,confidence_buffer,640523,confidence_buffer,,null,,,,,,,,,,,,,,,,,,
4216.100000023842,,pt2_unique_rating,644741,US_Cities_List/nat_hotsprings.png,,51,,,3,,,,,,,,,,,,,,,
null,,confidence_buffer,645061,confidence_buffer,,null,,,,,,,,,,,,,,,,,,
2087.199999988079,,pt2_memorable_rating,647150,US_Cities_List/nat_hotsprings.png,,50,,,2,,,,,,,,,,,,,,,
null,,confidence_buffer,647397,confidence_buffer,,null,,,,,,,,,,,,,,,,,,
3222.5,,recognition_phase,650621,US_Cities_List/nat_hotsprings.png,,52,,,,,,new,1,1,,,,,,,,,,
null,,confidence_buffer,650866,confidence_buffer,,null,,,,,,,,,,,,,,,,,,
null,,thebreak,651368,break,,null,,,,,,,,,,,,,,,,,,
10240.699999988079,,pt2_realistic_rating,661612,US_Cities_List/mm_bisbee.png,,52,US_Cities_List/mm_bisbee.png,MM,4,,,,,,,,,,,,,,,
null,,confidence_buffer,661715,confidence_buffer,,null,,,,,,,,,,,,,,,,,,
2725.699999988079,,pt2_unique_rating,664442,US_Cities_List/mm_bisbee.png,,52,,,4,,,,,,,,,,,,,,,
null,,confidence_buffer,664544,confidence_buffer,,null,,,,,,,,,,,,,,,,,,
1596.5,,pt2_memorable_rating,666144,US_Cities_List/mm_bisbee.png,,52,,,4,,,,,,,,,,,,,,,
null,,confidence_buffer,666246,confidence_buffer,,null,,,,,,,,,,,,,,,,,,
2474,,recognition_phase,668722,US_Cities_List/mm_bisbee.png,,49,,,,,,old,1,1,,,,,,,,,,
null,,confidence_buffer,668825,confidence_buffer,,null,,,,,,,,,,,,,,,,,,
null,,thebreak,669329,break,,null,,,,,,,,,,,,,,,,,,
12640.300000011921,,pt2_realistic_rating,681972,US_Cities_List/nat_bisbee.png,,51,US_Cities_List/nat_bisbee.png,NAT,3,,,,,,,,,,,,,,,
null,,confidence_buffer,682288,confidence_buffer,,null,,,,,,,,,,,,,,,,,,
5681.099999964237,,pt2_unique_rating,687971,US_Cities_List/nat_bisbee.png,,50,,,2,,,,,,,,,,,,,,,
null,,confidence_buffer,688217,confidence_buffer,,null,,,,,,,,,,,,,,,,,,
2642,,pt2_memorable_rating,690860,US_Cities_List/nat_bisbee.png,,50,,,2,,,,,,,,,,,,,,,
null,,confidence_buffer,691116,confidence_buffer,,null,,,,,,,,,,,,,,,,,,
5285.5,,recognition_phase,696403,US_Cities_List/nat_bisbee.png,,50,,,,,,old,1,1,,,,,,,,,,
null,,confidence_buffer,696723,confidence_buffer,,null,,,,,,,,,,,,,,,,,,
null,,thebreak,697225,break,,null,,,,,,,,,,,,,,,,,,
5603.600000023842,,pt2_realistic_rating,702830,US_Cities_List/mm_hilo.png,,51,US_Cities_List/mm_hilo.png,MM,3,,,,,,,,,,,,,,,
null,,confidence_buffer,702933,confidence_buffer,,null,,,,,,,,,,,,,,,,,,
4240.5,,pt2_unique_rating,707176,US_Cities_List/mm_hilo.png,,52,,,4,,,,,,,,,,,,,,,
null,,confidence_buffer,707289,confidence_buffer,,null,,,,,,,,,,,,,,,,,,
1331.4000000357628,,pt2_memorable_rating,708623,US_Cities_List/mm_hilo.png,,52,,,4,,,,,,,,,,,,,,,
null,,confidence_buffer,708726,confidence_buffer,,null,,,,,,,,,,,,,,,,,,
2576.199999988079,,recognition_phase,711305,US_Cities_List/mm_hilo.png,,49,,,,,,old,1,1,,,,,,,,,,
null,,confidence_buffer,711409,confidence_buffer,,null,,,,,,,,,,,,,,,,,,
null,,thebreak,711911,break,,null,,,,,,,,,,,,,,,,,,
15571.699999988079,,pt2_realistic_rating,727486,US_Cities_List/mm_westpalmbeach.png,,49,US_Cities_List/mm_westpalmbeach.png,MM,1,,,,,,,,,,,,,,,
null,,confidence_buffer,727589,confidence_buffer,,null,,,,,,,,,,,,,,,,,,
5608.800000011921,,pt2_unique_rating,733200,US_Cities_List/mm_westpalmbeach.png,,53,,,5,,,,,,,,,,,,,,,
null,,confidence_buffer,733301,confidence_buffer,,null,,,,,,,,,,,,,,,,,,
907.5,,pt2_memorable_rating,734210,US_Cities_List/mm_westpalmbeach.png,,53,,,5,,,,,,,,,,,,,,,
null,,confidence_buffer,734311,confidence_buffer,,null,,,,,,,,,,,,,,,,,,
2029.0999999642372,,recognition_phase,736342,US_Cities_List/mm_westpalmbeach.png,,49,,,,,,old,1,1,,,,,,,,,,
null,,confidence_buffer,736445,confidence_buffer,,null,,,,,,,,,,,,,,,,,,
null,,thebreak,736948,break,,null,,,,,,,,,,,,,,,,,,
4184,,pt2_realistic_rating,741135,US_Cities_List/nat_coeurdalene.png,,52,US_Cities_List/nat_coeurdalene.png,NAT,4,,,,,,,,,,,,,,,
null,,confidence_buffer,741237,confidence_buffer,,null,,,,,,,,,,,,,,,,,,
3713.699999988079,,pt2_unique_rating,744953,US_Cities_List/nat_coeurdalene.png,,50,,,2,,,,,,,,,,,,,,,
null,,confidence_buffer,745055,confidence_buffer,,null,,,,,,,,,,,,,,,,,,
2646.099999964237,,pt2_memorable_rating,747704,US_Cities_List/nat_coeurdalene.png,,50,,,2,,,,,,,,,,,,,,,
null,,confidence_buffer,747807,confidence_buffer,,null,,,,,,,,,,,,,,,,,,
3043,,recognition_phase,750853,US_Cities_List/nat_coeurdalene.png,,52,,,,,,new,1,1,,,,,,,,,,
null,,confidence_buffer,750956,confidence_buffer,,null,,,,,,,,,,,,,,,,,,
null,,thebreak,751460,break,,null,,,,,,,,,,,,,,,,,,
8250.800000011921,,pt2_realistic_rating,759714,US_Cities_List/nat_boulder.png,,52,US_Cities_List/nat_boulder.png,NAT,4,,,,,,,,,,,,,,,
null,,confidence_buffer,759817,confidence_buffer,,null,,,,,,,,,,,,,,,,,,
1895.6000000238419,,pt2_unique_rating,761715,US_Cities_List/nat_boulder.png,,52,,,4,,,,,,,,,,,,,,,
null,,confidence_buffer,761818,confidence_buffer,,null,,,,,,,,,,,,,,,,,,
1612.9000000357628,,pt2_memorable_rating,763433,US_Cities_List/nat_boulder.png,,52,,,4,,,,,,,,,,,,,,,
null,,confidence_buffer,763537,confidence_buffer,,null,,,,,,,,,,,,,,,,,,
1483.300000011921,,recognition_phase,765022,US_Cities_List/nat_boulder.png,,49,,,,,,old,1,1,,,,,,,,,,
null,,confidence_buffer,765126,confidence_buffer,,null,,,,,,,,,,,,,,,,,,
null,,thebreak,765631,break,,null,,,,,,,,,,,,,,,,,,
4544.5,,pt2_realistic_rating,770178,Fictional_Cities_List/img_manmade_45.png,,51,Fictional_Cities_List/img_manmade_45.png,MM,3,,,,,,,,,,,,,,,
null,,confidence_buffer,770280,confidence_buffer,,null,,,,,,,,,,,,,,,,,,
6452.899999976158,,pt2_unique_rating,776735,Fictional_Cities_List/img_manmade_45.png,,50,,,2,,,,,,,,,,,,,,,
null,,confidence_buffer,776839,confidence_buffer,,null,,,,,,,,,,,,,,,,,,
2244,,pt2_memorable_rating,779085,Fictional_Cities_List/img_manmade_45.png,,51,,,3,,,,,,,,,,,,,,,
null,,confidence_buffer,779188,confidence_buffer,,null,,,,,,,,,,,,,,,,,,
2025.7999999523163,,recognition_phase,781216,Fictional_Cities_List/img_manmade_45.png,,49,,,,,,old,1,1,,,,,,,,,,
null,,confidence_buffer,781320,confidence_buffer,,null,,,,,,,,,,,,,,,,,,
null,,thebreak,781824,break,,null,,,,,,,,,,,,,,,,,,
7173.300000011921,,pt2_realistic_rating,789001,Fictional_Cities_List/img_manmade_25.png,,50,Fictional_Cities_List/img_manmade_25.png,MM,2,,,,,,,,,,,,,,,
null,,confidence_buffer,789103,confidence_buffer,,null,,,,,,,,,,,,,,,,,,
3722.400000035763,,pt2_unique_rating,792828,Fictional_Cities_List/img_manmade_25.png,,53,,,5,,,,,,,,,,,,,,,
null,,confidence_buffer,792932,confidence_buffer,,null,,,,,,,,,,,,,,,,,,
1110,,pt2_memorable_rating,794044,Fictional_Cities_List/img_manmade_25.png,,53,,,5,,,,,,,,,,,,,,,
null,,confidence_buffer,794150,confidence_buffer,,null,,,,,,,,,,,,,,,,,,
1422.5999999642372,,recognition_phase,795576,Fictional_Cities_List/img_manmade_25.png,,49,,,,,,old,1,1,,,,,,,,,,
null,,confidence_buffer,795681,confidence_buffer,,null,,,,,,,,,,,,,,,,,,
null,,thebreak,796184,break,,null,,,,,,,,,,,,,,,,,,
11019.100000023842,,pt2_realistic_rating,807206,US_Cities_List/mm_abilene.png,,49,US_Cities_List/mm_abilene.png,MM,1,,,,,,,,,,,,,,,
null,,confidence_buffer,807309,confidence_buffer,,null,,,,,,,,,,,,,,,,,,
2581.5,,probe_rating,809893,probe_rating,,52,,,,4,1,,,,,,,,,,,,,
null,,confidence_buffer,809996,confidence_buffer,,null,,,,,,,,,,,,,,,,,,
3616.800000011921,,pt2_unique_rating,813615,US_Cities_List/mm_abilene.png,,53,,,5,,,,,,,,,,,,,,,
null,,confidence_buffer,813718,confidence_buffer,,null,,,,,,,,,,,,,,,,,,
2574.5,,pt2_memorable_rating,816296,US_Cities_List/mm_abilene.png,,53,,,5,,,,,,,,,,,,,,,
null,,confidence_buffer,816399,confidence_buffer,,null,,,,,,,,,,,,,,,,,,
2983.900000035763,,recognition_phase,819384,US_Cities_List/mm_abilene.png,,52,,,,,,new,1,1,,,,,,,,,,
null,,confidence_buffer,819487,confidence_buffer,,null,,,,,,,,,,,,,,,,,,
null,,thebreak,819990,break,,null,,,,,,,,,,,,,,,,,,
8793,,pt2_realistic_rating,828786,US_Cities_List/nat_sitka.png,,52,US_Cities_List/nat_sitka.png,NAT,4,,,,,,,,,,,,,,,
null,,confidence_buffer,828889,confidence_buffer,,null,,,,,,,,,,,,,,,,,,
3554.099999964237,,pt2_unique_rating,832445,US_Cities_List/nat_sitka.png,,52,,,4,,,,,,,,,,,,,,,
null,,confidence_buffer,832548,confidence_buffer,,null,,,,,,,,,,,,,,,,,,
1945.5,,pt2_memorable_rating,834497,US_Cities_List/nat_sitka.png,,52,,,4,,,,,,,,,,,,,,,
null,,confidence_buffer,834599,confidence_buffer,,null,,,,,,,,,,,,,,,,,,
2183.899999976158,,probe_rating,836785,probe_rating,,51,,,,3,1,,,,,,,,,,,,,
null,,confidence_buffer,836889,confidence_buffer,,null,,,,,,,,,,,,,,,,,,
1591.199999988079,,recognition_phase,838483,US_Cities_List/nat_sitka.png,,49,,,,,,old,1,1,,,,,,,,,,
null,,confidence_buffer,838587,confidence_buffer,,null,,,,,,,,,,,,,,,,,,
null,,thebreak,839089,break,,null,,,,,,,,,,,,,,,,,,
11902.800000011921,,pt2_realistic_rating,850995,US_Cities_List/mm_hotsprings.png,,52,US_Cities_List/mm_hotsprings.png,MM,4,,,,,,,,,,,,,,,
null,,confidence_buffer,851099,confidence_buffer,,null,,,,,,,,,,,,,,,,,,
1453.4000000357628,,pt2_unique_rating,852554,US_Cities_List/mm_hotsprings.png,,52,,,4,,,,,,,,,,,,,,,
null,,confidence_buffer,852657,confidence_buffer,,null,,,,,,,,,,,,,,,,,,
1474.699999988079,,pt2_memorable_rating,854135,US_Cities_List/mm_hotsprings.png,,52,,,4,,,,,,,,,,,,,,,
null,,confidence_buffer,854238,confidence_buffer,,null,,,,,,,,,,,,,,,,,,
4134.5,,recognition_phase,858374,US_Cities_List/mm_hotsprings.png,,52,,,,,,new,1,1,,,,,,,,,,
null,,confidence_buffer,858477,confidence_buffer,,null,,,,,,,,,,,,,,,,,,
null,,thebreak,858983,break,,null,,,,,,,,,,,,,,,,,,
6675.099999964237,,pt2_realistic_rating,865662,US_Cities_List/nat_carmel.png,,50,US_Cities_List/nat_carmel.png,NAT,2,,,,,,,,,,,,,,,
null,,confidence_buffer,865765,confidence_buffer,,null,,,,,,,,,,,,,,,,,,
4067.5,,pt2_unique_rating,869835,US_Cities_List/nat_carmel.png,,51,,,3,,,,,,,,,,,,,,,
null,,confidence_buffer,869939,confidence_buffer,,null,,,,,,,,,,,,,,,,,,
3114.400000035763,,pt2_memorable_rating,873056,US_Cities_List/nat_carmel.png,,51,,,3,,,,,,,,,,,,,,,
null,,confidence_buffer,873159,confidence_buffer,,null,,,,,,,,,,,,,,,,,,
2916.699999988079,,recognition_phase,876078,US_Cities_List/nat_carmel.png,,52,,,,,,new,1,1,,,,,,,,,,
null,,confidence_buffer,876181,confidence_buffer,,null,,,,,,,,,,,,,,,,,,
null,,thebreak,876685,break,,null,,,,,,,,,,,,,,,,,,
5550.599999964237,,pt2_realistic_rating,882239,Fictional_Cities_List/img_natural_29.png,,49,Fictional_Cities_List/img_natural_29.png,NAT,1,,,,,,,,,,,,,,,
null,,confidence_buffer,882341,confidence_buffer,,null,,,,,,,,,,,,,,,,,,
3221.300000011921,,pt2_unique_rating,885566,Fictional_Cities_List/img_natural_29.png,,53,,,5,,,,,,,,,,,,,,,
null,,confidence_buffer,885671,confidence_buffer,,null,,,,,,,,,,,,,,,,,,
1011.8000000119209,,pt2_memorable_rating,886685,Fictional_Cities_List/img_natural_29.png,,53,,,5,,,,,,,,,,,,,,,
null,,confidence_buffer,886787,confidence_buffer,,null,,,,,,,,,,,,,,,,,,
2439.300000011921,,recognition_phase,889229,Fictional_Cities_List/img_natural_29.png,,49,,,,,,old,1,1,,,,,,,,,,
null,,confidence_buffer,889333,confidence_buffer,,null,,,,,,,,,,,,,,,,,,
null,,thebreak,889836,break,,null,,,,,,,,,,,,,,,,,,
8841.5,,pt2_realistic_rating,898681,Fictional_Cities_List/img_manmade_48.png,,49,Fictional_Cities_List/img_manmade_48.png,MM,1,,,,,,,,,,,,,,,
null,,confidence_buffer,898784,confidence_buffer,,null,,,,,,,,,,,,,,,,,,
2852,,pt2_unique_rating,901639,Fictional_Cities_List/img_manmade_48.png,,52,,,4,,,,,,,,,,,,,,,
null,,confidence_buffer,901742,confidence_buffer,,null,,,,,,,,,,,,,,,,,,
1304.3999999761581,,pt2_memorable_rating,903049,Fictional_Cities_List/img_manmade_48.png,,52,,,4,,,,,,,,,,,,,,,
null,,confidence_buffer,903151,confidence_buffer,,null,,,,,,,,,,,,,,,,,,
3300.900000035763,,recognition_phase,906454,Fictional_Cities_List/img_manmade_48.png,,52,,,,,,new,1,1,,,,,,,,,,
null,,confidence_buffer,906557,confidence_buffer,,null,,,,,,,,,,,,,,,,,,
null,,thebreak,907061,break,,null,,,,,,,,,,,,,,,,,,
6810.5,,pt2_realistic_rating,913876,US_Cities_List/mm_peoria.png,,49,US_Cities_List/mm_peoria.png,MM,1,,,,,,,,,,,,,,,
null,,confidence_buffer,913979,confidence_buffer,,null,,,,,,,,,,,,,,,,,,
2894.300000011921,,pt2_unique_rating,916875,US_Cities_List/mm_peoria.png,,53,,,5,,,,,,,,,,,,,,,
null,,confidence_buffer,916979,confidence_buffer,,null,,,,,,,,,,,,,,,,,,
1557,,pt2_memorable_rating,918539,US_Cities_List/mm_peoria.png,,53,,,5,,,,,,,,,,,,,,,
null,,confidence_buffer,918643,confidence_buffer,,null,,,,,,,,,,,,,,,,,,
2536.800000011921,,recognition_phase,921182,US_Cities_List/mm_peoria.png,,52,,,,,,new,1,1,,,,,,,,,,
null,,confidence_buffer,921285,confidence_buffer,,null,,,,,,,,,,,,,,,,,,
null,,thebreak,921788,break,,null,,,,,,,,,,,,,,,,,,
7924.199999988079,,pt2_realistic_rating,929716,US_Cities_List/mm_boulder.png,,49,US_Cities_List/mm_boulder.png,MM,1,,,,,,,,,,,,,,,
null,,confidence_buffer,929820,confidence_buffer,,null,,,,,,,,,,,,,,,,,,
4032,,pt2_unique_rating,933854,US_Cities_List/mm_boulder.png,,52,,,4,,,,,,,,,,,,,,,
null,,confidence_buffer,933957,confidence_buffer,,null,,,,,,,,,,,,,,,,,,
2301.2000000476837,,pt2_memorable_rating,936260,US_Cities_List/mm_boulder.png,,52,,,4,,,,,,,,,,,,,,,
null,,confidence_buffer,936363,confidence_buffer,,null,,,,,,,,,,,,,,,,,,
2560.599999964237,,recognition_phase,938926,US_Cities_List/mm_boulder.png,,52,,,,,,new,1,1,,,,,,,,,,
null,,confidence_buffer,939030,confidence_buffer,,null,,,,,,,,,,,,,,,,,,
null,,thebreak,939532,break,,null,,,,,,,,,,,,,,,,,,
9904.5,,pt2_realistic_rating,949440,US_Cities_List/nat_abilene.png,,51,US_Cities_List/nat_abilene.png,NAT,3,,,,,,,,,,,,,,,
null,,confidence_buffer,949543,confidence_buffer,,null,,,,,,,,,,,,,,,,,,
3732.600000023842,,pt2_unique_rating,953278,US_Cities_List/nat_abilene.png,,51,,,3,,,,,,,,,,,,,,,
null,,confidence_buffer,953380,confidence_buffer,,null,,,,,,,,,,,,,,,,,,
2715.099999964237,,pt2_memorable_rating,956097,US_Cities_List/nat_abilene.png,,52,,,4,,,,,,,,,,,,,,,
null,,confidence_buffer,956201,confidence_buffer,,null,,,,,,,,,,,,,,,,,,
3533.899999976158,,recognition_phase,959737,US_Cities_List/nat_abilene.png,,50,,,,,,old,1,1,,,,,,,,,,
null,,confidence_buffer,959840,confidence_buffer,,null,,,,,,,,,,,,,,,,,,
null,,thebreak,960344,break,,null,,,,,,,,,,,,,,,,,,
12647.600000023842,,pt2_realistic_rating,972993,Fictional_Cities_List/img_manmade_20.png,,51,Fictional_Cities_List/img_manmade_20.png,MM,3,,,,,,,,,,,,,,,
null,,confidence_buffer,973094,confidence_buffer,,null,,,,,,,,,,,,,,,,,,
2711.5,,pt2_unique_rating,975808,Fictional_Cities_List/img_manmade_20.png,,52,,,4,,,,,,,,,,,,,,,
null,,confidence_buffer,975912,confidence_buffer,,null,,,,,,,,,,,,,,,,,,
4751.100000023842,,pt2_memorable_rating,980665,Fictional_Cities_List/img_manmade_20.png,,52,,,4,,,,,,,,,,,,,,,
null,,confidence_buffer,980774,confidence_buffer,,null,,,,,,,,,,,,,,,,,,
4213.199999988079,,recognition_phase,984988,Fictional_Cities_List/img_manmade_20.png,,52,,,,,,new,1,1,,,,,,,,,,
null,,confidence_buffer,985091,confidence_buffer,,null,,,,,,,,,,,,,,,,,,
null,,thebreak,985597,break,,null,,,,,,,,,,,,,,,,,,
11148.199999988079,,pt2_realistic_rating,996747,Fictional_Cities_List/img_natural_45.png,,50,Fictional_Cities_List/img_natural_45.png,NAT,2,,,,,,,,,,,,,,,
null,,confidence_buffer,996851,confidence_buffer,,null,,,,,,,,,,,,,,,,,,
3065.199999988079,,pt2_unique_rating,999919,Fictional_Cities_List/img_natural_45.png,,50,,,2,,,,,,,,,,,,,,,
null,,confidence_buffer,1000022,confidence_buffer,,null,,,,,,,,,,,,,,,,,,
2544,,pt2_memorable_rating,1002567,Fictional_Cities_List/img_natural_45.png,,50,,,2,,,,,,,,,,,,,,,
null,,confidence_buffer,1002669,confidence_buffer,,null,,,,,,,,,,,,,,,,,,
4783.5,,recognition_phase,1007455,Fictional_Cities_List/img_natural_45.png,,51,,,,,,new,0,0.9545454545454546,,,,,,,,,,
null,,confidence_buffer,1007559,confidence_buffer,,null,,,,,,,,,,,,,,,,,,
null,,thebreak,1008063,break,,null,,,,,,,,,,,,,,,,,,
4622,,pt2_realistic_rating,1012688,Fictional_Cities_List/img_manmade_36.png,,50,Fictional_Cities_List/img_manmade_36.png,MM,2,,,,,,,,,,,,,,,
null,,confidence_buffer,1012791,confidence_buffer,,null,,,,,,,,,,,,,,,,,,
2773,,pt2_unique_rating,1015566,Fictional_Cities_List/img_manmade_36.png,,53,,,5,,,,,,,,,,,,,,,
null,,confidence_buffer,1015668,confidence_buffer,,null,,,,,,,,,,,,,,,,,,
1359.3999999761581,,pt2_memorable_rating,1017029,Fictional_Cities_List/img_manmade_36.png,,53,,,5,,,,,,,,,,,,,,,
null,,confidence_buffer,1017132,confidence_buffer,,null,,,,,,,,,,,,,,,,,,
2993.7999999523163,,recognition_phase,1020129,Fictional_Cities_List/img_manmade_36.png,,52,,,,,,new,1,0.9565217391304348,,,,,,,,,,
null,,confidence_buffer,1020232,confidence_buffer,,null,,,,,,,,,,,,,,,,,,
null,,thebreak,1020736,break,,null,,,,,,,,,,,,,,,,,,
10070.600000023842,,pt2_realistic_rating,1030811,US_Cities_List/nat_healdsburg.png,,52,US_Cities_List/nat_healdsburg.png,NAT,4,,,,,,,,,,,,,,,
null,,confidence_buffer,1030915,confidence_buffer,,null,,,,,,,,,,,,,,,,,,
3978.699999988079,,pt2_unique_rating,1034896,US_Cities_List/nat_healdsburg.png,,50,,,2,,,,,,,,,,,,,,,
null,,confidence_buffer,1034998,confidence_buffer,,null,,,,,,,,,,,,,,,,,,
2905.699999988079,,probe_rating,1037908,probe_rating,,50,,,,2,1,,,,,,,,,,,,,
null,,confidence_buffer,1038011,confidence_buffer,,null,,,,,,,,,,,,,,,,,,
2575.599999964237,,pt2_memorable_rating,1040589,US_Cities_List/nat_healdsburg.png,,50,,,2,,,,,,,,,,,,,,,
null,,confidence_buffer,1040692,confidence_buffer,,null,,,,,,,,,,,,,,,,,,
11352.199999988079,,recognition_phase,1052047,US_Cities_List/nat_healdsburg.png,,50,,,,,,old,1,0.9583333333333334,,,,,,,,,,
null,,confidence_buffer,1052149,confidence_buffer,,null,,,,,,,,,,,,,,,,,,
null,,thebreak,1052651,break,,null,,,,,,,,,,,,,,,,,,
8204.900000035763,,pt2_realistic_rating,1060858,US_Cities_List/nat_peoria.png,,52,US_Cities_List/nat_peoria.png,NAT,4,,,,,,,,,,,,,,,
null,,confidence_buffer,1060961,confidence_buffer,,null,,,,,,,,,,,,,,,,,,
3735.5,,pt2_unique_rating,1064698,US_Cities_List/nat_peoria.png,,51,,,3,,,,,,,,,,,,,,,
null,,confidence_buffer,1064801,confidence_buffer,,null,,,,,,,,,,,,,,,,,,
4437,,pt2_memorable_rating,1069240,US_Cities_List/nat_peoria.png,,49,,,1,,,,,,,,,,,,,,,
null,,confidence_buffer,1069343,confidence_buffer,,null,,,,,,,,,,,,,,,,,,
5500.800000011921,,recognition_phase,1074846,US_Cities_List/nat_peoria.png,,52,,,,,,new,1,0.96,,,,,,,,,,
null,,confidence_buffer,1074948,confidence_buffer,,null,,,,,,,,,,,,,,,,,,
null,,thebreak,1075453,break,,null,,,,,,,,,,,,,,,,,,
7919.299999952316,,pt2_realistic_rating,1083377,US_Cities_List/mm_delawarecity.png,,52,US_Cities_List/mm_delawarecity.png,MM,4,,,,,,,,,,,,,,,
null,,confidence_buffer,1083480,confidence_buffer,,null,,,,,,,,,,,,,,,,,,
3978.5,,pt2_unique_rating,1087461,US_Cities_List/mm_delawarecity.png,,52,,,4,,,,,,,,,,,,,,,
null,,confidence_buffer,1087564,confidence_buffer,,null,,,,,,,,,,,,,,,,,,
3299.600000023842,,pt2_memorable_rating,1090866,US_Cities_List/mm_delawarecity.png,,51,,,3,,,,,,,,,,,,,,,
null,,confidence_buffer,1090969,confidence_buffer,,null,,,,,,,,,,,,,,,,,,
2306.5,,recognition_phase,1093278,US_Cities_List/mm_delawarecity.png,,52,,,,,,new,1,0.9615384615384616,,,,,,,,,,
null,,confidence_buffer,1093381,confidence_buffer,,null,,,,,,,,,,,,,,,,,,
null,,thebreak,1093882,break,,null,,,,,,,,,,,,,,,,,,
8792.5,,pt2_realistic_rating,1102678,US_Cities_List/nat_cornwall.png,,49,US_Cities_List/nat_cornwall.png,NAT,1,,,,,,,,,,,,,,,
null,,confidence_buffer,1102783,confidence_buffer,,null,,,,,,,,,,,,,,,,,,
4447.800000011921,,pt2_unique_rating,1107233,US_Cities_List/nat_cornwall.png,,52,,,4,,,,,,,,,,,,,,,
null,,confidence_buffer,1107336,confidence_buffer,,null,,,,,,,,,,,,,,,,,,
2002.5999999642372,,pt2_memorable_rating,1109341,US_Cities_List/nat_cornwall.png,,51,,,3,,,,,,,,,,,,,,,
null,,confidence_buffer,1109444,confidence_buffer,,null,,,,,,,,,,,,,,,,,,
3555.800000011921,,recognition_phase,1113001,US_Cities_List/nat_cornwall.png,,49,,,,,,old,1,0.9629629629629629,,,,,,,,,,
null,,confidence_buffer,1113103,confidence_buffer,,null,,,,,,,,,,,,,,,,,,
null,,thebreak,1113606,break,,null,,,,,,,,,,,,,,,,,,
4268.800000011921,,pt2_realistic_rating,1117878,Fictional_Cities_List/img_natural_30.png,,49,Fictional_Cities_List/img_natural_30.png,NAT,1,,,,,,,,,,,,,,,
null,,confidence_buffer,1117995,confidence_buffer,,null,,,,,,,,,,,,,,,,,,
2582.899999976158,,pt2_unique_rating,1120580,Fictional_Cities_List/img_natural_30.png,,52,,,4,,,,,,,,,,,,,,,
null,,confidence_buffer,1120685,confidence_buffer,,null,,,,,,,,,,,,,,,,,,
2044.5,,pt2_memorable_rating,1122732,Fictional_Cities_List/img_natural_30.png,,52,,,4,,,,,,,,,,,,,,,
null,,confidence_buffer,1122836,confidence_buffer,,null,,,,,,,,,,,,,,,,,,
2250.599999964237,,recognition_phase,1125088,Fictional_Cities_List/img_natural_30.png,,52,,,,,,new,1,0.9642857142857143,,,,,,,,,,
null,,confidence_buffer,1125193,confidence_buffer,,null,,,,,,,,,,,,,,,,,,
null,,thebreak,1125698,break,,null,,,,,,,,,,,,,,,,,,
10156,,pt2_realistic_rating,1135857,Fictional_Cities_List/img_natural_36.png,,51,Fictional_Cities_List/img_natural_36.png,NAT,3,,,,,,,,,,,,,,,
null,,confidence_buffer,1135961,confidence_buffer,,null,,,,,,,,,,,,,,,,,,
3307.399999976158,,pt2_unique_rating,1139270,Fictional_Cities_List/img_natural_36.png,,50,,,2,,,,,,,,,,,,,,,
null,,confidence_buffer,1139373,confidence_buffer,,null,,,,,,,,,,,,,,,,,,
5213.700000047684,,pt2_memorable_rating,1144589,Fictional_Cities_List/img_natural_36.png,,50,,,2,,,,,,,,,,,,,,,
null,,confidence_buffer,1144693,confidence_buffer,,null,,,,,,,,,,,,,,,,,,
10333.699999988079,,recognition_phase,1155029,Fictional_Cities_List/img_natural_36.png,,51,,,,,,new,0,0.9310344827586207,,,,,,,,,,
null,,confidence_buffer,1155133,confidence_buffer,,null,,,,,,,,,,,,,,,,,,
null,,thebreak,1155634,break,,null,,,,,,,,,,,,,,,,,,
9563.400000035763,,pt2_realistic_rating,1165201,Fictional_Cities_List/img_natural_16.png,,49,Fictional_Cities_List/img_natural_16.png,NAT,1,,,,,,,,,,,,,,,
null,,confidence_buffer,1165304,confidence_buffer,,null,,,,,,,,,,,,,,,,,,
3532.600000023842,,pt2_unique_rating,1168839,Fictional_Cities_List/img_natural_16.png,,51,,,3,,,,,,,,,,,,,,,
null,,confidence_buffer,1168942,confidence_buffer,,null,,,,,,,,,,,,,,,,,,
2866.099999964237,,pt2_memorable_rating,1171810,Fictional_Cities_List/img_natural_16.png,,51,,,3,,,,,,,,,,,,,,,
null,,confidence_buffer,1171915,confidence_buffer,,null,,,,,,,,,,,,,,,,,,
3804.699999988079,,recognition_phase,1175723,Fictional_Cities_List/img_natural_16.png,,50,,,,,,old,1,0.9333333333333333,,,,,,,,,,
null,,confidence_buffer,1175827,confidence_buffer,,null,,,,,,,,,,,,,,,,,,
null,,thebreak,1176331,break,,null,,,,,,,,,,,,,,,,,,
4025.099999964237,,pt2_realistic_rating,1180361,US_Cities_List/mm_sitka.png,,52,US_Cities_List/mm_sitka.png,MM,4,,,,,,,,,,,,,,,
null,,confidence_buffer,1180464,confidence_buffer,,null,,,,,,,,,,,,,,,,,,
3583.600000023842,,pt2_unique_rating,1184051,US_Cities_List/mm_sitka.png,,52,,,4,,,,,,,,,,,,,,,
null,,confidence_buffer,1184157,confidence_buffer,,null,,,,,,,,,,,,,,,,,,
3232,,pt2_memorable_rating,1187391,US_Cities_List/mm_sitka.png,,52,,,4,,,,,,,,,,,,,,,
null,,confidence_buffer,1187493,confidence_buffer,,null,,,,,,,,,,,,,,,,,,
2095.699999988079,,recognition_phase,1189590,US_Cities_List/mm_sitka.png,,49,,,,,,old,1,0.9354838709677419,,,,,,,,,,
null,,confidence_buffer,1189693,confidence_buffer,,null,,,,,,,,,,,,,,,,,,
null,,thebreak,1190196,break,,null,,,,,,,,,,,,,,,,,,
5801.800000011921,,pt2_realistic_rating,1196001,Fictional_Cities_List/img_manmade_06.png,,52,Fictional_Cities_List/img_manmade_06.png,MM,4,,,,,,,,,,,,,,,
null,,confidence_buffer,1196104,confidence_buffer,,null,,,,,,,,,,,,,,,,,,
2903.5,,pt2_unique_rating,1199010,Fictional_Cities_List/img_manmade_06.png,,51,,,3,,,,,,,,,,,,,,,
null,,confidence_buffer,1199113,confidence_buffer,,null,,,,,,,,,,,,,,,,,,
4586.400000035763,,pt2_memorable_rating,1203701,Fictional_Cities_List/img_manmade_06.png,,52,,,4,,,,,,,,,,,,,,,
null,,confidence_buffer,1203803,confidence_buffer,,null,,,,,,,,,,,,,,,,,,
1498.300000011921,,recognition_phase,1205303,Fictional_Cities_List/img_manmade_06.png,,49,,,,,,old,1,0.9375,,,,,,,,,,
null,,confidence_buffer,1205406,confidence_buffer,,null,,,,,,,,,,,,,,,,,,
null,,thebreak,1205908,break,,null,,,,,,,,,,,,,,,,,,
7778.899999976158,,pt2_realistic_rating,1213690,US_Cities_List/nat_delawarecity.png,,52,US_Cities_List/nat_delawarecity.png,NAT,4,,,,,,,,,,,,,,,
null,,confidence_buffer,1213794,confidence_buffer,,null,,,,,,,,,,,,,,,,,,
5101.199999988079,,pt2_unique_rating,1218899,US_Cities_List/nat_delawarecity.png,,49,,,1,,,,,,,,,,,,,,,
null,,confidence_buffer,1219001,confidence_buffer,,null,,,,,,,,,,,,,,,,,,
3704.899999976158,,pt2_memorable_rating,1222709,US_Cities_List/nat_delawarecity.png,,50,,,2,,,,,,,,,,,,,,,
null,,confidence_buffer,1222811,confidence_buffer,,null,,,,,,,,,,,,,,,,,,
1629.5,,recognition_phase,1224443,US_Cities_List/nat_delawarecity.png,,49,,,,,,old,1,0.9393939393939394,,,,,,,,,,
null,,confidence_buffer,1224545,confidence_buffer,,null,,,,,,,,,,,,,,,,,,
null,,thebreak,1225049,break,,null,,,,,,,,,,,,,,,,,,
5838.5,,pt2_realistic_rating,1230891,US_Cities_List/mm_okoboji.png,,49,US_Cities_List/mm_okoboji.png,MM,1,,,,,,,,,,,,,,,
null,,confidence_buffer,1230994,confidence_buffer,,null,,,,,,,,,,,,,,,,,,
5697.299999952316,,pt2_unique_rating,1236693,US_Cities_List/mm_okoboji.png,,52,,,4,,,,,,,,,,,,,,,
null,,confidence_buffer,1236795,confidence_buffer,,null,,,,,,,,,,,,,,,,,,
1166.4000000357628,,pt2_memorable_rating,1237963,US_Cities_List/mm_okoboji.png,,52,,,4,,,,,,,,,,,,,,,
null,,confidence_buffer,1238065,confidence_buffer,,null,,,,,,,,,,,,,,,,,,
2843.100000023842,,probe_rating,1240911,probe_rating,,49,,,,1,1,,,,,,,,,,,,,
null,,confidence_buffer,1241015,confidence_buffer,,null,,,,,,,,,,,,,,,,,,
2140.600000023842,,recognition_phase,1243157,US_Cities_List/mm_okoboji.png,,52,,,,,,new,1,0.9411764705882353,,,,,,,,,,
null,,confidence_buffer,1243260,confidence_buffer,,null,,,,,,,,,,,,,,,,,,
null,,thebreak,1243763,break,,null,,,,,,,,,,,,,,,,,,
14143.800000011921,,pt2_realistic_rating,1257910,Fictional_Cities_List/img_natural_06.png,,50,Fictional_Cities_List/img_natural_06.png,NAT,2,,,,,,,,,,,,,,,
null,,confidence_buffer,1258012,confidence_buffer,,null,,,,,,,,,,,,,,,,,,
4635.799999952316,,pt2_unique_rating,1262650,Fictional_Cities_List/img_natural_06.png,,53,,,5,,,,,,,,,,,,,,,
null,,confidence_buffer,1262753,confidence_buffer,,null,,,,,,,,,,,,,,,,,,
1034.8999999761581,,pt2_memorable_rating,1263790,Fictional_Cities_List/img_natural_06.png,,53,,,5,,,,,,,,,,,,,,,
null,,confidence_buffer,1263893,confidence_buffer,,null,,,,,,,,,,,,,,,,,,
1543.8999999761581,,recognition_phase,1265440,Fictional_Cities_List/img_natural_06.png,,52,,,,,,new,1,0.9428571428571428,,,,,,,,,,
null,,confidence_buffer,1265543,confidence_buffer,,null,,,,,,,,,,,,,,,,,,
null,,thebreak,1266047,break,,null,,,,,,,,,,,,,,,,,,
3079.699999988079,,pt2_realistic_rating,1269130,US_Cities_List/nat_hilo.png,,50,US_Cities_List/nat_hilo.png,NAT,2,,,,,,,,,,,,,,,
null,,confidence_buffer,1269233,confidence_buffer,,null,,,,,,,,,,,,,,,,,,
4173.5,,pt2_unique_rating,1273409,US_Cities_List/nat_hilo.png,,51,,,3,,,,,,,,,,,,,,,
null,,confidence_buffer,1273512,confidence_buffer,,null,,,,,,,,,,,,,,,,,,
2606.800000011921,,pt2_memorable_rating,1276122,US_Cities_List/nat_hilo.png,,50,,,2,,,,,,,,,,,,,,,
null,,confidence_buffer,1276227,confidence_buffer,,null,,,,,,,,,,,,,,,,,,
2679.400000035763,,recognition_phase,1278909,US_Cities_List/nat_hilo.png,,52,,,,,,new,1,0.9444444444444444,,,,,,,,,,
null,,confidence_buffer,1279011,confidence_buffer,,null,,,,,,,,,,,,,,,,,,
null,,thebreak,1279514,break,,null,,,,,,,,,,,,,,,,,,
3423.300000011921,,pt2_realistic_rating,1282940,US_Cities_List/mm_athens.png,,51,US_Cities_List/mm_athens.png,MM,3,,,,,,,,,,,,,,,
null,,confidence_buffer,1283046,confidence_buffer,,null,,,,,,,,,,,,,,,,,,
6073.699999988079,,pt2_unique_rating,1289123,US_Cities_List/mm_athens.png,,50,,,2,,,,,,,,,,,,,,,
null,,confidence_buffer,1289225,confidence_buffer,,null,,,,,,,,,,,,,,,,,,
3866.7000000476837,,pt2_memorable_rating,1293094,US_Cities_List/mm_athens.png,,51,,,3,,,,,,,,,,,,,,,
null,,confidence_buffer,1293197,confidence_buffer,,null,,,,,,,,,,,,,,,,,,
1791.0999999642372,,recognition_phase,1294990,US_Cities_List/mm_athens.png,,52,,,,,,new,1,0.9459459459459459,,,,,,,,,,
null,,confidence_buffer,1295096,confidence_buffer,,null,,,,,,,,,,,,,,,,,,
null,,thebreak,1295599,break,,null,,,,,,,,,,,,,,,,,,
3791.399999976158,,pt2_realistic_rating,1299393,Fictional_Cities_List/img_natural_50.png,,50,Fictional_Cities_List/img_natural_50.png,NAT,2,,,,,,,,,,,,,,,
null,,confidence_buffer,1299495,confidence_buffer,,null,,,,,,,,,,,,,,,,,,
2423.100000023842,,pt2_unique_rating,1301920,Fictional_Cities_List/img_natural_50.png,,49,,,1,,,,,,,,,,,,,,,
null,,confidence_buffer,1302023,confidence_buffer,,null,,,,,,,,,,,,,,,,,,
8358,,pt2_memorable_rating,1310383,Fictional_Cities_List/img_natural_50.png,,50,,,2,,,,,,,,,,,,,,,
null,,confidence_buffer,1310485,confidence_buffer,,null,,,,,,,,,,,,,,,,,,
2370.7999999523163,,recognition_phase,1312859,Fictional_Cities_List/img_natural_50.png,,52,,,,,,new,1,0.9473684210526315,,,,,,,,,,
null,,confidence_buffer,1312961,confidence_buffer,,null,,,,,,,,,,,,,,,,,,
null,,thebreak,1313465,break,,null,,,,,,,,,,,,,,,,,,
5104.800000011921,,pt2_realistic_rating,1318573,Fictional_Cities_List/img_manmade_29.png,,50,Fictional_Cities_List/img_manmade_29.png,MM,2,,,,,,,,,,,,,,,
null,,confidence_buffer,1318676,confidence_buffer,,null,,,,,,,,,,,,,,,,,,
2964,,pt2_unique_rating,1321645,Fictional_Cities_List/img_manmade_29.png,,52,,,4,,,,,,,,,,,,,,,
null,,confidence_buffer,1321747,confidence_buffer,,null,,,,,,,,,,,,,,,,,,
587.1999999880791,,pt2_memorable_rating,1322336,Fictional_Cities_List/img_manmade_29.png,,52,,,4,,,,,,,,,,,,,,,
null,,confidence_buffer,1322439,confidence_buffer,,null,,,,,,,,,,,,,,,,,,
1728.800000011921,,recognition_phase,1324171,Fictional_Cities_List/img_manmade_29.png,,49,,,,,,old,1,0.9487179487179487,,,,,,,,,,
null,,confidence_buffer,1324274,confidence_buffer,,null,,,,,,,,,,,,,,,,,,
null,,thebreak,1324777,break,,null,,,,,,,,,,,,,,,,,,
3822.899999976158,,pt2_realistic_rating,1328603,Fictional_Cities_List/img_natural_01.png,,50,Fictional_Cities_List/img_natural_01.png,NAT,2,,,,,,,,,,,,,,,
null,,confidence_buffer,1328714,confidence_buffer,,null,,,,,,,,,,,,,,,,,,
2039.1000000238419,,pt2_unique_rating,1330755,Fictional_Cities_List/img_natural_01.png,,49,,,1,,,,,,,,,,,,,,,
null,,confidence_buffer,1330858,confidence_buffer,,null,,,,,,,,,,,,,,,,,,
3121,,pt2_memorable_rating,1333982,Fictional_Cities_List/img_natural_01.png,,49,,,1,,,,,,,,,,,,,,,
null,,confidence_buffer,1334085,confidence_buffer,,null,,,,,,,,,,,,,,,,,,
2212.5,,recognition_phase,1336300,Fictional_Cities_List/img_natural_01.png,,52,,,,,,new,1,0.95,,,,,,,,,,
null,,confidence_buffer,1336403,confidence_buffer,,null,,,,,,,,,,,,,,,,,,
null,,thebreak,1336906,break,,null,,,,,,,,,,,,,,,,,,
5928.799999952316,,pt2_realistic_rating,1342837,Fictional_Cities_List/img_natural_08.png,,51,Fictional_Cities_List/img_natural_08.png,NAT,3,,,,,,,,,,,,,,,
null,,confidence_buffer,1342940,confidence_buffer,,null,,,,,,,,,,,,,,,,,,
3418,,pt2_unique_rating,1346361,Fictional_Cities_List/img_natural_08.png,,50,,,2,,,,,,,,,,,,,,,
null,,confidence_buffer,1346465,confidence_buffer,,null,,,,,,,,,,,,,,,,,,
1643.3999999761581,,pt2_memorable_rating,1348110,Fictional_Cities_List/img_natural_08.png,,51,,,3,,,,,,,,,,,,,,,
null,,confidence_buffer,1348212,confidence_buffer,,null,,,,,,,,,,,,,,,,,,
2081.800000011921,,recognition_phase,1350297,Fictional_Cities_List/img_natural_08.png,,52,,,,,,new,1,0.9512195121951219,,,,,,,,,,
null,,confidence_buffer,1350400,confidence_buffer,,null,,,,,,,,,,,,,,,,,,
null,,thebreak,1350902,break,,null,,,,,,,,,,,,,,,,,,
5436.300000011921,,pt2_realistic_rating,1356341,US_Cities_List/nat_okoboji.png,,50,US_Cities_List/nat_okoboji.png,NAT,2,,,,,,,,,,,,,,,
null,,confidence_buffer,1356444,confidence_buffer,,null,,,,,,,,,,,,,,,,,,
2115.100000023842,,pt2_unique_rating,1358562,US_Cities_List/nat_okoboji.png,,49,,,1,,,,,,,,,,,,,,,
null,,confidence_buffer,1358665,confidence_buffer,,null,,,,,,,,,,,,,,,,,,
3085.5,,pt2_memorable_rating,1361753,US_Cities_List/nat_okoboji.png,,50,,,2,,,,,,,,,,,,,,,
null,,confidence_buffer,1361856,confidence_buffer,,null,,,,,,,,,,,,,,,,,,
2272.399999976158,,recognition_phase,1364131,US_Cities_List/nat_okoboji.png,,52,,,,,,new,1,0.9523809523809523,,,,,,,,,,
null,,confidence_buffer,1364242,confidence_buffer,,null,,,,,,,,,,,,,,,,,,
null,,thebreak,1364744,break,,null,,,,,,,,,,,,,,,,,,
3986.199999988079,,pt2_realistic_rating,1368733,US_Cities_List/mm_healdsburg.png,,52,US_Cities_List/mm_healdsburg.png,MM,4,,,,,,,,,,,,,,,
null,,confidence_buffer,1368835,confidence_buffer,,null,,,,,,,,,,,,,,,,,,
2528.699999988079,,pt2_unique_rating,1371366,US_Cities_List/mm_healdsburg.png,,52,,,4,,,,,,,,,,,,,,,
null,,confidence_buffer,1371471,confidence_buffer,,null,,,,,,,,,,,,,,,,,,
3660.300000011921,,pt2_memorable_rating,1375134,US_Cities_List/mm_healdsburg.png,,53,,,5,,,,,,,,,,,,,,,
null,,confidence_buffer,1375236,confidence_buffer,,null,,,,,,,,,,,,,,,,,,
1582.199999988079,,recognition_phase,1376821,US_Cities_List/mm_healdsburg.png,,49,,,,,,old,1,0.9534883720930233,,,,,,,,,,
null,,confidence_buffer,1376926,confidence_buffer,,null,,,,,,,,,,,,,,,,,,
null,,thebreak,1377430,break,,null,,,,,,,,,,,,,,,,,,
11675.800000011921,,pt2_realistic_rating,1389109,US_Cities_List/mm_cornwall.png,,51,US_Cities_List/mm_cornwall.png,MM,3,,,,,,,,,,,,,,,
null,,confidence_buffer,1389211,confidence_buffer,,null,,,,,,,,,,,,,,,,,,
1769.3999999761581,,pt2_unique_rating,1390982,US_Cities_List/mm_cornwall.png,,52,,,4,,,,,,,,,,,,,,,
null,,confidence_buffer,1391085,confidence_buffer,,null,,,,,,,,,,,,,,,,,,
1526.6000000238419,,pt2_memorable_rating,1392614,US_Cities_List/mm_cornwall.png,,52,,,4,,,,,,,,,,,,,,,
null,,confidence_buffer,1392719,confidence_buffer,,null,,,,,,,,,,,,,,,,,,
3091.300000011921,,recognition_phase,1395814,US_Cities_List/mm_cornwall.png,,52,,,,,,new,0,0.9318181818181818,,,,,,,,,,
null,,confidence_buffer,1395917,confidence_buffer,,null,,,,,,,,,,,,,,,,,,
null,,thebreak,1396421,break,,null,,,,,,,,,,,,,,,,,,
2969.599999964237,,pt2_realistic_rating,1399392,Fictional_Cities_List/img_manmade_10.png,,49,Fictional_Cities_List/img_manmade_10.png,MM,1,,,,,,,,,,,,,,,
null,,confidence_buffer,1399495,confidence_buffer,,null,,,,,,,,,,,,,,,,,,
2935.7000000476837,,pt2_unique_rating,1402432,Fictional_Cities_List/img_manmade_10.png,,52,,,4,,,,,,,,,,,,,,,
null,,confidence_buffer,1402535,confidence_buffer,,null,,,,,,,,,,,,,,,,,,
1284.9000000357628,,pt2_memorable_rating,1403822,Fictional_Cities_List/img_manmade_10.png,,52,,,4,,,,,,,,,,,,,,,
null,,confidence_buffer,1403925,confidence_buffer,,null,,,,,,,,,,,,,,,,,,
1465.2999999523163,,recognition_phase,1405392,Fictional_Cities_List/img_manmade_10.png,,49,,,,,,old,1,0.9333333333333333,,,,,,,,,,
null,,confidence_buffer,1405496,confidence_buffer,,null,,,,,,,,,,,,,,,,,,
null,,thebreak,1406002,break,,null,,,,,,,,,,,,,,,,,,
8989.899999976158,,pt2_realistic_rating,1414995,Fictional_Cities_List/img_natural_22.png,,49,Fictional_Cities_List/img_natural_22.png,NAT,1,,,,,,,,,,,,,,,
null,,confidence_buffer,1415098,confidence_buffer,,null,,,,,,,,,,,,,,,,,,
2893.800000011921,,pt2_unique_rating,1417994,Fictional_Cities_List/img_natural_22.png,,50,,,2,,,,,,,,,,,,,,,
null,,confidence_buffer,1418098,confidence_buffer,,null,,,,,,,,,,,,,,,,,,
2671.599999964237,,pt2_memorable_rating,1420772,Fictional_Cities_List/img_natural_22.png,,52,,,4,,,,,,,,,,,,,,,
null,,confidence_buffer,1420875,confidence_buffer,,null,,,,,,,,,,,,,,,,,,
1717,,recognition_phase,1422594,Fictional_Cities_List/img_natural_22.png,,49,,,,,,old,1,0.9347826086956522,,,,,,,,,,
null,,confidence_buffer,1422697,confidence_buffer,,null,,,,,,,,,,,,,,,,,,
null,,thebreak,1423199,break,,null,,,,,,,,,,,,,,,,,,
5041.5,,pt2_realistic_rating,1428242,US_Cities_List/mm_carmel.png,,51,US_Cities_List/mm_carmel.png,MM,3,,,,,,,,,,,,,,,
null,,confidence_buffer,1428346,confidence_buffer,,null,,,,,,,,,,,,,,,,,,
2877.100000023842,,pt2_unique_rating,1431227,US_Cities_List/mm_carmel.png,,52,,,4,,,,,,,,,,,,,,,
null,,confidence_buffer,1431332,confidence_buffer,,null,,,,,,,,,,,,,,,,,,
2142.699999988079,,probe_rating,1433476,probe_rating,,51,,,,3,1,,,,,,,,,,,,,
null,,confidence_buffer,1433581,confidence_buffer,,null,,,,,,,,,,,,,,,,,,
2531.400000035763,,pt2_memorable_rating,1436115,US_Cities_List/mm_carmel.png,,52,,,4,,,,,,,,,,,,,,,
null,,confidence_buffer,1436217,confidence_buffer,,null,,,,,,,,,,,,,,,,,,
1996.7000000476837,,recognition_phase,1438216,US_Cities_List/mm_carmel.png,,49,,,,,,old,1,0.9361702127659575,,,,,,,,,,
null,,confidence_buffer,1438321,confidence_buffer,,null,,,,,,,,,,,,,,,,,,
null,,thebreak,1438825,break,,null,,,,,,,,,,,,,,,,,,
6493.5,,pt2_realistic_rating,1445323,Fictional_Cities_List/img_manmade_27.png,,50,Fictional_Cities_List/img_manmade_27.png,MM,2,,,,,,,,,,,,,,,
null,,confidence_buffer,1445426,confidence_buffer,,null,,,,,,,,,,,,,,,,,,
4277.099999964237,,pt2_unique_rating,1449705,Fictional_Cities_List/img_manmade_27.png,,52,,,4,,,,,,,,,,,,,,,
null,,confidence_buffer,1449807,confidence_buffer,,null,,,,,,,,,,,,,,,,,,
2825.5,,pt2_memorable_rating,1452636,Fictional_Cities_List/img_manmade_27.png,,52,,,4,,,,,,,,,,,,,,,
null,,confidence_buffer,1452738,confidence_buffer,,null,,,,,,,,,,,,,,,,,,
3012,,recognition_phase,1455753,Fictional_Cities_List/img_manmade_27.png,,52,,,,,,new,1,0.9375,,,,,,,,,,
null,,confidence_buffer,1455855,confidence_buffer,,null,,,,,,,,,,,,,,,,,,
null,,thebreak,1456357,break,,null,,,,,,,,,,,,,,,,,,
6386.900000035763,,pt2_realistic_rating,1462747,Fictional_Cities_List/img_natural_27.png,,50,Fictional_Cities_List/img_natural_27.png,NAT,2,,,,,,,,,,,,,,,
null,,confidence_buffer,1462850,confidence_buffer,,null,,,,,,,,,,,,,,,,,,
3080.099999964237,,pt2_unique_rating,1465932,Fictional_Cities_List/img_natural_27.png,,50,,,2,,,,,,,,,,,,,,,
null,,confidence_buffer,1466035,confidence_buffer,,null,,,,,,,,,,,,,,,,,,
3422.600000023842,,pt2_memorable_rating,1469460,Fictional_Cities_List/img_natural_27.png,,51,,,3,,,,,,,,,,,,,,,
null,,confidence_buffer,1469562,confidence_buffer,,null,,,,,,,,,,,,,,,,,,
2972.699999988079,,recognition_phase,1472538,Fictional_Cities_List/img_natural_27.png,,52,,,,,,new,1,0.9387755102040817,,,,,,,,,,
null,,confidence_buffer,1472641,confidence_buffer,,null,,,,,,,,,,,,,,,,,,
null,,thebreak,1473146,break,,null,,,,,,,,,,,,,,,,,,
4657.800000011921,,pt2_realistic_rating,1477808,Fictional_Cities_List/img_natural_25.png,,50,Fictional_Cities_List/img_natural_25.png,NAT,2,,,,,,,,,,,,,,,
null,,confidence_buffer,1477921,confidence_buffer,,null,,,,,,,,,,,,,,,,,,
3765.7999999523163,,pt2_unique_rating,1481689,Fictional_Cities_List/img_natural_25.png,,52,,,4,,,,,,,,,,,,,,,
null,,confidence_buffer,1481800,confidence_buffer,,null,,,,,,,,,,,,,,,,,,
1762.9000000357628,,pt2_memorable_rating,1483566,Fictional_Cities_List/img_natural_25.png,,53,,,5,,,,,,,,,,,,,,,
null,,confidence_buffer,1483669,confidence_buffer,,null,,,,,,,,,,,,,,,,,,
2150.699999988079,,recognition_phase,1485823,Fictional_Cities_List/img_natural_25.png,,49,,,,,,old,1,0.94,,,,,,,,,,
null,,confidence_buffer,1485941,confidence_buffer,,null,,,,,,,,,,,,,,,,,,
null,,thebreak,1486444,break,,null,,,,,,,,,,,,,,,,,,
6407.300000011921,,pt2_realistic_rating,1492854,Fictional_Cities_List/img_manmade_01.png,,51,Fictional_Cities_List/img_manmade_01.png,MM,3,,,,,,,,,,,,,,,
null,,confidence_buffer,1492958,confidence_buffer,,null,,,,,,,,,,,,,,,,,,
2753.7999999523163,,pt2_unique_rating,1495713,Fictional_Cities_List/img_manmade_01.png,,52,,,4,,,,,,,,,,,,,,,
null,,confidence_buffer,1495816,confidence_buffer,,null,,,,,,,,,,,,,,,,,,
1014.6999999880791,,pt2_memorable_rating,1496833,Fictional_Cities_List/img_manmade_01.png,,53,,,5,,,,,,,,,,,,,,,
null,,confidence_buffer,1496937,confidence_buffer,,null,,,,,,,,,,,,,,,,,,
2121.900000035763,,recognition_phase,1499062,Fictional_Cities_List/img_manmade_01.png,,49,,,,,,old,1,0.9411764705882353,,,,,,,,,,
null,,confidence_buffer,1499165,confidence_buffer,,null,,,,,,,,,,,,,,,,,,
null,,thebreak,1499667,break,,null,,,,,,,,,,,,,,,,,,
3281.699999988079,,pt2_realistic_rating,1502953,US_Cities_List/nat_westpalmbeach.png,,50,US_Cities_List/nat_westpalmbeach.png,NAT,2,,,,,,,,,,,,,,,
null,,confidence_buffer,1503056,confidence_buffer,,null,,,,,,,,,,,,,,,,,,
4060.399999976158,,pt2_unique_rating,1507118,US_Cities_List/nat_westpalmbeach.png,,50,,,2,,,,,,,,,,,,,,,
null,,confidence_buffer,1507220,confidence_buffer,,null,,,,,,,,,,,,,,,,,,
2837.099999964237,,pt2_memorable_rating,1510059,US_Cities_List/nat_westpalmbeach.png,,50,,,2,,,,,,,,,,,,,,,
null,,confidence_buffer,1510162,confidence_buffer,,null,,,,,,,,,,,,,,,,,,
3077.300000011921,,recognition_phase,1513241,US_Cities_List/nat_westpalmbeach.png,,52,,,,,,new,1,0.9423076923076923,,,,,,,,,,
null,,confidence_buffer,1513343,confidence_buffer,,null,,,,,,,,,,,,,,,,,,
null,,thebreak,1513847,break,,null,,,,,,,,,,,,,,,,,,
6167.400000035763,,pt2_realistic_rating,1520017,Fictional_Cities_List/img_manmade_30.png,,49,Fictional_Cities_List/img_manmade_30.png,MM,1,,,,,,,,,,,,,,,
null,,confidence_buffer,1520121,confidence_buffer,,null,,,,,,,,,,,,,,,,,,
3059.600000023842,,pt2_unique_rating,1523183,Fictional_Cities_List/img_manmade_30.png,,53,,,5,,,,,,,,,,,,,,,
null,,confidence_buffer,1523287,confidence_buffer,,null,,,,,,,,,,,,,,,,,,
956.6000000238419,,pt2_memorable_rating,1524245,Fictional_Cities_List/img_manmade_30.png,,53,,,5,,,,,,,,,,,,,,,
null,,confidence_buffer,1524348,confidence_buffer,,null,,,,,,,,,,,,,,,,,,
2399,,recognition_phase,1526749,Fictional_Cities_List/img_manmade_30.png,,52,,,,,,new,1,0.9433962264150944,,,,,,,,,,
null,,confidence_buffer,1526852,confidence_buffer,,null,,,,,,,,,,,,,,,,,,
null,,thebreak,1527356,break,,null,,,,,,,,,,,,,,,,,,
6754.300000011921,,pt2_realistic_rating,1534115,Fictional_Cities_List/img_natural_48.png,,51,Fictional_Cities_List/img_natural_48.png,NAT,3,,,,,,,,,,,,,,,
null,,confidence_buffer,1534219,confidence_buffer,,null,,,,,,,,,,,,,,,,,,
2268.100000023842,,probe_rating,1536490,probe_rating,,50,,,,2,1,,,,,,,,,,,,,
null,,confidence_buffer,1536592,confidence_buffer,,null,,,,,,,,,,,,,,,,,,
6213.399999976158,,pt2_unique_rating,1542809,Fictional_Cities_List/img_natural_48.png,,50,,,2,,,,,,,,,,,,,,,
null,,confidence_buffer,1542912,confidence_buffer,,null,,,,,,,,,,,,,,,,,,
3343.899999976158,,pt2_memorable_rating,1546258,Fictional_Cities_List/img_natural_48.png,,50,,,2,,,,,,,,,,,,,,,
null,,confidence_buffer,1546361,confidence_buffer,,null,,,,,,,,,,,,,,,,,,
9930.699999988079,,recognition_phase,1556294,Fictional_Cities_List/img_natural_48.png,,50,,,,,,old,1,0.9444444444444444,,,,,,,,,,
null,,confidence_buffer,1556397,confidence_buffer,,null,,,,,,,,,,,,,,,,,,
null,,thebreak,1556899,break,,null,,,,,,,,,,,,,,,,,,
5344.199999988079,,pt2_realistic_rating,1562246,Fictional_Cities_List/img_manmade_16.png,,49,Fictional_Cities_List/img_manmade_16.png,MM,1,,,,,,,,,,,,,,,
null,,confidence_buffer,1562350,confidence_buffer,,null,,,,,,,,,,,,,,,,,,
3101.100000023842,,pt2_unique_rating,1565454,Fictional_Cities_List/img_manmade_16.png,,52,,,4,,,,,,,,,,,,,,,
null,,confidence_buffer,1565556,confidence_buffer,,null,,,,,,,,,,,,,,,,,,
2524,,pt2_memorable_rating,1568082,Fictional_Cities_List/img_manmade_16.png,,53,,,5,,,,,,,,,,,,,,,
null,,confidence_buffer,1568184,confidence_buffer,,null,,,,,,,,,,,,,,,,,,
1479.5999999642372,,recognition_phase,1569666,Fictional_Cities_List/img_manmade_16.png,,49,,,,,,old,1,0.9454545454545454,,,,,,,,,,
null,,confidence_buffer,1569769,confidence_buffer,,null,,,,,,,,,,,,,,,,,,
null,,thebreak,1570273,break,,null,,,,,,,,,,,,,,,,,,
3776.099999964237,,pt2_realistic_rating,1574052,Fictional_Cities_List/img_natural_10.png,,49,Fictional_Cities_List/img_natural_10.png,NAT,1,,,,,,,,,,,,,,,
null,,confidence_buffer,1574155,confidence_buffer,,null,,,,,,,,,,,,,,,,,,
2338.400000035763,,pt2_unique_rating,1576496,Fictional_Cities_List/img_natural_10.png,,52,,,4,,,,,,,,,,,,,,,
null,,confidence_buffer,1576599,confidence_buffer,,null,,,,,,,,,,,,,,,,,,
3645.399999976158,,pt2_memorable_rating,1580247,Fictional_Cities_List/img_natural_10.png,,53,,,5,,,,,,,,,,,,,,,
null,,confidence_buffer,1580351,confidence_buffer,,null,,,,,,,,,,,,,,,,,,
2474.100000023842,,recognition_phase,1582827,Fictional_Cities_List/img_natural_10.png,,52,,,,,,new,1,0.9464285714285714,,,,,,,,,,
null,,confidence_buffer,1582931,confidence_buffer,,null,,,,,,,,,,,,,,,,,,
null,,thebreak,1583434,break,,null,,,,,,,,,,,,,,,,,,
5791.699999988079,,pt2_realistic_rating,1589228,Fictional_Cities_List/img_manmade_22.png,,49,Fictional_Cities_List/img_manmade_22.png,MM,1,,,,,,,,,,,,,,,
null,,confidence_buffer,1589331,confidence_buffer,,null,,,,,,,,,,,,,,,,,,
3461.099999964237,,pt2_unique_rating,1592795,Fictional_Cities_List/img_manmade_22.png,,52,,,4,,,,,,,,,,,,,,,
null,,confidence_buffer,1592898,confidence_buffer,,null,,,,,,,,,,,,,,,,,,
1973,,pt2_memorable_rating,1594873,Fictional_Cities_List/img_manmade_22.png,,53,,,5,,,,,,,,,,,,,,,
null,,confidence_buffer,1594977,confidence_buffer,,null,,,,,,,,,,,,,,,,,,
1829.5,,recognition_phase,1596809,Fictional_Cities_List/img_manmade_22.png,,52,,,,,,new,1,0.9473684210526315,,,,,,,,,,
null,,confidence_buffer,1596912,confidence_buffer,,null,,,,,,,,,,,,,,,,,,
null,,thebreak,1597421,break,,null,,,,,,,,,,,,,,,,,,
4730.5,,pt2_realistic_rating,1602155,US_Cities_List/nat_athens.png,,51,US_Cities_List/nat_athens.png,NAT,3,,,,,,,,,,,,,,,
null,,confidence_buffer,1602258,confidence_buffer,,null,,,,,,,,,,,,,,,,,,
2693.300000011921,,pt2_unique_rating,1604954,US_Cities_List/nat_athens.png,,49,,,1,,,,,,,,,,,,,,,
null,,confidence_buffer,1605058,confidence_buffer,,null,,,,,,,,,,,,,,,,,,
2243.900000035763,,pt2_memorable_rating,1607304,US_Cities_List/nat_athens.png,,49,,,1,,,,,,,,,,,,,,,
null,,confidence_buffer,1607416,confidence_buffer,,null,,,,,,,,,,,,,,,,,,
5687.5,,recognition_phase,1613107,US_Cities_List/nat_athens.png,,52,,,,,,new,1,0.9482758620689655,,,,,,,,,,
null,,confidence_buffer,1613210,confidence_buffer,,null,,,,,,,,,,,,,,,,,,
null,,thebreak,1613714,break,,null,,,,,,,,,,,,,,,,,,
5418.199999988079,,pt2_realistic_rating,1619134,US_Cities_List/mm_coeurdalene.png,,52,US_Cities_List/mm_coeurdalene.png,MM,4,,,,,,,,,,,,,,,
null,,confidence_buffer,1619238,confidence_buffer,,null,,,,,,,,,,,,,,,,,,
4808,,pt2_unique_rating,1624048,US_Cities_List/mm_coeurdalene.png,,51,,,3,,,,,,,,,,,,,,,
null,,confidence_buffer,1624151,confidence_buffer,,null,,,,,,,,,,,,,,,,,,
2730.100000023842,,pt2_memorable_rating,1626883,US_Cities_List/mm_coeurdalene.png,,52,,,4,,,,,,,,,,,,,,,
null,,confidence_buffer,1626986,confidence_buffer,,null,,,,,,,,,,,,,,,,,,
2190.699999988079,,recognition_phase,1629179,US_Cities_List/mm_coeurdalene.png,,49,,,,,,old,1,0.9491525423728814,,,,,,,,,,
null,,confidence_buffer,1629282,confidence_buffer,,null,,,,,,,,,,,,,,,,,,
null,,thebreak,1629785,break,,null,,,,,,,,,,,,,,,,,,
6759.700000047684,,pt2_realistic_rating,1636548,Fictional_Cities_List/img_manmade_50.png,,52,Fictional_Cities_List/img_manmade_50.png,MM,4,,,,,,,,,,,,,,,
null,,confidence_buffer,1636652,confidence_buffer,,null,,,,,,,,,,,,,,,,,,
3634.099999964237,,pt2_unique_rating,1640289,Fictional_Cities_List/img_manmade_50.png,,51,,,3,,,,,,,,,,,,,,,
null,,confidence_buffer,1640400,confidence_buffer,,null,,,,,,,,,,,,,,,,,,
3531.800000011921,,pt2_memorable_rating,1643934,Fictional_Cities_List/img_manmade_50.png,,52,,,4,,,,,,,,,,,,,,,
null,,confidence_buffer,1644038,confidence_buffer,,null,,,,,,,,,,,,,,,,,,
2188.300000011921,,recognition_phase,1646229,Fictional_Cities_List/img_manmade_50.png,,52,,,,,,new,1,0.95,,,,,,,,,,
null,,confidence_buffer,1646332,confidence_buffer,,null,,,,,,,,,,,,,,,,,,
null,,thebreak,1646835,break,,null,,,,,,,,,,,,,,,,,,
,,survey,2072449,survey-questions,,,,,,,,,,,none,high,I concentrated throughout.,No real strategy, but when asked to recall the more realistic nature scenes were least memorable.  I tried to remember the mountain peaks.,Some of the buildings and cityscapes looked like nothing else on earth, particularly because some were obviously AI. ,The weird buildings and stone statues were instantly memorable.  ,The nature (mountains, trees, water) looked like generic places and I've seen many similar.,Some of the trees/mountains, water nature scenes looked pretty realistic but could have been AI. ,I've not encountered a similar study before.,It was actually enjoyable, so thanks for that!  
