rt,responses,trial_type,time_elapsed,stimulus,button_pressed,key_press,name_trial,city_type,rating,probe,probe_accuracy,response,correct,accuracy,problems,smooth,distraction,strategies,familiar,memorable,unique,realistic,similar,comments
4242.699999999255,{worker_id:66eddcfe67e927db6f0a4768},id_enter,4249,,,,,,,,,,,,,,,,,,,,,
13211.10000000149,,fullscreen,17497,fullscreen,0,,,,,,,,,,,,,,,,,,,
4997.89999999851,,intro_0,22499,instruct,,32,,,,,,,,,,,,,,,,,,
9688.300000000745,,intro_1,32191,instruct,,32,,,,,,,,,,,,,,,,,,
5277.400000002235,,intro_2,37471,instruct,,32,,,,,,,,,,,,,,,,,,
null,,instruct_dir_4,38976,instruct,,null,,,,,,,,,,,,,,,,,,
null,,thebreak,39478,break,,null,,,,,,,,,,,,,,,,,,
5484.70000000298,,familiar_rating,44966,Fictional_Cities_List/img_natural_42.png,,50,Fictional_Cities_List/img_natural_42.png,NAT,2,,,,,,,,,,,,,,,
null,,confidence_buffer,45071,confidence_buffer,,null,,,,,,,,,,,,,,,,,,
2755.300000000745,,unique_rating,47829,Fictional_Cities_List/img_natural_42.png,,53,,,5,,,,,,,,,,,,,,,
null,,confidence_buffer,47931,confidence_buffer,,null,,,,,,,,,,,,,,,,,,
2070.89999999851,,memorable_rating,50004,Fictional_Cities_List/img_natural_42.png,,52,,,4,,,,,,,,,,,,,,,
null,,confidence_buffer,50108,confidence_buffer,,null,,,,,,,,,,,,,,,,,,
null,,thebreak,50610,break,,null,,,,,,,,,,,,,,,,,,
3672.800000000745,,familiar_rating,54286,Fictional_Cities_List/img_natural_28.png,,49,Fictional_Cities_List/img_natural_28.png,NAT,1,,,,,,,,,,,,,,,
null,,confidence_buffer,54389,confidence_buffer,,null,,,,,,,,,,,,,,,,,,
1756.6000000014901,,probe_rating,56148,probe_rating,,49,,,,1,1,,,,,,,,,,,,,
null,,confidence_buffer,56251,confidence_buffer,,null,,,,,,,,,,,,,,,,,,
3664.099999997765,,unique_rating,59917,Fictional_Cities_List/img_natural_28.png,,51,,,3,,,,,,,,,,,,,,,
null,,confidence_buffer,60021,confidence_buffer,,null,,,,,,,,,,,,,,,,,,
1883.5999999977648,,memorable_rating,61908,Fictional_Cities_List/img_natural_28.png,,50,,,2,,,,,,,,,,,,,,,
null,,confidence_buffer,62011,confidence_buffer,,null,,,,,,,,,,,,,,,,,,
null,,thebreak,62513,break,,null,,,,,,,,,,,,,,,,,,
3308.900000002235,,familiar_rating,65825,US_Cities_List/mm_westpalmbeach.png,,53,US_Cities_List/mm_westpalmbeach.png,MM,5,,,,,,,,,,,,,,,
null,,confidence_buffer,65926,confidence_buffer,,null,,,,,,,,,,,,,,,,,,
2389.199999999255,,unique_rating,68318,US_Cities_List/mm_westpalmbeach.png,,52,,,4,,,,,,,,,,,,,,,
null,,confidence_buffer,68421,confidence_buffer,,null,,,,,,,,,,,,,,,,,,
1486.699999999255,,memorable_rating,69909,US_Cities_List/mm_westpalmbeach.png,,53,,,5,,,,,,,,,,,,,,,
null,,confidence_buffer,70013,confidence_buffer,,null,,,,,,,,,,,,,,,,,,
null,,thebreak,70515,break,,null,,,,,,,,,,,,,,,,,,
4133.599999997765,,familiar_rating,74651,Fictional_Cities_List/img_manmade_06.png,,49,Fictional_Cities_List/img_manmade_06.png,MM,1,,,,,,,,,,,,,,,
null,,confidence_buffer,74752,confidence_buffer,,null,,,,,,,,,,,,,,,,,,
2199.300000000745,,unique_rating,76953,Fictional_Cities_List/img_manmade_06.png,,50,,,2,,,,,,,,,,,,,,,
null,,confidence_buffer,77057,confidence_buffer,,null,,,,,,,,,,,,,,,,,,
2469.5,,memorable_rating,79528,Fictional_Cities_List/img_manmade_06.png,,50,,,2,,,,,,,,,,,,,,,
null,,confidence_buffer,79632,confidence_buffer,,null,,,,,,,,,,,,,,,,,,
null,,thebreak,80135,break,,null,,,,,,,,,,,,,,,,,,
4176.300000000745,,familiar_rating,84314,US_Cities_List/nat_westpalmbeach.png,,52,US_Cities_List/nat_westpalmbeach.png,NAT,4,,,,,,,,,,,,,,,
null,,confidence_buffer,84417,confidence_buffer,,null,,,,,,,,,,,,,,,,,,
2038,,probe_rating,86457,probe_rating,,53,,,,5,1,,,,,,,,,,,,,
null,,confidence_buffer,86561,confidence_buffer,,null,,,,,,,,,,,,,,,,,,
8996.199999999255,,unique_rating,95560,US_Cities_List/nat_westpalmbeach.png,,51,,,3,,,,,,,,,,,,,,,
null,,confidence_buffer,95663,confidence_buffer,,null,,,,,,,,,,,,,,,,,,
2299.099999997765,,memorable_rating,97965,US_Cities_List/nat_westpalmbeach.png,,51,,,3,,,,,,,,,,,,,,,
null,,confidence_buffer,98070,confidence_buffer,,null,,,,,,,,,,,,,,,,,,
null,,thebreak,98572,break,,null,,,,,,,,,,,,,,,,,,
6882.800000000745,,familiar_rating,105457,US_Cities_List/nat_coeurdalene.png,,50,US_Cities_List/nat_coeurdalene.png,NAT,2,,,,,,,,,,,,,,,
null,,confidence_buffer,105559,confidence_buffer,,null,,,,,,,,,,,,,,,,,,
2564.199999999255,,unique_rating,108126,US_Cities_List/nat_coeurdalene.png,,50,,,2,,,,,,,,,,,,,,,
null,,confidence_buffer,108230,confidence_buffer,,null,,,,,,,,,,,,,,,,,,
1958.7999999970198,,memorable_rating,110192,US_Cities_List/nat_coeurdalene.png,,52,,,4,,,,,,,,,,,,,,,
null,,confidence_buffer,110295,confidence_buffer,,null,,,,,,,,,,,,,,,,,,
null,,thebreak,110797,break,,null,,,,,,,,,,,,,,,,,,
4342.60000000149,,familiar_rating,115142,Fictional_Cities_List/img_manmade_12.png,,49,Fictional_Cities_List/img_manmade_12.png,MM,1,,,,,,,,,,,,,,,
null,,confidence_buffer,115245,confidence_buffer,,null,,,,,,,,,,,,,,,,,,
2132.900000002235,,unique_rating,117381,Fictional_Cities_List/img_manmade_12.png,,50,,,2,,,,,,,,,,,,,,,
null,,confidence_buffer,117483,confidence_buffer,,null,,,,,,,,,,,,,,,,,,
6008.800000000745,,memorable_rating,123494,Fictional_Cities_List/img_manmade_12.png,,49,,,1,,,,,,,,,,,,,,,
null,,confidence_buffer,123597,confidence_buffer,,null,,,,,,,,,,,,,,,,,,
null,,thebreak,124099,break,,null,,,,,,,,,,,,,,,,,,
7089.60000000149,,familiar_rating,131191,US_Cities_List/mm_cornwall.png,,53,US_Cities_List/mm_cornwall.png,MM,5,,,,,,,,,,,,,,,
null,,confidence_buffer,131293,confidence_buffer,,null,,,,,,,,,,,,,,,,,,
2711.199999999255,,unique_rating,134005,US_Cities_List/mm_cornwall.png,,51,,,3,,,,,,,,,,,,,,,
null,,confidence_buffer,134107,confidence_buffer,,null,,,,,,,,,,,,,,,,,,
1660.8999999985099,,memorable_rating,135769,US_Cities_List/mm_cornwall.png,,53,,,5,,,,,,,,,,,,,,,
null,,confidence_buffer,135871,confidence_buffer,,null,,,,,,,,,,,,,,,,,,
null,,thebreak,136372,break,,null,,,,,,,,,,,,,,,,,,
6812.5,,familiar_rating,143186,Fictional_Cities_List/img_natural_24.png,,50,Fictional_Cities_List/img_natural_24.png,NAT,2,,,,,,,,,,,,,,,
null,,confidence_buffer,143292,confidence_buffer,,null,,,,,,,,,,,,,,,,,,
2790.7000000029802,,unique_rating,146086,Fictional_Cities_List/img_natural_24.png,,52,,,4,,,,,,,,,,,,,,,
null,,confidence_buffer,146189,confidence_buffer,,null,,,,,,,,,,,,,,,,,,
2481.60000000149,,memorable_rating,148674,Fictional_Cities_List/img_natural_24.png,,52,,,4,,,,,,,,,,,,,,,
null,,confidence_buffer,148776,confidence_buffer,,null,,,,,,,,,,,,,,,,,,
null,,thebreak,149278,break,,null,,,,,,,,,,,,,,,,,,
4914.699999999255,,familiar_rating,154194,US_Cities_List/nat_boulder.png,,51,US_Cities_List/nat_boulder.png,NAT,3,,,,,,,,,,,,,,,
null,,confidence_buffer,154296,confidence_buffer,,null,,,,,,,,,,,,,,,,,,
2155.800000000745,,probe_rating,156453,probe_rating,,49,,,,1,1,,,,,,,,,,,,,
null,,confidence_buffer,156555,confidence_buffer,,null,,,,,,,,,,,,,,,,,,
4352.300000000745,,unique_rating,160909,US_Cities_List/nat_boulder.png,,52,,,4,,,,,,,,,,,,,,,
null,,confidence_buffer,161012,confidence_buffer,,null,,,,,,,,,,,,,,,,,,
2104.7999999970198,,memorable_rating,163120,US_Cities_List/nat_boulder.png,,51,,,3,,,,,,,,,,,,,,,
null,,confidence_buffer,163225,confidence_buffer,,null,,,,,,,,,,,,,,,,,,
null,,thebreak,163727,break,,null,,,,,,,,,,,,,,,,,,
3403.599999997765,,familiar_rating,167133,US_Cities_List/mm_carmel.png,,51,US_Cities_List/mm_carmel.png,MM,3,,,,,,,,,,,,,,,
null,,confidence_buffer,167237,confidence_buffer,,null,,,,,,,,,,,,,,,,,,
1862.300000000745,,unique_rating,169102,US_Cities_List/mm_carmel.png,,50,,,2,,,,,,,,,,,,,,,
null,,confidence_buffer,169205,confidence_buffer,,null,,,,,,,,,,,,,,,,,,
1996.2000000029802,,memorable_rating,171204,US_Cities_List/mm_carmel.png,,51,,,3,,,,,,,,,,,,,,,
null,,confidence_buffer,171308,confidence_buffer,,null,,,,,,,,,,,,,,,,,,
null,,thebreak,171809,break,,null,,,,,,,,,,,,,,,,,,
3900.800000000745,,familiar_rating,175712,Fictional_Cities_List/img_manmade_32.png,,49,Fictional_Cities_List/img_manmade_32.png,MM,1,,,,,,,,,,,,,,,
null,,confidence_buffer,175816,confidence_buffer,,null,,,,,,,,,,,,,,,,,,
2315.599999997765,,unique_rating,178134,Fictional_Cities_List/img_manmade_32.png,,50,,,2,,,,,,,,,,,,,,,
null,,confidence_buffer,178237,confidence_buffer,,null,,,,,,,,,,,,,,,,,,
1699.5,,memorable_rating,179938,Fictional_Cities_List/img_manmade_32.png,,50,,,2,,,,,,,,,,,,,,,
null,,confidence_buffer,180041,confidence_buffer,,null,,,,,,,,,,,,,,,,,,
null,,thebreak,180542,break,,null,,,,,,,,,,,,,,,,,,
4863.699999999255,,familiar_rating,185408,Fictional_Cities_List/img_natural_03.png,,49,Fictional_Cities_List/img_natural_03.png,NAT,1,,,,,,,,,,,,,,,
null,,confidence_buffer,185511,confidence_buffer,,null,,,,,,,,,,,,,,,,,,
3590.39999999851,,unique_rating,189104,Fictional_Cities_List/img_natural_03.png,,49,,,1,,,,,,,,,,,,,,,
null,,confidence_buffer,189207,confidence_buffer,,null,,,,,,,,,,,,,,,,,,
2421.300000000745,,memorable_rating,191630,Fictional_Cities_List/img_natural_03.png,,49,,,1,,,,,,,,,,,,,,,
null,,confidence_buffer,191734,confidence_buffer,,null,,,,,,,,,,,,,,,,,,
null,,thebreak,192235,break,,null,,,,,,,,,,,,,,,,,,
3997.800000000745,,familiar_rating,196235,US_Cities_List/nat_athens.png,,51,US_Cities_List/nat_athens.png,NAT,3,,,,,,,,,,,,,,,
null,,confidence_buffer,196338,confidence_buffer,,null,,,,,,,,,,,,,,,,,,
1991.800000000745,,unique_rating,198332,US_Cities_List/nat_athens.png,,50,,,2,,,,,,,,,,,,,,,
null,,confidence_buffer,198434,confidence_buffer,,null,,,,,,,,,,,,,,,,,,
2101,,memorable_rating,200537,US_Cities_List/nat_athens.png,,51,,,3,,,,,,,,,,,,,,,
null,,confidence_buffer,200642,confidence_buffer,,null,,,,,,,,,,,,,,,,,,
null,,thebreak,201144,break,,null,,,,,,,,,,,,,,,,,,
7761,,familiar_rating,208906,Fictional_Cities_List/img_natural_43.png,,50,Fictional_Cities_List/img_natural_43.png,NAT,2,,,,,,,,,,,,,,,
null,,confidence_buffer,209010,confidence_buffer,,null,,,,,,,,,,,,,,,,,,
2172.699999999255,,unique_rating,211185,Fictional_Cities_List/img_natural_43.png,,51,,,3,,,,,,,,,,,,,,,
null,,confidence_buffer,211286,confidence_buffer,,null,,,,,,,,,,,,,,,,,,
1923.0999999977648,,memorable_rating,213211,Fictional_Cities_List/img_natural_43.png,,51,,,3,,,,,,,,,,,,,,,
null,,confidence_buffer,213315,confidence_buffer,,null,,,,,,,,,,,,,,,,,,
null,,thebreak,213817,break,,null,,,,,,,,,,,,,,,,,,
6232.099999997765,,familiar_rating,220052,Fictional_Cities_List/img_manmade_02.png,,49,Fictional_Cities_List/img_manmade_02.png,MM,1,,,,,,,,,,,,,,,
null,,confidence_buffer,220155,confidence_buffer,,null,,,,,,,,,,,,,,,,,,
1557.5999999977648,,unique_rating,221714,Fictional_Cities_List/img_manmade_02.png,,49,,,1,,,,,,,,,,,,,,,
null,,confidence_buffer,221818,confidence_buffer,,null,,,,,,,,,,,,,,,,,,
2439.400000002235,,memorable_rating,224260,Fictional_Cities_List/img_manmade_02.png,,49,,,1,,,,,,,,,,,,,,,
null,,confidence_buffer,224363,confidence_buffer,,null,,,,,,,,,,,,,,,,,,
null,,thebreak,224864,break,,null,,,,,,,,,,,,,,,,,,
4110.800000000745,,familiar_rating,228978,US_Cities_List/mm_athens.png,,50,US_Cities_List/mm_athens.png,MM,2,,,,,,,,,,,,,,,
null,,confidence_buffer,229081,confidence_buffer,,null,,,,,,,,,,,,,,,,,,
1938.199999999255,,unique_rating,231023,US_Cities_List/mm_athens.png,,50,,,2,,,,,,,,,,,,,,,
null,,confidence_buffer,231126,confidence_buffer,,null,,,,,,,,,,,,,,,,,,
1676.2000000029802,,probe_rating,232805,probe_rating,,52,,,,4,1,,,,,,,,,,,,,
null,,confidence_buffer,232909,confidence_buffer,,null,,,,,,,,,,,,,,,,,,
2908.199999999255,,memorable_rating,235819,US_Cities_List/mm_athens.png,,50,,,2,,,,,,,,,,,,,,,
null,,confidence_buffer,235923,confidence_buffer,,null,,,,,,,,,,,,,,,,,,
null,,thebreak,236424,break,,null,,,,,,,,,,,,,,,,,,
4486.800000000745,,familiar_rating,240914,Fictional_Cities_List/img_manmade_16.png,,49,Fictional_Cities_List/img_manmade_16.png,MM,1,,,,,,,,,,,,,,,
null,,confidence_buffer,241017,confidence_buffer,,null,,,,,,,,,,,,,,,,,,
2721.599999997765,,unique_rating,243740,Fictional_Cities_List/img_manmade_16.png,,51,,,3,,,,,,,,,,,,,,,
null,,confidence_buffer,243844,confidence_buffer,,null,,,,,,,,,,,,,,,,,,
1847,,memorable_rating,245694,Fictional_Cities_List/img_manmade_16.png,,50,,,2,,,,,,,,,,,,,,,
null,,confidence_buffer,245797,confidence_buffer,,null,,,,,,,,,,,,,,,,,,
null,,thebreak,246299,break,,null,,,,,,,,,,,,,,,,,,
5811.300000000745,,familiar_rating,252113,US_Cities_List/mm_okoboji.png,,51,US_Cities_List/mm_okoboji.png,MM,3,,,,,,,,,,,,,,,
null,,confidence_buffer,252216,confidence_buffer,,null,,,,,,,,,,,,,,,,,,
1747.8999999985099,,unique_rating,253966,US_Cities_List/mm_okoboji.png,,51,,,3,,,,,,,,,,,,,,,
null,,confidence_buffer,254068,confidence_buffer,,null,,,,,,,,,,,,,,,,,,
2042,,probe_rating,256112,probe_rating,,50,,,,2,1,,,,,,,,,,,,,
null,,confidence_buffer,256215,confidence_buffer,,null,,,,,,,,,,,,,,,,,,
5359.10000000149,,memorable_rating,261576,US_Cities_List/mm_okoboji.png,,51,,,3,,,,,,,,,,,,,,,
null,,confidence_buffer,261680,confidence_buffer,,null,,,,,,,,,,,,,,,,,,
null,,thebreak,262182,break,,null,,,,,,,,,,,,,,,,,,
4331.699999999255,,familiar_rating,266516,US_Cities_List/nat_delawarecity.png,,50,US_Cities_List/nat_delawarecity.png,NAT,2,,,,,,,,,,,,,,,
null,,confidence_buffer,266619,confidence_buffer,,null,,,,,,,,,,,,,,,,,,
2534.599999997765,,unique_rating,269157,US_Cities_List/nat_delawarecity.png,,50,,,2,,,,,,,,,,,,,,,
null,,confidence_buffer,269260,confidence_buffer,,null,,,,,,,,,,,,,,,,,,
2817.800000000745,,memorable_rating,272080,US_Cities_List/nat_delawarecity.png,,50,,,2,,,,,,,,,,,,,,,
null,,confidence_buffer,272183,confidence_buffer,,null,,,,,,,,,,,,,,,,,,
null,,thebreak,272684,break,,null,,,,,,,,,,,,,,,,,,
3235.699999999255,,familiar_rating,275922,US_Cities_List/nat_peoria.png,,51,US_Cities_List/nat_peoria.png,NAT,3,,,,,,,,,,,,,,,
null,,confidence_buffer,276025,confidence_buffer,,null,,,,,,,,,,,,,,,,,,
2974.60000000149,,unique_rating,279002,US_Cities_List/nat_peoria.png,,50,,,2,,,,,,,,,,,,,,,
null,,confidence_buffer,279103,confidence_buffer,,null,,,,,,,,,,,,,,,,,,
1816.0999999977648,,memorable_rating,280921,US_Cities_List/nat_peoria.png,,51,,,3,,,,,,,,,,,,,,,
null,,confidence_buffer,281024,confidence_buffer,,null,,,,,,,,,,,,,,,,,,
null,,thebreak,281526,break,,null,,,,,,,,,,,,,,,,,,
4811.800000000745,,familiar_rating,286341,Fictional_Cities_List/img_manmade_01.png,,50,Fictional_Cities_List/img_manmade_01.png,MM,2,,,,,,,,,,,,,,,
null,,confidence_buffer,286444,confidence_buffer,,null,,,,,,,,,,,,,,,,,,
3895.39999999851,,unique_rating,290342,Fictional_Cities_List/img_manmade_01.png,,51,,,3,,,,,,,,,,,,,,,
null,,confidence_buffer,290446,confidence_buffer,,null,,,,,,,,,,,,,,,,,,
1881.199999999255,,memorable_rating,292329,Fictional_Cities_List/img_manmade_01.png,,51,,,3,,,,,,,,,,,,,,,
null,,confidence_buffer,292433,confidence_buffer,,null,,,,,,,,,,,,,,,,,,
null,,thebreak,292934,break,,null,,,,,,,,,,,,,,,,,,
7147.5,,familiar_rating,300083,US_Cities_List/mm_delawarecity.png,,50,US_Cities_List/mm_delawarecity.png,MM,2,,,,,,,,,,,,,,,
null,,confidence_buffer,300186,confidence_buffer,,null,,,,,,,,,,,,,,,,,,
1788,,unique_rating,301976,US_Cities_List/mm_delawarecity.png,,51,,,3,,,,,,,,,,,,,,,
null,,confidence_buffer,302078,confidence_buffer,,null,,,,,,,,,,,,,,,,,,
2378,,memorable_rating,304458,US_Cities_List/mm_delawarecity.png,,51,,,3,,,,,,,,,,,,,,,
null,,confidence_buffer,304560,confidence_buffer,,null,,,,,,,,,,,,,,,,,,
null,,thebreak,305062,break,,null,,,,,,,,,,,,,,,,,,
4463.10000000149,,familiar_rating,309528,Fictional_Cities_List/img_natural_35.png,,52,Fictional_Cities_List/img_natural_35.png,NAT,4,,,,,,,,,,,,,,,
null,,confidence_buffer,309630,confidence_buffer,,null,,,,,,,,,,,,,,,,,,
3051.5,,unique_rating,312683,Fictional_Cities_List/img_natural_35.png,,51,,,3,,,,,,,,,,,,,,,
null,,confidence_buffer,312784,confidence_buffer,,null,,,,,,,,,,,,,,,,,,
6625,,memorable_rating,319412,Fictional_Cities_List/img_natural_35.png,,51,,,3,,,,,,,,,,,,,,,
null,,confidence_buffer,319514,confidence_buffer,,null,,,,,,,,,,,,,,,,,,
null,,thebreak,320015,break,,null,,,,,,,,,,,,,,,,,,
4039.7000000029802,,familiar_rating,324057,Fictional_Cities_List/img_manmade_43.png,,50,Fictional_Cities_List/img_manmade_43.png,MM,2,,,,,,,,,,,,,,,
null,,confidence_buffer,324161,confidence_buffer,,null,,,,,,,,,,,,,,,,,,
4203.79999999702,,unique_rating,328367,Fictional_Cities_List/img_manmade_43.png,,52,,,4,,,,,,,,,,,,,,,
null,,confidence_buffer,328468,confidence_buffer,,null,,,,,,,,,,,,,,,,,,
1921.800000000745,,memorable_rating,330392,Fictional_Cities_List/img_manmade_43.png,,51,,,3,,,,,,,,,,,,,,,
null,,confidence_buffer,330493,confidence_buffer,,null,,,,,,,,,,,,,,,,,,
null,,thebreak,330995,break,,null,,,,,,,,,,,,,,,,,,
3408.199999999255,,familiar_rating,334405,US_Cities_List/nat_sitka.png,,52,US_Cities_List/nat_sitka.png,NAT,4,,,,,,,,,,,,,,,
null,,confidence_buffer,334507,confidence_buffer,,null,,,,,,,,,,,,,,,,,,
2669.60000000149,,unique_rating,337178,US_Cities_List/nat_sitka.png,,52,,,4,,,,,,,,,,,,,,,
null,,confidence_buffer,337281,confidence_buffer,,null,,,,,,,,,,,,,,,,,,
2440.800000000745,,memorable_rating,339725,US_Cities_List/nat_sitka.png,,52,,,4,,,,,,,,,,,,,,,
null,,confidence_buffer,339828,confidence_buffer,,null,,,,,,,,,,,,,,,,,,
null,,thebreak,340330,break,,null,,,,,,,,,,,,,,,,,,
5021.199999999255,,familiar_rating,345354,US_Cities_List/mm_boulder.png,,49,US_Cities_List/mm_boulder.png,MM,1,,,,,,,,,,,,,,,
null,,confidence_buffer,345455,confidence_buffer,,null,,,,,,,,,,,,,,,,,,
2150.89999999851,,unique_rating,347608,US_Cities_List/mm_boulder.png,,51,,,3,,,,,,,,,,,,,,,
null,,confidence_buffer,347711,confidence_buffer,,null,,,,,,,,,,,,,,,,,,
2057.199999999255,,memorable_rating,349771,US_Cities_List/mm_boulder.png,,50,,,2,,,,,,,,,,,,,,,
null,,confidence_buffer,349872,confidence_buffer,,null,,,,,,,,,,,,,,,,,,
null,,thebreak,350373,break,,null,,,,,,,,,,,,,,,,,,
4224,,familiar_rating,354599,US_Cities_List/mm_coeurdalene.png,,50,US_Cities_List/mm_coeurdalene.png,MM,2,,,,,,,,,,,,,,,
null,,confidence_buffer,354703,confidence_buffer,,null,,,,,,,,,,,,,,,,,,
3123.199999999255,,unique_rating,357828,US_Cities_List/mm_coeurdalene.png,,49,,,1,,,,,,,,,,,,,,,
null,,confidence_buffer,357930,confidence_buffer,,null,,,,,,,,,,,,,,,,,,
3944.199999999255,,memorable_rating,361876,US_Cities_List/mm_coeurdalene.png,,50,,,2,,,,,,,,,,,,,,,
null,,confidence_buffer,361980,confidence_buffer,,null,,,,,,,,,,,,,,,,,,
null,,thebreak,362482,break,,null,,,,,,,,,,,,,,,,,,
2361.60000000149,,familiar_rating,364846,Fictional_Cities_List/img_natural_13.png,,49,Fictional_Cities_List/img_natural_13.png,NAT,1,,,,,,,,,,,,,,,
null,,confidence_buffer,364949,confidence_buffer,,null,,,,,,,,,,,,,,,,,,
1169.5,,unique_rating,366121,Fictional_Cities_List/img_natural_13.png,,49,,,1,,,,,,,,,,,,,,,
null,,confidence_buffer,366225,confidence_buffer,,null,,,,,,,,,,,,,,,,,,
1113.8999999985099,,memorable_rating,367341,Fictional_Cities_List/img_natural_13.png,,49,,,1,,,,,,,,,,,,,,,
null,,confidence_buffer,367444,confidence_buffer,,null,,,,,,,,,,,,,,,,,,
null,,thebreak,367946,break,,null,,,,,,,,,,,,,,,,,,
5827.5,,familiar_rating,373776,Fictional_Cities_List/img_natural_01.png,,51,Fictional_Cities_List/img_natural_01.png,NAT,3,,,,,,,,,,,,,,,
null,,confidence_buffer,373879,confidence_buffer,,null,,,,,,,,,,,,,,,,,,
1713.0999999977648,,unique_rating,375594,Fictional_Cities_List/img_natural_01.png,,51,,,3,,,,,,,,,,,,,,,
null,,confidence_buffer,375698,confidence_buffer,,null,,,,,,,,,,,,,,,,,,
2474,,memorable_rating,378174,Fictional_Cities_List/img_natural_01.png,,51,,,3,,,,,,,,,,,,,,,
null,,confidence_buffer,378277,confidence_buffer,,null,,,,,,,,,,,,,,,,,,
null,,thebreak,378779,break,,null,,,,,,,,,,,,,,,,,,
6641.300000000745,,intro_0,385422,instruct,,32,,,,,,,,,,,,,,,,,,
7001,,intro_1,392426,instruct,,32,,,,,,,,,,,,,,,,,,
17951.900000002235,,intro_2,410379,instruct,,32,,,,,,,,,,,,,,,,,,
null,,instruct_dir_4,411882,instruct,,null,,,,,,,,,,,,,,,,,,
5117.39999999851,,pt2_realistic_rating,417002,Fictional_Cities_List/img_natural_43.png,,51,Fictional_Cities_List/img_natural_43.png,NAT,3,,,,,,,,,,,,,,,
null,,confidence_buffer,417106,confidence_buffer,,null,,,,,,,,,,,,,,,,,,
2175.300000000745,,pt2_unique_rating,419284,Fictional_Cities_List/img_natural_43.png,,50,,,2,,,,,,,,,,,,,,,
null,,confidence_buffer,419388,confidence_buffer,,null,,,,,,,,,,,,,,,,,,
2197.7000000029802,,pt2_memorable_rating,421588,Fictional_Cities_List/img_natural_43.png,,51,,,3,,,,,,,,,,,,,,,
null,,confidence_buffer,421691,confidence_buffer,,null,,,,,,,,,,,,,,,,,,
1827.7999999970198,,recognition_phase,423522,Fictional_Cities_List/img_natural_43.png,,49,,,,,,old,1,1,,,,,,,,,,
null,,confidence_buffer,423626,confidence_buffer,,null,,,,,,,,,,,,,,,,,,
null,,thebreak,424128,break,,null,,,,,,,,,,,,,,,,,,
5688.20000000298,,pt2_realistic_rating,429819,US_Cities_List/mm_hotsprings.png,,51,US_Cities_List/mm_hotsprings.png,MM,3,,,,,,,,,,,,,,,
null,,confidence_buffer,429923,confidence_buffer,,null,,,,,,,,,,,,,,,,,,
4151.199999999255,,pt2_unique_rating,434077,US_Cities_List/mm_hotsprings.png,,51,,,3,,,,,,,,,,,,,,,
null,,confidence_buffer,434180,confidence_buffer,,null,,,,,,,,,,,,,,,,,,
2281.400000002235,,pt2_memorable_rating,436464,US_Cities_List/mm_hotsprings.png,,51,,,3,,,,,,,,,,,,,,,
null,,confidence_buffer,436568,confidence_buffer,,null,,,,,,,,,,,,,,,,,,
1848,,recognition_phase,438418,US_Cities_List/mm_hotsprings.png,,52,,,,,,new,1,1,,,,,,,,,,
null,,confidence_buffer,438522,confidence_buffer,,null,,,,,,,,,,,,,,,,,,
null,,thebreak,439023,break,,null,,,,,,,,,,,,,,,,,,
5879.699999999255,,pt2_realistic_rating,444906,US_Cities_List/mm_sitka.png,,49,US_Cities_List/mm_sitka.png,MM,1,,,,,,,,,,,,,,,
null,,confidence_buffer,445010,confidence_buffer,,null,,,,,,,,,,,,,,,,,,
1764.800000000745,,pt2_unique_rating,446777,US_Cities_List/mm_sitka.png,,49,,,1,,,,,,,,,,,,,,,
null,,confidence_buffer,446881,confidence_buffer,,null,,,,,,,,,,,,,,,,,,
1459.199999999255,,pt2_memorable_rating,448343,US_Cities_List/mm_sitka.png,,49,,,1,,,,,,,,,,,,,,,
null,,confidence_buffer,448446,confidence_buffer,,null,,,,,,,,,,,,,,,,,,
1261.300000000745,,recognition_phase,449709,US_Cities_List/mm_sitka.png,,52,,,,,,new,1,1,,,,,,,,,,
null,,confidence_buffer,449812,confidence_buffer,,null,,,,,,,,,,,,,,,,,,
null,,thebreak,450314,break,,null,,,,,,,,,,,,,,,,,,
3344.400000002235,,pt2_realistic_rating,453660,Fictional_Cities_List/img_natural_06.png,,52,Fictional_Cities_List/img_natural_06.png,NAT,4,,,,,,,,,,,,,,,
null,,confidence_buffer,453762,confidence_buffer,,null,,,,,,,,,,,,,,,,,,
3722.300000000745,,pt2_unique_rating,457486,Fictional_Cities_List/img_natural_06.png,,51,,,3,,,,,,,,,,,,,,,
null,,confidence_buffer,457589,confidence_buffer,,null,,,,,,,,,,,,,,,,,,
1817.5,,probe_rating,459410,probe_rating,,52,,,,4,1,,,,,,,,,,,,,
null,,confidence_buffer,459513,confidence_buffer,,null,,,,,,,,,,,,,,,,,,
2727.199999999255,,pt2_memorable_rating,462242,Fictional_Cities_List/img_natural_06.png,,52,,,4,,,,,,,,,,,,,,,
null,,confidence_buffer,462345,confidence_buffer,,null,,,,,,,,,,,,,,,,,,
2353.199999999255,,recognition_phase,464701,Fictional_Cities_List/img_natural_06.png,,52,,,,,,new,1,1,,,,,,,,,,
null,,confidence_buffer,464805,confidence_buffer,,null,,,,,,,,,,,,,,,,,,
null,,thebreak,465306,break,,null,,,,,,,,,,,,,,,,,,
4343.70000000298,,pt2_realistic_rating,469653,US_Cities_List/mm_delawarecity.png,,52,US_Cities_List/mm_delawarecity.png,MM,4,,,,,,,,,,,,,,,
null,,confidence_buffer,469758,confidence_buffer,,null,,,,,,,,,,,,,,,,,,
4140.60000000149,,pt2_unique_rating,473901,US_Cities_List/mm_delawarecity.png,,51,,,3,,,,,,,,,,,,,,,
null,,confidence_buffer,474003,confidence_buffer,,null,,,,,,,,,,,,,,,,,,
2157.099999997765,,pt2_memorable_rating,476162,US_Cities_List/mm_delawarecity.png,,52,,,4,,,,,,,,,,,,,,,
null,,confidence_buffer,476265,confidence_buffer,,null,,,,,,,,,,,,,,,,,,
1774.7000000029802,,recognition_phase,478043,US_Cities_List/mm_delawarecity.png,,49,,,,,,old,1,1,,,,,,,,,,
null,,confidence_buffer,478147,confidence_buffer,,null,,,,,,,,,,,,,,,,,,
null,,thebreak,478649,break,,null,,,,,,,,,,,,,,,,,,
6842,,pt2_realistic_rating,485493,Fictional_Cities_List/img_manmade_42.png,,51,Fictional_Cities_List/img_manmade_42.png,MM,3,,,,,,,,,,,,,,,
null,,confidence_buffer,485596,confidence_buffer,,null,,,,,,,,,,,,,,,,,,
2706.900000002235,,pt2_unique_rating,488306,Fictional_Cities_List/img_manmade_42.png,,51,,,3,,,,,,,,,,,,,,,
null,,confidence_buffer,488408,confidence_buffer,,null,,,,,,,,,,,,,,,,,,
1652.3999999985099,,pt2_memorable_rating,490063,Fictional_Cities_List/img_manmade_42.png,,51,,,3,,,,,,,,,,,,,,,
null,,confidence_buffer,490166,confidence_buffer,,null,,,,,,,,,,,,,,,,,,
1919.8999999985099,,recognition_phase,492089,Fictional_Cities_List/img_manmade_42.png,,52,,,,,,new,1,1,,,,,,,,,,
null,,confidence_buffer,492193,confidence_buffer,,null,,,,,,,,,,,,,,,,,,
null,,thebreak,492695,break,,null,,,,,,,,,,,,,,,,,,
5591.70000000298,,pt2_realistic_rating,498289,US_Cities_List/nat_athens.png,,53,US_Cities_List/nat_athens.png,NAT,5,,,,,,,,,,,,,,,
null,,confidence_buffer,498392,confidence_buffer,,null,,,,,,,,,,,,,,,,,,
2359.099999997765,,pt2_unique_rating,500754,US_Cities_List/nat_athens.png,,52,,,4,,,,,,,,,,,,,,,
null,,confidence_buffer,500857,confidence_buffer,,null,,,,,,,,,,,,,,,,,,
1301.3999999985099,,pt2_memorable_rating,502161,US_Cities_List/nat_athens.png,,52,,,4,,,,,,,,,,,,,,,
null,,confidence_buffer,502265,confidence_buffer,,null,,,,,,,,,,,,,,,,,,
1418.4000000022352,,recognition_phase,503686,US_Cities_List/nat_athens.png,,49,,,,,,old,1,1,,,,,,,,,,
null,,confidence_buffer,503787,confidence_buffer,,null,,,,,,,,,,,,,,,,,,
null,,thebreak,504288,break,,null,,,,,,,,,,,,,,,,,,
7334.900000002235,,pt2_realistic_rating,511625,Fictional_Cities_List/img_manmade_21.png,,52,Fictional_Cities_List/img_manmade_21.png,MM,4,,,,,,,,,,,,,,,
null,,confidence_buffer,511728,confidence_buffer,,null,,,,,,,,,,,,,,,,,,
2322.5,,pt2_unique_rating,514054,Fictional_Cities_List/img_manmade_21.png,,51,,,3,,,,,,,,,,,,,,,
null,,confidence_buffer,514156,confidence_buffer,,null,,,,,,,,,,,,,,,,,,
3742.60000000149,,pt2_memorable_rating,517902,Fictional_Cities_List/img_manmade_21.png,,52,,,4,,,,,,,,,,,,,,,
null,,confidence_buffer,518004,confidence_buffer,,null,,,,,,,,,,,,,,,,,,
2374.5,,probe_rating,520380,probe_rating,,49,,,,1,1,,,,,,,,,,,,,
null,,confidence_buffer,520482,confidence_buffer,,null,,,,,,,,,,,,,,,,,,
3882.5,,recognition_phase,524367,Fictional_Cities_List/img_manmade_21.png,,51,,,,,,new,1,1,,,,,,,,,,
null,,confidence_buffer,524470,confidence_buffer,,null,,,,,,,,,,,,,,,,,,
null,,thebreak,524971,break,,null,,,,,,,,,,,,,,,,,,
3524.699999999255,,pt2_realistic_rating,528499,Fictional_Cities_List/img_manmade_43.png,,53,Fictional_Cities_List/img_manmade_43.png,MM,5,,,,,,,,,,,,,,,
null,,confidence_buffer,528602,confidence_buffer,,null,,,,,,,,,,,,,,,,,,
3053.10000000149,,pt2_unique_rating,531658,Fictional_Cities_List/img_manmade_43.png,,52,,,4,,,,,,,,,,,,,,,
null,,confidence_buffer,531760,confidence_buffer,,null,,,,,,,,,,,,,,,,,,
1329.7000000029802,,pt2_memorable_rating,533092,Fictional_Cities_List/img_manmade_43.png,,52,,,4,,,,,,,,,,,,,,,
null,,confidence_buffer,533195,confidence_buffer,,null,,,,,,,,,,,,,,,,,,
937.8000000007451,,recognition_phase,534135,Fictional_Cities_List/img_manmade_43.png,,49,,,,,,old,1,1,,,,,,,,,,
null,,confidence_buffer,534238,confidence_buffer,,null,,,,,,,,,,,,,,,,,,
null,,thebreak,534741,break,,null,,,,,,,,,,,,,,,,,,
6631.300000000745,,pt2_realistic_rating,541374,Fictional_Cities_List/img_manmade_24.png,,51,Fictional_Cities_List/img_manmade_24.png,MM,3,,,,,,,,,,,,,,,
null,,confidence_buffer,541476,confidence_buffer,,null,,,,,,,,,,,,,,,,,,
1321.5,,probe_rating,542800,probe_rating,,49,,,,1,1,,,,,,,,,,,,,
null,,confidence_buffer,542904,confidence_buffer,,null,,,,,,,,,,,,,,,,,,
3977.099999997765,,pt2_unique_rating,546883,Fictional_Cities_List/img_manmade_24.png,,51,,,3,,,,,,,,,,,,,,,
null,,confidence_buffer,546985,confidence_buffer,,null,,,,,,,,,,,,,,,,,,
1863.3999999985099,,pt2_memorable_rating,548850,Fictional_Cities_List/img_manmade_24.png,,50,,,2,,,,,,,,,,,,,,,
null,,confidence_buffer,548953,confidence_buffer,,null,,,,,,,,,,,,,,,,,,
2717.2000000029802,,recognition_phase,551673,Fictional_Cities_List/img_manmade_24.png,,52,,,,,,new,1,1,,,,,,,,,,
null,,confidence_buffer,551775,confidence_buffer,,null,,,,,,,,,,,,,,,,,,
null,,thebreak,552276,break,,null,,,,,,,,,,,,,,,,,,
2080.699999999255,,pt2_realistic_rating,554360,Fictional_Cities_List/img_natural_13.png,,49,Fictional_Cities_List/img_natural_13.png,NAT,1,,,,,,,,,,,,,,,
null,,confidence_buffer,554463,confidence_buffer,,null,,,,,,,,,,,,,,,,,,
1427.5,,probe_rating,555892,probe_rating,,49,,,,1,1,,,,,,,,,,,,,
null,,confidence_buffer,555996,confidence_buffer,,null,,,,,,,,,,,,,,,,,,
2701.300000000745,,pt2_unique_rating,558700,Fictional_Cities_List/img_natural_13.png,,49,,,1,,,,,,,,,,,,,,,
null,,confidence_buffer,558803,confidence_buffer,,null,,,,,,,,,,,,,,,,,,
2511.39999999851,,pt2_memorable_rating,561317,Fictional_Cities_List/img_natural_13.png,,53,,,5,,,,,,,,,,,,,,,
null,,confidence_buffer,561421,confidence_buffer,,null,,,,,,,,,,,,,,,,,,
1323.5,,recognition_phase,562747,Fictional_Cities_List/img_natural_13.png,,49,,,,,,old,1,1,,,,,,,,,,
null,,confidence_buffer,562851,confidence_buffer,,null,,,,,,,,,,,,,,,,,,
null,,thebreak,563352,break,,null,,,,,,,,,,,,,,,,,,
3864,,pt2_realistic_rating,567218,US_Cities_List/mm_healdsburg.png,,53,US_Cities_List/mm_healdsburg.png,MM,5,,,,,,,,,,,,,,,
null,,confidence_buffer,567321,confidence_buffer,,null,,,,,,,,,,,,,,,,,,
4067.2999999970198,,pt2_unique_rating,571391,US_Cities_List/mm_healdsburg.png,,52,,,4,,,,,,,,,,,,,,,
null,,confidence_buffer,571494,confidence_buffer,,null,,,,,,,,,,,,,,,,,,
1613.1000000014901,,pt2_memorable_rating,573110,US_Cities_List/mm_healdsburg.png,,52,,,4,,,,,,,,,,,,,,,
null,,confidence_buffer,573212,confidence_buffer,,null,,,,,,,,,,,,,,,,,,
2939.800000000745,,recognition_phase,576154,US_Cities_List/mm_healdsburg.png,,52,,,,,,new,1,1,,,,,,,,,,
null,,confidence_buffer,576258,confidence_buffer,,null,,,,,,,,,,,,,,,,,,
null,,thebreak,576760,break,,null,,,,,,,,,,,,,,,,,,
4649.199999999255,,pt2_realistic_rating,581412,Fictional_Cities_List/img_natural_28.png,,49,Fictional_Cities_List/img_natural_28.png,NAT,1,,,,,,,,,,,,,,,
null,,confidence_buffer,581515,confidence_buffer,,null,,,,,,,,,,,,,,,,,,
2229.89999999851,,pt2_unique_rating,583748,Fictional_Cities_List/img_natural_28.png,,51,,,3,,,,,,,,,,,,,,,
null,,confidence_buffer,583851,confidence_buffer,,null,,,,,,,,,,,,,,,,,,
5630.199999999255,,pt2_memorable_rating,589485,Fictional_Cities_List/img_natural_28.png,,50,,,2,,,,,,,,,,,,,,,
null,,confidence_buffer,589588,confidence_buffer,,null,,,,,,,,,,,,,,,,,,
1511,,recognition_phase,591103,Fictional_Cities_List/img_natural_28.png,,49,,,,,,old,1,1,,,,,,,,,,
null,,confidence_buffer,591205,confidence_buffer,,null,,,,,,,,,,,,,,,,,,
null,,thebreak,591707,break,,null,,,,,,,,,,,,,,,,,,
3528.800000000745,,pt2_realistic_rating,595237,Fictional_Cities_List/img_natural_32.png,,53,Fictional_Cities_List/img_natural_32.png,NAT,5,,,,,,,,,,,,,,,
null,,confidence_buffer,595341,confidence_buffer,,null,,,,,,,,,,,,,,,,,,
1780.199999999255,,pt2_unique_rating,597124,Fictional_Cities_List/img_natural_32.png,,53,,,5,,,,,,,,,,,,,,,
null,,confidence_buffer,597227,confidence_buffer,,null,,,,,,,,,,,,,,,,,,
1277.300000000745,,pt2_memorable_rating,598506,Fictional_Cities_List/img_natural_32.png,,53,,,5,,,,,,,,,,,,,,,
null,,confidence_buffer,598609,confidence_buffer,,null,,,,,,,,,,,,,,,,,,
1366.199999999255,,recognition_phase,599978,Fictional_Cities_List/img_natural_32.png,,52,,,,,,new,1,1,,,,,,,,,,
null,,confidence_buffer,600081,confidence_buffer,,null,,,,,,,,,,,,,,,,,,
null,,thebreak,600584,break,,null,,,,,,,,,,,,,,,,,,
2266.5,,pt2_realistic_rating,602853,Fictional_Cities_List/img_manmade_03.png,,49,Fictional_Cities_List/img_manmade_03.png,MM,1,,,,,,,,,,,,,,,
null,,confidence_buffer,602957,confidence_buffer,,null,,,,,,,,,,,,,,,,,,
4321,,pt2_unique_rating,607281,Fictional_Cities_List/img_manmade_03.png,,50,,,2,,,,,,,,,,,,,,,
null,,confidence_buffer,607384,confidence_buffer,,null,,,,,,,,,,,,,,,,,,
4326.400000002235,,pt2_memorable_rating,611713,Fictional_Cities_List/img_manmade_03.png,,51,,,3,,,,,,,,,,,,,,,
null,,confidence_buffer,611817,confidence_buffer,,null,,,,,,,,,,,,,,,,,,
1232,,recognition_phase,613052,Fictional_Cities_List/img_manmade_03.png,,52,,,,,,new,1,1,,,,,,,,,,
null,,confidence_buffer,613155,confidence_buffer,,null,,,,,,,,,,,,,,,,,,
null,,thebreak,613656,break,,null,,,,,,,,,,,,,,,,,,
3112.10000000149,,pt2_realistic_rating,616770,US_Cities_List/nat_westpalmbeach.png,,53,US_Cities_List/nat_westpalmbeach.png,NAT,5,,,,,,,,,,,,,,,
null,,confidence_buffer,616874,confidence_buffer,,null,,,,,,,,,,,,,,,,,,
3069.7999999970198,,pt2_unique_rating,619947,US_Cities_List/nat_westpalmbeach.png,,52,,,4,,,,,,,,,,,,,,,
null,,confidence_buffer,620050,confidence_buffer,,null,,,,,,,,,,,,,,,,,,
2207.10000000149,,pt2_memorable_rating,622260,US_Cities_List/nat_westpalmbeach.png,,53,,,5,,,,,,,,,,,,,,,
null,,confidence_buffer,622364,confidence_buffer,,null,,,,,,,,,,,,,,,,,,
1327.5,,recognition_phase,623695,US_Cities_List/nat_westpalmbeach.png,,49,,,,,,old,1,1,,,,,,,,,,
null,,confidence_buffer,623798,confidence_buffer,,null,,,,,,,,,,,,,,,,,,
null,,thebreak,624301,break,,null,,,,,,,,,,,,,,,,,,
4947,,pt2_realistic_rating,629251,US_Cities_List/nat_sitka.png,,53,US_Cities_List/nat_sitka.png,NAT,5,,,,,,,,,,,,,,,
null,,confidence_buffer,629355,confidence_buffer,,null,,,,,,,,,,,,,,,,,,
2693.10000000149,,pt2_unique_rating,632050,US_Cities_List/nat_sitka.png,,53,,,5,,,,,,,,,,,,,,,
null,,confidence_buffer,632152,confidence_buffer,,null,,,,,,,,,,,,,,,,,,
1564.6000000014901,,pt2_memorable_rating,633718,US_Cities_List/nat_sitka.png,,53,,,5,,,,,,,,,,,,,,,
null,,confidence_buffer,633822,confidence_buffer,,null,,,,,,,,,,,,,,,,,,
1577.4000000022352,,recognition_phase,635402,US_Cities_List/nat_sitka.png,,49,,,,,,old,1,1,,,,,,,,,,
null,,confidence_buffer,635504,confidence_buffer,,null,,,,,,,,,,,,,,,,,,
null,,thebreak,636006,break,,null,,,,,,,,,,,,,,,,,,
3173.39999999851,,pt2_realistic_rating,639180,Fictional_Cities_List/img_manmade_16.png,,50,Fictional_Cities_List/img_manmade_16.png,MM,2,,,,,,,,,,,,,,,
null,,confidence_buffer,639282,confidence_buffer,,null,,,,,,,,,,,,,,,,,,
2823,,pt2_unique_rating,642107,Fictional_Cities_List/img_manmade_16.png,,51,,,3,,,,,,,,,,,,,,,
null,,confidence_buffer,642210,confidence_buffer,,null,,,,,,,,,,,,,,,,,,
2557.099999997765,,pt2_memorable_rating,644769,Fictional_Cities_List/img_manmade_16.png,,52,,,4,,,,,,,,,,,,,,,
null,,confidence_buffer,644871,confidence_buffer,,null,,,,,,,,,,,,,,,,,,
1534.199999999255,,recognition_phase,646407,Fictional_Cities_List/img_manmade_16.png,,49,,,,,,old,1,1,,,,,,,,,,
null,,confidence_buffer,646511,confidence_buffer,,null,,,,,,,,,,,,,,,,,,
null,,thebreak,647013,break,,null,,,,,,,,,,,,,,,,,,
2176.39999999851,,pt2_realistic_rating,649192,Fictional_Cities_List/img_manmade_13.png,,49,Fictional_Cities_List/img_manmade_13.png,MM,1,,,,,,,,,,,,,,,
null,,confidence_buffer,649296,confidence_buffer,,null,,,,,,,,,,,,,,,,,,
4132.900000002235,,pt2_unique_rating,653431,Fictional_Cities_List/img_manmade_13.png,,51,,,3,,,,,,,,,,,,,,,
null,,confidence_buffer,653535,confidence_buffer,,null,,,,,,,,,,,,,,,,,,
1846.0999999977648,,pt2_memorable_rating,655384,Fictional_Cities_List/img_manmade_13.png,,50,,,2,,,,,,,,,,,,,,,
null,,confidence_buffer,655487,confidence_buffer,,null,,,,,,,,,,,,,,,,,,
1766.5999999977648,,recognition_phase,657256,Fictional_Cities_List/img_manmade_13.png,,52,,,,,,new,1,1,,,,,,,,,,
null,,confidence_buffer,657359,confidence_buffer,,null,,,,,,,,,,,,,,,,,,
null,,thebreak,657862,break,,null,,,,,,,,,,,,,,,,,,
4227.800000000745,,pt2_realistic_rating,662093,US_Cities_List/nat_healdsburg.png,,53,US_Cities_List/nat_healdsburg.png,NAT,5,,,,,,,,,,,,,,,
null,,confidence_buffer,662197,confidence_buffer,,null,,,,,,,,,,,,,,,,,,
1780,,probe_rating,663979,probe_rating,,53,,,,5,1,,,,,,,,,,,,,
null,,confidence_buffer,664081,confidence_buffer,,null,,,,,,,,,,,,,,,,,,
2519.800000000745,,pt2_unique_rating,666604,US_Cities_List/nat_healdsburg.png,,52,,,4,,,,,,,,,,,,,,,
null,,confidence_buffer,666706,confidence_buffer,,null,,,,,,,,,,,,,,,,,,
4140.400000002235,,pt2_memorable_rating,670847,US_Cities_List/nat_healdsburg.png,,51,,,3,,,,,,,,,,,,,,,
null,,confidence_buffer,670950,confidence_buffer,,null,,,,,,,,,,,,,,,,,,
2935.300000000745,,recognition_phase,673887,US_Cities_List/nat_healdsburg.png,,52,,,,,,new,1,1,,,,,,,,,,
null,,confidence_buffer,673991,confidence_buffer,,null,,,,,,,,,,,,,,,,,,
null,,thebreak,674492,break,,null,,,,,,,,,,,,,,,,,,
3595.300000000745,,pt2_realistic_rating,678089,Fictional_Cities_List/img_manmade_35.png,,49,Fictional_Cities_List/img_manmade_35.png,MM,1,,,,,,,,,,,,,,,
null,,confidence_buffer,678193,confidence_buffer,,null,,,,,,,,,,,,,,,,,,
2081.5,,pt2_unique_rating,680277,Fictional_Cities_List/img_manmade_35.png,,50,,,2,,,,,,,,,,,,,,,
null,,confidence_buffer,680380,confidence_buffer,,null,,,,,,,,,,,,,,,,,,
1973.300000000745,,pt2_memorable_rating,682357,Fictional_Cities_List/img_manmade_35.png,,50,,,2,,,,,,,,,,,,,,,
null,,confidence_buffer,682460,confidence_buffer,,null,,,,,,,,,,,,,,,,,,
3623.7999999970198,,recognition_phase,686087,Fictional_Cities_List/img_manmade_35.png,,52,,,,,,new,1,1,,,,,,,,,,
null,,confidence_buffer,686191,confidence_buffer,,null,,,,,,,,,,,,,,,,,,
null,,thebreak,686693,break,,null,,,,,,,,,,,,,,,,,,
2788.2999999970198,,pt2_realistic_rating,689484,US_Cities_List/mm_coeurdalene.png,,53,US_Cities_List/mm_coeurdalene.png,MM,5,,,,,,,,,,,,,,,
null,,confidence_buffer,689588,confidence_buffer,,null,,,,,,,,,,,,,,,,,,
2429.699999999255,,pt2_unique_rating,692020,US_Cities_List/mm_coeurdalene.png,,50,,,2,,,,,,,,,,,,,,,
null,,confidence_buffer,692123,confidence_buffer,,null,,,,,,,,,,,,,,,,,,
1899.300000000745,,probe_rating,694025,probe_rating,,52,,,,4,1,,,,,,,,,,,,,
null,,confidence_buffer,694129,confidence_buffer,,null,,,,,,,,,,,,,,,,,,
7919.300000000745,,pt2_memorable_rating,702050,US_Cities_List/mm_coeurdalene.png,,52,,,4,,,,,,,,,,,,,,,
null,,confidence_buffer,702153,confidence_buffer,,null,,,,,,,,,,,,,,,,,,
1377.199999999255,,recognition_phase,703533,US_Cities_List/mm_coeurdalene.png,,49,,,,,,old,1,1,,,,,,,,,,
null,,confidence_buffer,703636,confidence_buffer,,null,,,,,,,,,,,,,,,,,,
null,,thebreak,704137,break,,null,,,,,,,,,,,,,,,,,,
3890.5,,pt2_realistic_rating,708030,US_Cities_List/nat_delawarecity.png,,53,US_Cities_List/nat_delawarecity.png,NAT,5,,,,,,,,,,,,,,,
null,,confidence_buffer,708134,confidence_buffer,,null,,,,,,,,,,,,,,,,,,
2374.60000000149,,pt2_unique_rating,710511,US_Cities_List/nat_delawarecity.png,,51,,,3,,,,,,,,,,,,,,,
null,,confidence_buffer,710614,confidence_buffer,,null,,,,,,,,,,,,,,,,,,
3847.699999999255,,pt2_memorable_rating,714465,US_Cities_List/nat_delawarecity.png,,51,,,3,,,,,,,,,,,,,,,
null,,confidence_buffer,714568,confidence_buffer,,null,,,,,,,,,,,,,,,,,,
1204.800000000745,,recognition_phase,715775,US_Cities_List/nat_delawarecity.png,,49,,,,,,old,1,1,,,,,,,,,,
null,,confidence_buffer,715879,confidence_buffer,,null,,,,,,,,,,,,,,,,,,
null,,thebreak,716380,break,,null,,,,,,,,,,,,,,,,,,
4851.300000000745,,pt2_realistic_rating,721233,US_Cities_List/nat_carmel.png,,51,US_Cities_List/nat_carmel.png,NAT,3,,,,,,,,,,,,,,,
null,,confidence_buffer,721336,confidence_buffer,,null,,,,,,,,,,,,,,,,,,
3935.10000000149,,pt2_unique_rating,725273,US_Cities_List/nat_carmel.png,,52,,,4,,,,,,,,,,,,,,,
null,,confidence_buffer,725377,confidence_buffer,,null,,,,,,,,,,,,,,,,,,
2898.5,,pt2_memorable_rating,728278,US_Cities_List/nat_carmel.png,,52,,,4,,,,,,,,,,,,,,,
null,,confidence_buffer,728380,confidence_buffer,,null,,,,,,,,,,,,,,,,,,
1699.2999999970198,,recognition_phase,730081,US_Cities_List/nat_carmel.png,,52,,,,,,new,1,1,,,,,,,,,,
null,,confidence_buffer,730185,confidence_buffer,,null,,,,,,,,,,,,,,,,,,
null,,thebreak,730687,break,,null,,,,,,,,,,,,,,,,,,
5411.199999999255,,pt2_realistic_rating,736101,Fictional_Cities_List/img_manmade_02.png,,52,Fictional_Cities_List/img_manmade_02.png,MM,4,,,,,,,,,,,,,,,
null,,confidence_buffer,736204,confidence_buffer,,null,,,,,,,,,,,,,,,,,,
1606.8999999985099,,pt2_unique_rating,737813,Fictional_Cities_List/img_manmade_02.png,,50,,,2,,,,,,,,,,,,,,,
null,,confidence_buffer,737914,confidence_buffer,,null,,,,,,,,,,,,,,,,,,
1729.7000000029802,,pt2_memorable_rating,739646,Fictional_Cities_List/img_manmade_02.png,,50,,,2,,,,,,,,,,,,,,,
null,,confidence_buffer,739749,confidence_buffer,,null,,,,,,,,,,,,,,,,,,
1066.6000000014901,,recognition_phase,740818,Fictional_Cities_List/img_manmade_02.png,,49,,,,,,old,1,1,,,,,,,,,,
null,,confidence_buffer,740921,confidence_buffer,,null,,,,,,,,,,,,,,,,,,
null,,thebreak,741423,break,,null,,,,,,,,,,,,,,,,,,
4071.39999999851,,pt2_realistic_rating,745497,Fictional_Cities_List/img_natural_24.png,,51,Fictional_Cities_List/img_natural_24.png,NAT,3,,,,,,,,,,,,,,,
null,,confidence_buffer,745601,confidence_buffer,,null,,,,,,,,,,,,,,,,,,
3446,,pt2_unique_rating,749050,Fictional_Cities_List/img_natural_24.png,,52,,,4,,,,,,,,,,,,,,,
null,,confidence_buffer,749153,confidence_buffer,,null,,,,,,,,,,,,,,,,,,
3606.10000000149,,pt2_memorable_rating,752761,Fictional_Cities_List/img_natural_24.png,,52,,,4,,,,,,,,,,,,,,,
null,,confidence_buffer,752865,confidence_buffer,,null,,,,,,,,,,,,,,,,,,
1453.4000000022352,,probe_rating,754321,probe_rating,,53,,,,5,1,,,,,,,,,,,,,
null,,confidence_buffer,754424,confidence_buffer,,null,,,,,,,,,,,,,,,,,,
1393.800000000745,,recognition_phase,755821,Fictional_Cities_List/img_natural_24.png,,49,,,,,,old,1,1,,,,,,,,,,
null,,confidence_buffer,755923,confidence_buffer,,null,,,,,,,,,,,,,,,,,,
null,,thebreak,756425,break,,null,,,,,,,,,,,,,,,,,,
5937.800000000745,,pt2_realistic_rating,762365,Fictional_Cities_List/img_natural_21.png,,50,Fictional_Cities_List/img_natural_21.png,NAT,2,,,,,,,,,,,,,,,
null,,confidence_buffer,762468,confidence_buffer,,null,,,,,,,,,,,,,,,,,,
2843,,pt2_unique_rating,765313,Fictional_Cities_List/img_natural_21.png,,51,,,3,,,,,,,,,,,,,,,
null,,confidence_buffer,765414,confidence_buffer,,null,,,,,,,,,,,,,,,,,,
1886.7999999970198,,pt2_memorable_rating,767303,Fictional_Cities_List/img_natural_21.png,,50,,,2,,,,,,,,,,,,,,,
null,,confidence_buffer,767406,confidence_buffer,,null,,,,,,,,,,,,,,,,,,
4007.800000000745,,recognition_phase,771417,Fictional_Cities_List/img_natural_21.png,,52,,,,,,new,1,1,,,,,,,,,,
null,,confidence_buffer,771520,confidence_buffer,,null,,,,,,,,,,,,,,,,,,
null,,thebreak,772022,break,,null,,,,,,,,,,,,,,,,,,
2383.199999999255,,pt2_realistic_rating,774408,Fictional_Cities_List/img_manmade_12.png,,49,Fictional_Cities_List/img_manmade_12.png,MM,1,,,,,,,,,,,,,,,
null,,confidence_buffer,774511,confidence_buffer,,null,,,,,,,,,,,,,,,,,,
2239.2999999970198,,pt2_unique_rating,776753,Fictional_Cities_List/img_manmade_12.png,,51,,,3,,,,,,,,,,,,,,,
null,,confidence_buffer,776858,confidence_buffer,,null,,,,,,,,,,,,,,,,,,
2666.400000002235,,pt2_memorable_rating,779528,Fictional_Cities_List/img_manmade_12.png,,53,,,5,,,,,,,,,,,,,,,
null,,confidence_buffer,779630,confidence_buffer,,null,,,,,,,,,,,,,,,,,,
1677.0999999977648,,recognition_phase,781310,Fictional_Cities_List/img_manmade_12.png,,49,,,,,,old,1,1,,,,,,,,,,
null,,confidence_buffer,781413,confidence_buffer,,null,,,,,,,,,,,,,,,,,,
null,,thebreak,781915,break,,null,,,,,,,,,,,,,,,,,,
4384.5,,pt2_realistic_rating,786302,US_Cities_List/mm_cornwall.png,,52,US_Cities_List/mm_cornwall.png,MM,4,,,,,,,,,,,,,,,
null,,confidence_buffer,786404,confidence_buffer,,null,,,,,,,,,,,,,,,,,,
3209,,pt2_unique_rating,789616,US_Cities_List/mm_cornwall.png,,51,,,3,,,,,,,,,,,,,,,
null,,confidence_buffer,789720,confidence_buffer,,null,,,,,,,,,,,,,,,,,,
1503.8999999985099,,pt2_memorable_rating,791226,US_Cities_List/mm_cornwall.png,,52,,,4,,,,,,,,,,,,,,,
null,,confidence_buffer,791328,confidence_buffer,,null,,,,,,,,,,,,,,,,,,
1466.5999999977648,,probe_rating,792797,probe_rating,,51,,,,3,1,,,,,,,,,,,,,
null,,confidence_buffer,792901,confidence_buffer,,null,,,,,,,,,,,,,,,,,,
1596.5999999977648,,recognition_phase,794500,US_Cities_List/mm_cornwall.png,,49,,,,,,old,1,1,,,,,,,,,,
null,,confidence_buffer,794607,confidence_buffer,,null,,,,,,,,,,,,,,,,,,
null,,thebreak,795109,break,,null,,,,,,,,,,,,,,,,,,
8010.300000000745,,pt2_realistic_rating,803122,US_Cities_List/mm_bisbee.png,,51,US_Cities_List/mm_bisbee.png,MM,3,,,,,,,,,,,,,,,
null,,confidence_buffer,803225,confidence_buffer,,null,,,,,,,,,,,,,,,,,,
1969.1000000014901,,pt2_unique_rating,805197,US_Cities_List/mm_bisbee.png,,50,,,2,,,,,,,,,,,,,,,
null,,confidence_buffer,805300,confidence_buffer,,null,,,,,,,,,,,,,,,,,,
1875.8999999985099,,pt2_memorable_rating,807179,US_Cities_List/mm_bisbee.png,,51,,,3,,,,,,,,,,,,,,,
null,,confidence_buffer,807281,confidence_buffer,,null,,,,,,,,,,,,,,,,,,
1867.4000000022352,,recognition_phase,809150,US_Cities_List/mm_bisbee.png,,52,,,,,,new,1,1,,,,,,,,,,
null,,confidence_buffer,809252,confidence_buffer,,null,,,,,,,,,,,,,,,,,,
null,,thebreak,809753,break,,null,,,,,,,,,,,,,,,,,,
8396,,pt2_realistic_rating,818151,US_Cities_List/mm_peoria.png,,53,US_Cities_List/mm_peoria.png,MM,5,,,,,,,,,,,,,,,
null,,confidence_buffer,818253,confidence_buffer,,null,,,,,,,,,,,,,,,,,,
1943.800000000745,,pt2_unique_rating,820198,US_Cities_List/mm_peoria.png,,52,,,4,,,,,,,,,,,,,,,
null,,confidence_buffer,820303,confidence_buffer,,null,,,,,,,,,,,,,,,,,,
1895.0999999977648,,pt2_memorable_rating,822201,US_Cities_List/mm_peoria.png,,52,,,4,,,,,,,,,,,,,,,
null,,confidence_buffer,822304,confidence_buffer,,null,,,,,,,,,,,,,,,,,,
1957,,recognition_phase,824264,US_Cities_List/mm_peoria.png,,52,,,,,,new,1,1,,,,,,,,,,
null,,confidence_buffer,824370,confidence_buffer,,null,,,,,,,,,,,,,,,,,,
null,,thebreak,824871,break,,null,,,,,,,,,,,,,,,,,,
3333.7999999970198,,pt2_realistic_rating,828207,US_Cities_List/nat_boulder.png,,52,US_Cities_List/nat_boulder.png,NAT,4,,,,,,,,,,,,,,,
null,,confidence_buffer,828309,confidence_buffer,,null,,,,,,,,,,,,,,,,,,
1856,,pt2_unique_rating,830167,US_Cities_List/nat_boulder.png,,52,,,4,,,,,,,,,,,,,,,
null,,confidence_buffer,830270,confidence_buffer,,null,,,,,,,,,,,,,,,,,,
1407.5999999977648,,pt2_memorable_rating,831680,US_Cities_List/nat_boulder.png,,52,,,4,,,,,,,,,,,,,,,
null,,confidence_buffer,831783,confidence_buffer,,null,,,,,,,,,,,,,,,,,,
949.1000000014901,,recognition_phase,832735,US_Cities_List/nat_boulder.png,,49,,,,,,old,1,1,,,,,,,,,,
null,,confidence_buffer,832839,confidence_buffer,,null,,,,,,,,,,,,,,,,,,
null,,thebreak,833341,break,,null,,,,,,,,,,,,,,,,,,
3704.300000000745,,pt2_realistic_rating,837047,Fictional_Cities_List/img_manmade_01.png,,51,Fictional_Cities_List/img_manmade_01.png,MM,3,,,,,,,,,,,,,,,
null,,confidence_buffer,837149,confidence_buffer,,null,,,,,,,,,,,,,,,,,,
2161.599999997765,,pt2_unique_rating,839313,Fictional_Cities_List/img_manmade_01.png,,51,,,3,,,,,,,,,,,,,,,
null,,confidence_buffer,839416,confidence_buffer,,null,,,,,,,,,,,,,,,,,,
2238.60000000149,,pt2_memorable_rating,841657,Fictional_Cities_List/img_manmade_01.png,,52,,,4,,,,,,,,,,,,,,,
null,,confidence_buffer,841759,confidence_buffer,,null,,,,,,,,,,,,,,,,,,
1350.300000000745,,recognition_phase,843111,Fictional_Cities_List/img_manmade_01.png,,49,,,,,,old,1,1,,,,,,,,,,
null,,confidence_buffer,843212,confidence_buffer,,null,,,,,,,,,,,,,,,,,,
null,,thebreak,843714,break,,null,,,,,,,,,,,,,,,,,,
3758.60000000149,,pt2_realistic_rating,847474,US_Cities_List/mm_okoboji.png,,52,US_Cities_List/mm_okoboji.png,MM,4,,,,,,,,,,,,,,,
null,,confidence_buffer,847580,confidence_buffer,,null,,,,,,,,,,,,,,,,,,
3535.699999999255,,pt2_unique_rating,851118,US_Cities_List/mm_okoboji.png,,51,,,3,,,,,,,,,,,,,,,
null,,confidence_buffer,851221,confidence_buffer,,null,,,,,,,,,,,,,,,,,,
2769.300000000745,,pt2_memorable_rating,853993,US_Cities_List/mm_okoboji.png,,52,,,4,,,,,,,,,,,,,,,
null,,confidence_buffer,854096,confidence_buffer,,null,,,,,,,,,,,,,,,,,,
1145,,recognition_phase,855244,US_Cities_List/mm_okoboji.png,,49,,,,,,old,1,1,,,,,,,,,,
null,,confidence_buffer,855345,confidence_buffer,,null,,,,,,,,,,,,,,,,,,
null,,thebreak,855847,break,,null,,,,,,,,,,,,,,,,,,
4437.800000000745,,pt2_realistic_rating,860287,Fictional_Cities_List/img_natural_48.png,,53,Fictional_Cities_List/img_natural_48.png,NAT,5,,,,,,,,,,,,,,,
null,,confidence_buffer,860389,confidence_buffer,,null,,,,,,,,,,,,,,,,,,
1933.9000000022352,,pt2_unique_rating,862324,Fictional_Cities_List/img_natural_48.png,,52,,,4,,,,,,,,,,,,,,,
null,,confidence_buffer,862426,confidence_buffer,,null,,,,,,,,,,,,,,,,,,
2572.800000000745,,pt2_memorable_rating,865002,Fictional_Cities_List/img_natural_48.png,,52,,,4,,,,,,,,,,,,,,,
null,,confidence_buffer,865104,confidence_buffer,,null,,,,,,,,,,,,,,,,,,
1326.7000000029802,,recognition_phase,866432,Fictional_Cities_List/img_natural_48.png,,52,,,,,,new,1,1,,,,,,,,,,
null,,confidence_buffer,866535,confidence_buffer,,null,,,,,,,,,,,,,,,,,,
null,,thebreak,867036,break,,null,,,,,,,,,,,,,,,,,,
6857.39999999851,,pt2_realistic_rating,873895,US_Cities_List/mm_hilo.png,,52,US_Cities_List/mm_hilo.png,MM,4,,,,,,,,,,,,,,,
null,,confidence_buffer,873998,confidence_buffer,,null,,,,,,,,,,,,,,,,,,
1799.9000000022352,,pt2_unique_rating,875800,US_Cities_List/mm_hilo.png,,51,,,3,,,,,,,,,,,,,,,
null,,confidence_buffer,875903,confidence_buffer,,null,,,,,,,,,,,,,,,,,,
2334.39999999851,,pt2_memorable_rating,878239,US_Cities_List/mm_hilo.png,,51,,,3,,,,,,,,,,,,,,,
null,,confidence_buffer,878344,confidence_buffer,,null,,,,,,,,,,,,,,,,,,
1462.9000000022352,,recognition_phase,879809,US_Cities_List/mm_hilo.png,,52,,,,,,new,1,1,,,,,,,,,,
null,,confidence_buffer,879913,confidence_buffer,,null,,,,,,,,,,,,,,,,,,
null,,thebreak,880415,break,,null,,,,,,,,,,,,,,,,,,
5796.79999999702,,pt2_realistic_rating,886214,US_Cities_List/nat_abilene.png,,52,US_Cities_List/nat_abilene.png,NAT,4,,,,,,,,,,,,,,,
null,,confidence_buffer,886316,confidence_buffer,,null,,,,,,,,,,,,,,,,,,
2089.7000000029802,,pt2_unique_rating,888408,US_Cities_List/nat_abilene.png,,51,,,3,,,,,,,,,,,,,,,
null,,confidence_buffer,888511,confidence_buffer,,null,,,,,,,,,,,,,,,,,,
5653.599999997765,,pt2_memorable_rating,894167,US_Cities_List/nat_abilene.png,,50,,,2,,,,,,,,,,,,,,,
null,,confidence_buffer,894269,confidence_buffer,,null,,,,,,,,,,,,,,,,,,
1729.9000000022352,,recognition_phase,896001,US_Cities_List/nat_abilene.png,,52,,,,,,new,1,1,,,,,,,,,,
null,,confidence_buffer,896104,confidence_buffer,,null,,,,,,,,,,,,,,,,,,
null,,thebreak,896606,break,,null,,,,,,,,,,,,,,,,,,
3970.5,,pt2_realistic_rating,900578,US_Cities_List/nat_bisbee.png,,51,US_Cities_List/nat_bisbee.png,NAT,3,,,,,,,,,,,,,,,
null,,confidence_buffer,900682,confidence_buffer,,null,,,,,,,,,,,,,,,,,,
1951,,pt2_unique_rating,902635,US_Cities_List/nat_bisbee.png,,51,,,3,,,,,,,,,,,,,,,
null,,confidence_buffer,902739,confidence_buffer,,null,,,,,,,,,,,,,,,,,,
1824.699999999255,,pt2_memorable_rating,904566,US_Cities_List/nat_bisbee.png,,51,,,3,,,,,,,,,,,,,,,
null,,confidence_buffer,904669,confidence_buffer,,null,,,,,,,,,,,,,,,,,,
1089.300000000745,,recognition_phase,905762,US_Cities_List/nat_bisbee.png,,52,,,,,,new,1,1,,,,,,,,,,
null,,confidence_buffer,905865,confidence_buffer,,null,,,,,,,,,,,,,,,,,,
null,,thebreak,906367,break,,null,,,,,,,,,,,,,,,,,,
4269.89999999851,,pt2_realistic_rating,910639,US_Cities_List/nat_okoboji.png,,52,US_Cities_List/nat_okoboji.png,NAT,4,,,,,,,,,,,,,,,
null,,confidence_buffer,910742,confidence_buffer,,null,,,,,,,,,,,,,,,,,,
1813.1000000014901,,pt2_unique_rating,912558,US_Cities_List/nat_okoboji.png,,50,,,2,,,,,,,,,,,,,,,
null,,confidence_buffer,912661,confidence_buffer,,null,,,,,,,,,,,,,,,,,,
5618.099999997765,,pt2_memorable_rating,918282,US_Cities_List/nat_okoboji.png,,49,,,1,,,,,,,,,,,,,,,
null,,confidence_buffer,918385,confidence_buffer,,null,,,,,,,,,,,,,,,,,,
1963.800000000745,,recognition_phase,920351,US_Cities_List/nat_okoboji.png,,52,,,,,,new,1,1,,,,,,,,,,
null,,confidence_buffer,920455,confidence_buffer,,null,,,,,,,,,,,,,,,,,,
null,,thebreak,920956,break,,null,,,,,,,,,,,,,,,,,,
3948.400000002235,,pt2_realistic_rating,924907,US_Cities_List/mm_carmel.png,,52,US_Cities_List/mm_carmel.png,MM,4,,,,,,,,,,,,,,,
null,,confidence_buffer,925010,confidence_buffer,,null,,,,,,,,,,,,,,,,,,
2501.400000002235,,pt2_unique_rating,927514,US_Cities_List/mm_carmel.png,,52,,,4,,,,,,,,,,,,,,,
null,,confidence_buffer,927617,confidence_buffer,,null,,,,,,,,,,,,,,,,,,
2544.10000000149,,pt2_memorable_rating,930163,US_Cities_List/mm_carmel.png,,52,,,4,,,,,,,,,,,,,,,
null,,confidence_buffer,930268,confidence_buffer,,null,,,,,,,,,,,,,,,,,,
975.5,,recognition_phase,931246,US_Cities_List/mm_carmel.png,,49,,,,,,old,1,1,,,,,,,,,,
null,,confidence_buffer,931349,confidence_buffer,,null,,,,,,,,,,,,,,,,,,
null,,thebreak,931852,break,,null,,,,,,,,,,,,,,,,,,
5158.900000002235,,pt2_realistic_rating,937013,US_Cities_List/mm_boulder.png,,53,US_Cities_List/mm_boulder.png,MM,5,,,,,,,,,,,,,,,
null,,confidence_buffer,937116,confidence_buffer,,null,,,,,,,,,,,,,,,,,,
2447.599999997765,,pt2_unique_rating,939566,US_Cities_List/mm_boulder.png,,51,,,3,,,,,,,,,,,,,,,
null,,confidence_buffer,939669,confidence_buffer,,null,,,,,,,,,,,,,,,,,,
2854,,pt2_memorable_rating,942525,US_Cities_List/mm_boulder.png,,52,,,4,,,,,,,,,,,,,,,
null,,confidence_buffer,942629,confidence_buffer,,null,,,,,,,,,,,,,,,,,,
930.3999999985099,,recognition_phase,943562,US_Cities_List/mm_boulder.png,,49,,,,,,old,1,1,,,,,,,,,,
null,,confidence_buffer,943665,confidence_buffer,,null,,,,,,,,,,,,,,,,,,
null,,thebreak,944167,break,,null,,,,,,,,,,,,,,,,,,
3910.60000000149,,pt2_realistic_rating,948081,Fictional_Cities_List/img_natural_42.png,,53,Fictional_Cities_List/img_natural_42.png,NAT,5,,,,,,,,,,,,,,,
null,,confidence_buffer,948184,confidence_buffer,,null,,,,,,,,,,,,,,,,,,
2621.60000000149,,pt2_unique_rating,950808,Fictional_Cities_List/img_natural_42.png,,53,,,5,,,,,,,,,,,,,,,
null,,confidence_buffer,950910,confidence_buffer,,null,,,,,,,,,,,,,,,,,,
1648.199999999255,,pt2_memorable_rating,952560,Fictional_Cities_List/img_natural_42.png,,53,,,5,,,,,,,,,,,,,,,
null,,confidence_buffer,952663,confidence_buffer,,null,,,,,,,,,,,,,,,,,,
1195.2999999970198,,recognition_phase,953862,Fictional_Cities_List/img_natural_42.png,,49,,,,,,old,1,1,,,,,,,,,,
null,,confidence_buffer,953965,confidence_buffer,,null,,,,,,,,,,,,,,,,,,
null,,thebreak,954467,break,,null,,,,,,,,,,,,,,,,,,
7882.099999997765,,pt2_realistic_rating,962352,US_Cities_List/nat_hilo.png,,51,US_Cities_List/nat_hilo.png,NAT,3,,,,,,,,,,,,,,,
null,,confidence_buffer,962456,confidence_buffer,,null,,,,,,,,,,,,,,,,,,
5685,,pt2_unique_rating,968143,US_Cities_List/nat_hilo.png,,50,,,2,,,,,,,,,,,,,,,
null,,confidence_buffer,968247,confidence_buffer,,null,,,,,,,,,,,,,,,,,,
2220.599999997765,,pt2_memorable_rating,970470,US_Cities_List/nat_hilo.png,,49,,,1,,,,,,,,,,,,,,,
null,,confidence_buffer,970574,confidence_buffer,,null,,,,,,,,,,,,,,,,,,
1419.300000000745,,recognition_phase,971996,US_Cities_List/nat_hilo.png,,52,,,,,,new,1,1,,,,,,,,,,
null,,confidence_buffer,972099,confidence_buffer,,null,,,,,,,,,,,,,,,,,,
null,,thebreak,972600,break,,null,,,,,,,,,,,,,,,,,,
2702.400000002235,,pt2_realistic_rating,975304,Fictional_Cities_List/img_natural_01.png,,53,Fictional_Cities_List/img_natural_01.png,NAT,5,,,,,,,,,,,,,,,
null,,confidence_buffer,975406,confidence_buffer,,null,,,,,,,,,,,,,,,,,,
2997.10000000149,,pt2_unique_rating,978405,Fictional_Cities_List/img_natural_01.png,,50,,,2,,,,,,,,,,,,,,,
null,,confidence_buffer,978508,confidence_buffer,,null,,,,,,,,,,,,,,,,,,
2186.39999999851,,pt2_memorable_rating,980698,Fictional_Cities_List/img_natural_01.png,,53,,,5,,,,,,,,,,,,,,,
null,,confidence_buffer,980801,confidence_buffer,,null,,,,,,,,,,,,,,,,,,
1076.300000000745,,recognition_phase,981880,Fictional_Cities_List/img_natural_01.png,,49,,,,,,old,1,1,,,,,,,,,,
null,,confidence_buffer,981983,confidence_buffer,,null,,,,,,,,,,,,,,,,,,
null,,thebreak,982485,break,,null,,,,,,,,,,,,,,,,,,
2772.5,,pt2_realistic_rating,985261,US_Cities_List/mm_athens.png,,53,US_Cities_List/mm_athens.png,MM,5,,,,,,,,,,,,,,,
null,,confidence_buffer,985365,confidence_buffer,,null,,,,,,,,,,,,,,,,,,
3486.400000002235,,pt2_unique_rating,988854,US_Cities_List/mm_athens.png,,50,,,2,,,,,,,,,,,,,,,
null,,confidence_buffer,988956,confidence_buffer,,null,,,,,,,,,,,,,,,,,,
1699.9000000022352,,pt2_memorable_rating,990658,US_Cities_List/mm_athens.png,,50,,,2,,,,,,,,,,,,,,,
null,,confidence_buffer,990761,confidence_buffer,,null,,,,,,,,,,,,,,,,,,
1177.7999999970198,,recognition_phase,991941,US_Cities_List/mm_athens.png,,49,,,,,,old,1,1,,,,,,,,,,
null,,confidence_buffer,992045,confidence_buffer,,null,,,,,,,,,,,,,,,,,,
null,,thebreak,992547,break,,null,,,,,,,,,,,,,,,,,,
5996.900000002235,,pt2_realistic_rating,998546,US_Cities_List/nat_cornwall.png,,52,US_Cities_List/nat_cornwall.png,NAT,4,,,,,,,,,,,,,,,
null,,confidence_buffer,998651,confidence_buffer,,null,,,,,,,,,,,,,,,,,,
2435.699999999255,,pt2_unique_rating,1001090,US_Cities_List/nat_cornwall.png,,50,,,2,,,,,,,,,,,,,,,
null,,confidence_buffer,1001193,confidence_buffer,,null,,,,,,,,,,,,,,,,,,
2605.5,,pt2_memorable_rating,1003802,US_Cities_List/nat_cornwall.png,,51,,,3,,,,,,,,,,,,,,,
null,,confidence_buffer,1003905,confidence_buffer,,null,,,,,,,,,,,,,,,,,,
1267.7999999970198,,recognition_phase,1005176,US_Cities_List/nat_cornwall.png,,52,,,,,,new,1,1,,,,,,,,,,
null,,confidence_buffer,1005279,confidence_buffer,,null,,,,,,,,,,,,,,,,,,
null,,thebreak,1005781,break,,null,,,,,,,,,,,,,,,,,,
4489,,pt2_realistic_rating,1010273,US_Cities_List/nat_peoria.png,,53,US_Cities_List/nat_peoria.png,NAT,5,,,,,,,,,,,,,,,
null,,confidence_buffer,1010376,confidence_buffer,,null,,,,,,,,,,,,,,,,,,
2290.900000002235,,pt2_unique_rating,1012670,US_Cities_List/nat_peoria.png,,50,,,2,,,,,,,,,,,,,,,
null,,confidence_buffer,1012774,confidence_buffer,,null,,,,,,,,,,,,,,,,,,
2581.300000000745,,pt2_memorable_rating,1015358,US_Cities_List/nat_peoria.png,,51,,,3,,,,,,,,,,,,,,,
null,,confidence_buffer,1015461,confidence_buffer,,null,,,,,,,,,,,,,,,,,,
1407.7000000029802,,recognition_phase,1016872,US_Cities_List/nat_peoria.png,,49,,,,,,old,1,1,,,,,,,,,,
null,,confidence_buffer,1016975,confidence_buffer,,null,,,,,,,,,,,,,,,,,,
null,,thebreak,1017477,break,,null,,,,,,,,,,,,,,,,,,
5306.300000000745,,pt2_realistic_rating,1022786,Fictional_Cities_List/img_natural_35.png,,50,Fictional_Cities_List/img_natural_35.png,NAT,2,,,,,,,,,,,,,,,
null,,confidence_buffer,1022888,confidence_buffer,,null,,,,,,,,,,,,,,,,,,
3876.199999999255,,pt2_unique_rating,1026766,Fictional_Cities_List/img_natural_35.png,,51,,,3,,,,,,,,,,,,,,,
null,,confidence_buffer,1026867,confidence_buffer,,null,,,,,,,,,,,,,,,,,,
1857.800000000745,,pt2_memorable_rating,1028727,Fictional_Cities_List/img_natural_35.png,,51,,,3,,,,,,,,,,,,,,,
null,,confidence_buffer,1028830,confidence_buffer,,null,,,,,,,,,,,,,,,,,,
742.6999999992549,,recognition_phase,1029579,Fictional_Cities_List/img_natural_35.png,,49,,,,,,old,1,1,,,,,,,,,,
null,,confidence_buffer,1029684,confidence_buffer,,null,,,,,,,,,,,,,,,,,,
null,,thebreak,1030186,break,,null,,,,,,,,,,,,,,,,,,
3099.800000000745,,pt2_realistic_rating,1033289,Fictional_Cities_List/img_manmade_32.png,,52,Fictional_Cities_List/img_manmade_32.png,MM,4,,,,,,,,,,,,,,,
null,,confidence_buffer,1033391,confidence_buffer,,null,,,,,,,,,,,,,,,,,,
1687,,probe_rating,1035080,probe_rating,,49,,,,1,1,,,,,,,,,,,,,
null,,confidence_buffer,1035182,confidence_buffer,,null,,,,,,,,,,,,,,,,,,
3026,,pt2_unique_rating,1038209,Fictional_Cities_List/img_manmade_32.png,,51,,,3,,,,,,,,,,,,,,,
null,,confidence_buffer,1038312,confidence_buffer,,null,,,,,,,,,,,,,,,,,,
4508.900000002235,,pt2_memorable_rating,1042823,Fictional_Cities_List/img_manmade_32.png,,51,,,3,,,,,,,,,,,,,,,
null,,confidence_buffer,1042925,confidence_buffer,,null,,,,,,,,,,,,,,,,,,
959.6000000014901,,recognition_phase,1043886,Fictional_Cities_List/img_manmade_32.png,,49,,,,,,old,1,1,,,,,,,,,,
null,,confidence_buffer,1043988,confidence_buffer,,null,,,,,,,,,,,,,,,,,,
null,,thebreak,1044490,break,,null,,,,,,,,,,,,,,,,,,
2973.7999999970198,,pt2_realistic_rating,1047466,Fictional_Cities_List/img_manmade_28.png,,49,Fictional_Cities_List/img_manmade_28.png,MM,1,,,,,,,,,,,,,,,
null,,confidence_buffer,1047570,confidence_buffer,,null,,,,,,,,,,,,,,,,,,
3548.10000000149,,pt2_unique_rating,1051121,Fictional_Cities_List/img_manmade_28.png,,51,,,3,,,,,,,,,,,,,,,
null,,confidence_buffer,1051224,confidence_buffer,,null,,,,,,,,,,,,,,,,,,
2176.800000000745,,pt2_memorable_rating,1053402,Fictional_Cities_List/img_manmade_28.png,,52,,,4,,,,,,,,,,,,,,,
null,,confidence_buffer,1053508,confidence_buffer,,null,,,,,,,,,,,,,,,,,,
1944,,recognition_phase,1055455,Fictional_Cities_List/img_manmade_28.png,,52,,,,,,new,1,1,,,,,,,,,,
null,,confidence_buffer,1055559,confidence_buffer,,null,,,,,,,,,,,,,,,,,,
null,,thebreak,1056061,break,,null,,,,,,,,,,,,,,,,,,
3156.39999999851,,pt2_realistic_rating,1059219,US_Cities_List/mm_westpalmbeach.png,,52,US_Cities_List/mm_westpalmbeach.png,MM,4,,,,,,,,,,,,,,,
null,,confidence_buffer,1059321,confidence_buffer,,null,,,,,,,,,,,,,,,,,,
1954.5999999977648,,pt2_unique_rating,1061278,US_Cities_List/mm_westpalmbeach.png,,52,,,4,,,,,,,,,,,,,,,
null,,confidence_buffer,1061382,confidence_buffer,,null,,,,,,,,,,,,,,,,,,
1635.5999999977648,,pt2_memorable_rating,1063021,US_Cities_List/mm_westpalmbeach.png,,52,,,4,,,,,,,,,,,,,,,
null,,confidence_buffer,1063125,confidence_buffer,,null,,,,,,,,,,,,,,,,,,
1077.1000000014901,,recognition_phase,1064206,US_Cities_List/mm_westpalmbeach.png,,49,,,,,,old,1,1,,,,,,,,,,
null,,confidence_buffer,1064309,confidence_buffer,,null,,,,,,,,,,,,,,,,,,
null,,thebreak,1064811,break,,null,,,,,,,,,,,,,,,,,,
4804.900000002235,,pt2_realistic_rating,1069619,US_Cities_List/nat_hotsprings.png,,51,US_Cities_List/nat_hotsprings.png,NAT,3,,,,,,,,,,,,,,,
null,,confidence_buffer,1069721,confidence_buffer,,null,,,,,,,,,,,,,,,,,,
2065.60000000149,,pt2_unique_rating,1071789,US_Cities_List/nat_hotsprings.png,,51,,,3,,,,,,,,,,,,,,,
null,,confidence_buffer,1071891,confidence_buffer,,null,,,,,,,,,,,,,,,,,,
3052,,pt2_memorable_rating,1074944,US_Cities_List/nat_hotsprings.png,,51,,,3,,,,,,,,,,,,,,,
null,,confidence_buffer,1075046,confidence_buffer,,null,,,,,,,,,,,,,,,,,,
884.8000000007451,,recognition_phase,1075933,US_Cities_List/nat_hotsprings.png,,50,,,,,,old,0,0.9807692307692307,,,,,,,,,,
null,,confidence_buffer,1076037,confidence_buffer,,null,,,,,,,,,,,,,,,,,,
null,,thebreak,1076539,break,,null,,,,,,,,,,,,,,,,,,
1886.8999999985099,,pt2_realistic_rating,1078429,Fictional_Cities_List/img_natural_03.png,,49,Fictional_Cities_List/img_natural_03.png,NAT,1,,,,,,,,,,,,,,,
null,,confidence_buffer,1078533,confidence_buffer,,null,,,,,,,,,,,,,,,,,,
3502.5,,pt2_unique_rating,1082038,Fictional_Cities_List/img_natural_03.png,,51,,,3,,,,,,,,,,,,,,,
null,,confidence_buffer,1082140,confidence_buffer,,null,,,,,,,,,,,,,,,,,,
2134.800000000745,,pt2_memorable_rating,1084277,Fictional_Cities_List/img_natural_03.png,,53,,,5,,,,,,,,,,,,,,,
null,,confidence_buffer,1084381,confidence_buffer,,null,,,,,,,,,,,,,,,,,,
1199.300000000745,,recognition_phase,1085583,Fictional_Cities_List/img_natural_03.png,,49,,,,,,old,1,0.9811320754716981,,,,,,,,,,
null,,confidence_buffer,1085687,confidence_buffer,,null,,,,,,,,,,,,,,,,,,
null,,thebreak,1086189,break,,null,,,,,,,,,,,,,,,,,,
3126.60000000149,,pt2_realistic_rating,1089318,Fictional_Cities_List/img_manmade_06.png,,52,Fictional_Cities_List/img_manmade_06.png,MM,4,,,,,,,,,,,,,,,
null,,confidence_buffer,1089420,confidence_buffer,,null,,,,,,,,,,,,,,,,,,
1318.699999999255,,probe_rating,1090741,probe_rating,,49,,,,1,1,,,,,,,,,,,,,
null,,confidence_buffer,1090845,confidence_buffer,,null,,,,,,,,,,,,,,,,,,
1943.800000000745,,pt2_unique_rating,1092792,Fictional_Cities_List/img_manmade_06.png,,51,,,3,,,,,,,,,,,,,,,
null,,confidence_buffer,1092895,confidence_buffer,,null,,,,,,,,,,,,,,,,,,
2268.39999999851,,pt2_memorable_rating,1095165,Fictional_Cities_List/img_manmade_06.png,,52,,,4,,,,,,,,,,,,,,,
null,,confidence_buffer,1095266,confidence_buffer,,null,,,,,,,,,,,,,,,,,,
1174.699999999255,,recognition_phase,1096443,Fictional_Cities_List/img_manmade_06.png,,49,,,,,,old,1,0.9814814814814815,,,,,,,,,,
null,,confidence_buffer,1096547,confidence_buffer,,null,,,,,,,,,,,,,,,,,,
null,,thebreak,1097049,break,,null,,,,,,,,,,,,,,,,,,
2687.800000000745,,pt2_realistic_rating,1099740,Fictional_Cities_List/img_natural_16.png,,49,Fictional_Cities_List/img_natural_16.png,NAT,1,,,,,,,,,,,,,,,
null,,confidence_buffer,1099843,confidence_buffer,,null,,,,,,,,,,,,,,,,,,
3190.5,,pt2_unique_rating,1103035,Fictional_Cities_List/img_natural_16.png,,50,,,2,,,,,,,,,,,,,,,
null,,confidence_buffer,1103136,confidence_buffer,,null,,,,,,,,,,,,,,,,,,
2623.2000000029802,,pt2_memorable_rating,1105761,Fictional_Cities_List/img_natural_16.png,,49,,,1,,,,,,,,,,,,,,,
null,,confidence_buffer,1105865,confidence_buffer,,null,,,,,,,,,,,,,,,,,,
1426.300000000745,,recognition_phase,1107294,Fictional_Cities_List/img_natural_16.png,,52,,,,,,new,1,0.9818181818181818,,,,,,,,,,
null,,confidence_buffer,1107399,confidence_buffer,,null,,,,,,,,,,,,,,,,,,
null,,thebreak,1107901,break,,null,,,,,,,,,,,,,,,,,,
3650.60000000149,,pt2_realistic_rating,1111553,Fictional_Cities_List/img_manmade_48.png,,49,Fictional_Cities_List/img_manmade_48.png,MM,1,,,,,,,,,,,,,,,
null,,confidence_buffer,1111657,confidence_buffer,,null,,,,,,,,,,,,,,,,,,
3193.39999999851,,pt2_unique_rating,1114853,Fictional_Cities_List/img_manmade_48.png,,50,,,2,,,,,,,,,,,,,,,
null,,confidence_buffer,1114956,confidence_buffer,,null,,,,,,,,,,,,,,,,,,
1500.5,,probe_rating,1116460,probe_rating,,50,,,,2,1,,,,,,,,,,,,,
null,,confidence_buffer,1116564,confidence_buffer,,null,,,,,,,,,,,,,,,,,,
1805.4000000022352,,pt2_memorable_rating,1118372,Fictional_Cities_List/img_manmade_48.png,,50,,,2,,,,,,,,,,,,,,,
null,,confidence_buffer,1118476,confidence_buffer,,null,,,,,,,,,,,,,,,,,,
1609.6000000014901,,recognition_phase,1120088,Fictional_Cities_List/img_manmade_48.png,,52,,,,,,new,1,0.9821428571428571,,,,,,,,,,
null,,confidence_buffer,1120190,confidence_buffer,,null,,,,,,,,,,,,,,,,,,
null,,thebreak,1120692,break,,null,,,,,,,,,,,,,,,,,,
4154.39999999851,,pt2_realistic_rating,1124849,US_Cities_List/nat_coeurdalene.png,,51,US_Cities_List/nat_coeurdalene.png,NAT,3,,,,,,,,,,,,,,,
null,,confidence_buffer,1124952,confidence_buffer,,null,,,,,,,,,,,,,,,,,,
1483.5999999977648,,probe_rating,1126439,probe_rating,,50,,,,2,1,,,,,,,,,,,,,
null,,confidence_buffer,1126542,confidence_buffer,,null,,,,,,,,,,,,,,,,,,
2684.5,,pt2_unique_rating,1129229,US_Cities_List/nat_coeurdalene.png,,52,,,4,,,,,,,,,,,,,,,
null,,confidence_buffer,1129332,confidence_buffer,,null,,,,,,,,,,,,,,,,,,
1231.3999999985099,,pt2_memorable_rating,1130565,US_Cities_List/nat_coeurdalene.png,,52,,,4,,,,,,,,,,,,,,,
null,,confidence_buffer,1130669,confidence_buffer,,null,,,,,,,,,,,,,,,,,,
758,,recognition_phase,1131429,US_Cities_List/nat_coeurdalene.png,,49,,,,,,old,1,0.9824561403508771,,,,,,,,,,
null,,confidence_buffer,1131531,confidence_buffer,,null,,,,,,,,,,,,,,,,,,
null,,thebreak,1132033,break,,null,,,,,,,,,,,,,,,,,,
3520.699999999255,,pt2_realistic_rating,1135555,Fictional_Cities_List/img_natural_02.png,,49,Fictional_Cities_List/img_natural_02.png,NAT,1,,,,,,,,,,,,,,,
null,,confidence_buffer,1135657,confidence_buffer,,null,,,,,,,,,,,,,,,,,,
2069.300000000745,,pt2_unique_rating,1137727,Fictional_Cities_List/img_natural_02.png,,52,,,4,,,,,,,,,,,,,,,
null,,confidence_buffer,1137829,confidence_buffer,,null,,,,,,,,,,,,,,,,,,
2054.39999999851,,pt2_memorable_rating,1139886,Fictional_Cities_List/img_natural_02.png,,51,,,3,,,,,,,,,,,,,,,
null,,confidence_buffer,1139988,confidence_buffer,,null,,,,,,,,,,,,,,,,,,
2015.800000000745,,recognition_phase,1142006,Fictional_Cities_List/img_natural_02.png,,52,,,,,,new,1,0.9827586206896551,,,,,,,,,,
null,,confidence_buffer,1142109,confidence_buffer,,null,,,,,,,,,,,,,,,,,,
null,,thebreak,1142610,break,,null,,,,,,,,,,,,,,,,,,
2530.60000000149,,pt2_realistic_rating,1145143,Fictional_Cities_List/img_natural_12.png,,49,Fictional_Cities_List/img_natural_12.png,NAT,1,,,,,,,,,,,,,,,
null,,confidence_buffer,1145247,confidence_buffer,,null,,,,,,,,,,,,,,,,,,
1607.0999999977648,,probe_rating,1146857,probe_rating,,51,,,,3,1,,,,,,,,,,,,,
null,,confidence_buffer,1146961,confidence_buffer,,null,,,,,,,,,,,,,,,,,,
2082.10000000149,,pt2_unique_rating,1149046,Fictional_Cities_List/img_natural_12.png,,52,,,4,,,,,,,,,,,,,,,
null,,confidence_buffer,1149148,confidence_buffer,,null,,,,,,,,,,,,,,,,,,
1560.699999999255,,pt2_memorable_rating,1150711,Fictional_Cities_List/img_natural_12.png,,51,,,3,,,,,,,,,,,,,,,
null,,confidence_buffer,1150813,confidence_buffer,,null,,,,,,,,,,,,,,,,,,
1240.5,,recognition_phase,1152056,Fictional_Cities_List/img_natural_12.png,,52,,,,,,new,1,0.9830508474576272,,,,,,,,,,
null,,confidence_buffer,1152161,confidence_buffer,,null,,,,,,,,,,,,,,,,,,
null,,thebreak,1152663,break,,null,,,,,,,,,,,,,,,,,,
4415.699999999255,,pt2_realistic_rating,1157082,US_Cities_List/mm_abilene.png,,52,US_Cities_List/mm_abilene.png,MM,4,,,,,,,,,,,,,,,
null,,confidence_buffer,1157185,confidence_buffer,,null,,,,,,,,,,,,,,,,,,
2616.199999999255,,pt2_unique_rating,1159804,US_Cities_List/mm_abilene.png,,52,,,4,,,,,,,,,,,,,,,
null,,confidence_buffer,1159907,confidence_buffer,,null,,,,,,,,,,,,,,,,,,
1819.800000000745,,pt2_memorable_rating,1161730,US_Cities_List/mm_abilene.png,,52,,,4,,,,,,,,,,,,,,,
null,,confidence_buffer,1161833,confidence_buffer,,null,,,,,,,,,,,,,,,,,,
1820.5999999977648,,recognition_phase,1163657,US_Cities_List/mm_abilene.png,,52,,,,,,new,1,0.9833333333333333,,,,,,,,,,
null,,confidence_buffer,1163763,confidence_buffer,,null,,,,,,,,,,,,,,,,,,
null,,thebreak,1164265,break,,null,,,,,,,,,,,,,,,,,,
,,survey,1427129,survey-questions,,,,,,,,,,,none,high,I was not. I was focusing on just this :),I did not use any strategies; just relied on my memory but also my understanding of what AI images look land feel like. ,If it felt like I'd something I'd seen before - anywhere. IRL or over the internet. If it felt like places I'd visited it was rated as highly familiar.,If I remembered places like it or whether I'd remember seeing the image because of its distinctiveness. ,Whether the location or the focus on the image was a structure of some kind (natural or man-made) that looked like it was one of a kind.,AI image vs whether it was a photograph. ,I have not participated in a similar study on another platform. ,This was just the right length for a study like this. 
