rt,responses,trial_type,time_elapsed,stimulus,button_pressed,key_press,name_trial,city_type,rating,probe,probe_accuracy,response,correct,accuracy,problems,smooth,distraction,strategies,familiar,memorable,unique,realistic,similar,comments
37486.90000000037,{worker_id:67f7f8ef6a97673288480226},id_enter,37495,,,,,,,,,,,,,,,,,,,,,
12996.700000000186,,fullscreen,50499,fullscreen,0,,,,,,,,,,,,,,,,,,,
1623.2999999998137,,intro_0,52125,instruct,,32,,,,,,,,,,,,,,,,,,
16914.099999999627,,intro_1,69041,instruct,,32,,,,,,,,,,,,,,,,,,
7102.4000000003725,,intro_2,76145,instruct,,32,,,,,,,,,,,,,,,,,,
null,,instruct_dir_4,77648,instruct,,null,,,,,,,,,,,,,,,,,,
null,,thebreak,78150,break,,null,,,,,,,,,,,,,,,,,,
10505.099999999627,,familiar_rating,88658,US_Cities_List/mm_follybeach.png,,51,US_Cities_List/mm_follybeach.png,MM,3,,,,,,,,,,,,,,,
null,,confidence_buffer,88762,confidence_buffer,,null,,,,,,,,,,,,,,,,,,
8328.400000000373,,unique_rating,97093,US_Cities_List/mm_follybeach.png,,52,,,4,,,,,,,,,,,,,,,
null,,confidence_buffer,97197,confidence_buffer,,null,,,,,,,,,,,,,,,,,,
4354.5,,memorable_rating,101554,US_Cities_List/mm_follybeach.png,,53,,,5,,,,,,,,,,,,,,,
null,,confidence_buffer,101657,confidence_buffer,,null,,,,,,,,,,,,,,,,,,
null,,thebreak,102160,break,,null,,,,,,,,,,,,,,,,,,
5083.9000000003725,,familiar_rating,107246,US_Cities_List/nat_athens.png,,49,US_Cities_List/nat_athens.png,NAT,1,,,,,,,,,,,,,,,
null,,confidence_buffer,107349,confidence_buffer,,null,,,,,,,,,,,,,,,,,,
2991.9000000003725,,unique_rating,110343,US_Cities_List/nat_athens.png,,52,,,4,,,,,,,,,,,,,,,
null,,confidence_buffer,110447,confidence_buffer,,null,,,,,,,,,,,,,,,,,,
16979,,memorable_rating,127428,US_Cities_List/nat_athens.png,,53,,,5,,,,,,,,,,,,,,,
null,,confidence_buffer,127531,confidence_buffer,,null,,,,,,,,,,,,,,,,,,
null,,thebreak,128033,break,,null,,,,,,,,,,,,,,,,,,
5722,,familiar_rating,133757,US_Cities_List/mm_hanover.png,,50,US_Cities_List/mm_hanover.png,MM,2,,,,,,,,,,,,,,,
null,,confidence_buffer,133861,confidence_buffer,,null,,,,,,,,,,,,,,,,,,
4610.100000000559,,probe_rating,138473,probe_rating,,50,,,,2,1,,,,,,,,,,,,,
null,,confidence_buffer,138577,confidence_buffer,,null,,,,,,,,,,,,,,,,,,
3703.4000000003725,,unique_rating,142283,US_Cities_List/mm_hanover.png,,53,,,5,,,,,,,,,,,,,,,
null,,confidence_buffer,142386,confidence_buffer,,null,,,,,,,,,,,,,,,,,,
2806.7000000001863,,memorable_rating,145195,US_Cities_List/mm_hanover.png,,53,,,5,,,,,,,,,,,,,,,
null,,confidence_buffer,145298,confidence_buffer,,null,,,,,,,,,,,,,,,,,,
null,,thebreak,145800,break,,null,,,,,,,,,,,,,,,,,,
3374.5,,familiar_rating,149177,Fictional_Cities_List/img_natural_44.png,,50,Fictional_Cities_List/img_natural_44.png,NAT,2,,,,,,,,,,,,,,,
null,,confidence_buffer,149281,confidence_buffer,,null,,,,,,,,,,,,,,,,,,
30751.099999999627,,unique_rating,180034,Fictional_Cities_List/img_natural_44.png,,51,,,3,,,,,,,,,,,,,,,
null,,confidence_buffer,180136,confidence_buffer,,null,,,,,,,,,,,,,,,,,,
2816.300000000745,,probe_rating,182954,probe_rating,,51,,,,3,1,,,,,,,,,,,,,
null,,confidence_buffer,183058,confidence_buffer,,null,,,,,,,,,,,,,,,,,,
3005.5999999996275,,memorable_rating,186065,Fictional_Cities_List/img_natural_44.png,,53,,,5,,,,,,,,,,,,,,,
null,,confidence_buffer,186168,confidence_buffer,,null,,,,,,,,,,,,,,,,,,
null,,thebreak,186670,break,,null,,,,,,,,,,,,,,,,,,
2843.5999999996275,,familiar_rating,189516,Fictional_Cities_List/img_manmade_08.png,,50,Fictional_Cities_List/img_manmade_08.png,MM,2,,,,,,,,,,,,,,,
null,,confidence_buffer,189619,confidence_buffer,,null,,,,,,,,,,,,,,,,,,
2932.5,,unique_rating,192554,Fictional_Cities_List/img_manmade_08.png,,51,,,3,,,,,,,,,,,,,,,
null,,confidence_buffer,192658,confidence_buffer,,null,,,,,,,,,,,,,,,,,,
2069.5,,memorable_rating,194729,Fictional_Cities_List/img_manmade_08.png,,53,,,5,,,,,,,,,,,,,,,
null,,confidence_buffer,194832,confidence_buffer,,null,,,,,,,,,,,,,,,,,,
null,,thebreak,195334,break,,null,,,,,,,,,,,,,,,,,,
2094.199999999255,,familiar_rating,197431,Fictional_Cities_List/img_natural_23.png,,49,Fictional_Cities_List/img_natural_23.png,NAT,1,,,,,,,,,,,,,,,
null,,confidence_buffer,197534,confidence_buffer,,null,,,,,,,,,,,,,,,,,,
3879.0999999996275,,unique_rating,201416,Fictional_Cities_List/img_natural_23.png,,51,,,3,,,,,,,,,,,,,,,
null,,confidence_buffer,201519,confidence_buffer,,null,,,,,,,,,,,,,,,,,,
1661.7000000001863,,memorable_rating,203183,Fictional_Cities_List/img_natural_23.png,,53,,,5,,,,,,,,,,,,,,,
null,,confidence_buffer,203287,confidence_buffer,,null,,,,,,,,,,,,,,,,,,
null,,thebreak,203790,break,,null,,,,,,,,,,,,,,,,,,
2397.7999999998137,,familiar_rating,206190,Fictional_Cities_List/img_manmade_48.png,,49,Fictional_Cities_List/img_manmade_48.png,MM,1,,,,,,,,,,,,,,,
null,,confidence_buffer,206294,confidence_buffer,,null,,,,,,,,,,,,,,,,,,
3315.600000000559,,unique_rating,209612,Fictional_Cities_List/img_manmade_48.png,,50,,,2,,,,,,,,,,,,,,,
null,,confidence_buffer,209715,confidence_buffer,,null,,,,,,,,,,,,,,,,,,
1417.2000000001863,,memorable_rating,211134,Fictional_Cities_List/img_manmade_48.png,,53,,,5,,,,,,,,,,,,,,,
null,,confidence_buffer,211237,confidence_buffer,,null,,,,,,,,,,,,,,,,,,
null,,thebreak,211740,break,,null,,,,,,,,,,,,,,,,,,
3696.100000000559,,familiar_rating,215438,Fictional_Cities_List/img_manmade_44.png,,52,Fictional_Cities_List/img_manmade_44.png,MM,4,,,,,,,,,,,,,,,
null,,confidence_buffer,215542,confidence_buffer,,null,,,,,,,,,,,,,,,,,,
2514.699999999255,,unique_rating,218059,Fictional_Cities_List/img_manmade_44.png,,52,,,4,,,,,,,,,,,,,,,
null,,confidence_buffer,218162,confidence_buffer,,null,,,,,,,,,,,,,,,,,,
2003.0999999996275,,memorable_rating,220167,Fictional_Cities_List/img_manmade_44.png,,53,,,5,,,,,,,,,,,,,,,
null,,confidence_buffer,220270,confidence_buffer,,null,,,,,,,,,,,,,,,,,,
null,,thebreak,220772,break,,null,,,,,,,,,,,,,,,,,,
2250.699999999255,,familiar_rating,223025,Fictional_Cities_List/img_natural_42.png,,50,Fictional_Cities_List/img_natural_42.png,NAT,2,,,,,,,,,,,,,,,
null,,confidence_buffer,223128,confidence_buffer,,null,,,,,,,,,,,,,,,,,,
2674.2000000001863,,unique_rating,225804,Fictional_Cities_List/img_natural_42.png,,51,,,3,,,,,,,,,,,,,,,
null,,confidence_buffer,225907,confidence_buffer,,null,,,,,,,,,,,,,,,,,,
1300.199999999255,,memorable_rating,227210,Fictional_Cities_List/img_natural_42.png,,53,,,5,,,,,,,,,,,,,,,
null,,confidence_buffer,227313,confidence_buffer,,null,,,,,,,,,,,,,,,,,,
null,,thebreak,227815,break,,null,,,,,,,,,,,,,,,,,,
2248.2000000001863,,familiar_rating,230065,US_Cities_List/nat_alliance.png,,50,US_Cities_List/nat_alliance.png,NAT,2,,,,,,,,,,,,,,,
null,,confidence_buffer,230168,confidence_buffer,,null,,,,,,,,,,,,,,,,,,
2359.5999999996275,,unique_rating,232530,US_Cities_List/nat_alliance.png,,51,,,3,,,,,,,,,,,,,,,
null,,confidence_buffer,232633,confidence_buffer,,null,,,,,,,,,,,,,,,,,,
1197.2000000001863,,memorable_rating,233833,US_Cities_List/nat_alliance.png,,53,,,5,,,,,,,,,,,,,,,
null,,confidence_buffer,233936,confidence_buffer,,null,,,,,,,,,,,,,,,,,,
null,,thebreak,234439,break,,null,,,,,,,,,,,,,,,,,,
2881.2999999998137,,familiar_rating,237322,US_Cities_List/mm_berkeleysprings.png,,50,US_Cities_List/mm_berkeleysprings.png,MM,2,,,,,,,,,,,,,,,
null,,confidence_buffer,237425,confidence_buffer,,null,,,,,,,,,,,,,,,,,,
1879.9000000003725,,unique_rating,239307,US_Cities_List/mm_berkeleysprings.png,,51,,,3,,,,,,,,,,,,,,,
null,,confidence_buffer,239410,confidence_buffer,,null,,,,,,,,,,,,,,,,,,
1242.8999999994412,,memorable_rating,240655,US_Cities_List/mm_berkeleysprings.png,,53,,,5,,,,,,,,,,,,,,,
null,,confidence_buffer,240759,confidence_buffer,,null,,,,,,,,,,,,,,,,,,
1526.1000000005588,,probe_rating,242287,probe_rating,,49,,,,1,1,,,,,,,,,,,,,
null,,confidence_buffer,242390,confidence_buffer,,null,,,,,,,,,,,,,,,,,,
null,,thebreak,242893,break,,null,,,,,,,,,,,,,,,,,,
3018.4000000003725,,familiar_rating,245914,US_Cities_List/mm_gardnerville.png,,49,US_Cities_List/mm_gardnerville.png,MM,1,,,,,,,,,,,,,,,
null,,confidence_buffer,246017,confidence_buffer,,null,,,,,,,,,,,,,,,,,,
2855.5,,unique_rating,248874,US_Cities_List/mm_gardnerville.png,,51,,,3,,,,,,,,,,,,,,,
null,,confidence_buffer,248977,confidence_buffer,,null,,,,,,,,,,,,,,,,,,
1106.2999999998137,,memorable_rating,250084,US_Cities_List/mm_gardnerville.png,,53,,,5,,,,,,,,,,,,,,,
null,,confidence_buffer,250188,confidence_buffer,,null,,,,,,,,,,,,,,,,,,
null,,thebreak,250690,break,,null,,,,,,,,,,,,,,,,,,
2262.7999999998137,,familiar_rating,252955,Fictional_Cities_List/img_manmade_13.png,,49,Fictional_Cities_List/img_manmade_13.png,MM,1,,,,,,,,,,,,,,,
null,,confidence_buffer,253057,confidence_buffer,,null,,,,,,,,,,,,,,,,,,
1165.5999999996275,,unique_rating,254224,Fictional_Cities_List/img_manmade_13.png,,51,,,3,,,,,,,,,,,,,,,
null,,confidence_buffer,254328,confidence_buffer,,null,,,,,,,,,,,,,,,,,,
1039.5999999996275,,memorable_rating,255369,Fictional_Cities_List/img_manmade_13.png,,53,,,5,,,,,,,,,,,,,,,
null,,confidence_buffer,255472,confidence_buffer,,null,,,,,,,,,,,,,,,,,,
null,,thebreak,255974,break,,null,,,,,,,,,,,,,,,,,,
2949,,familiar_rating,258926,Fictional_Cities_List/img_natural_13.png,,49,Fictional_Cities_List/img_natural_13.png,NAT,1,,,,,,,,,,,,,,,
null,,confidence_buffer,259030,confidence_buffer,,null,,,,,,,,,,,,,,,,,,
1172.3999999994412,,probe_rating,260204,probe_rating,,50,,,,2,1,,,,,,,,,,,,,
null,,confidence_buffer,260308,confidence_buffer,,null,,,,,,,,,,,,,,,,,,
2965.7000000001863,,unique_rating,263276,Fictional_Cities_List/img_natural_13.png,,51,,,3,,,,,,,,,,,,,,,
null,,confidence_buffer,263379,confidence_buffer,,null,,,,,,,,,,,,,,,,,,
1348.6000000005588,,memorable_rating,264730,Fictional_Cities_List/img_natural_13.png,,53,,,5,,,,,,,,,,,,,,,
null,,confidence_buffer,264834,confidence_buffer,,null,,,,,,,,,,,,,,,,,,
null,,thebreak,265337,break,,null,,,,,,,,,,,,,,,,,,
1931.2000000001863,,familiar_rating,267270,Fictional_Cities_List/img_natural_48.png,,49,Fictional_Cities_List/img_natural_48.png,NAT,1,,,,,,,,,,,,,,,
null,,confidence_buffer,267374,confidence_buffer,,null,,,,,,,,,,,,,,,,,,
1244.0999999996275,,unique_rating,268621,Fictional_Cities_List/img_natural_48.png,,51,,,3,,,,,,,,,,,,,,,
null,,confidence_buffer,268723,confidence_buffer,,null,,,,,,,,,,,,,,,,,,
1035.5,,memorable_rating,269761,Fictional_Cities_List/img_natural_48.png,,53,,,5,,,,,,,,,,,,,,,
null,,confidence_buffer,269864,confidence_buffer,,null,,,,,,,,,,,,,,,,,,
null,,thebreak,270367,break,,null,,,,,,,,,,,,,,,,,,
2316.7000000001863,,familiar_rating,272686,US_Cities_List/nat_leesburg.png,,50,US_Cities_List/nat_leesburg.png,NAT,2,,,,,,,,,,,,,,,
null,,confidence_buffer,272789,confidence_buffer,,null,,,,,,,,,,,,,,,,,,
2882.699999999255,,unique_rating,275674,US_Cities_List/nat_leesburg.png,,51,,,3,,,,,,,,,,,,,,,
null,,confidence_buffer,275778,confidence_buffer,,null,,,,,,,,,,,,,,,,,,
900.2000000001863,,memorable_rating,276680,US_Cities_List/nat_leesburg.png,,53,,,5,,,,,,,,,,,,,,,
null,,confidence_buffer,276783,confidence_buffer,,null,,,,,,,,,,,,,,,,,,
null,,thebreak,277286,break,,null,,,,,,,,,,,,,,,,,,
1782.2999999998137,,familiar_rating,279070,US_Cities_List/mm_duck.png,,49,US_Cities_List/mm_duck.png,MM,1,,,,,,,,,,,,,,,
null,,confidence_buffer,279174,confidence_buffer,,null,,,,,,,,,,,,,,,,,,
1204.7000000001863,,unique_rating,280381,US_Cities_List/mm_duck.png,,51,,,3,,,,,,,,,,,,,,,
null,,confidence_buffer,280484,confidence_buffer,,null,,,,,,,,,,,,,,,,,,
978.5999999996275,,memorable_rating,281464,US_Cities_List/mm_duck.png,,53,,,5,,,,,,,,,,,,,,,
null,,confidence_buffer,281567,confidence_buffer,,null,,,,,,,,,,,,,,,,,,
null,,thebreak,282070,break,,null,,,,,,,,,,,,,,,,,,
2203.600000000559,,familiar_rating,284275,US_Cities_List/mm_coeurdalene.png,,49,US_Cities_List/mm_coeurdalene.png,MM,1,,,,,,,,,,,,,,,
null,,confidence_buffer,284378,confidence_buffer,,null,,,,,,,,,,,,,,,,,,
1354.7000000001863,,unique_rating,285735,US_Cities_List/mm_coeurdalene.png,,51,,,3,,,,,,,,,,,,,,,
null,,confidence_buffer,285838,confidence_buffer,,null,,,,,,,,,,,,,,,,,,
950.7999999998137,,memorable_rating,286791,US_Cities_List/mm_coeurdalene.png,,53,,,5,,,,,,,,,,,,,,,
null,,confidence_buffer,286894,confidence_buffer,,null,,,,,,,,,,,,,,,,,,
null,,thebreak,287397,break,,null,,,,,,,,,,,,,,,,,,
2220.5,,familiar_rating,289619,US_Cities_List/mm_alliance.png,,49,US_Cities_List/mm_alliance.png,MM,1,,,,,,,,,,,,,,,
null,,confidence_buffer,289722,confidence_buffer,,null,,,,,,,,,,,,,,,,,,
1134.6000000005588,,unique_rating,290859,US_Cities_List/mm_alliance.png,,51,,,3,,,,,,,,,,,,,,,
null,,confidence_buffer,290962,confidence_buffer,,null,,,,,,,,,,,,,,,,,,
949.7999999998137,,memorable_rating,291914,US_Cities_List/mm_alliance.png,,53,,,5,,,,,,,,,,,,,,,
null,,confidence_buffer,292017,confidence_buffer,,null,,,,,,,,,,,,,,,,,,
null,,thebreak,292519,break,,null,,,,,,,,,,,,,,,,,,
1452.3999999994412,,familiar_rating,293974,US_Cities_List/nat_capemay.png,,49,US_Cities_List/nat_capemay.png,NAT,1,,,,,,,,,,,,,,,
null,,confidence_buffer,294077,confidence_buffer,,null,,,,,,,,,,,,,,,,,,
1552.1000000005588,,unique_rating,295631,US_Cities_List/nat_capemay.png,,50,,,2,,,,,,,,,,,,,,,
null,,confidence_buffer,295735,confidence_buffer,,null,,,,,,,,,,,,,,,,,,
2187.7999999998137,,memorable_rating,297924,US_Cities_List/nat_capemay.png,,52,,,4,,,,,,,,,,,,,,,
null,,confidence_buffer,298027,confidence_buffer,,null,,,,,,,,,,,,,,,,,,
null,,thebreak,298529,break,,null,,,,,,,,,,,,,,,,,,
1644.5,,familiar_rating,300175,US_Cities_List/nat_westpalmbeach.png,,49,US_Cities_List/nat_westpalmbeach.png,NAT,1,,,,,,,,,,,,,,,
null,,confidence_buffer,300279,confidence_buffer,,null,,,,,,,,,,,,,,,,,,
1316.2000000001863,,probe_rating,301598,probe_rating,,50,,,,2,1,,,,,,,,,,,,,
null,,confidence_buffer,301701,confidence_buffer,,null,,,,,,,,,,,,,,,,,,
2437.5999999996275,,unique_rating,304140,US_Cities_List/nat_westpalmbeach.png,,51,,,3,,,,,,,,,,,,,,,
null,,confidence_buffer,304242,confidence_buffer,,null,,,,,,,,,,,,,,,,,,
1094.5999999996275,,memorable_rating,305339,US_Cities_List/nat_westpalmbeach.png,,52,,,4,,,,,,,,,,,,,,,
null,,confidence_buffer,305442,confidence_buffer,,null,,,,,,,,,,,,,,,,,,
null,,thebreak,305945,break,,null,,,,,,,,,,,,,,,,,,
1756,,familiar_rating,307703,Fictional_Cities_List/img_natural_06.png,,49,Fictional_Cities_List/img_natural_06.png,NAT,1,,,,,,,,,,,,,,,
null,,confidence_buffer,307806,confidence_buffer,,null,,,,,,,,,,,,,,,,,,
1270.3999999994412,,unique_rating,309078,Fictional_Cities_List/img_natural_06.png,,50,,,2,,,,,,,,,,,,,,,
null,,confidence_buffer,309181,confidence_buffer,,null,,,,,,,,,,,,,,,,,,
1449.8999999994412,,memorable_rating,310633,Fictional_Cities_List/img_natural_06.png,,53,,,5,,,,,,,,,,,,,,,
null,,confidence_buffer,310735,confidence_buffer,,null,,,,,,,,,,,,,,,,,,
null,,thebreak,311238,break,,null,,,,,,,,,,,,,,,,,,
1742.2000000001863,,familiar_rating,312982,Fictional_Cities_List/img_manmade_09.png,,49,Fictional_Cities_List/img_manmade_09.png,MM,1,,,,,,,,,,,,,,,
null,,confidence_buffer,313085,confidence_buffer,,null,,,,,,,,,,,,,,,,,,
1083.7000000001863,,unique_rating,314171,Fictional_Cities_List/img_manmade_09.png,,50,,,2,,,,,,,,,,,,,,,
null,,confidence_buffer,314274,confidence_buffer,,null,,,,,,,,,,,,,,,,,,
891.5999999996275,,memorable_rating,315168,Fictional_Cities_List/img_manmade_09.png,,52,,,4,,,,,,,,,,,,,,,
null,,confidence_buffer,315272,confidence_buffer,,null,,,,,,,,,,,,,,,,,,
null,,thebreak,315774,break,,null,,,,,,,,,,,,,,,,,,
1750.5999999996275,,familiar_rating,317526,US_Cities_List/nat_carmel.png,,49,US_Cities_List/nat_carmel.png,NAT,1,,,,,,,,,,,,,,,
null,,confidence_buffer,317630,confidence_buffer,,null,,,,,,,,,,,,,,,,,,
3815.7000000001863,,unique_rating,321447,US_Cities_List/nat_carmel.png,,51,,,3,,,,,,,,,,,,,,,
null,,confidence_buffer,321551,confidence_buffer,,null,,,,,,,,,,,,,,,,,,
980.7999999998137,,memorable_rating,322533,US_Cities_List/nat_carmel.png,,52,,,4,,,,,,,,,,,,,,,
null,,confidence_buffer,322636,confidence_buffer,,null,,,,,,,,,,,,,,,,,,
null,,thebreak,323138,break,,null,,,,,,,,,,,,,,,,,,
3302.399999999441,,familiar_rating,326443,US_Cities_List/nat_follybeach.png,,49,US_Cities_List/nat_follybeach.png,NAT,1,,,,,,,,,,,,,,,
null,,confidence_buffer,326546,confidence_buffer,,null,,,,,,,,,,,,,,,,,,
1083.7000000001863,,unique_rating,327632,US_Cities_List/nat_follybeach.png,,50,,,2,,,,,,,,,,,,,,,
null,,confidence_buffer,327736,confidence_buffer,,null,,,,,,,,,,,,,,,,,,
946.5,,memorable_rating,328685,US_Cities_List/nat_follybeach.png,,52,,,4,,,,,,,,,,,,,,,
null,,confidence_buffer,328788,confidence_buffer,,null,,,,,,,,,,,,,,,,,,
null,,thebreak,329290,break,,null,,,,,,,,,,,,,,,,,,
1383.7999999998137,,familiar_rating,330676,Fictional_Cities_List/img_manmade_10.png,,49,Fictional_Cities_List/img_manmade_10.png,MM,1,,,,,,,,,,,,,,,
null,,confidence_buffer,330779,confidence_buffer,,null,,,,,,,,,,,,,,,,,,
1146.7999999998137,,unique_rating,331928,Fictional_Cities_List/img_manmade_10.png,,50,,,2,,,,,,,,,,,,,,,
null,,confidence_buffer,332032,confidence_buffer,,null,,,,,,,,,,,,,,,,,,
2087.4000000003725,,memorable_rating,334122,Fictional_Cities_List/img_manmade_10.png,,53,,,5,,,,,,,,,,,,,,,
null,,confidence_buffer,334224,confidence_buffer,,null,,,,,,,,,,,,,,,,,,
null,,thebreak,334726,break,,null,,,,,,,,,,,,,,,,,,
2728.7999999998137,,familiar_rating,337457,Fictional_Cities_List/img_natural_32.png,,50,Fictional_Cities_List/img_natural_32.png,NAT,2,,,,,,,,,,,,,,,
null,,confidence_buffer,337560,confidence_buffer,,null,,,,,,,,,,,,,,,,,,
1346.5999999996275,,unique_rating,338909,Fictional_Cities_List/img_natural_32.png,,51,,,3,,,,,,,,,,,,,,,
null,,confidence_buffer,339011,confidence_buffer,,null,,,,,,,,,,,,,,,,,,
935.3999999994412,,memorable_rating,339948,Fictional_Cities_List/img_natural_32.png,,53,,,5,,,,,,,,,,,,,,,
null,,confidence_buffer,340051,confidence_buffer,,null,,,,,,,,,,,,,,,,,,
null,,thebreak,340554,break,,null,,,,,,,,,,,,,,,,,,
1997,,familiar_rating,342553,Fictional_Cities_List/img_manmade_32.png,,50,Fictional_Cities_List/img_manmade_32.png,MM,2,,,,,,,,,,,,,,,
null,,confidence_buffer,342656,confidence_buffer,,null,,,,,,,,,,,,,,,,,,
1377.300000000745,,unique_rating,344035,Fictional_Cities_List/img_manmade_32.png,,51,,,3,,,,,,,,,,,,,,,
null,,confidence_buffer,344138,confidence_buffer,,null,,,,,,,,,,,,,,,,,,
3039.2000000001863,,probe_rating,347179,probe_rating,,53,,,,5,1,,,,,,,,,,,,,
null,,confidence_buffer,347282,confidence_buffer,,null,,,,,,,,,,,,,,,,,,
1989.2000000001863,,memorable_rating,349274,Fictional_Cities_List/img_manmade_32.png,,53,,,5,,,,,,,,,,,,,,,
null,,confidence_buffer,349377,confidence_buffer,,null,,,,,,,,,,,,,,,,,,
null,,thebreak,349880,break,,null,,,,,,,,,,,,,,,,,,
2478.9000000003725,,familiar_rating,352360,US_Cities_List/mm_leesburg.png,,50,US_Cities_List/mm_leesburg.png,MM,2,,,,,,,,,,,,,,,
null,,confidence_buffer,352463,confidence_buffer,,null,,,,,,,,,,,,,,,,,,
1355.5999999996275,,unique_rating,353820,US_Cities_List/mm_leesburg.png,,51,,,3,,,,,,,,,,,,,,,
null,,confidence_buffer,353923,confidence_buffer,,null,,,,,,,,,,,,,,,,,,
1215.2000000001863,,memorable_rating,355140,US_Cities_List/mm_leesburg.png,,53,,,5,,,,,,,,,,,,,,,
null,,confidence_buffer,355242,confidence_buffer,,null,,,,,,,,,,,,,,,,,,
null,,thebreak,355745,break,,null,,,,,,,,,,,,,,,,,,
2122.5,,familiar_rating,357869,Fictional_Cities_List/img_natural_09.png,,50,Fictional_Cities_List/img_natural_09.png,NAT,2,,,,,,,,,,,,,,,
null,,confidence_buffer,357973,confidence_buffer,,null,,,,,,,,,,,,,,,,,,
1166.2999999998137,,unique_rating,359141,Fictional_Cities_List/img_natural_09.png,,51,,,3,,,,,,,,,,,,,,,
null,,confidence_buffer,359243,confidence_buffer,,null,,,,,,,,,,,,,,,,,,
1094.2999999998137,,memorable_rating,360340,Fictional_Cities_List/img_natural_09.png,,52,,,4,,,,,,,,,,,,,,,
null,,confidence_buffer,360443,confidence_buffer,,null,,,,,,,,,,,,,,,,,,
null,,thebreak,360945,break,,null,,,,,,,,,,,,,,,,,,
7804.299999999814,,intro_0,368751,instruct,,32,,,,,,,,,,,,,,,,,,
8053.700000000186,,intro_1,376806,instruct,,32,,,,,,,,,,,,,,,,,,
21495.800000000745,,intro_2,398303,instruct,,32,,,,,,,,,,,,,,,,,,
null,,instruct_dir_4,399805,instruct,,null,,,,,,,,,,,,,,,,,,
8181.5999999996275,,pt2_realistic_rating,407989,US_Cities_List/mm_gardnerville.png,,52,US_Cities_List/mm_gardnerville.png,MM,4,,,,,,,,,,,,,,,
null,,confidence_buffer,408093,confidence_buffer,,null,,,,,,,,,,,,,,,,,,
2168.4000000003725,,pt2_unique_rating,410263,US_Cities_List/mm_gardnerville.png,,52,,,4,,,,,,,,,,,,,,,
null,,confidence_buffer,410366,confidence_buffer,,null,,,,,,,,,,,,,,,,,,
1548.7000000001863,,pt2_memorable_rating,411917,US_Cities_List/mm_gardnerville.png,,53,,,5,,,,,,,,,,,,,,,
null,,confidence_buffer,412021,confidence_buffer,,null,,,,,,,,,,,,,,,,,,
5440.4000000003725,,recognition_phase,417463,US_Cities_List/mm_gardnerville.png,,49,,,,,,old,1,1,,,,,,,,,,
null,,confidence_buffer,417567,confidence_buffer,,null,,,,,,,,,,,,,,,,,,
null,,thebreak,418070,break,,null,,,,,,,,,,,,,,,,,,
29330.700000000186,,pt2_realistic_rating,447402,Fictional_Cities_List/img_manmade_01.png,,52,Fictional_Cities_List/img_manmade_01.png,MM,4,,,,,,,,,,,,,,,
null,,confidence_buffer,447506,confidence_buffer,,null,,,,,,,,,,,,,,,,,,
2813.5,,pt2_unique_rating,450321,Fictional_Cities_List/img_manmade_01.png,,52,,,4,,,,,,,,,,,,,,,
null,,confidence_buffer,450425,confidence_buffer,,null,,,,,,,,,,,,,,,,,,
3479.5,,pt2_memorable_rating,453906,Fictional_Cities_List/img_manmade_01.png,,53,,,5,,,,,,,,,,,,,,,
null,,confidence_buffer,454009,confidence_buffer,,null,,,,,,,,,,,,,,,,,,
2469.7000000001863,,recognition_phase,456481,Fictional_Cities_List/img_manmade_01.png,,52,,,,,,new,1,1,,,,,,,,,,
null,,confidence_buffer,456584,confidence_buffer,,null,,,,,,,,,,,,,,,,,,
null,,thebreak,457087,break,,null,,,,,,,,,,,,,,,,,,
4998.899999999441,,pt2_realistic_rating,462088,US_Cities_List/nat_berkeleysprings.png,,52,US_Cities_List/nat_berkeleysprings.png,NAT,4,,,,,,,,,,,,,,,
null,,confidence_buffer,462190,confidence_buffer,,null,,,,,,,,,,,,,,,,,,
1572.5,,pt2_unique_rating,463765,US_Cities_List/nat_berkeleysprings.png,,51,,,3,,,,,,,,,,,,,,,
null,,confidence_buffer,463867,confidence_buffer,,null,,,,,,,,,,,,,,,,,,
1005.2999999998137,,pt2_memorable_rating,464875,US_Cities_List/nat_berkeleysprings.png,,53,,,5,,,,,,,,,,,,,,,
null,,confidence_buffer,464977,confidence_buffer,,null,,,,,,,,,,,,,,,,,,
1531.2000000001863,,recognition_phase,466511,US_Cities_List/nat_berkeleysprings.png,,52,,,,,,new,1,1,,,,,,,,,,
null,,confidence_buffer,466614,confidence_buffer,,null,,,,,,,,,,,,,,,,,,
null,,thebreak,467117,break,,null,,,,,,,,,,,,,,,,,,
4233,,pt2_realistic_rating,471352,US_Cities_List/mm_follybeach.png,,53,US_Cities_List/mm_follybeach.png,MM,5,,,,,,,,,,,,,,,
null,,confidence_buffer,471456,confidence_buffer,,null,,,,,,,,,,,,,,,,,,
2138.2000000001863,,pt2_unique_rating,473596,US_Cities_List/mm_follybeach.png,,52,,,4,,,,,,,,,,,,,,,
null,,confidence_buffer,473699,confidence_buffer,,null,,,,,,,,,,,,,,,,,,
1328.199999999255,,pt2_memorable_rating,475029,US_Cities_List/mm_follybeach.png,,53,,,5,,,,,,,,,,,,,,,
null,,confidence_buffer,475133,confidence_buffer,,null,,,,,,,,,,,,,,,,,,
1108,,recognition_phase,476243,US_Cities_List/mm_follybeach.png,,49,,,,,,old,1,1,,,,,,,,,,
null,,confidence_buffer,476347,confidence_buffer,,null,,,,,,,,,,,,,,,,,,
null,,thebreak,476849,break,,null,,,,,,,,,,,,,,,,,,
4565.200000000186,,pt2_realistic_rating,481417,US_Cities_List/mm_newhope.png,,52,US_Cities_List/mm_newhope.png,MM,4,,,,,,,,,,,,,,,
null,,confidence_buffer,481520,confidence_buffer,,null,,,,,,,,,,,,,,,,,,
2258.0999999996275,,pt2_unique_rating,483780,US_Cities_List/mm_newhope.png,,51,,,3,,,,,,,,,,,,,,,
null,,confidence_buffer,483883,confidence_buffer,,null,,,,,,,,,,,,,,,,,,
2720.5,,pt2_memorable_rating,486605,US_Cities_List/mm_newhope.png,,53,,,5,,,,,,,,,,,,,,,
null,,confidence_buffer,486708,confidence_buffer,,null,,,,,,,,,,,,,,,,,,
1980.699999999255,,recognition_phase,488691,US_Cities_List/mm_newhope.png,,52,,,,,,new,1,1,,,,,,,,,,
null,,confidence_buffer,488795,confidence_buffer,,null,,,,,,,,,,,,,,,,,,
null,,thebreak,489297,break,,null,,,,,,,,,,,,,,,,,,
5005.0999999996275,,pt2_realistic_rating,494304,Fictional_Cities_List/img_manmade_05.png,,53,Fictional_Cities_List/img_manmade_05.png,MM,5,,,,,,,,,,,,,,,
null,,confidence_buffer,494408,confidence_buffer,,null,,,,,,,,,,,,,,,,,,
1313.3999999994412,,pt2_unique_rating,495723,Fictional_Cities_List/img_manmade_05.png,,51,,,3,,,,,,,,,,,,,,,
null,,confidence_buffer,495826,confidence_buffer,,null,,,,,,,,,,,,,,,,,,
1488,,pt2_memorable_rating,497316,Fictional_Cities_List/img_manmade_05.png,,53,,,5,,,,,,,,,,,,,,,
null,,confidence_buffer,497419,confidence_buffer,,null,,,,,,,,,,,,,,,,,,
2090.7000000001863,,recognition_phase,499512,Fictional_Cities_List/img_manmade_05.png,,52,,,,,,new,1,1,,,,,,,,,,
null,,confidence_buffer,499615,confidence_buffer,,null,,,,,,,,,,,,,,,,,,
null,,thebreak,500118,break,,null,,,,,,,,,,,,,,,,,,
3520.2999999998137,,pt2_realistic_rating,503641,Fictional_Cities_List/img_manmade_32.png,,53,Fictional_Cities_List/img_manmade_32.png,MM,5,,,,,,,,,,,,,,,
null,,confidence_buffer,503744,confidence_buffer,,null,,,,,,,,,,,,,,,,,,
1287.800000000745,,pt2_unique_rating,505034,Fictional_Cities_List/img_manmade_32.png,,51,,,3,,,,,,,,,,,,,,,
null,,confidence_buffer,505137,confidence_buffer,,null,,,,,,,,,,,,,,,,,,
1385.0999999996275,,pt2_memorable_rating,506524,Fictional_Cities_List/img_manmade_32.png,,53,,,5,,,,,,,,,,,,,,,
null,,confidence_buffer,506628,confidence_buffer,,null,,,,,,,,,,,,,,,,,,
858.5,,recognition_phase,507488,Fictional_Cities_List/img_manmade_32.png,,49,,,,,,old,1,1,,,,,,,,,,
null,,confidence_buffer,507592,confidence_buffer,,null,,,,,,,,,,,,,,,,,,
null,,thebreak,508094,break,,null,,,,,,,,,,,,,,,,,,
3287.199999999255,,pt2_realistic_rating,511383,US_Cities_List/nat_athens.png,,52,US_Cities_List/nat_athens.png,NAT,4,,,,,,,,,,,,,,,
null,,confidence_buffer,511487,confidence_buffer,,null,,,,,,,,,,,,,,,,,,
1935.5999999996275,,pt2_unique_rating,513424,US_Cities_List/nat_athens.png,,51,,,3,,,,,,,,,,,,,,,
null,,confidence_buffer,513526,confidence_buffer,,null,,,,,,,,,,,,,,,,,,
1421.9000000003725,,pt2_memorable_rating,514949,US_Cities_List/nat_athens.png,,53,,,5,,,,,,,,,,,,,,,
null,,confidence_buffer,515052,confidence_buffer,,null,,,,,,,,,,,,,,,,,,
1267.1000000005588,,recognition_phase,516321,US_Cities_List/nat_athens.png,,49,,,,,,old,1,1,,,,,,,,,,
null,,confidence_buffer,516424,confidence_buffer,,null,,,,,,,,,,,,,,,,,,
null,,thebreak,516927,break,,null,,,,,,,,,,,,,,,,,,
2744.9000000003725,,pt2_realistic_rating,519673,Fictional_Cities_List/img_manmade_44.png,,52,Fictional_Cities_List/img_manmade_44.png,MM,4,,,,,,,,,,,,,,,
null,,confidence_buffer,519777,confidence_buffer,,null,,,,,,,,,,,,,,,,,,
2173.5,,pt2_unique_rating,521953,Fictional_Cities_List/img_manmade_44.png,,51,,,3,,,,,,,,,,,,,,,
null,,confidence_buffer,522055,confidence_buffer,,null,,,,,,,,,,,,,,,,,,
1175.4000000003725,,pt2_memorable_rating,523233,Fictional_Cities_List/img_manmade_44.png,,53,,,5,,,,,,,,,,,,,,,
null,,confidence_buffer,523336,confidence_buffer,,null,,,,,,,,,,,,,,,,,,
957.1000000005588,,recognition_phase,524295,Fictional_Cities_List/img_manmade_44.png,,49,,,,,,old,1,1,,,,,,,,,,
null,,confidence_buffer,524398,confidence_buffer,,null,,,,,,,,,,,,,,,,,,
null,,thebreak,524901,break,,null,,,,,,,,,,,,,,,,,,
3101.2000000001863,,pt2_realistic_rating,528004,Fictional_Cities_List/img_manmade_09.png,,52,Fictional_Cities_List/img_manmade_09.png,MM,4,,,,,,,,,,,,,,,
null,,confidence_buffer,528108,confidence_buffer,,null,,,,,,,,,,,,,,,,,,
1947.4000000003725,,pt2_unique_rating,530058,Fictional_Cities_List/img_manmade_09.png,,51,,,3,,,,,,,,,,,,,,,
null,,confidence_buffer,530160,confidence_buffer,,null,,,,,,,,,,,,,,,,,,
1013.3000000007451,,pt2_memorable_rating,531175,Fictional_Cities_List/img_manmade_09.png,,53,,,5,,,,,,,,,,,,,,,
null,,confidence_buffer,531278,confidence_buffer,,null,,,,,,,,,,,,,,,,,,
897.3999999994412,,recognition_phase,532177,Fictional_Cities_List/img_manmade_09.png,,49,,,,,,old,1,1,,,,,,,,,,
null,,confidence_buffer,532280,confidence_buffer,,null,,,,,,,,,,,,,,,,,,
null,,thebreak,532783,break,,null,,,,,,,,,,,,,,,,,,
5459.4000000003725,,pt2_realistic_rating,538244,US_Cities_List/nat_gatlinburg.png,,51,US_Cities_List/nat_gatlinburg.png,NAT,3,,,,,,,,,,,,,,,
null,,confidence_buffer,538347,confidence_buffer,,null,,,,,,,,,,,,,,,,,,
2143.4000000003725,,pt2_unique_rating,540493,US_Cities_List/nat_gatlinburg.png,,51,,,3,,,,,,,,,,,,,,,
null,,confidence_buffer,540597,confidence_buffer,,null,,,,,,,,,,,,,,,,,,
3473.100000000559,,probe_rating,544072,probe_rating,,51,,,,3,1,,,,,,,,,,,,,
null,,confidence_buffer,544176,confidence_buffer,,null,,,,,,,,,,,,,,,,,,
2612.300000000745,,pt2_memorable_rating,546790,US_Cities_List/nat_gatlinburg.png,,52,,,4,,,,,,,,,,,,,,,
null,,confidence_buffer,546894,confidence_buffer,,null,,,,,,,,,,,,,,,,,,
1618.5,,recognition_phase,548514,US_Cities_List/nat_gatlinburg.png,,52,,,,,,new,1,1,,,,,,,,,,
null,,confidence_buffer,548617,confidence_buffer,,null,,,,,,,,,,,,,,,,,,
null,,thebreak,549120,break,,null,,,,,,,,,,,,,,,,,,
5230,,pt2_realistic_rating,554352,Fictional_Cities_List/img_manmade_36.png,,52,Fictional_Cities_List/img_manmade_36.png,MM,4,,,,,,,,,,,,,,,
null,,confidence_buffer,554456,confidence_buffer,,null,,,,,,,,,,,,,,,,,,
1976.9000000003725,,pt2_unique_rating,556435,Fictional_Cities_List/img_manmade_36.png,,51,,,3,,,,,,,,,,,,,,,
null,,confidence_buffer,556538,confidence_buffer,,null,,,,,,,,,,,,,,,,,,
1261.7000000001863,,pt2_memorable_rating,557802,Fictional_Cities_List/img_manmade_36.png,,53,,,5,,,,,,,,,,,,,,,
null,,confidence_buffer,557905,confidence_buffer,,null,,,,,,,,,,,,,,,,,,
2516.5999999996275,,probe_rating,560424,probe_rating,,53,,,,5,1,,,,,,,,,,,,,
null,,confidence_buffer,560527,confidence_buffer,,null,,,,,,,,,,,,,,,,,,
1407.7999999998137,,recognition_phase,561937,Fictional_Cities_List/img_manmade_36.png,,52,,,,,,new,1,1,,,,,,,,,,
null,,confidence_buffer,562040,confidence_buffer,,null,,,,,,,,,,,,,,,,,,
null,,thebreak,562543,break,,null,,,,,,,,,,,,,,,,,,
8619.900000000373,,pt2_realistic_rating,571165,Fictional_Cities_List/img_natural_44.png,,53,Fictional_Cities_List/img_natural_44.png,NAT,5,,,,,,,,,,,,,,,
null,,confidence_buffer,571269,confidence_buffer,,null,,,,,,,,,,,,,,,,,,
1427.300000000745,,pt2_unique_rating,572699,Fictional_Cities_List/img_natural_44.png,,51,,,3,,,,,,,,,,,,,,,
null,,confidence_buffer,572802,confidence_buffer,,null,,,,,,,,,,,,,,,,,,
988.2000000001863,,pt2_memorable_rating,573793,Fictional_Cities_List/img_natural_44.png,,53,,,5,,,,,,,,,,,,,,,
null,,confidence_buffer,573896,confidence_buffer,,null,,,,,,,,,,,,,,,,,,
1012.2999999998137,,recognition_phase,574911,Fictional_Cities_List/img_natural_44.png,,49,,,,,,old,1,1,,,,,,,,,,
null,,confidence_buffer,575015,confidence_buffer,,null,,,,,,,,,,,,,,,,,,
null,,thebreak,575518,break,,null,,,,,,,,,,,,,,,,,,
3498.5,,pt2_realistic_rating,579018,US_Cities_List/nat_peoria.png,,52,US_Cities_List/nat_peoria.png,NAT,4,,,,,,,,,,,,,,,
null,,confidence_buffer,579122,confidence_buffer,,null,,,,,,,,,,,,,,,,,,
1767.3999999994412,,pt2_unique_rating,580891,US_Cities_List/nat_peoria.png,,50,,,2,,,,,,,,,,,,,,,
null,,confidence_buffer,580994,confidence_buffer,,null,,,,,,,,,,,,,,,,,,
1231.7000000001863,,pt2_memorable_rating,582228,US_Cities_List/nat_peoria.png,,53,,,5,,,,,,,,,,,,,,,
null,,confidence_buffer,582332,confidence_buffer,,null,,,,,,,,,,,,,,,,,,
1221.699999999255,,recognition_phase,583556,US_Cities_List/nat_peoria.png,,52,,,,,,new,1,1,,,,,,,,,,
null,,confidence_buffer,583659,confidence_buffer,,null,,,,,,,,,,,,,,,,,,
null,,thebreak,584162,break,,null,,,,,,,,,,,,,,,,,,
2886.7000000001863,,pt2_realistic_rating,587050,US_Cities_List/nat_alliance.png,,52,US_Cities_List/nat_alliance.png,NAT,4,,,,,,,,,,,,,,,
null,,confidence_buffer,587153,confidence_buffer,,null,,,,,,,,,,,,,,,,,,
2080.2999999998137,,pt2_unique_rating,589235,US_Cities_List/nat_alliance.png,,51,,,3,,,,,,,,,,,,,,,
null,,confidence_buffer,589337,confidence_buffer,,null,,,,,,,,,,,,,,,,,,
1150.699999999255,,pt2_memorable_rating,590489,US_Cities_List/nat_alliance.png,,53,,,5,,,,,,,,,,,,,,,
null,,confidence_buffer,590592,confidence_buffer,,null,,,,,,,,,,,,,,,,,,
1155.5999999996275,,recognition_phase,591750,US_Cities_List/nat_alliance.png,,49,,,,,,old,1,1,,,,,,,,,,
null,,confidence_buffer,591854,confidence_buffer,,null,,,,,,,,,,,,,,,,,,
null,,thebreak,592356,break,,null,,,,,,,,,,,,,,,,,,
6625.100000000559,,pt2_realistic_rating,598983,Fictional_Cities_List/img_manmade_14.png,,52,Fictional_Cities_List/img_manmade_14.png,MM,4,,,,,,,,,,,,,,,
null,,confidence_buffer,599086,confidence_buffer,,null,,,,,,,,,,,,,,,,,,
1550.7000000001863,,pt2_unique_rating,600638,Fictional_Cities_List/img_manmade_14.png,,51,,,3,,,,,,,,,,,,,,,
null,,confidence_buffer,600741,confidence_buffer,,null,,,,,,,,,,,,,,,,,,
1037.1000000005588,,pt2_memorable_rating,601781,Fictional_Cities_List/img_manmade_14.png,,53,,,5,,,,,,,,,,,,,,,
null,,confidence_buffer,601885,confidence_buffer,,null,,,,,,,,,,,,,,,,,,
6930.0999999996275,,recognition_phase,608817,Fictional_Cities_List/img_manmade_14.png,,51,,,,,,new,1,1,,,,,,,,,,
null,,confidence_buffer,608921,confidence_buffer,,null,,,,,,,,,,,,,,,,,,
null,,thebreak,609423,break,,null,,,,,,,,,,,,,,,,,,
3270.100000000559,,pt2_realistic_rating,612695,US_Cities_List/mm_shreveport.png,,52,US_Cities_List/mm_shreveport.png,MM,4,,,,,,,,,,,,,,,
null,,confidence_buffer,612798,confidence_buffer,,null,,,,,,,,,,,,,,,,,,
1233.2999999998137,,pt2_unique_rating,614033,US_Cities_List/mm_shreveport.png,,50,,,2,,,,,,,,,,,,,,,
null,,confidence_buffer,614136,confidence_buffer,,null,,,,,,,,,,,,,,,,,,
1040.7999999998137,,pt2_memorable_rating,615179,US_Cities_List/mm_shreveport.png,,53,,,5,,,,,,,,,,,,,,,
null,,confidence_buffer,615282,confidence_buffer,,null,,,,,,,,,,,,,,,,,,
1724.0999999996275,,recognition_phase,617009,US_Cities_List/mm_shreveport.png,,52,,,,,,new,1,1,,,,,,,,,,
null,,confidence_buffer,617112,confidence_buffer,,null,,,,,,,,,,,,,,,,,,
null,,thebreak,617615,break,,null,,,,,,,,,,,,,,,,,,
2464.5999999996275,,pt2_realistic_rating,620081,Fictional_Cities_List/img_manmade_13.png,,52,Fictional_Cities_List/img_manmade_13.png,MM,4,,,,,,,,,,,,,,,
null,,confidence_buffer,620185,confidence_buffer,,null,,,,,,,,,,,,,,,,,,
1238.300000000745,,pt2_unique_rating,621425,Fictional_Cities_List/img_manmade_13.png,,51,,,3,,,,,,,,,,,,,,,
null,,confidence_buffer,621528,confidence_buffer,,null,,,,,,,,,,,,,,,,,,
873.6000000005588,,pt2_memorable_rating,622403,Fictional_Cities_List/img_manmade_13.png,,53,,,5,,,,,,,,,,,,,,,
null,,confidence_buffer,622506,confidence_buffer,,null,,,,,,,,,,,,,,,,,,
1013.5,,recognition_phase,623521,Fictional_Cities_List/img_manmade_13.png,,49,,,,,,old,1,1,,,,,,,,,,
null,,confidence_buffer,623624,confidence_buffer,,null,,,,,,,,,,,,,,,,,,
null,,thebreak,624126,break,,null,,,,,,,,,,,,,,,,,,
3069.2999999998137,,pt2_realistic_rating,627198,US_Cities_List/mm_berkeleysprings.png,,52,US_Cities_List/mm_berkeleysprings.png,MM,4,,,,,,,,,,,,,,,
null,,confidence_buffer,627301,confidence_buffer,,null,,,,,,,,,,,,,,,,,,
1333.8999999994412,,pt2_unique_rating,628637,US_Cities_List/mm_berkeleysprings.png,,51,,,3,,,,,,,,,,,,,,,
null,,confidence_buffer,628740,confidence_buffer,,null,,,,,,,,,,,,,,,,,,
1546,,probe_rating,630288,probe_rating,,51,,,,3,1,,,,,,,,,,,,,
null,,confidence_buffer,630391,confidence_buffer,,null,,,,,,,,,,,,,,,,,,
1231.8999999994412,,pt2_memorable_rating,631625,US_Cities_List/mm_berkeleysprings.png,,53,,,5,,,,,,,,,,,,,,,
null,,confidence_buffer,631728,confidence_buffer,,null,,,,,,,,,,,,,,,,,,
672.2999999998137,,recognition_phase,632403,US_Cities_List/mm_berkeleysprings.png,,49,,,,,,old,1,1,,,,,,,,,,
null,,confidence_buffer,632506,confidence_buffer,,null,,,,,,,,,,,,,,,,,,
null,,thebreak,633008,break,,null,,,,,,,,,,,,,,,,,,
2682.5,,pt2_realistic_rating,635693,Fictional_Cities_List/img_natural_09.png,,53,Fictional_Cities_List/img_natural_09.png,NAT,5,,,,,,,,,,,,,,,
null,,confidence_buffer,635796,confidence_buffer,,null,,,,,,,,,,,,,,,,,,
1435.8999999994412,,probe_rating,637234,probe_rating,,50,,,,2,1,,,,,,,,,,,,,
null,,confidence_buffer,637337,confidence_buffer,,null,,,,,,,,,,,,,,,,,,
1132.5,,pt2_unique_rating,638472,Fictional_Cities_List/img_natural_09.png,,51,,,3,,,,,,,,,,,,,,,
null,,confidence_buffer,638575,confidence_buffer,,null,,,,,,,,,,,,,,,,,,
1018.3999999994412,,pt2_memorable_rating,639595,Fictional_Cities_List/img_natural_09.png,,53,,,5,,,,,,,,,,,,,,,
null,,confidence_buffer,639699,confidence_buffer,,null,,,,,,,,,,,,,,,,,,
1099.2999999998137,,recognition_phase,640800,Fictional_Cities_List/img_natural_09.png,,49,,,,,,old,1,1,,,,,,,,,,
null,,confidence_buffer,640903,confidence_buffer,,null,,,,,,,,,,,,,,,,,,
null,,thebreak,641406,break,,null,,,,,,,,,,,,,,,,,,
4801.4000000003725,,pt2_realistic_rating,646209,Fictional_Cities_List/img_natural_05.png,,51,Fictional_Cities_List/img_natural_05.png,NAT,3,,,,,,,,,,,,,,,
null,,confidence_buffer,646313,confidence_buffer,,null,,,,,,,,,,,,,,,,,,
1474.0999999996275,,pt2_unique_rating,647789,Fictional_Cities_List/img_natural_05.png,,51,,,3,,,,,,,,,,,,,,,
null,,confidence_buffer,647893,confidence_buffer,,null,,,,,,,,,,,,,,,,,,
1679,,pt2_memorable_rating,649574,Fictional_Cities_List/img_natural_05.png,,53,,,5,,,,,,,,,,,,,,,
null,,confidence_buffer,649677,confidence_buffer,,null,,,,,,,,,,,,,,,,,,
1197,,recognition_phase,650876,Fictional_Cities_List/img_natural_05.png,,52,,,,,,new,1,1,,,,,,,,,,
null,,confidence_buffer,650979,confidence_buffer,,null,,,,,,,,,,,,,,,,,,
null,,thebreak,651481,break,,null,,,,,,,,,,,,,,,,,,
3103.2000000001863,,pt2_realistic_rating,654586,US_Cities_List/nat_bisbee.png,,51,US_Cities_List/nat_bisbee.png,NAT,3,,,,,,,,,,,,,,,
null,,confidence_buffer,654690,confidence_buffer,,null,,,,,,,,,,,,,,,,,,
1400.8999999994412,,pt2_unique_rating,656092,US_Cities_List/nat_bisbee.png,,51,,,3,,,,,,,,,,,,,,,
null,,confidence_buffer,656195,confidence_buffer,,null,,,,,,,,,,,,,,,,,,
1160.4000000003725,,probe_rating,657358,probe_rating,,49,,,,1,1,,,,,,,,,,,,,
null,,confidence_buffer,657462,confidence_buffer,,null,,,,,,,,,,,,,,,,,,
2981.4000000003725,,pt2_memorable_rating,660445,US_Cities_List/nat_bisbee.png,,53,,,5,,,,,,,,,,,,,,,
null,,confidence_buffer,660548,confidence_buffer,,null,,,,,,,,,,,,,,,,,,
1170.5999999996275,,recognition_phase,661722,US_Cities_List/nat_bisbee.png,,52,,,,,,new,1,1,,,,,,,,,,
null,,confidence_buffer,661824,confidence_buffer,,null,,,,,,,,,,,,,,,,,,
null,,thebreak,662328,break,,null,,,,,,,,,,,,,,,,,,
2690.600000000559,,pt2_realistic_rating,665021,Fictional_Cities_List/img_natural_13.png,,52,Fictional_Cities_List/img_natural_13.png,NAT,4,,,,,,,,,,,,,,,
null,,confidence_buffer,665124,confidence_buffer,,null,,,,,,,,,,,,,,,,,,
1232.0999999996275,,pt2_unique_rating,666358,Fictional_Cities_List/img_natural_13.png,,51,,,3,,,,,,,,,,,,,,,
null,,confidence_buffer,666462,confidence_buffer,,null,,,,,,,,,,,,,,,,,,
1068.5,,pt2_memorable_rating,667532,Fictional_Cities_List/img_natural_13.png,,53,,,5,,,,,,,,,,,,,,,
null,,confidence_buffer,667635,confidence_buffer,,null,,,,,,,,,,,,,,,,,,
1024,,recognition_phase,668661,Fictional_Cities_List/img_natural_13.png,,49,,,,,,old,1,1,,,,,,,,,,
null,,confidence_buffer,668764,confidence_buffer,,null,,,,,,,,,,,,,,,,,,
null,,thebreak,669267,break,,null,,,,,,,,,,,,,,,,,,
3376.9000000003725,,pt2_realistic_rating,672646,Fictional_Cities_List/img_natural_06.png,,51,Fictional_Cities_List/img_natural_06.png,NAT,3,,,,,,,,,,,,,,,
null,,confidence_buffer,672749,confidence_buffer,,null,,,,,,,,,,,,,,,,,,
4001.2999999998137,,pt2_unique_rating,676752,Fictional_Cities_List/img_natural_06.png,,50,,,2,,,,,,,,,,,,,,,
null,,confidence_buffer,676857,confidence_buffer,,null,,,,,,,,,,,,,,,,,,
1014.9000000003725,,pt2_memorable_rating,677874,Fictional_Cities_List/img_natural_06.png,,53,,,5,,,,,,,,,,,,,,,
null,,confidence_buffer,677977,confidence_buffer,,null,,,,,,,,,,,,,,,,,,
1531.7999999998137,,probe_rating,679511,probe_rating,,52,,,,4,1,,,,,,,,,,,,,
null,,confidence_buffer,679614,confidence_buffer,,null,,,,,,,,,,,,,,,,,,
2102.100000000559,,recognition_phase,681718,Fictional_Cities_List/img_natural_06.png,,49,,,,,,old,1,1,,,,,,,,,,
null,,confidence_buffer,681822,confidence_buffer,,null,,,,,,,,,,,,,,,,,,
null,,thebreak,682325,break,,null,,,,,,,,,,,,,,,,,,
2864.5999999996275,,pt2_realistic_rating,685191,Fictional_Cities_List/img_natural_43.png,,52,Fictional_Cities_List/img_natural_43.png,NAT,4,,,,,,,,,,,,,,,
null,,confidence_buffer,685294,confidence_buffer,,null,,,,,,,,,,,,,,,,,,
1400.8999999994412,,pt2_unique_rating,686697,Fictional_Cities_List/img_natural_43.png,,50,,,2,,,,,,,,,,,,,,,
null,,confidence_buffer,686799,confidence_buffer,,null,,,,,,,,,,,,,,,,,,
982.4000000003725,,pt2_memorable_rating,687784,Fictional_Cities_List/img_natural_43.png,,53,,,5,,,,,,,,,,,,,,,
null,,confidence_buffer,687887,confidence_buffer,,null,,,,,,,,,,,,,,,,,,
981.7999999998137,,recognition_phase,688871,Fictional_Cities_List/img_natural_43.png,,52,,,,,,new,1,1,,,,,,,,,,
null,,confidence_buffer,688973,confidence_buffer,,null,,,,,,,,,,,,,,,,,,
null,,thebreak,689476,break,,null,,,,,,,,,,,,,,,,,,
4284.100000000559,,pt2_realistic_rating,693762,US_Cities_List/nat_follybeach.png,,53,US_Cities_List/nat_follybeach.png,NAT,5,,,,,,,,,,,,,,,
null,,confidence_buffer,693865,confidence_buffer,,null,,,,,,,,,,,,,,,,,,
1506.699999999255,,pt2_unique_rating,695374,US_Cities_List/nat_follybeach.png,,50,,,2,,,,,,,,,,,,,,,
null,,confidence_buffer,695476,confidence_buffer,,null,,,,,,,,,,,,,,,,,,
930.3000000007451,,pt2_memorable_rating,696409,US_Cities_List/nat_follybeach.png,,53,,,5,,,,,,,,,,,,,,,
null,,confidence_buffer,696512,confidence_buffer,,null,,,,,,,,,,,,,,,,,,
1083.2999999998137,,probe_rating,697597,probe_rating,,50,,,,2,1,,,,,,,,,,,,,
null,,confidence_buffer,697701,confidence_buffer,,null,,,,,,,,,,,,,,,,,,
1092.7000000001863,,recognition_phase,698796,US_Cities_List/nat_follybeach.png,,49,,,,,,old,1,1,,,,,,,,,,
null,,confidence_buffer,698899,confidence_buffer,,null,,,,,,,,,,,,,,,,,,
null,,thebreak,699400,break,,null,,,,,,,,,,,,,,,,,,
2252.9000000003725,,pt2_realistic_rating,701655,US_Cities_List/mm_alliance.png,,52,US_Cities_List/mm_alliance.png,MM,4,,,,,,,,,,,,,,,
null,,confidence_buffer,701758,confidence_buffer,,null,,,,,,,,,,,,,,,,,,
1036.5,,probe_rating,702797,probe_rating,,50,,,,2,1,,,,,,,,,,,,,
null,,confidence_buffer,702900,confidence_buffer,,null,,,,,,,,,,,,,,,,,,
1788.7999999998137,,pt2_unique_rating,704691,US_Cities_List/mm_alliance.png,,52,,,4,,,,,,,,,,,,,,,
null,,confidence_buffer,704794,confidence_buffer,,null,,,,,,,,,,,,,,,,,,
1055.7999999998137,,pt2_memorable_rating,705852,US_Cities_List/mm_alliance.png,,53,,,5,,,,,,,,,,,,,,,
null,,confidence_buffer,705955,confidence_buffer,,null,,,,,,,,,,,,,,,,,,
966.7999999998137,,recognition_phase,706924,US_Cities_List/mm_alliance.png,,49,,,,,,old,1,1,,,,,,,,,,
null,,confidence_buffer,707026,confidence_buffer,,null,,,,,,,,,,,,,,,,,,
null,,thebreak,707528,break,,null,,,,,,,,,,,,,,,,,,
4298.5,,pt2_realistic_rating,711828,US_Cities_List/mm_racine.png,,52,US_Cities_List/mm_racine.png,MM,4,,,,,,,,,,,,,,,
null,,confidence_buffer,711932,confidence_buffer,,null,,,,,,,,,,,,,,,,,,
1107.7000000001863,,pt2_unique_rating,713041,US_Cities_List/mm_racine.png,,50,,,2,,,,,,,,,,,,,,,
null,,confidence_buffer,713145,confidence_buffer,,null,,,,,,,,,,,,,,,,,,
1046.800000000745,,pt2_memorable_rating,714194,US_Cities_List/mm_racine.png,,53,,,5,,,,,,,,,,,,,,,
null,,confidence_buffer,714297,confidence_buffer,,null,,,,,,,,,,,,,,,,,,
1125,,recognition_phase,715424,US_Cities_List/mm_racine.png,,52,,,,,,new,1,1,,,,,,,,,,
null,,confidence_buffer,715527,confidence_buffer,,null,,,,,,,,,,,,,,,,,,
null,,thebreak,716030,break,,null,,,,,,,,,,,,,,,,,,
2370.2999999998137,,pt2_realistic_rating,718402,US_Cities_List/mm_coeurdalene.png,,53,US_Cities_List/mm_coeurdalene.png,MM,5,,,,,,,,,,,,,,,
null,,confidence_buffer,718505,confidence_buffer,,null,,,,,,,,,,,,,,,,,,
1495.7999999998137,,pt2_unique_rating,720004,US_Cities_List/mm_coeurdalene.png,,51,,,3,,,,,,,,,,,,,,,
null,,confidence_buffer,720107,confidence_buffer,,null,,,,,,,,,,,,,,,,,,
974.8999999994412,,pt2_memorable_rating,721084,US_Cities_List/mm_coeurdalene.png,,53,,,5,,,,,,,,,,,,,,,
null,,confidence_buffer,721188,confidence_buffer,,null,,,,,,,,,,,,,,,,,,
1361.7000000001863,,recognition_phase,722552,US_Cities_List/mm_coeurdalene.png,,49,,,,,,old,1,1,,,,,,,,,,
null,,confidence_buffer,722655,confidence_buffer,,null,,,,,,,,,,,,,,,,,,
null,,thebreak,723157,break,,null,,,,,,,,,,,,,,,,,,
3043,,pt2_realistic_rating,726202,US_Cities_List/mm_delawarecity.png,,52,US_Cities_List/mm_delawarecity.png,MM,4,,,,,,,,,,,,,,,
null,,confidence_buffer,726306,confidence_buffer,,null,,,,,,,,,,,,,,,,,,
1313.2999999998137,,pt2_unique_rating,727621,US_Cities_List/mm_delawarecity.png,,51,,,3,,,,,,,,,,,,,,,
null,,confidence_buffer,727724,confidence_buffer,,null,,,,,,,,,,,,,,,,,,
1185.2999999998137,,pt2_memorable_rating,728911,US_Cities_List/mm_delawarecity.png,,53,,,5,,,,,,,,,,,,,,,
null,,confidence_buffer,729014,confidence_buffer,,null,,,,,,,,,,,,,,,,,,
1052.5,,recognition_phase,730069,US_Cities_List/mm_delawarecity.png,,52,,,,,,new,1,1,,,,,,,,,,
null,,confidence_buffer,730173,confidence_buffer,,null,,,,,,,,,,,,,,,,,,
null,,thebreak,730676,break,,null,,,,,,,,,,,,,,,,,,
4505,,pt2_realistic_rating,735183,Fictional_Cities_List/img_natural_08.png,,52,Fictional_Cities_List/img_natural_08.png,NAT,4,,,,,,,,,,,,,,,
null,,confidence_buffer,735286,confidence_buffer,,null,,,,,,,,,,,,,,,,,,
3135.2999999998137,,pt2_unique_rating,738424,Fictional_Cities_List/img_natural_08.png,,51,,,3,,,,,,,,,,,,,,,
null,,confidence_buffer,738527,confidence_buffer,,null,,,,,,,,,,,,,,,,,,
2110.800000000745,,pt2_memorable_rating,740639,Fictional_Cities_List/img_natural_08.png,,53,,,5,,,,,,,,,,,,,,,
null,,confidence_buffer,740743,confidence_buffer,,null,,,,,,,,,,,,,,,,,,
1053.7999999998137,,recognition_phase,741799,Fictional_Cities_List/img_natural_08.png,,52,,,,,,new,1,1,,,,,,,,,,
null,,confidence_buffer,741902,confidence_buffer,,null,,,,,,,,,,,,,,,,,,
null,,thebreak,742405,break,,null,,,,,,,,,,,,,,,,,,
7026.600000000559,,pt2_realistic_rating,749433,Fictional_Cities_List/img_manmade_08.png,,53,Fictional_Cities_List/img_manmade_08.png,MM,5,,,,,,,,,,,,,,,
null,,confidence_buffer,749537,confidence_buffer,,null,,,,,,,,,,,,,,,,,,
1322.7000000001863,,pt2_unique_rating,750862,Fictional_Cities_List/img_manmade_08.png,,51,,,3,,,,,,,,,,,,,,,
null,,confidence_buffer,750965,confidence_buffer,,null,,,,,,,,,,,,,,,,,,
1020.7999999998137,,pt2_memorable_rating,751987,Fictional_Cities_List/img_manmade_08.png,,53,,,5,,,,,,,,,,,,,,,
null,,confidence_buffer,752090,confidence_buffer,,null,,,,,,,,,,,,,,,,,,
1352.0999999996275,,recognition_phase,753445,Fictional_Cities_List/img_manmade_08.png,,49,,,,,,old,1,1,,,,,,,,,,
null,,confidence_buffer,753549,confidence_buffer,,null,,,,,,,,,,,,,,,,,,
null,,thebreak,754051,break,,null,,,,,,,,,,,,,,,,,,
2718.100000000559,,pt2_realistic_rating,756771,Fictional_Cities_List/img_manmade_42.png,,52,Fictional_Cities_List/img_manmade_42.png,MM,4,,,,,,,,,,,,,,,
null,,confidence_buffer,756875,confidence_buffer,,null,,,,,,,,,,,,,,,,,,
1011.1000000005588,,pt2_unique_rating,757888,Fictional_Cities_List/img_manmade_42.png,,51,,,3,,,,,,,,,,,,,,,
null,,confidence_buffer,757991,confidence_buffer,,null,,,,,,,,,,,,,,,,,,
1260.7000000001863,,pt2_memorable_rating,759254,Fictional_Cities_List/img_manmade_42.png,,53,,,5,,,,,,,,,,,,,,,
null,,confidence_buffer,759356,confidence_buffer,,null,,,,,,,,,,,,,,,,,,
889.2999999998137,,recognition_phase,760247,Fictional_Cities_List/img_manmade_42.png,,52,,,,,,new,1,1,,,,,,,,,,
null,,confidence_buffer,760351,confidence_buffer,,null,,,,,,,,,,,,,,,,,,
null,,thebreak,760853,break,,null,,,,,,,,,,,,,,,,,,
2243.0999999996275,,pt2_realistic_rating,763098,US_Cities_List/mm_hanover.png,,53,US_Cities_List/mm_hanover.png,MM,5,,,,,,,,,,,,,,,
null,,confidence_buffer,763201,confidence_buffer,,null,,,,,,,,,,,,,,,,,,
1483.2999999998137,,pt2_unique_rating,764686,US_Cities_List/mm_hanover.png,,51,,,3,,,,,,,,,,,,,,,
null,,confidence_buffer,764789,confidence_buffer,,null,,,,,,,,,,,,,,,,,,
1089.2000000001863,,pt2_memorable_rating,765880,US_Cities_List/mm_hanover.png,,53,,,5,,,,,,,,,,,,,,,
null,,confidence_buffer,765983,confidence_buffer,,null,,,,,,,,,,,,,,,,,,
1042.2999999998137,,recognition_phase,767028,US_Cities_List/mm_hanover.png,,49,,,,,,old,1,1,,,,,,,,,,
null,,confidence_buffer,767131,confidence_buffer,,null,,,,,,,,,,,,,,,,,,
null,,thebreak,767634,break,,null,,,,,,,,,,,,,,,,,,
5362.5,,pt2_realistic_rating,772998,US_Cities_List/nat_leesburg.png,,51,US_Cities_List/nat_leesburg.png,NAT,3,,,,,,,,,,,,,,,
null,,confidence_buffer,773102,confidence_buffer,,null,,,,,,,,,,,,,,,,,,
1389.5,,pt2_unique_rating,774493,US_Cities_List/nat_leesburg.png,,50,,,2,,,,,,,,,,,,,,,
null,,confidence_buffer,774596,confidence_buffer,,null,,,,,,,,,,,,,,,,,,
1006,,pt2_memorable_rating,775604,US_Cities_List/nat_leesburg.png,,53,,,5,,,,,,,,,,,,,,,
null,,confidence_buffer,775707,confidence_buffer,,null,,,,,,,,,,,,,,,,,,
1197.9000000003725,,recognition_phase,776907,US_Cities_List/nat_leesburg.png,,52,,,,,,new,0,0.9714285714285714,,,,,,,,,,
null,,confidence_buffer,777010,confidence_buffer,,null,,,,,,,,,,,,,,,,,,
null,,thebreak,777513,break,,null,,,,,,,,,,,,,,,,,,
2848.2999999998137,,pt2_realistic_rating,780363,Fictional_Cities_List/img_manmade_23.png,,53,Fictional_Cities_List/img_manmade_23.png,MM,5,,,,,,,,,,,,,,,
null,,confidence_buffer,780467,confidence_buffer,,null,,,,,,,,,,,,,,,,,,
1347.2999999998137,,pt2_unique_rating,781817,Fictional_Cities_List/img_manmade_23.png,,51,,,3,,,,,,,,,,,,,,,
null,,confidence_buffer,781920,confidence_buffer,,null,,,,,,,,,,,,,,,,,,
962.8999999994412,,pt2_memorable_rating,782884,Fictional_Cities_List/img_manmade_23.png,,53,,,5,,,,,,,,,,,,,,,
null,,confidence_buffer,782988,confidence_buffer,,null,,,,,,,,,,,,,,,,,,
1086.3999999994412,,recognition_phase,784076,Fictional_Cities_List/img_manmade_23.png,,49,,,,,,old,0,0.9444444444444444,,,,,,,,,,
null,,confidence_buffer,784180,confidence_buffer,,null,,,,,,,,,,,,,,,,,,
null,,thebreak,784682,break,,null,,,,,,,,,,,,,,,,,,
5258.800000000745,,pt2_realistic_rating,789943,US_Cities_List/nat_capemay.png,,52,US_Cities_List/nat_capemay.png,NAT,4,,,,,,,,,,,,,,,
null,,confidence_buffer,790046,confidence_buffer,,null,,,,,,,,,,,,,,,,,,
1042.7000000001863,,pt2_unique_rating,791091,US_Cities_List/nat_capemay.png,,51,,,3,,,,,,,,,,,,,,,
null,,confidence_buffer,791194,confidence_buffer,,null,,,,,,,,,,,,,,,,,,
1089.5,,pt2_memorable_rating,792285,US_Cities_List/nat_capemay.png,,53,,,5,,,,,,,,,,,,,,,
null,,confidence_buffer,792388,confidence_buffer,,null,,,,,,,,,,,,,,,,,,
1535.7999999998137,,recognition_phase,793926,US_Cities_List/nat_capemay.png,,51,,,,,,new,0,0.918918918918919,,,,,,,,,,
null,,confidence_buffer,794029,confidence_buffer,,null,,,,,,,,,,,,,,,,,,
null,,thebreak,794532,break,,null,,,,,,,,,,,,,,,,,,
3074.7999999998137,,pt2_realistic_rating,797609,Fictional_Cities_List/img_natural_48.png,,53,Fictional_Cities_List/img_natural_48.png,NAT,5,,,,,,,,,,,,,,,
null,,confidence_buffer,797711,confidence_buffer,,null,,,,,,,,,,,,,,,,,,
1202,,pt2_unique_rating,798915,Fictional_Cities_List/img_natural_48.png,,51,,,3,,,,,,,,,,,,,,,
null,,confidence_buffer,799019,confidence_buffer,,null,,,,,,,,,,,,,,,,,,
1263.800000000745,,probe_rating,800284,probe_rating,,52,,,,4,1,,,,,,,,,,,,,
null,,confidence_buffer,800387,confidence_buffer,,null,,,,,,,,,,,,,,,,,,
1314.5,,pt2_memorable_rating,801703,Fictional_Cities_List/img_natural_48.png,,52,,,4,,,,,,,,,,,,,,,
null,,confidence_buffer,801805,confidence_buffer,,null,,,,,,,,,,,,,,,,,,
1079.2000000001863,,recognition_phase,802887,Fictional_Cities_List/img_natural_48.png,,49,,,,,,old,1,0.9210526315789473,,,,,,,,,,
null,,confidence_buffer,802990,confidence_buffer,,null,,,,,,,,,,,,,,,,,,
null,,thebreak,803493,break,,null,,,,,,,,,,,,,,,,,,
6802,,pt2_realistic_rating,810297,Fictional_Cities_List/img_natural_36.png,,52,Fictional_Cities_List/img_natural_36.png,NAT,4,,,,,,,,,,,,,,,
null,,confidence_buffer,810401,confidence_buffer,,null,,,,,,,,,,,,,,,,,,
1399.5,,pt2_unique_rating,811802,Fictional_Cities_List/img_natural_36.png,,51,,,3,,,,,,,,,,,,,,,
null,,confidence_buffer,811905,confidence_buffer,,null,,,,,,,,,,,,,,,,,,
1033.7999999998137,,pt2_memorable_rating,812941,Fictional_Cities_List/img_natural_36.png,,53,,,5,,,,,,,,,,,,,,,
null,,confidence_buffer,813044,confidence_buffer,,null,,,,,,,,,,,,,,,,,,
1155.300000000745,,recognition_phase,814202,Fictional_Cities_List/img_natural_36.png,,52,,,,,,new,1,0.9230769230769231,,,,,,,,,,
null,,confidence_buffer,814305,confidence_buffer,,null,,,,,,,,,,,,,,,,,,
null,,thebreak,814808,break,,null,,,,,,,,,,,,,,,,,,
2032.800000000745,,pt2_realistic_rating,816843,US_Cities_List/nat_coeurdalene.png,,52,US_Cities_List/nat_coeurdalene.png,NAT,4,,,,,,,,,,,,,,,
null,,confidence_buffer,816947,confidence_buffer,,null,,,,,,,,,,,,,,,,,,
1280,,pt2_unique_rating,818229,US_Cities_List/nat_coeurdalene.png,,51,,,3,,,,,,,,,,,,,,,
null,,confidence_buffer,818331,confidence_buffer,,null,,,,,,,,,,,,,,,,,,
1020,,pt2_memorable_rating,819353,US_Cities_List/nat_coeurdalene.png,,53,,,5,,,,,,,,,,,,,,,
null,,confidence_buffer,819457,confidence_buffer,,null,,,,,,,,,,,,,,,,,,
892.4000000003725,,recognition_phase,820351,US_Cities_List/nat_coeurdalene.png,,52,,,,,,new,1,0.925,,,,,,,,,,
null,,confidence_buffer,820455,confidence_buffer,,null,,,,,,,,,,,,,,,,,,
null,,thebreak,820957,break,,null,,,,,,,,,,,,,,,,,,
1950.9000000003725,,pt2_realistic_rating,822910,Fictional_Cities_List/img_natural_42.png,,53,Fictional_Cities_List/img_natural_42.png,NAT,5,,,,,,,,,,,,,,,
null,,confidence_buffer,823014,confidence_buffer,,null,,,,,,,,,,,,,,,,,,
1137.5999999996275,,pt2_unique_rating,824153,Fictional_Cities_List/img_natural_42.png,,51,,,3,,,,,,,,,,,,,,,
null,,confidence_buffer,824256,confidence_buffer,,null,,,,,,,,,,,,,,,,,,
953.0999999996275,,pt2_memorable_rating,825211,Fictional_Cities_List/img_natural_42.png,,53,,,5,,,,,,,,,,,,,,,
null,,confidence_buffer,825314,confidence_buffer,,null,,,,,,,,,,,,,,,,,,
880.2000000001863,,recognition_phase,826197,Fictional_Cities_List/img_natural_42.png,,49,,,,,,old,1,0.926829268292683,,,,,,,,,,
null,,confidence_buffer,826300,confidence_buffer,,null,,,,,,,,,,,,,,,,,,
null,,thebreak,826802,break,,null,,,,,,,,,,,,,,,,,,
1793.0999999996275,,pt2_realistic_rating,828598,US_Cities_List/mm_barnard.png,,52,US_Cities_List/mm_barnard.png,MM,4,,,,,,,,,,,,,,,
null,,confidence_buffer,828701,confidence_buffer,,null,,,,,,,,,,,,,,,,,,
1440.2999999998137,,pt2_unique_rating,830143,US_Cities_List/mm_barnard.png,,51,,,3,,,,,,,,,,,,,,,
null,,confidence_buffer,830246,confidence_buffer,,null,,,,,,,,,,,,,,,,,,
901.2999999998137,,pt2_memorable_rating,831149,US_Cities_List/mm_barnard.png,,53,,,5,,,,,,,,,,,,,,,
null,,confidence_buffer,831252,confidence_buffer,,null,,,,,,,,,,,,,,,,,,
1303.5,,recognition_phase,832558,US_Cities_List/mm_barnard.png,,52,,,,,,new,1,0.9285714285714286,,,,,,,,,,
null,,confidence_buffer,832662,confidence_buffer,,null,,,,,,,,,,,,,,,,,,
null,,thebreak,833165,break,,null,,,,,,,,,,,,,,,,,,
2329.399999999441,,pt2_realistic_rating,835496,Fictional_Cities_List/img_natural_32.png,,53,Fictional_Cities_List/img_natural_32.png,NAT,5,,,,,,,,,,,,,,,
null,,confidence_buffer,835600,confidence_buffer,,null,,,,,,,,,,,,,,,,,,
1402.800000000745,,pt2_unique_rating,837005,Fictional_Cities_List/img_natural_32.png,,51,,,3,,,,,,,,,,,,,,,
null,,confidence_buffer,837108,confidence_buffer,,null,,,,,,,,,,,,,,,,,,
1029.1000000005588,,pt2_memorable_rating,838139,Fictional_Cities_List/img_natural_32.png,,53,,,5,,,,,,,,,,,,,,,
null,,confidence_buffer,838243,confidence_buffer,,null,,,,,,,,,,,,,,,,,,
916.2999999998137,,recognition_phase,839161,Fictional_Cities_List/img_natural_32.png,,49,,,,,,old,1,0.9302325581395349,,,,,,,,,,
null,,confidence_buffer,839264,confidence_buffer,,null,,,,,,,,,,,,,,,,,,
null,,thebreak,839767,break,,null,,,,,,,,,,,,,,,,,,
3236.5999999996275,,pt2_realistic_rating,843006,US_Cities_List/nat_huntsville.png,,52,US_Cities_List/nat_huntsville.png,NAT,4,,,,,,,,,,,,,,,
null,,confidence_buffer,843109,confidence_buffer,,null,,,,,,,,,,,,,,,,,,
1248,,pt2_unique_rating,844359,US_Cities_List/nat_huntsville.png,,51,,,3,,,,,,,,,,,,,,,
null,,confidence_buffer,844462,confidence_buffer,,null,,,,,,,,,,,,,,,,,,
996,,pt2_memorable_rating,845460,US_Cities_List/nat_huntsville.png,,53,,,5,,,,,,,,,,,,,,,
null,,confidence_buffer,845564,confidence_buffer,,null,,,,,,,,,,,,,,,,,,
1074.300000000745,,recognition_phase,846641,US_Cities_List/nat_huntsville.png,,52,,,,,,new,1,0.9318181818181818,,,,,,,,,,
null,,confidence_buffer,846744,confidence_buffer,,null,,,,,,,,,,,,,,,,,,
null,,thebreak,847246,break,,null,,,,,,,,,,,,,,,,,,
2311.899999999441,,pt2_realistic_rating,849560,Fictional_Cities_List/img_natural_23.png,,52,Fictional_Cities_List/img_natural_23.png,NAT,4,,,,,,,,,,,,,,,
null,,confidence_buffer,849664,confidence_buffer,,null,,,,,,,,,,,,,,,,,,
1178.4000000003725,,pt2_unique_rating,850845,Fictional_Cities_List/img_natural_23.png,,51,,,3,,,,,,,,,,,,,,,
null,,confidence_buffer,850947,confidence_buffer,,null,,,,,,,,,,,,,,,,,,
1073.1000000005588,,pt2_memorable_rating,852022,Fictional_Cities_List/img_natural_23.png,,53,,,5,,,,,,,,,,,,,,,
null,,confidence_buffer,852126,confidence_buffer,,null,,,,,,,,,,,,,,,,,,
970.6000000005588,,recognition_phase,853099,Fictional_Cities_List/img_natural_23.png,,49,,,,,,old,1,0.9333333333333333,,,,,,,,,,
null,,confidence_buffer,853202,confidence_buffer,,null,,,,,,,,,,,,,,,,,,
null,,thebreak,853705,break,,null,,,,,,,,,,,,,,,,,,
2907.2000000001863,,pt2_realistic_rating,856614,Fictional_Cities_List/img_manmade_43.png,,53,Fictional_Cities_List/img_manmade_43.png,MM,5,,,,,,,,,,,,,,,
null,,confidence_buffer,856717,confidence_buffer,,null,,,,,,,,,,,,,,,,,,
1380.5999999996275,,pt2_unique_rating,858099,Fictional_Cities_List/img_manmade_43.png,,51,,,3,,,,,,,,,,,,,,,
null,,confidence_buffer,858202,confidence_buffer,,null,,,,,,,,,,,,,,,,,,
990.5,,pt2_memorable_rating,859194,Fictional_Cities_List/img_manmade_43.png,,53,,,5,,,,,,,,,,,,,,,
null,,confidence_buffer,859297,confidence_buffer,,null,,,,,,,,,,,,,,,,,,
921,,recognition_phase,860220,Fictional_Cities_List/img_manmade_43.png,,49,,,,,,old,0,0.9130434782608695,,,,,,,,,,
null,,confidence_buffer,860323,confidence_buffer,,null,,,,,,,,,,,,,,,,,,
null,,thebreak,860826,break,,null,,,,,,,,,,,,,,,,,,
5853.200000000186,,pt2_realistic_rating,866681,US_Cities_List/nat_sitka.png,,51,US_Cities_List/nat_sitka.png,NAT,3,,,,,,,,,,,,,,,
null,,confidence_buffer,866785,confidence_buffer,,null,,,,,,,,,,,,,,,,,,
1189.699999999255,,pt2_unique_rating,867977,US_Cities_List/nat_sitka.png,,50,,,2,,,,,,,,,,,,,,,
null,,confidence_buffer,868080,confidence_buffer,,null,,,,,,,,,,,,,,,,,,
869.9000000003725,,pt2_memorable_rating,868952,US_Cities_List/nat_sitka.png,,53,,,5,,,,,,,,,,,,,,,
null,,confidence_buffer,869055,confidence_buffer,,null,,,,,,,,,,,,,,,,,,
1285,,recognition_phase,870342,US_Cities_List/nat_sitka.png,,52,,,,,,new,1,0.9148936170212766,,,,,,,,,,
null,,confidence_buffer,870445,confidence_buffer,,null,,,,,,,,,,,,,,,,,,
null,,thebreak,870948,break,,null,,,,,,,,,,,,,,,,,,
3045,,pt2_realistic_rating,873995,US_Cities_List/nat_westpalmbeach.png,,51,US_Cities_List/nat_westpalmbeach.png,NAT,3,,,,,,,,,,,,,,,
null,,confidence_buffer,874099,confidence_buffer,,null,,,,,,,,,,,,,,,,,,
1149.2000000001863,,pt2_unique_rating,875250,US_Cities_List/nat_westpalmbeach.png,,50,,,2,,,,,,,,,,,,,,,
null,,confidence_buffer,875353,confidence_buffer,,null,,,,,,,,,,,,,,,,,,
984.2999999998137,,pt2_memorable_rating,876340,US_Cities_List/nat_westpalmbeach.png,,53,,,5,,,,,,,,,,,,,,,
null,,confidence_buffer,876443,confidence_buffer,,null,,,,,,,,,,,,,,,,,,
975.8000000007451,,recognition_phase,877420,US_Cities_List/nat_westpalmbeach.png,,49,,,,,,old,1,0.9166666666666666,,,,,,,,,,
null,,confidence_buffer,877523,confidence_buffer,,null,,,,,,,,,,,,,,,,,,
null,,thebreak,878025,break,,null,,,,,,,,,,,,,,,,,,
2785.699999999255,,pt2_realistic_rating,880813,US_Cities_List/mm_capemay.png,,53,US_Cities_List/mm_capemay.png,MM,5,,,,,,,,,,,,,,,
null,,confidence_buffer,880916,confidence_buffer,,null,,,,,,,,,,,,,,,,,,
1255.5999999996275,,pt2_unique_rating,882174,US_Cities_List/mm_capemay.png,,51,,,3,,,,,,,,,,,,,,,
null,,confidence_buffer,882276,confidence_buffer,,null,,,,,,,,,,,,,,,,,,
1107.800000000745,,pt2_memorable_rating,883386,US_Cities_List/mm_capemay.png,,53,,,5,,,,,,,,,,,,,,,
null,,confidence_buffer,883490,confidence_buffer,,null,,,,,,,,,,,,,,,,,,
793.0999999996275,,recognition_phase,884285,US_Cities_List/mm_capemay.png,,49,,,,,,old,0,0.8979591836734694,,,,,,,,,,
null,,confidence_buffer,884388,confidence_buffer,,null,,,,,,,,,,,,,,,,,,
null,,thebreak,884890,break,,null,,,,,,,,,,,,,,,,,,
2164.699999999255,,pt2_realistic_rating,887057,US_Cities_List/mm_duck.png,,52,US_Cities_List/mm_duck.png,MM,4,,,,,,,,,,,,,,,
null,,confidence_buffer,887160,confidence_buffer,,null,,,,,,,,,,,,,,,,,,
1119.7999999998137,,pt2_unique_rating,888282,US_Cities_List/mm_duck.png,,50,,,2,,,,,,,,,,,,,,,
null,,confidence_buffer,888384,confidence_buffer,,null,,,,,,,,,,,,,,,,,,
1007.5999999996275,,pt2_memorable_rating,889394,US_Cities_List/mm_duck.png,,53,,,5,,,,,,,,,,,,,,,
null,,confidence_buffer,889497,confidence_buffer,,null,,,,,,,,,,,,,,,,,,
793,,recognition_phase,890293,US_Cities_List/mm_duck.png,,49,,,,,,old,1,0.9,,,,,,,,,,
null,,confidence_buffer,890396,confidence_buffer,,null,,,,,,,,,,,,,,,,,,
null,,thebreak,890899,break,,null,,,,,,,,,,,,,,,,,,
4656.799999999814,,pt2_realistic_rating,895558,Fictional_Cities_List/img_manmade_10.png,,52,Fictional_Cities_List/img_manmade_10.png,MM,4,,,,,,,,,,,,,,,
null,,confidence_buffer,895661,confidence_buffer,,null,,,,,,,,,,,,,,,,,,
1142.7000000001863,,probe_rating,896806,probe_rating,,52,,,,4,1,,,,,,,,,,,,,
null,,confidence_buffer,896910,confidence_buffer,,null,,,,,,,,,,,,,,,,,,
1930.699999999255,,pt2_unique_rating,898843,Fictional_Cities_List/img_manmade_10.png,,51,,,3,,,,,,,,,,,,,,,
null,,confidence_buffer,898946,confidence_buffer,,null,,,,,,,,,,,,,,,,,,
1078.2000000001863,,pt2_memorable_rating,900026,Fictional_Cities_List/img_manmade_10.png,,53,,,5,,,,,,,,,,,,,,,
null,,confidence_buffer,900129,confidence_buffer,,null,,,,,,,,,,,,,,,,,,
1404.0999999996275,,recognition_phase,901536,Fictional_Cities_List/img_manmade_10.png,,51,,,,,,new,0,0.8823529411764706,,,,,,,,,,
null,,confidence_buffer,901640,confidence_buffer,,null,,,,,,,,,,,,,,,,,,
null,,thebreak,902142,break,,null,,,,,,,,,,,,,,,,,,
2888.4000000003725,,pt2_realistic_rating,905032,Fictional_Cities_List/img_manmade_48.png,,53,Fictional_Cities_List/img_manmade_48.png,MM,5,,,,,,,,,,,,,,,
null,,confidence_buffer,905135,confidence_buffer,,null,,,,,,,,,,,,,,,,,,
2011.9000000003725,,pt2_unique_rating,907149,Fictional_Cities_List/img_manmade_48.png,,50,,,2,,,,,,,,,,,,,,,
null,,confidence_buffer,907253,confidence_buffer,,null,,,,,,,,,,,,,,,,,,
1222.8999999994412,,pt2_memorable_rating,908478,Fictional_Cities_List/img_manmade_48.png,,53,,,5,,,,,,,,,,,,,,,
null,,confidence_buffer,908581,confidence_buffer,,null,,,,,,,,,,,,,,,,,,
894.2999999998137,,recognition_phase,909477,Fictional_Cities_List/img_manmade_48.png,,49,,,,,,old,1,0.8846153846153846,,,,,,,,,,
null,,confidence_buffer,909581,confidence_buffer,,null,,,,,,,,,,,,,,,,,,
null,,thebreak,910084,break,,null,,,,,,,,,,,,,,,,,,
1919.9000000003725,,pt2_realistic_rating,912006,US_Cities_List/nat_carmel.png,,52,US_Cities_List/nat_carmel.png,NAT,4,,,,,,,,,,,,,,,
null,,confidence_buffer,912108,confidence_buffer,,null,,,,,,,,,,,,,,,,,,
1338.5,,pt2_unique_rating,913449,US_Cities_List/nat_carmel.png,,51,,,3,,,,,,,,,,,,,,,
null,,confidence_buffer,913551,confidence_buffer,,null,,,,,,,,,,,,,,,,,,
1021,,pt2_memorable_rating,914574,US_Cities_List/nat_carmel.png,,53,,,5,,,,,,,,,,,,,,,
null,,confidence_buffer,914677,confidence_buffer,,null,,,,,,,,,,,,,,,,,,
1087.6000000005588,,recognition_phase,915767,US_Cities_List/nat_carmel.png,,49,,,,,,old,1,0.8867924528301887,,,,,,,,,,
null,,confidence_buffer,915870,confidence_buffer,,null,,,,,,,,,,,,,,,,,,
null,,thebreak,916373,break,,null,,,,,,,,,,,,,,,,,,
3600.7999999998137,,pt2_realistic_rating,919975,US_Cities_List/mm_leesburg.png,,53,US_Cities_List/mm_leesburg.png,MM,5,,,,,,,,,,,,,,,
null,,confidence_buffer,920079,confidence_buffer,,null,,,,,,,,,,,,,,,,,,
1370.699999999255,,pt2_unique_rating,921451,US_Cities_List/mm_leesburg.png,,51,,,3,,,,,,,,,,,,,,,
null,,confidence_buffer,921555,confidence_buffer,,null,,,,,,,,,,,,,,,,,,
1024.2999999998137,,pt2_memorable_rating,922582,US_Cities_List/mm_leesburg.png,,53,,,5,,,,,,,,,,,,,,,
null,,confidence_buffer,922685,confidence_buffer,,null,,,,,,,,,,,,,,,,,,
669.0999999996275,,recognition_phase,923356,US_Cities_List/mm_leesburg.png,,49,,,,,,old,1,0.8888888888888888,,,,,,,,,,
null,,confidence_buffer,923459,confidence_buffer,,null,,,,,,,,,,,,,,,,,,
null,,thebreak,923961,break,,null,,,,,,,,,,,,,,,,,,
2333,,pt2_realistic_rating,926296,Fictional_Cities_List/img_manmade_06.png,,52,Fictional_Cities_List/img_manmade_06.png,MM,4,,,,,,,,,,,,,,,
null,,confidence_buffer,926400,confidence_buffer,,null,,,,,,,,,,,,,,,,,,
1327,,pt2_unique_rating,927729,Fictional_Cities_List/img_manmade_06.png,,51,,,3,,,,,,,,,,,,,,,
null,,confidence_buffer,927833,confidence_buffer,,null,,,,,,,,,,,,,,,,,,
2118.4000000003725,,pt2_memorable_rating,929953,Fictional_Cities_List/img_manmade_06.png,,53,,,5,,,,,,,,,,,,,,,
null,,confidence_buffer,930056,confidence_buffer,,null,,,,,,,,,,,,,,,,,,
809.6999999992549,,recognition_phase,930868,Fictional_Cities_List/img_manmade_06.png,,52,,,,,,new,1,0.8909090909090909,,,,,,,,,,
null,,confidence_buffer,930972,confidence_buffer,,null,,,,,,,,,,,,,,,,,,
null,,thebreak,931474,break,,null,,,,,,,,,,,,,,,,,,
2844.600000000559,,pt2_realistic_rating,934320,Fictional_Cities_List/img_natural_14.png,,52,Fictional_Cities_List/img_natural_14.png,NAT,4,,,,,,,,,,,,,,,
null,,confidence_buffer,934423,confidence_buffer,,null,,,,,,,,,,,,,,,,,,
1425.8999999994412,,pt2_unique_rating,935851,Fictional_Cities_List/img_natural_14.png,,50,,,2,,,,,,,,,,,,,,,
null,,confidence_buffer,935955,confidence_buffer,,null,,,,,,,,,,,,,,,,,,
1190.5,,pt2_memorable_rating,937147,Fictional_Cities_List/img_natural_14.png,,53,,,5,,,,,,,,,,,,,,,
null,,confidence_buffer,937251,confidence_buffer,,null,,,,,,,,,,,,,,,,,,
849,,recognition_phase,938102,Fictional_Cities_List/img_natural_14.png,,52,,,,,,new,1,0.8928571428571429,,,,,,,,,,
null,,confidence_buffer,938205,confidence_buffer,,null,,,,,,,,,,,,,,,,,,
null,,thebreak,938707,break,,null,,,,,,,,,,,,,,,,,,
4266.899999999441,,pt2_realistic_rating,942976,Fictional_Cities_List/img_natural_01.png,,52,Fictional_Cities_List/img_natural_01.png,NAT,4,,,,,,,,,,,,,,,
null,,confidence_buffer,943080,confidence_buffer,,null,,,,,,,,,,,,,,,,,,
1345.2999999998137,,pt2_unique_rating,944427,Fictional_Cities_List/img_natural_01.png,,51,,,3,,,,,,,,,,,,,,,
null,,confidence_buffer,944530,confidence_buffer,,null,,,,,,,,,,,,,,,,,,
1202.7000000001863,,pt2_memorable_rating,945735,Fictional_Cities_List/img_natural_01.png,,53,,,5,,,,,,,,,,,,,,,
null,,confidence_buffer,945839,confidence_buffer,,null,,,,,,,,,,,,,,,,,,
741.9000000003725,,recognition_phase,946583,Fictional_Cities_List/img_natural_01.png,,49,,,,,,old,0,0.8771929824561403,,,,,,,,,,
null,,confidence_buffer,946686,confidence_buffer,,null,,,,,,,,,,,,,,,,,,
null,,thebreak,947189,break,,null,,,,,,,,,,,,,,,,,,
2504.100000000559,,pt2_realistic_rating,949696,Fictional_Cities_List/img_natural_10.png,,51,Fictional_Cities_List/img_natural_10.png,NAT,3,,,,,,,,,,,,,,,
null,,confidence_buffer,949800,confidence_buffer,,null,,,,,,,,,,,,,,,,,,
1212.7000000001863,,pt2_unique_rating,951015,Fictional_Cities_List/img_natural_10.png,,51,,,3,,,,,,,,,,,,,,,
null,,confidence_buffer,951118,confidence_buffer,,null,,,,,,,,,,,,,,,,,,
1372.8999999994412,,pt2_memorable_rating,952493,Fictional_Cities_List/img_natural_10.png,,52,,,4,,,,,,,,,,,,,,,
null,,confidence_buffer,952596,confidence_buffer,,null,,,,,,,,,,,,,,,,,,
1712.1000000005588,,recognition_phase,954310,Fictional_Cities_List/img_natural_10.png,,52,,,,,,new,1,0.8793103448275862,,,,,,,,,,
null,,confidence_buffer,954413,confidence_buffer,,null,,,,,,,,,,,,,,,,,,
null,,thebreak,954916,break,,null,,,,,,,,,,,,,,,,,,
3871.7000000001863,,pt2_realistic_rating,958790,US_Cities_List/nat_delawarecity.png,,52,US_Cities_List/nat_delawarecity.png,NAT,4,,,,,,,,,,,,,,,
null,,confidence_buffer,958894,confidence_buffer,,null,,,,,,,,,,,,,,,,,,
1824.6000000005588,,pt2_unique_rating,960720,US_Cities_List/nat_delawarecity.png,,51,,,3,,,,,,,,,,,,,,,
null,,confidence_buffer,960824,confidence_buffer,,null,,,,,,,,,,,,,,,,,,
971.4000000003725,,pt2_memorable_rating,961797,US_Cities_List/nat_delawarecity.png,,53,,,5,,,,,,,,,,,,,,,
null,,confidence_buffer,961900,confidence_buffer,,null,,,,,,,,,,,,,,,,,,
1256.7000000001863,,recognition_phase,963159,US_Cities_List/nat_delawarecity.png,,52,,,,,,new,1,0.8813559322033898,,,,,,,,,,
null,,confidence_buffer,963263,confidence_buffer,,null,,,,,,,,,,,,,,,,,,
null,,thebreak,963765,break,,null,,,,,,,,,,,,,,,,,,
3477.5,,pt2_realistic_rating,967245,US_Cities_List/mm_sanantonio.png,,53,US_Cities_List/mm_sanantonio.png,MM,5,,,,,,,,,,,,,,,
null,,confidence_buffer,967349,confidence_buffer,,null,,,,,,,,,,,,,,,,,,
1304.5,,pt2_unique_rating,968656,US_Cities_List/mm_sanantonio.png,,51,,,3,,,,,,,,,,,,,,,
null,,confidence_buffer,968759,confidence_buffer,,null,,,,,,,,,,,,,,,,,,
1064.5,,pt2_memorable_rating,969826,US_Cities_List/mm_sanantonio.png,,53,,,5,,,,,,,,,,,,,,,
null,,confidence_buffer,969928,confidence_buffer,,null,,,,,,,,,,,,,,,,,,
830.2999999998137,,recognition_phase,970761,US_Cities_List/mm_sanantonio.png,,52,,,,,,new,1,0.8833333333333333,,,,,,,,,,
null,,confidence_buffer,970864,confidence_buffer,,null,,,,,,,,,,,,,,,,,,
null,,thebreak,971367,break,,null,,,,,,,,,,,,,,,,,,
,,survey,1548335,survey-questions,,,,,,,,,,,,0,NO i was only focusing on the task,i was on the task right from time and notice every picture in my head ,I rate the image based on familiarity. I was familiar with a lot of the image,i rated all the image in a memorable way because of the easy way i can remember everything ,i rated all the image in unique way because of being the only one of it kind, single or unparalleled,i rated all the image based on how they look real to me ,No i have not participate this particular task on any platform ,no the task was interesting and increase my knowledge of remembering things
