rt,responses,trial_type,time_elapsed,stimulus,button_pressed,key_press,name_trial,city_type,rating,probe,probe_accuracy,response,correct,accuracy,problems,smooth,distraction,strategies,familiar,memorable,unique,realistic,similar,comments
20736.200000047684,{worker_id:67db5621ad4dfa3eeb264e18},id_enter,20747,,,,,,,,,,,,,,,,,,,,,
17475.300000071526,,fullscreen,38232,fullscreen,0,,,,,,,,,,,,,,,,,,,
30055.100000023842,,intro_0,68292,instruct,,32,,,,,,,,,,,,,,,,,,
26719.200000047684,,intro_1,95015,instruct,,32,,,,,,,,,,,,,,,,,,
25449.899999976158,,intro_2,120467,instruct,,32,,,,,,,,,,,,,,,,,,
null,,instruct_dir_4,121971,instruct,,null,,,,,,,,,,,,,,,,,,
null,,thebreak,122474,break,,null,,,,,,,,,,,,,,,,,,
28674.399999976158,,familiar_rating,151152,US_Cities_List/mm_cleveland.png,,52,US_Cities_List/mm_cleveland.png,MM,4,,,,,,,,,,,,,,,
null,,confidence_buffer,151255,confidence_buffer,,null,,,,,,,,,,,,,,,,,,
9502.5,,unique_rating,160762,US_Cities_List/mm_cleveland.png,,51,,,3,,,,,,,,,,,,,,,
null,,confidence_buffer,160866,confidence_buffer,,null,,,,,,,,,,,,,,,,,,
5777.399999976158,,memorable_rating,166646,US_Cities_List/mm_cleveland.png,,52,,,4,,,,,,,,,,,,,,,
null,,confidence_buffer,166751,confidence_buffer,,null,,,,,,,,,,,,,,,,,,
null,,thebreak,167255,break,,null,,,,,,,,,,,,,,,,,,
12207.800000071526,,familiar_rating,179466,Fictional_Cities_List/img_natural_44.png,,49,Fictional_Cities_List/img_natural_44.png,NAT,1,,,,,,,,,,,,,,,
null,,confidence_buffer,179571,confidence_buffer,,null,,,,,,,,,,,,,,,,,,
6094.300000071526,,probe_rating,185669,probe_rating,,53,,,,5,1,,,,,,,,,,,,,
null,,confidence_buffer,185775,confidence_buffer,,null,,,,,,,,,,,,,,,,,,
6485.100000023842,,unique_rating,192264,Fictional_Cities_List/img_natural_44.png,,52,,,4,,,,,,,,,,,,,,,
null,,confidence_buffer,192368,confidence_buffer,,null,,,,,,,,,,,,,,,,,,
14597.300000071526,,memorable_rating,206968,Fictional_Cities_List/img_natural_44.png,,52,,,4,,,,,,,,,,,,,,,
null,,confidence_buffer,207071,confidence_buffer,,null,,,,,,,,,,,,,,,,,,
null,,thebreak,207574,break,,null,,,,,,,,,,,,,,,,,,
14508.700000047684,,familiar_rating,222085,Fictional_Cities_List/img_natural_24.png,,49,Fictional_Cities_List/img_natural_24.png,NAT,1,,,,,,,,,,,,,,,
null,,confidence_buffer,222187,confidence_buffer,,null,,,,,,,,,,,,,,,,,,
7492.200000047684,,unique_rating,229681,Fictional_Cities_List/img_natural_24.png,,53,,,5,,,,,,,,,,,,,,,
null,,confidence_buffer,229784,confidence_buffer,,null,,,,,,,,,,,,,,,,,,
16539.300000071526,,memorable_rating,246327,Fictional_Cities_List/img_natural_24.png,,51,,,3,,,,,,,,,,,,,,,
null,,confidence_buffer,246431,confidence_buffer,,null,,,,,,,,,,,,,,,,,,
null,,thebreak,246935,break,,null,,,,,,,,,,,,,,,,,,
10248.199999928474,,familiar_rating,257185,Fictional_Cities_List/img_manmade_45.png,,51,Fictional_Cities_List/img_manmade_45.png,MM,3,,,,,,,,,,,,,,,
null,,confidence_buffer,257287,confidence_buffer,,null,,,,,,,,,,,,,,,,,,
8967.100000023842,,unique_rating,266258,Fictional_Cities_List/img_manmade_45.png,,50,,,2,,,,,,,,,,,,,,,
null,,confidence_buffer,266361,confidence_buffer,,null,,,,,,,,,,,,,,,,,,
15275.100000023842,,memorable_rating,281639,Fictional_Cities_List/img_manmade_45.png,,52,,,4,,,,,,,,,,,,,,,
null,,confidence_buffer,281742,confidence_buffer,,null,,,,,,,,,,,,,,,,,,
null,,thebreak,282244,break,,null,,,,,,,,,,,,,,,,,,
12765.299999952316,,familiar_rating,295012,US_Cities_List/nat_coeurdalene.png,,50,US_Cities_List/nat_coeurdalene.png,NAT,2,,,,,,,,,,,,,,,
null,,confidence_buffer,295114,confidence_buffer,,null,,,,,,,,,,,,,,,,,,
10374.899999976158,,unique_rating,305491,US_Cities_List/nat_coeurdalene.png,,50,,,2,,,,,,,,,,,,,,,
null,,confidence_buffer,305603,confidence_buffer,,null,,,,,,,,,,,,,,,,,,
4428.5,,memorable_rating,310034,US_Cities_List/nat_coeurdalene.png,,51,,,3,,,,,,,,,,,,,,,
null,,confidence_buffer,310136,confidence_buffer,,null,,,,,,,,,,,,,,,,,,
null,,thebreak,310637,break,,null,,,,,,,,,,,,,,,,,,
12438.099999904633,,familiar_rating,323077,US_Cities_List/nat_sitka.png,,53,US_Cities_List/nat_sitka.png,NAT,5,,,,,,,,,,,,,,,
null,,confidence_buffer,323181,confidence_buffer,,null,,,,,,,,,,,,,,,,,,
11676.799999952316,,unique_rating,334860,US_Cities_List/nat_sitka.png,,51,,,3,,,,,,,,,,,,,,,
null,,confidence_buffer,334964,confidence_buffer,,null,,,,,,,,,,,,,,,,,,
5594.100000023842,,probe_rating,340561,probe_rating,,51,,,,3,1,,,,,,,,,,,,,
null,,confidence_buffer,340668,confidence_buffer,,null,,,,,,,,,,,,,,,,,,
7649.200000047684,,memorable_rating,348320,US_Cities_List/nat_sitka.png,,53,,,5,,,,,,,,,,,,,,,
null,,confidence_buffer,348423,confidence_buffer,,null,,,,,,,,,,,,,,,,,,
null,,thebreak,348925,break,,null,,,,,,,,,,,,,,,,,,
15311,,familiar_rating,364239,US_Cities_List/mm_hilo.png,,49,US_Cities_List/mm_hilo.png,MM,1,,,,,,,,,,,,,,,
null,,confidence_buffer,364343,confidence_buffer,,null,,,,,,,,,,,,,,,,,,
7975.299999952316,,unique_rating,372322,US_Cities_List/mm_hilo.png,,53,,,5,,,,,,,,,,,,,,,
null,,confidence_buffer,372425,confidence_buffer,,null,,,,,,,,,,,,,,,,,,
7157.799999952316,,memorable_rating,379586,US_Cities_List/mm_hilo.png,,52,,,4,,,,,,,,,,,,,,,
null,,confidence_buffer,379689,confidence_buffer,,null,,,,,,,,,,,,,,,,,,
16167.300000071526,,probe_rating,395860,probe_rating,,53,,,,5,1,,,,,,,,,,,,,
null,,confidence_buffer,395964,confidence_buffer,,null,,,,,,,,,,,,,,,,,,
null,,thebreak,396467,break,,null,,,,,,,,,,,,,,,,,,
19933.799999952316,,familiar_rating,416404,US_Cities_List/mm_sisters.png,,50,US_Cities_List/mm_sisters.png,MM,2,,,,,,,,,,,,,,,
null,,confidence_buffer,416507,confidence_buffer,,null,,,,,,,,,,,,,,,,,,
6177.100000023842,,unique_rating,422687,US_Cities_List/mm_sisters.png,,51,,,3,,,,,,,,,,,,,,,
null,,confidence_buffer,422792,confidence_buffer,,null,,,,,,,,,,,,,,,,,,
3250.0999999046326,,memorable_rating,426045,US_Cities_List/mm_sisters.png,,51,,,3,,,,,,,,,,,,,,,
null,,confidence_buffer,426149,confidence_buffer,,null,,,,,,,,,,,,,,,,,,
null,,thebreak,426652,break,,null,,,,,,,,,,,,,,,,,,
18683,,familiar_rating,445338,US_Cities_List/mm_berkeleysprings.png,,51,US_Cities_List/mm_berkeleysprings.png,MM,3,,,,,,,,,,,,,,,
null,,confidence_buffer,445442,confidence_buffer,,null,,,,,,,,,,,,,,,,,,
7599,,unique_rating,453044,US_Cities_List/mm_berkeleysprings.png,,52,,,4,,,,,,,,,,,,,,,
null,,confidence_buffer,453147,confidence_buffer,,null,,,,,,,,,,,,,,,,,,
6801.100000023842,,probe_rating,459950,probe_rating,,51,,,,3,1,,,,,,,,,,,,,
null,,confidence_buffer,460053,confidence_buffer,,null,,,,,,,,,,,,,,,,,,
4085.3000000715256,,memorable_rating,464142,US_Cities_List/mm_berkeleysprings.png,,52,,,4,,,,,,,,,,,,,,,
null,,confidence_buffer,464245,confidence_buffer,,null,,,,,,,,,,,,,,,,,,
null,,thebreak,464748,break,,null,,,,,,,,,,,,,,,,,,
13510.199999928474,,familiar_rating,478260,Fictional_Cities_List/img_natural_35.png,,52,Fictional_Cities_List/img_natural_35.png,NAT,4,,,,,,,,,,,,,,,
null,,confidence_buffer,478365,confidence_buffer,,null,,,,,,,,,,,,,,,,,,
10074.100000023842,,unique_rating,488442,Fictional_Cities_List/img_natural_35.png,,52,,,4,,,,,,,,,,,,,,,
null,,confidence_buffer,488545,confidence_buffer,,null,,,,,,,,,,,,,,,,,,
6273.5,,memorable_rating,494821,Fictional_Cities_List/img_natural_35.png,,51,,,3,,,,,,,,,,,,,,,
null,,confidence_buffer,494925,confidence_buffer,,null,,,,,,,,,,,,,,,,,,
null,,thebreak,495427,break,,null,,,,,,,,,,,,,,,,,,
9269.5,,familiar_rating,504699,Fictional_Cities_List/img_manmade_36.png,,49,Fictional_Cities_List/img_manmade_36.png,MM,1,,,,,,,,,,,,,,,
null,,confidence_buffer,504802,confidence_buffer,,null,,,,,,,,,,,,,,,,,,
5925.899999976158,,unique_rating,510731,Fictional_Cities_List/img_manmade_36.png,,53,,,5,,,,,,,,,,,,,,,
null,,confidence_buffer,510834,confidence_buffer,,null,,,,,,,,,,,,,,,,,,
5674.700000047684,,memorable_rating,516512,Fictional_Cities_List/img_manmade_36.png,,52,,,4,,,,,,,,,,,,,,,
null,,confidence_buffer,516616,confidence_buffer,,null,,,,,,,,,,,,,,,,,,
null,,thebreak,517119,break,,null,,,,,,,,,,,,,,,,,,
13454.899999976158,,familiar_rating,530576,US_Cities_List/nat_gatlinburg.png,,49,US_Cities_List/nat_gatlinburg.png,NAT,1,,,,,,,,,,,,,,,
null,,confidence_buffer,530680,confidence_buffer,,null,,,,,,,,,,,,,,,,,,
7924.899999976158,,unique_rating,538607,US_Cities_List/nat_gatlinburg.png,,53,,,5,,,,,,,,,,,,,,,
null,,confidence_buffer,538710,confidence_buffer,,null,,,,,,,,,,,,,,,,,,
7137.199999928474,,memorable_rating,545850,US_Cities_List/nat_gatlinburg.png,,52,,,4,,,,,,,,,,,,,,,
null,,confidence_buffer,545954,confidence_buffer,,null,,,,,,,,,,,,,,,,,,
null,,thebreak,546457,break,,null,,,,,,,,,,,,,,,,,,
10793.799999952316,,familiar_rating,557254,US_Cities_List/nat_athens.png,,50,US_Cities_List/nat_athens.png,NAT,2,,,,,,,,,,,,,,,
null,,confidence_buffer,557356,confidence_buffer,,null,,,,,,,,,,,,,,,,,,
6352.5,,unique_rating,563710,US_Cities_List/nat_athens.png,,50,,,2,,,,,,,,,,,,,,,
null,,confidence_buffer,563812,confidence_buffer,,null,,,,,,,,,,,,,,,,,,
4001,,memorable_rating,567816,US_Cities_List/nat_athens.png,,51,,,3,,,,,,,,,,,,,,,
null,,confidence_buffer,567920,confidence_buffer,,null,,,,,,,,,,,,,,,,,,
null,,thebreak,568423,break,,null,,,,,,,,,,,,,,,,,,
10882.200000047684,,familiar_rating,579308,US_Cities_List/mm_orr.png,,49,US_Cities_List/mm_orr.png,MM,1,,,,,,,,,,,,,,,
null,,confidence_buffer,579412,confidence_buffer,,null,,,,,,,,,,,,,,,,,,
4447.5,,unique_rating,583863,US_Cities_List/mm_orr.png,,52,,,4,,,,,,,,,,,,,,,
null,,confidence_buffer,583966,confidence_buffer,,null,,,,,,,,,,,,,,,,,,
4018.2000000476837,,memorable_rating,587987,US_Cities_List/mm_orr.png,,53,,,5,,,,,,,,,,,,,,,
null,,confidence_buffer,588090,confidence_buffer,,null,,,,,,,,,,,,,,,,,,
null,,thebreak,588593,break,,null,,,,,,,,,,,,,,,,,,
12003.5,,familiar_rating,600599,Fictional_Cities_List/img_natural_47.png,,51,Fictional_Cities_List/img_natural_47.png,NAT,3,,,,,,,,,,,,,,,
null,,confidence_buffer,600702,confidence_buffer,,null,,,,,,,,,,,,,,,,,,
6489.700000047684,,unique_rating,607194,Fictional_Cities_List/img_natural_47.png,,50,,,2,,,,,,,,,,,,,,,
null,,confidence_buffer,607296,confidence_buffer,,null,,,,,,,,,,,,,,,,,,
6757.100000023842,,memorable_rating,614056,Fictional_Cities_List/img_natural_47.png,,51,,,3,,,,,,,,,,,,,,,
null,,confidence_buffer,614159,confidence_buffer,,null,,,,,,,,,,,,,,,,,,
null,,thebreak,614661,break,,null,,,,,,,,,,,,,,,,,,
12182.199999928474,,familiar_rating,626846,Fictional_Cities_List/img_natural_39.png,,53,Fictional_Cities_List/img_natural_39.png,NAT,5,,,,,,,,,,,,,,,
null,,confidence_buffer,626951,confidence_buffer,,null,,,,,,,,,,,,,,,,,,
6527.399999976158,,unique_rating,633481,Fictional_Cities_List/img_natural_39.png,,51,,,3,,,,,,,,,,,,,,,
null,,confidence_buffer,633598,confidence_buffer,,null,,,,,,,,,,,,,,,,,,
5428,,memorable_rating,639030,Fictional_Cities_List/img_natural_39.png,,52,,,4,,,,,,,,,,,,,,,
null,,confidence_buffer,639133,confidence_buffer,,null,,,,,,,,,,,,,,,,,,
null,,thebreak,639636,break,,null,,,,,,,,,,,,,,,,,,
18168,,familiar_rating,657807,Fictional_Cities_List/img_manmade_04.png,,50,Fictional_Cities_List/img_manmade_04.png,MM,2,,,,,,,,,,,,,,,
null,,confidence_buffer,657911,confidence_buffer,,null,,,,,,,,,,,,,,,,,,
3651.5,,unique_rating,661565,Fictional_Cities_List/img_manmade_04.png,,52,,,4,,,,,,,,,,,,,,,
null,,confidence_buffer,661669,confidence_buffer,,null,,,,,,,,,,,,,,,,,,
4860.100000023842,,memorable_rating,666532,Fictional_Cities_List/img_manmade_04.png,,53,,,5,,,,,,,,,,,,,,,
null,,confidence_buffer,666635,confidence_buffer,,null,,,,,,,,,,,,,,,,,,
4161.100000023842,,probe_rating,670799,probe_rating,,50,,,,2,1,,,,,,,,,,,,,
null,,confidence_buffer,670904,confidence_buffer,,null,,,,,,,,,,,,,,,,,,
null,,thebreak,671407,break,,null,,,,,,,,,,,,,,,,,,
9323.899999976158,,familiar_rating,680734,US_Cities_List/nat_sisters.png,,49,US_Cities_List/nat_sisters.png,NAT,1,,,,,,,,,,,,,,,
null,,confidence_buffer,680836,confidence_buffer,,null,,,,,,,,,,,,,,,,,,
4027.7999999523163,,unique_rating,684867,US_Cities_List/nat_sisters.png,,52,,,4,,,,,,,,,,,,,,,
null,,confidence_buffer,684971,confidence_buffer,,null,,,,,,,,,,,,,,,,,,
3012.399999976158,,memorable_rating,687986,US_Cities_List/nat_sisters.png,,51,,,3,,,,,,,,,,,,,,,
null,,confidence_buffer,688089,confidence_buffer,,null,,,,,,,,,,,,,,,,,,
null,,thebreak,688592,break,,null,,,,,,,,,,,,,,,,,,
13301.5,,familiar_rating,701897,US_Cities_List/nat_livingston.png,,49,US_Cities_List/nat_livingston.png,NAT,1,,,,,,,,,,,,,,,
null,,confidence_buffer,702001,confidence_buffer,,null,,,,,,,,,,,,,,,,,,
7078,,unique_rating,709082,US_Cities_List/nat_livingston.png,,52,,,4,,,,,,,,,,,,,,,
null,,confidence_buffer,709186,confidence_buffer,,null,,,,,,,,,,,,,,,,,,
2290.2999999523163,,memorable_rating,711478,US_Cities_List/nat_livingston.png,,51,,,3,,,,,,,,,,,,,,,
null,,confidence_buffer,711582,confidence_buffer,,null,,,,,,,,,,,,,,,,,,
null,,thebreak,712084,break,,null,,,,,,,,,,,,,,,,,,
12748.399999976158,,familiar_rating,724836,Fictional_Cities_List/img_manmade_47.png,,49,Fictional_Cities_List/img_manmade_47.png,MM,1,,,,,,,,,,,,,,,
null,,confidence_buffer,724939,confidence_buffer,,null,,,,,,,,,,,,,,,,,,
4550.100000023842,,probe_rating,729491,probe_rating,,52,,,,4,1,,,,,,,,,,,,,
null,,confidence_buffer,729594,confidence_buffer,,null,,,,,,,,,,,,,,,,,,
6466.100000023842,,unique_rating,736063,Fictional_Cities_List/img_manmade_47.png,,52,,,4,,,,,,,,,,,,,,,
null,,confidence_buffer,736166,confidence_buffer,,null,,,,,,,,,,,,,,,,,,
3897.399999976158,,memorable_rating,740064,Fictional_Cities_List/img_manmade_47.png,,52,,,4,,,,,,,,,,,,,,,
null,,confidence_buffer,740165,confidence_buffer,,null,,,,,,,,,,,,,,,,,,
null,,thebreak,740666,break,,null,,,,,,,,,,,,,,,,,,
13462.100000023842,,familiar_rating,754131,US_Cities_List/mm_yukon.png,,49,US_Cities_List/mm_yukon.png,MM,1,,,,,,,,,,,,,,,
null,,confidence_buffer,754235,confidence_buffer,,null,,,,,,,,,,,,,,,,,,
5428,,unique_rating,759667,US_Cities_List/mm_yukon.png,,50,,,2,,,,,,,,,,,,,,,
null,,confidence_buffer,759771,confidence_buffer,,null,,,,,,,,,,,,,,,,,,
7824.800000071526,,memorable_rating,767599,US_Cities_List/mm_yukon.png,,52,,,4,,,,,,,,,,,,,,,
null,,confidence_buffer,767703,confidence_buffer,,null,,,,,,,,,,,,,,,,,,
null,,thebreak,768204,break,,null,,,,,,,,,,,,,,,,,,
11926.700000047684,,familiar_rating,780132,Fictional_Cities_List/img_manmade_44.png,,50,Fictional_Cities_List/img_manmade_44.png,MM,2,,,,,,,,,,,,,,,
null,,confidence_buffer,780234,confidence_buffer,,null,,,,,,,,,,,,,,,,,,
5263.300000071526,,unique_rating,785501,Fictional_Cities_List/img_manmade_44.png,,53,,,5,,,,,,,,,,,,,,,
null,,confidence_buffer,785604,confidence_buffer,,null,,,,,,,,,,,,,,,,,,
3637.100000023842,,memorable_rating,789244,Fictional_Cities_List/img_manmade_44.png,,52,,,4,,,,,,,,,,,,,,,
null,,confidence_buffer,789347,confidence_buffer,,null,,,,,,,,,,,,,,,,,,
null,,thebreak,789850,break,,null,,,,,,,,,,,,,,,,,,
13015.199999928474,,familiar_rating,802868,Fictional_Cities_List/img_natural_06.png,,49,Fictional_Cities_List/img_natural_06.png,NAT,1,,,,,,,,,,,,,,,
null,,confidence_buffer,802973,confidence_buffer,,null,,,,,,,,,,,,,,,,,,
4600,,unique_rating,807576,Fictional_Cities_List/img_natural_06.png,,52,,,4,,,,,,,,,,,,,,,
null,,confidence_buffer,807679,confidence_buffer,,null,,,,,,,,,,,,,,,,,,
3364,,memorable_rating,811046,Fictional_Cities_List/img_natural_06.png,,52,,,4,,,,,,,,,,,,,,,
null,,confidence_buffer,811149,confidence_buffer,,null,,,,,,,,,,,,,,,,,,
null,,thebreak,811654,break,,null,,,,,,,,,,,,,,,,,,
12723.399999976158,,familiar_rating,824381,US_Cities_List/mm_shreveport.png,,51,US_Cities_List/mm_shreveport.png,MM,3,,,,,,,,,,,,,,,
null,,confidence_buffer,824484,confidence_buffer,,null,,,,,,,,,,,,,,,,,,
6561.799999952316,,unique_rating,831049,US_Cities_List/mm_shreveport.png,,50,,,2,,,,,,,,,,,,,,,
null,,confidence_buffer,831152,confidence_buffer,,null,,,,,,,,,,,,,,,,,,
4133.700000047684,,memorable_rating,835288,US_Cities_List/mm_shreveport.png,,51,,,3,,,,,,,,,,,,,,,
null,,confidence_buffer,835391,confidence_buffer,,null,,,,,,,,,,,,,,,,,,
null,,thebreak,835894,break,,null,,,,,,,,,,,,,,,,,,
13140.5,,familiar_rating,849038,Fictional_Cities_List/img_natural_41.png,,50,Fictional_Cities_List/img_natural_41.png,NAT,2,,,,,,,,,,,,,,,
null,,confidence_buffer,849142,confidence_buffer,,null,,,,,,,,,,,,,,,,,,
3879.7999999523163,,unique_rating,853025,Fictional_Cities_List/img_natural_41.png,,51,,,3,,,,,,,,,,,,,,,
null,,confidence_buffer,853130,confidence_buffer,,null,,,,,,,,,,,,,,,,,,
6608.299999952316,,memorable_rating,859741,Fictional_Cities_List/img_natural_41.png,,53,,,5,,,,,,,,,,,,,,,
null,,confidence_buffer,859844,confidence_buffer,,null,,,,,,,,,,,,,,,,,,
5408.600000023842,,probe_rating,865255,probe_rating,,53,,,,5,1,,,,,,,,,,,,,
null,,confidence_buffer,865365,confidence_buffer,,null,,,,,,,,,,,,,,,,,,
null,,thebreak,865867,break,,null,,,,,,,,,,,,,,,,,,
12938.899999976158,,familiar_rating,878808,Fictional_Cities_List/img_manmade_06.png,,49,Fictional_Cities_List/img_manmade_06.png,MM,1,,,,,,,,,,,,,,,
null,,confidence_buffer,878912,confidence_buffer,,null,,,,,,,,,,,,,,,,,,
3778.899999976158,,unique_rating,882693,Fictional_Cities_List/img_manmade_06.png,,51,,,3,,,,,,,,,,,,,,,
null,,confidence_buffer,882796,confidence_buffer,,null,,,,,,,,,,,,,,,,,,
4678.700000047684,,memorable_rating,887478,Fictional_Cities_List/img_manmade_06.png,,51,,,3,,,,,,,,,,,,,,,
null,,confidence_buffer,887580,confidence_buffer,,null,,,,,,,,,,,,,,,,,,
null,,thebreak,888082,break,,null,,,,,,,,,,,,,,,,,,
11529.100000023842,,familiar_rating,899615,Fictional_Cities_List/img_natural_36.png,,51,Fictional_Cities_List/img_natural_36.png,NAT,3,,,,,,,,,,,,,,,
null,,confidence_buffer,899719,confidence_buffer,,null,,,,,,,,,,,,,,,,,,
15986.399999976158,,unique_rating,915707,Fictional_Cities_List/img_natural_36.png,,49,,,1,,,,,,,,,,,,,,,
null,,confidence_buffer,915811,confidence_buffer,,null,,,,,,,,,,,,,,,,,,
4494.399999976158,,memorable_rating,920308,Fictional_Cities_List/img_natural_36.png,,51,,,3,,,,,,,,,,,,,,,
null,,confidence_buffer,920411,confidence_buffer,,null,,,,,,,,,,,,,,,,,,
null,,thebreak,920914,break,,null,,,,,,,,,,,,,,,,,,
10795.599999904633,,familiar_rating,931712,US_Cities_List/mm_athens.png,,52,US_Cities_List/mm_athens.png,MM,4,,,,,,,,,,,,,,,
null,,confidence_buffer,931815,confidence_buffer,,null,,,,,,,,,,,,,,,,,,
6064.100000023842,,unique_rating,937881,US_Cities_List/mm_athens.png,,52,,,4,,,,,,,,,,,,,,,
null,,confidence_buffer,937985,confidence_buffer,,null,,,,,,,,,,,,,,,,,,
4883.800000071526,,memorable_rating,942871,US_Cities_List/mm_athens.png,,52,,,4,,,,,,,,,,,,,,,
null,,confidence_buffer,942974,confidence_buffer,,null,,,,,,,,,,,,,,,,,,
null,,thebreak,943476,break,,null,,,,,,,,,,,,,,,,,,
14439.600000023842,,familiar_rating,957919,Fictional_Cities_List/img_manmade_24.png,,49,Fictional_Cities_List/img_manmade_24.png,MM,1,,,,,,,,,,,,,,,
null,,confidence_buffer,958023,confidence_buffer,,null,,,,,,,,,,,,,,,,,,
7285.600000023842,,unique_rating,965311,Fictional_Cities_List/img_manmade_24.png,,51,,,3,,,,,,,,,,,,,,,
null,,confidence_buffer,965414,confidence_buffer,,null,,,,,,,,,,,,,,,,,,
5129.599999904633,,memorable_rating,970547,Fictional_Cities_List/img_manmade_24.png,,53,,,5,,,,,,,,,,,,,,,
null,,confidence_buffer,970651,confidence_buffer,,null,,,,,,,,,,,,,,,,,,
null,,thebreak,971154,break,,null,,,,,,,,,,,,,,,,,,
11129.100000023842,,familiar_rating,982285,US_Cities_List/nat_parkcity.png,,52,US_Cities_List/nat_parkcity.png,NAT,4,,,,,,,,,,,,,,,
null,,confidence_buffer,982388,confidence_buffer,,null,,,,,,,,,,,,,,,,,,
4033.399999976158,,unique_rating,986423,US_Cities_List/nat_parkcity.png,,51,,,3,,,,,,,,,,,,,,,
null,,confidence_buffer,986525,confidence_buffer,,null,,,,,,,,,,,,,,,,,,
3647.399999976158,,memorable_rating,990174,US_Cities_List/nat_parkcity.png,,52,,,4,,,,,,,,,,,,,,,
null,,confidence_buffer,990276,confidence_buffer,,null,,,,,,,,,,,,,,,,,,
null,,thebreak,990779,break,,null,,,,,,,,,,,,,,,,,,
25361,,intro_0,1016142,instruct,,32,,,,,,,,,,,,,,,,,,
34972.90000009537,,intro_1,1051116,instruct,,32,,,,,,,,,,,,,,,,,,
53072.5,,intro_2,1104189,instruct,,32,,,,,,,,,,,,,,,,,,
null,,instruct_dir_4,1105692,instruct,,null,,,,,,,,,,,,,,,,,,
25424,,pt2_realistic_rating,1131119,US_Cities_List/mm_sitka.png,,50,US_Cities_List/mm_sitka.png,MM,2,,,,,,,,,,,,,,,
null,,confidence_buffer,1131221,confidence_buffer,,null,,,,,,,,,,,,,,,,,,
5364.299999952316,,pt2_unique_rating,1136589,US_Cities_List/mm_sitka.png,,51,,,3,,,,,,,,,,,,,,,
null,,confidence_buffer,1136692,confidence_buffer,,null,,,,,,,,,,,,,,,,,,
4111.199999928474,,pt2_memorable_rating,1140806,US_Cities_List/mm_sitka.png,,52,,,4,,,,,,,,,,,,,,,
null,,confidence_buffer,1140919,confidence_buffer,,null,,,,,,,,,,,,,,,,,,
6736.799999952316,,recognition_phase,1147659,US_Cities_List/mm_sitka.png,,52,,,,,,new,1,1,,,,,,,,,,
null,,confidence_buffer,1147762,confidence_buffer,,null,,,,,,,,,,,,,,,,,,
null,,thebreak,1148264,break,,null,,,,,,,,,,,,,,,,,,
20043.600000023842,,pt2_realistic_rating,1168311,Fictional_Cities_List/img_natural_44.png,,52,Fictional_Cities_List/img_natural_44.png,NAT,4,,,,,,,,,,,,,,,
null,,confidence_buffer,1168415,confidence_buffer,,null,,,,,,,,,,,,,,,,,,
5516.199999928474,,pt2_unique_rating,1173934,Fictional_Cities_List/img_natural_44.png,,51,,,3,,,,,,,,,,,,,,,
null,,confidence_buffer,1174039,confidence_buffer,,null,,,,,,,,,,,,,,,,,,
4325.300000071526,,pt2_memorable_rating,1178367,Fictional_Cities_List/img_natural_44.png,,52,,,4,,,,,,,,,,,,,,,
null,,confidence_buffer,1178472,confidence_buffer,,null,,,,,,,,,,,,,,,,,,
4231.299999952316,,recognition_phase,1182706,Fictional_Cities_List/img_natural_44.png,,49,,,,,,old,1,1,,,,,,,,,,
null,,confidence_buffer,1182810,confidence_buffer,,null,,,,,,,,,,,,,,,,,,
null,,thebreak,1183315,break,,null,,,,,,,,,,,,,,,,,,
13179.899999976158,,pt2_realistic_rating,1196497,Fictional_Cities_List/img_natural_45.png,,52,Fictional_Cities_List/img_natural_45.png,NAT,4,,,,,,,,,,,,,,,
null,,confidence_buffer,1196600,confidence_buffer,,null,,,,,,,,,,,,,,,,,,
4884.600000023842,,pt2_unique_rating,1201486,Fictional_Cities_List/img_natural_45.png,,53,,,5,,,,,,,,,,,,,,,
null,,confidence_buffer,1201589,confidence_buffer,,null,,,,,,,,,,,,,,,,,,
3573.2000000476837,,pt2_memorable_rating,1205164,Fictional_Cities_List/img_natural_45.png,,52,,,4,,,,,,,,,,,,,,,
null,,confidence_buffer,1205267,confidence_buffer,,null,,,,,,,,,,,,,,,,,,
19914.600000023842,,recognition_phase,1225184,Fictional_Cities_List/img_natural_45.png,,52,,,,,,new,1,1,,,,,,,,,,
null,,confidence_buffer,1225287,confidence_buffer,,null,,,,,,,,,,,,,,,,,,
null,,thebreak,1225790,break,,null,,,,,,,,,,,,,,,,,,
27248.299999952316,,pt2_realistic_rating,1253042,Fictional_Cities_List/img_natural_39.png,,53,Fictional_Cities_List/img_natural_39.png,NAT,5,,,,,,,,,,,,,,,
null,,confidence_buffer,1253145,confidence_buffer,,null,,,,,,,,,,,,,,,,,,
4775.799999952316,,pt2_unique_rating,1257924,Fictional_Cities_List/img_natural_39.png,,51,,,3,,,,,,,,,,,,,,,
null,,confidence_buffer,1258026,confidence_buffer,,null,,,,,,,,,,,,,,,,,,
2834.899999976158,,pt2_memorable_rating,1260864,Fictional_Cities_List/img_natural_39.png,,52,,,4,,,,,,,,,,,,,,,
null,,confidence_buffer,1260967,confidence_buffer,,null,,,,,,,,,,,,,,,,,,
3252.600000023842,,recognition_phase,1264223,Fictional_Cities_List/img_natural_39.png,,49,,,,,,old,1,1,,,,,,,,,,
null,,confidence_buffer,1264326,confidence_buffer,,null,,,,,,,,,,,,,,,,,,
null,,thebreak,1264828,break,,null,,,,,,,,,,,,,,,,,,
38270.700000047684,,pt2_realistic_rating,1303102,Fictional_Cities_List/img_manmade_20.png,,52,Fictional_Cities_List/img_manmade_20.png,MM,4,,,,,,,,,,,,,,,
null,,confidence_buffer,1303206,confidence_buffer,,null,,,,,,,,,,,,,,,,,,
6979.299999952316,,pt2_unique_rating,1310186,Fictional_Cities_List/img_manmade_20.png,,52,,,4,,,,,,,,,,,,,,,
null,,confidence_buffer,1310289,confidence_buffer,,null,,,,,,,,,,,,,,,,,,
2513.1999999284744,,pt2_memorable_rating,1312805,Fictional_Cities_List/img_manmade_20.png,,51,,,3,,,,,,,,,,,,,,,
null,,confidence_buffer,1312908,confidence_buffer,,null,,,,,,,,,,,,,,,,,,
15900.700000047684,,recognition_phase,1328812,Fictional_Cities_List/img_manmade_20.png,,51,,,,,,new,1,1,,,,,,,,,,
null,,confidence_buffer,1328915,confidence_buffer,,null,,,,,,,,,,,,,,,,,,
null,,thebreak,1329418,break,,null,,,,,,,,,,,,,,,,,,
8148.400000095367,,pt2_realistic_rating,1337569,US_Cities_List/nat_coeurdalene.png,,51,US_Cities_List/nat_coeurdalene.png,NAT,3,,,,,,,,,,,,,,,
null,,confidence_buffer,1337673,confidence_buffer,,null,,,,,,,,,,,,,,,,,,
3601.399999976158,,pt2_unique_rating,1341277,US_Cities_List/nat_coeurdalene.png,,50,,,2,,,,,,,,,,,,,,,
null,,confidence_buffer,1341381,confidence_buffer,,null,,,,,,,,,,,,,,,,,,
48864.60000002384,,pt2_memorable_rating,1390249,US_Cities_List/nat_coeurdalene.png,,52,,,4,,,,,,,,,,,,,,,
null,,confidence_buffer,1390351,confidence_buffer,,null,,,,,,,,,,,,,,,,,,
4469.199999928474,,recognition_phase,1394822,US_Cities_List/nat_coeurdalene.png,,49,,,,,,old,1,1,,,,,,,,,,
null,,confidence_buffer,1394926,confidence_buffer,,null,,,,,,,,,,,,,,,,,,
null,,thebreak,1395429,break,,null,,,,,,,,,,,,,,,,,,
6141.600000023842,,pt2_realistic_rating,1401574,Fictional_Cities_List/img_manmade_16.png,,50,Fictional_Cities_List/img_manmade_16.png,MM,2,,,,,,,,,,,,,,,
null,,confidence_buffer,1401677,confidence_buffer,,null,,,,,,,,,,,,,,,,,,
3369.2999999523163,,probe_rating,1405050,probe_rating,,52,,,,4,1,,,,,,,,,,,,,
null,,confidence_buffer,1405168,confidence_buffer,,null,,,,,,,,,,,,,,,,,,
3425.899999976158,,pt2_unique_rating,1408595,Fictional_Cities_List/img_manmade_16.png,,52,,,4,,,,,,,,,,,,,,,
null,,confidence_buffer,1408699,confidence_buffer,,null,,,,,,,,,,,,,,,,,,
2507.1999999284744,,pt2_memorable_rating,1411208,Fictional_Cities_List/img_manmade_16.png,,52,,,4,,,,,,,,,,,,,,,
null,,confidence_buffer,1411309,confidence_buffer,,null,,,,,,,,,,,,,,,,,,
19122.399999976158,,recognition_phase,1430434,Fictional_Cities_List/img_manmade_16.png,,52,,,,,,new,1,1,,,,,,,,,,
null,,confidence_buffer,1430538,confidence_buffer,,null,,,,,,,,,,,,,,,,,,
null,,thebreak,1431041,break,,null,,,,,,,,,,,,,,,,,,
10823.100000023842,,pt2_realistic_rating,1441867,US_Cities_List/mm_shreveport.png,,51,US_Cities_List/mm_shreveport.png,MM,3,,,,,,,,,,,,,,,
null,,confidence_buffer,1441971,confidence_buffer,,null,,,,,,,,,,,,,,,,,,
3743.2999999523163,,pt2_unique_rating,1445717,US_Cities_List/mm_shreveport.png,,51,,,3,,,,,,,,,,,,,,,
null,,confidence_buffer,1445820,confidence_buffer,,null,,,,,,,,,,,,,,,,,,
3163.9000000953674,,pt2_memorable_rating,1448987,US_Cities_List/mm_shreveport.png,,52,,,4,,,,,,,,,,,,,,,
null,,confidence_buffer,1449091,confidence_buffer,,null,,,,,,,,,,,,,,,,,,
2778,,recognition_phase,1451872,US_Cities_List/mm_shreveport.png,,49,,,,,,old,1,1,,,,,,,,,,
null,,confidence_buffer,1451976,confidence_buffer,,null,,,,,,,,,,,,,,,,,,
null,,thebreak,1452479,break,,null,,,,,,,,,,,,,,,,,,
24091.5,,pt2_realistic_rating,1476573,Fictional_Cities_List/img_manmade_06.png,,52,Fictional_Cities_List/img_manmade_06.png,MM,4,,,,,,,,,,,,,,,
null,,confidence_buffer,1476676,confidence_buffer,,null,,,,,,,,,,,,,,,,,,
4273.600000023842,,pt2_unique_rating,1480952,Fictional_Cities_List/img_manmade_06.png,,50,,,2,,,,,,,,,,,,,,,
null,,confidence_buffer,1481055,confidence_buffer,,null,,,,,,,,,,,,,,,,,,
2239.7999999523163,,pt2_memorable_rating,1483298,Fictional_Cities_List/img_manmade_06.png,,51,,,3,,,,,,,,,,,,,,,
null,,confidence_buffer,1483402,confidence_buffer,,null,,,,,,,,,,,,,,,,,,
2815.1999999284744,,recognition_phase,1486220,Fictional_Cities_List/img_manmade_06.png,,49,,,,,,old,1,1,,,,,,,,,,
null,,confidence_buffer,1486322,confidence_buffer,,null,,,,,,,,,,,,,,,,,,
null,,thebreak,1486825,break,,null,,,,,,,,,,,,,,,,,,
7222.700000047684,,pt2_realistic_rating,1494051,Fictional_Cities_List/img_manmade_35.png,,49,Fictional_Cities_List/img_manmade_35.png,MM,1,,,,,,,,,,,,,,,
null,,confidence_buffer,1494154,confidence_buffer,,null,,,,,,,,,,,,,,,,,,
5266.899999976158,,pt2_unique_rating,1499423,Fictional_Cities_List/img_manmade_35.png,,52,,,4,,,,,,,,,,,,,,,
null,,confidence_buffer,1499526,confidence_buffer,,null,,,,,,,,,,,,,,,,,,
3695.5,,pt2_memorable_rating,1503223,Fictional_Cities_List/img_manmade_35.png,,53,,,5,,,,,,,,,,,,,,,
null,,confidence_buffer,1503326,confidence_buffer,,null,,,,,,,,,,,,,,,,,,
2672.0999999046326,,recognition_phase,1506001,Fictional_Cities_List/img_manmade_35.png,,52,,,,,,new,1,1,,,,,,,,,,
null,,confidence_buffer,1506104,confidence_buffer,,null,,,,,,,,,,,,,,,,,,
null,,thebreak,1506606,break,,null,,,,,,,,,,,,,,,,,,
5094.100000023842,,pt2_realistic_rating,1511703,US_Cities_List/nat_delawarecity.png,,53,US_Cities_List/nat_delawarecity.png,NAT,5,,,,,,,,,,,,,,,
null,,confidence_buffer,1511808,confidence_buffer,,null,,,,,,,,,,,,,,,,,,
4501.699999928474,,pt2_unique_rating,1516313,US_Cities_List/nat_delawarecity.png,,52,,,4,,,,,,,,,,,,,,,
null,,confidence_buffer,1516418,confidence_buffer,,null,,,,,,,,,,,,,,,,,,
2146.899999976158,,pt2_memorable_rating,1518568,US_Cities_List/nat_delawarecity.png,,52,,,4,,,,,,,,,,,,,,,
null,,confidence_buffer,1518670,confidence_buffer,,null,,,,,,,,,,,,,,,,,,
2932.3000000715256,,recognition_phase,1521604,US_Cities_List/nat_delawarecity.png,,52,,,,,,new,1,1,,,,,,,,,,
null,,confidence_buffer,1521708,confidence_buffer,,null,,,,,,,,,,,,,,,,,,
null,,thebreak,1522211,break,,null,,,,,,,,,,,,,,,,,,
14016,,pt2_realistic_rating,1536228,US_Cities_List/mm_cleveland.png,,53,US_Cities_List/mm_cleveland.png,MM,5,,,,,,,,,,,,,,,
null,,confidence_buffer,1536331,confidence_buffer,,null,,,,,,,,,,,,,,,,,,
4266.200000047684,,pt2_unique_rating,1540600,US_Cities_List/mm_cleveland.png,,52,,,4,,,,,,,,,,,,,,,
null,,confidence_buffer,1540704,confidence_buffer,,null,,,,,,,,,,,,,,,,,,
4180,,pt2_memorable_rating,1544887,US_Cities_List/mm_cleveland.png,,53,,,5,,,,,,,,,,,,,,,
null,,confidence_buffer,1544989,confidence_buffer,,null,,,,,,,,,,,,,,,,,,
2456.4000000953674,,recognition_phase,1547448,US_Cities_List/mm_cleveland.png,,49,,,,,,old,1,1,,,,,,,,,,
null,,confidence_buffer,1547551,confidence_buffer,,null,,,,,,,,,,,,,,,,,,
null,,thebreak,1548054,break,,null,,,,,,,,,,,,,,,,,,
20569.100000023842,,pt2_realistic_rating,1568625,US_Cities_List/nat_sisters.png,,50,US_Cities_List/nat_sisters.png,NAT,2,,,,,,,,,,,,,,,
null,,confidence_buffer,1568731,confidence_buffer,,null,,,,,,,,,,,,,,,,,,
4502.399999976158,,pt2_unique_rating,1573237,US_Cities_List/nat_sisters.png,,50,,,2,,,,,,,,,,,,,,,
null,,confidence_buffer,1573341,confidence_buffer,,null,,,,,,,,,,,,,,,,,,
2413.7999999523163,,pt2_memorable_rating,1575758,US_Cities_List/nat_sisters.png,,52,,,4,,,,,,,,,,,,,,,
null,,confidence_buffer,1575861,confidence_buffer,,null,,,,,,,,,,,,,,,,,,
2772.600000023842,,probe_rating,1578637,probe_rating,,52,,,,4,1,,,,,,,,,,,,,
null,,confidence_buffer,1578742,confidence_buffer,,null,,,,,,,,,,,,,,,,,,
2346.3000000715256,,recognition_phase,1581091,US_Cities_List/nat_sisters.png,,49,,,,,,old,1,1,,,,,,,,,,
null,,confidence_buffer,1581194,confidence_buffer,,null,,,,,,,,,,,,,,,,,,
null,,thebreak,1581697,break,,null,,,,,,,,,,,,,,,,,,
13092.199999928474,,pt2_realistic_rating,1594792,Fictional_Cities_List/img_natural_06.png,,49,Fictional_Cities_List/img_natural_06.png,NAT,1,,,,,,,,,,,,,,,
null,,confidence_buffer,1594896,confidence_buffer,,null,,,,,,,,,,,,,,,,,,
5021.699999928474,,pt2_unique_rating,1599920,Fictional_Cities_List/img_natural_06.png,,52,,,4,,,,,,,,,,,,,,,
null,,confidence_buffer,1600025,confidence_buffer,,null,,,,,,,,,,,,,,,,,,
2872.2999999523163,,pt2_memorable_rating,1602900,Fictional_Cities_List/img_natural_06.png,,52,,,4,,,,,,,,,,,,,,,
null,,confidence_buffer,1603003,confidence_buffer,,null,,,,,,,,,,,,,,,,,,
1960.7999999523163,,recognition_phase,1604967,Fictional_Cities_List/img_natural_06.png,,49,,,,,,old,1,1,,,,,,,,,,
null,,confidence_buffer,1605069,confidence_buffer,,null,,,,,,,,,,,,,,,,,,
null,,thebreak,1605570,break,,null,,,,,,,,,,,,,,,,,,
17166.300000071526,,pt2_realistic_rating,1622739,US_Cities_List/nat_medora.png,,51,US_Cities_List/nat_medora.png,NAT,3,,,,,,,,,,,,,,,
null,,confidence_buffer,1622847,confidence_buffer,,null,,,,,,,,,,,,,,,,,,
2818.899999976158,,pt2_unique_rating,1625669,US_Cities_List/nat_medora.png,,52,,,4,,,,,,,,,,,,,,,
null,,confidence_buffer,1625787,confidence_buffer,,null,,,,,,,,,,,,,,,,,,
2300.4000000953674,,pt2_memorable_rating,1628091,US_Cities_List/nat_medora.png,,52,,,4,,,,,,,,,,,,,,,
null,,confidence_buffer,1628193,confidence_buffer,,null,,,,,,,,,,,,,,,,,,
3397.600000023842,,recognition_phase,1631593,US_Cities_List/nat_medora.png,,52,,,,,,new,1,1,,,,,,,,,,
null,,confidence_buffer,1631697,confidence_buffer,,null,,,,,,,,,,,,,,,,,,
null,,thebreak,1632199,break,,null,,,,,,,,,,,,,,,,,,
10683.900000095367,,pt2_realistic_rating,1642885,US_Cities_List/mm_orr.png,,52,US_Cities_List/mm_orr.png,MM,4,,,,,,,,,,,,,,,
null,,confidence_buffer,1642988,confidence_buffer,,null,,,,,,,,,,,,,,,,,,
2586.6999999284744,,pt2_unique_rating,1645578,US_Cities_List/mm_orr.png,,52,,,4,,,,,,,,,,,,,,,
null,,confidence_buffer,1645681,confidence_buffer,,null,,,,,,,,,,,,,,,,,,
2900.899999976158,,pt2_memorable_rating,1648585,US_Cities_List/mm_orr.png,,53,,,5,,,,,,,,,,,,,,,
null,,confidence_buffer,1648688,confidence_buffer,,null,,,,,,,,,,,,,,,,,,
1800.7999999523163,,recognition_phase,1650492,US_Cities_List/mm_orr.png,,49,,,,,,old,1,1,,,,,,,,,,
null,,confidence_buffer,1650596,confidence_buffer,,null,,,,,,,,,,,,,,,,,,
null,,thebreak,1651099,break,,null,,,,,,,,,,,,,,,,,,
8610.299999952316,,pt2_realistic_rating,1659712,Fictional_Cities_List/img_natural_16.png,,50,Fictional_Cities_List/img_natural_16.png,NAT,2,,,,,,,,,,,,,,,
null,,confidence_buffer,1659830,confidence_buffer,,null,,,,,,,,,,,,,,,,,,
2803.600000023842,,pt2_unique_rating,1662637,Fictional_Cities_List/img_natural_16.png,,52,,,4,,,,,,,,,,,,,,,
null,,confidence_buffer,1662740,confidence_buffer,,null,,,,,,,,,,,,,,,,,,
2389.5,,pt2_memorable_rating,1665133,Fictional_Cities_List/img_natural_16.png,,53,,,5,,,,,,,,,,,,,,,
null,,confidence_buffer,1665236,confidence_buffer,,null,,,,,,,,,,,,,,,,,,
3374.5,,recognition_phase,1668614,Fictional_Cities_List/img_natural_16.png,,52,,,,,,new,1,1,,,,,,,,,,
null,,confidence_buffer,1668718,confidence_buffer,,null,,,,,,,,,,,,,,,,,,
null,,thebreak,1669221,break,,null,,,,,,,,,,,,,,,,,,
8488.5,,pt2_realistic_rating,1677712,Fictional_Cities_List/img_natural_41.png,,53,Fictional_Cities_List/img_natural_41.png,NAT,5,,,,,,,,,,,,,,,
null,,confidence_buffer,1677816,confidence_buffer,,null,,,,,,,,,,,,,,,,,,
3719.3000000715256,,pt2_unique_rating,1681538,Fictional_Cities_List/img_natural_41.png,,52,,,4,,,,,,,,,,,,,,,
null,,confidence_buffer,1681643,confidence_buffer,,null,,,,,,,,,,,,,,,,,,
3385.100000023842,,pt2_memorable_rating,1685031,Fictional_Cities_List/img_natural_41.png,,52,,,4,,,,,,,,,,,,,,,
null,,confidence_buffer,1685134,confidence_buffer,,null,,,,,,,,,,,,,,,,,,
1887,,recognition_phase,1687024,Fictional_Cities_List/img_natural_41.png,,49,,,,,,old,1,1,,,,,,,,,,
null,,confidence_buffer,1687128,confidence_buffer,,null,,,,,,,,,,,,,,,,,,
null,,thebreak,1687631,break,,null,,,,,,,,,,,,,,,,,,
7865.399999976158,,pt2_realistic_rating,1695499,US_Cities_List/nat_huntsville.png,,51,US_Cities_List/nat_huntsville.png,NAT,3,,,,,,,,,,,,,,,
null,,confidence_buffer,1695603,confidence_buffer,,null,,,,,,,,,,,,,,,,,,
2360.7999999523163,,pt2_unique_rating,1697967,US_Cities_List/nat_huntsville.png,,51,,,3,,,,,,,,,,,,,,,
null,,confidence_buffer,1698070,confidence_buffer,,null,,,,,,,,,,,,,,,,,,
2701.2999999523163,,pt2_memorable_rating,1700775,US_Cities_List/nat_huntsville.png,,52,,,4,,,,,,,,,,,,,,,
null,,confidence_buffer,1700878,confidence_buffer,,null,,,,,,,,,,,,,,,,,,
3307.7000000476837,,recognition_phase,1704188,US_Cities_List/nat_huntsville.png,,52,,,,,,new,1,1,,,,,,,,,,
null,,confidence_buffer,1704290,confidence_buffer,,null,,,,,,,,,,,,,,,,,,
null,,thebreak,1704796,break,,null,,,,,,,,,,,,,,,,,,
15468.900000095367,,pt2_realistic_rating,1720269,US_Cities_List/nat_livingston.png,,52,US_Cities_List/nat_livingston.png,NAT,4,,,,,,,,,,,,,,,
null,,confidence_buffer,1720373,confidence_buffer,,null,,,,,,,,,,,,,,,,,,
3263.2999999523163,,pt2_unique_rating,1723639,US_Cities_List/nat_livingston.png,,51,,,3,,,,,,,,,,,,,,,
null,,confidence_buffer,1723743,confidence_buffer,,null,,,,,,,,,,,,,,,,,,
4260.699999928474,,pt2_memorable_rating,1728007,US_Cities_List/nat_livingston.png,,53,,,5,,,,,,,,,,,,,,,
null,,confidence_buffer,1728111,confidence_buffer,,null,,,,,,,,,,,,,,,,,,
1843.8999999761581,,recognition_phase,1729958,US_Cities_List/nat_livingston.png,,49,,,,,,old,1,1,,,,,,,,,,
null,,confidence_buffer,1730059,confidence_buffer,,null,,,,,,,,,,,,,,,,,,
null,,thebreak,1730562,break,,null,,,,,,,,,,,,,,,,,,
7895,,pt2_realistic_rating,1738460,US_Cities_List/mm_yukon.png,,50,US_Cities_List/mm_yukon.png,MM,2,,,,,,,,,,,,,,,
null,,confidence_buffer,1738564,confidence_buffer,,null,,,,,,,,,,,,,,,,,,
15297,,pt2_unique_rating,1753864,US_Cities_List/mm_yukon.png,,49,,,1,,,,,,,,,,,,,,,
null,,confidence_buffer,1753966,confidence_buffer,,null,,,,,,,,,,,,,,,,,,
2542.1999999284744,,pt2_memorable_rating,1756511,US_Cities_List/mm_yukon.png,,53,,,5,,,,,,,,,,,,,,,
null,,confidence_buffer,1756615,confidence_buffer,,null,,,,,,,,,,,,,,,,,,
1585.3999999761581,,recognition_phase,1758203,US_Cities_List/mm_yukon.png,,49,,,,,,old,1,1,,,,,,,,,,
null,,confidence_buffer,1758305,confidence_buffer,,null,,,,,,,,,,,,,,,,,,
null,,thebreak,1758808,break,,null,,,,,,,,,,,,,,,,,,
5666,,pt2_realistic_rating,1764477,Fictional_Cities_List/img_manmade_44.png,,53,Fictional_Cities_List/img_manmade_44.png,MM,5,,,,,,,,,,,,,,,
null,,confidence_buffer,1764582,confidence_buffer,,null,,,,,,,,,,,,,,,,,,
2574.399999976158,,pt2_unique_rating,1767158,Fictional_Cities_List/img_manmade_44.png,,52,,,4,,,,,,,,,,,,,,,
null,,confidence_buffer,1767260,confidence_buffer,,null,,,,,,,,,,,,,,,,,,
2124.399999976158,,pt2_memorable_rating,1769387,Fictional_Cities_List/img_manmade_44.png,,53,,,5,,,,,,,,,,,,,,,
null,,confidence_buffer,1769490,confidence_buffer,,null,,,,,,,,,,,,,,,,,,
1485.0999999046326,,recognition_phase,1770977,Fictional_Cities_List/img_manmade_44.png,,49,,,,,,old,1,1,,,,,,,,,,
null,,confidence_buffer,1771080,confidence_buffer,,null,,,,,,,,,,,,,,,,,,
null,,thebreak,1771583,break,,null,,,,,,,,,,,,,,,,,,
27280,,pt2_realistic_rating,1798865,Fictional_Cities_List/img_natural_24.png,,49,Fictional_Cities_List/img_natural_24.png,NAT,1,,,,,,,,,,,,,,,
null,,confidence_buffer,1798970,confidence_buffer,,null,,,,,,,,,,,,,,,,,,
3382.2000000476837,,pt2_unique_rating,1802355,Fictional_Cities_List/img_natural_24.png,,52,,,4,,,,,,,,,,,,,,,
null,,confidence_buffer,1802458,confidence_buffer,,null,,,,,,,,,,,,,,,,,,
2411.5999999046326,,pt2_memorable_rating,1804873,Fictional_Cities_List/img_natural_24.png,,53,,,5,,,,,,,,,,,,,,,
null,,confidence_buffer,1804976,confidence_buffer,,null,,,,,,,,,,,,,,,,,,
2330,,recognition_phase,1807309,Fictional_Cities_List/img_natural_24.png,,49,,,,,,old,1,1,,,,,,,,,,
null,,confidence_buffer,1807414,confidence_buffer,,null,,,,,,,,,,,,,,,,,,
null,,thebreak,1807917,break,,null,,,,,,,,,,,,,,,,,,
9253.400000095367,,pt2_realistic_rating,1817172,US_Cities_List/mm_peoria.png,,52,US_Cities_List/mm_peoria.png,MM,4,,,,,,,,,,,,,,,
null,,confidence_buffer,1817275,confidence_buffer,,null,,,,,,,,,,,,,,,,,,
4115.699999928474,,pt2_unique_rating,1821393,US_Cities_List/mm_peoria.png,,51,,,3,,,,,,,,,,,,,,,
null,,confidence_buffer,1821496,confidence_buffer,,null,,,,,,,,,,,,,,,,,,
2287.0999999046326,,pt2_memorable_rating,1823786,US_Cities_List/mm_peoria.png,,52,,,4,,,,,,,,,,,,,,,
null,,confidence_buffer,1823890,confidence_buffer,,null,,,,,,,,,,,,,,,,,,
2498.7000000476837,,recognition_phase,1826391,US_Cities_List/mm_peoria.png,,52,,,,,,new,1,1,,,,,,,,,,
null,,confidence_buffer,1826494,confidence_buffer,,null,,,,,,,,,,,,,,,,,,
null,,thebreak,1826996,break,,null,,,,,,,,,,,,,,,,,,
11869,,pt2_realistic_rating,1838868,Fictional_Cities_List/img_manmade_04.png,,51,Fictional_Cities_List/img_manmade_04.png,MM,3,,,,,,,,,,,,,,,
null,,confidence_buffer,1838973,confidence_buffer,,null,,,,,,,,,,,,,,,,,,
2326.6999999284744,,pt2_unique_rating,1841302,Fictional_Cities_List/img_manmade_04.png,,52,,,4,,,,,,,,,,,,,,,
null,,confidence_buffer,1841405,confidence_buffer,,null,,,,,,,,,,,,,,,,,,
2370.5,,pt2_memorable_rating,1843778,Fictional_Cities_List/img_manmade_04.png,,53,,,5,,,,,,,,,,,,,,,
null,,confidence_buffer,1843882,confidence_buffer,,null,,,,,,,,,,,,,,,,,,
2524.7999999523163,,recognition_phase,1846409,Fictional_Cities_List/img_manmade_04.png,,49,,,,,,old,1,1,,,,,,,,,,
null,,confidence_buffer,1846513,confidence_buffer,,null,,,,,,,,,,,,,,,,,,
null,,thebreak,1847015,break,,null,,,,,,,,,,,,,,,,,,
21644.900000095367,,pt2_realistic_rating,1868662,Fictional_Cities_List/img_manmade_05.png,,51,Fictional_Cities_List/img_manmade_05.png,MM,3,,,,,,,,,,,,,,,
null,,confidence_buffer,1868765,confidence_buffer,,null,,,,,,,,,,,,,,,,,,
3956.899999976158,,pt2_unique_rating,1872724,Fictional_Cities_List/img_manmade_05.png,,52,,,4,,,,,,,,,,,,,,,
null,,confidence_buffer,1872827,confidence_buffer,,null,,,,,,,,,,,,,,,,,,
2716.600000023842,,pt2_memorable_rating,1875547,Fictional_Cities_List/img_manmade_05.png,,53,,,5,,,,,,,,,,,,,,,
null,,confidence_buffer,1875649,confidence_buffer,,null,,,,,,,,,,,,,,,,,,
2943.399999976158,,recognition_phase,1878596,Fictional_Cities_List/img_manmade_05.png,,52,,,,,,new,1,1,,,,,,,,,,
null,,confidence_buffer,1878700,confidence_buffer,,null,,,,,,,,,,,,,,,,,,
null,,thebreak,1879202,break,,null,,,,,,,,,,,,,,,,,,
7103.5,,pt2_realistic_rating,1886307,Fictional_Cities_List/img_natural_25.png,,52,Fictional_Cities_List/img_natural_25.png,NAT,4,,,,,,,,,,,,,,,
null,,confidence_buffer,1886409,confidence_buffer,,null,,,,,,,,,,,,,,,,,,
3610.100000023842,,pt2_unique_rating,1890021,Fictional_Cities_List/img_natural_25.png,,53,,,5,,,,,,,,,,,,,,,
null,,confidence_buffer,1890125,confidence_buffer,,null,,,,,,,,,,,,,,,,,,
2374.399999976158,,pt2_memorable_rating,1892502,Fictional_Cities_List/img_natural_25.png,,53,,,5,,,,,,,,,,,,,,,
null,,confidence_buffer,1892607,confidence_buffer,,null,,,,,,,,,,,,,,,,,,
2409.899999976158,,recognition_phase,1895019,Fictional_Cities_List/img_natural_25.png,,52,,,,,,new,1,1,,,,,,,,,,
null,,confidence_buffer,1895122,confidence_buffer,,null,,,,,,,,,,,,,,,,,,
null,,thebreak,1895625,break,,null,,,,,,,,,,,,,,,,,,
13821.899999976158,,pt2_realistic_rating,1909449,US_Cities_List/nat_athens.png,,53,US_Cities_List/nat_athens.png,NAT,5,,,,,,,,,,,,,,,
null,,confidence_buffer,1909552,confidence_buffer,,null,,,,,,,,,,,,,,,,,,
7512.400000095367,,pt2_unique_rating,1917068,US_Cities_List/nat_athens.png,,51,,,3,,,,,,,,,,,,,,,
null,,confidence_buffer,1917172,confidence_buffer,,null,,,,,,,,,,,,,,,,,,
2154,,pt2_memorable_rating,1919328,US_Cities_List/nat_athens.png,,52,,,4,,,,,,,,,,,,,,,
null,,confidence_buffer,1919432,confidence_buffer,,null,,,,,,,,,,,,,,,,,,
2186.2999999523163,,recognition_phase,1921622,US_Cities_List/nat_athens.png,,49,,,,,,old,1,1,,,,,,,,,,
null,,confidence_buffer,1921725,confidence_buffer,,null,,,,,,,,,,,,,,,,,,
null,,thebreak,1922227,break,,null,,,,,,,,,,,,,,,,,,
8937.200000047684,,pt2_realistic_rating,1931165,Fictional_Cities_List/img_natural_35.png,,52,Fictional_Cities_List/img_natural_35.png,NAT,4,,,,,,,,,,,,,,,
null,,confidence_buffer,1931268,confidence_buffer,,null,,,,,,,,,,,,,,,,,,
3037.2999999523163,,pt2_unique_rating,1934308,Fictional_Cities_List/img_natural_35.png,,52,,,4,,,,,,,,,,,,,,,
null,,confidence_buffer,1934412,confidence_buffer,,null,,,,,,,,,,,,,,,,,,
2630.2999999523163,,pt2_memorable_rating,1937045,Fictional_Cities_List/img_natural_35.png,,53,,,5,,,,,,,,,,,,,,,
null,,confidence_buffer,1937150,confidence_buffer,,null,,,,,,,,,,,,,,,,,,
2960.600000023842,,recognition_phase,1940114,Fictional_Cities_List/img_natural_35.png,,49,,,,,,old,1,1,,,,,,,,,,
null,,confidence_buffer,1940215,confidence_buffer,,null,,,,,,,,,,,,,,,,,,
null,,thebreak,1940718,break,,null,,,,,,,,,,,,,,,,,,
15208,,pt2_realistic_rating,1955929,Fictional_Cities_List/img_manmade_47.png,,51,Fictional_Cities_List/img_manmade_47.png,MM,3,,,,,,,,,,,,,,,
null,,confidence_buffer,1956032,confidence_buffer,,null,,,,,,,,,,,,,,,,,,
4842.800000071526,,pt2_unique_rating,1960878,Fictional_Cities_List/img_manmade_47.png,,51,,,3,,,,,,,,,,,,,,,
null,,confidence_buffer,1960983,confidence_buffer,,null,,,,,,,,,,,,,,,,,,
3525.2999999523163,,pt2_memorable_rating,1964512,Fictional_Cities_List/img_manmade_47.png,,52,,,4,,,,,,,,,,,,,,,
null,,confidence_buffer,1964614,confidence_buffer,,null,,,,,,,,,,,,,,,,,,
1747.7999999523163,,recognition_phase,1966365,Fictional_Cities_List/img_manmade_47.png,,49,,,,,,old,1,1,,,,,,,,,,
null,,confidence_buffer,1966469,confidence_buffer,,null,,,,,,,,,,,,,,,,,,
null,,thebreak,1966973,break,,null,,,,,,,,,,,,,,,,,,
20700.100000023842,,pt2_realistic_rating,1987675,US_Cities_List/mm_sisters.png,,52,US_Cities_List/mm_sisters.png,MM,4,,,,,,,,,,,,,,,
null,,confidence_buffer,1987778,confidence_buffer,,null,,,,,,,,,,,,,,,,,,
2869.5,,pt2_unique_rating,1990651,US_Cities_List/mm_sisters.png,,51,,,3,,,,,,,,,,,,,,,
null,,confidence_buffer,1990754,confidence_buffer,,null,,,,,,,,,,,,,,,,,,
2334.600000023842,,pt2_memorable_rating,1993091,US_Cities_List/mm_sisters.png,,52,,,4,,,,,,,,,,,,,,,
null,,confidence_buffer,1993192,confidence_buffer,,null,,,,,,,,,,,,,,,,,,
1489.3999999761581,,recognition_phase,1994683,US_Cities_List/mm_sisters.png,,49,,,,,,old,1,1,,,,,,,,,,
null,,confidence_buffer,1994785,confidence_buffer,,null,,,,,,,,,,,,,,,,,,
null,,thebreak,1995289,break,,null,,,,,,,,,,,,,,,,,,
7451.799999952316,,pt2_realistic_rating,2002743,Fictional_Cities_List/img_manmade_39.png,,52,Fictional_Cities_List/img_manmade_39.png,MM,4,,,,,,,,,,,,,,,
null,,confidence_buffer,2002848,confidence_buffer,,null,,,,,,,,,,,,,,,,,,
2399.899999976158,,pt2_unique_rating,2005251,Fictional_Cities_List/img_manmade_39.png,,51,,,3,,,,,,,,,,,,,,,
null,,confidence_buffer,2005355,confidence_buffer,,null,,,,,,,,,,,,,,,,,,
3145.1999999284744,,pt2_memorable_rating,2008502,Fictional_Cities_List/img_manmade_39.png,,51,,,3,,,,,,,,,,,,,,,
null,,confidence_buffer,2008604,confidence_buffer,,null,,,,,,,,,,,,,,,,,,
2154.7999999523163,,recognition_phase,2010762,Fictional_Cities_List/img_manmade_39.png,,52,,,,,,new,1,1,,,,,,,,,,
null,,confidence_buffer,2010864,confidence_buffer,,null,,,,,,,,,,,,,,,,,,
null,,thebreak,2011365,break,,null,,,,,,,,,,,,,,,,,,
6749.700000047684,,pt2_realistic_rating,2018117,Fictional_Cities_List/img_natural_04.png,,50,Fictional_Cities_List/img_natural_04.png,NAT,2,,,,,,,,,,,,,,,
null,,confidence_buffer,2018221,confidence_buffer,,null,,,,,,,,,,,,,,,,,,
2776,,pt2_unique_rating,2020999,Fictional_Cities_List/img_natural_04.png,,52,,,4,,,,,,,,,,,,,,,
null,,confidence_buffer,2021103,confidence_buffer,,null,,,,,,,,,,,,,,,,,,
5596.400000095367,,pt2_memorable_rating,2026701,Fictional_Cities_List/img_natural_04.png,,53,,,5,,,,,,,,,,,,,,,
null,,confidence_buffer,2026804,confidence_buffer,,null,,,,,,,,,,,,,,,,,,
2436.8000000715256,,recognition_phase,2029243,Fictional_Cities_List/img_natural_04.png,,52,,,,,,new,1,1,,,,,,,,,,
null,,confidence_buffer,2029345,confidence_buffer,,null,,,,,,,,,,,,,,,,,,
null,,thebreak,2029847,break,,null,,,,,,,,,,,,,,,,,,
7563.300000071526,,pt2_realistic_rating,2037414,US_Cities_List/nat_leesburg.png,,52,US_Cities_List/nat_leesburg.png,NAT,4,,,,,,,,,,,,,,,
null,,confidence_buffer,2037518,confidence_buffer,,null,,,,,,,,,,,,,,,,,,
6661.300000071526,,pt2_unique_rating,2044180,US_Cities_List/nat_leesburg.png,,49,,,1,,,,,,,,,,,,,,,
null,,confidence_buffer,2044282,confidence_buffer,,null,,,,,,,,,,,,,,,,,,
2454.7999999523163,,pt2_memorable_rating,2046740,US_Cities_List/nat_leesburg.png,,51,,,3,,,,,,,,,,,,,,,
null,,confidence_buffer,2046844,confidence_buffer,,null,,,,,,,,,,,,,,,,,,
2679.899999976158,,recognition_phase,2049527,US_Cities_List/nat_leesburg.png,,52,,,,,,new,1,1,,,,,,,,,,
null,,confidence_buffer,2049631,confidence_buffer,,null,,,,,,,,,,,,,,,,,,
null,,thebreak,2050133,break,,null,,,,,,,,,,,,,,,,,,
12090.399999976158,,pt2_realistic_rating,2062225,US_Cities_List/mm_boulder.png,,52,US_Cities_List/mm_boulder.png,MM,4,,,,,,,,,,,,,,,
null,,confidence_buffer,2062330,confidence_buffer,,null,,,,,,,,,,,,,,,,,,
2593.100000023842,,pt2_unique_rating,2064926,US_Cities_List/mm_boulder.png,,52,,,4,,,,,,,,,,,,,,,
null,,confidence_buffer,2065030,confidence_buffer,,null,,,,,,,,,,,,,,,,,,
2871.0999999046326,,pt2_memorable_rating,2067904,US_Cities_List/mm_boulder.png,,53,,,5,,,,,,,,,,,,,,,
null,,confidence_buffer,2068008,confidence_buffer,,null,,,,,,,,,,,,,,,,,,
2215.5,,recognition_phase,2070226,US_Cities_List/mm_boulder.png,,52,,,,,,new,1,1,,,,,,,,,,
null,,confidence_buffer,2070331,confidence_buffer,,null,,,,,,,,,,,,,,,,,,
null,,thebreak,2070835,break,,null,,,,,,,,,,,,,,,,,,
14796.5,,pt2_realistic_rating,2085634,US_Cities_List/nat_alliance.png,,52,US_Cities_List/nat_alliance.png,NAT,4,,,,,,,,,,,,,,,
null,,confidence_buffer,2085738,confidence_buffer,,null,,,,,,,,,,,,,,,,,,
3629.5,,pt2_unique_rating,2089371,US_Cities_List/nat_alliance.png,,51,,,3,,,,,,,,,,,,,,,
null,,confidence_buffer,2089474,confidence_buffer,,null,,,,,,,,,,,,,,,,,,
2415.100000023842,,pt2_memorable_rating,2091892,US_Cities_List/nat_alliance.png,,52,,,4,,,,,,,,,,,,,,,
null,,confidence_buffer,2091996,confidence_buffer,,null,,,,,,,,,,,,,,,,,,
6375.100000023842,,recognition_phase,2098375,US_Cities_List/nat_alliance.png,,52,,,,,,new,1,1,,,,,,,,,,
null,,confidence_buffer,2098479,confidence_buffer,,null,,,,,,,,,,,,,,,,,,
null,,thebreak,2098981,break,,null,,,,,,,,,,,,,,,,,,
8872.600000023842,,pt2_realistic_rating,2107855,US_Cities_List/mm_gatlinburg.png,,50,US_Cities_List/mm_gatlinburg.png,MM,2,,,,,,,,,,,,,,,
null,,confidence_buffer,2107961,confidence_buffer,,null,,,,,,,,,,,,,,,,,,
2690.399999976158,,pt2_unique_rating,2110653,US_Cities_List/mm_gatlinburg.png,,52,,,4,,,,,,,,,,,,,,,
null,,confidence_buffer,2110755,confidence_buffer,,null,,,,,,,,,,,,,,,,,,
2885.399999976158,,pt2_memorable_rating,2113644,US_Cities_List/mm_gatlinburg.png,,53,,,5,,,,,,,,,,,,,,,
null,,confidence_buffer,2113747,confidence_buffer,,null,,,,,,,,,,,,,,,,,,
2622.7999999523163,,recognition_phase,2116373,US_Cities_List/mm_gatlinburg.png,,52,,,,,,new,1,1,,,,,,,,,,
null,,confidence_buffer,2116476,confidence_buffer,,null,,,,,,,,,,,,,,,,,,
null,,thebreak,2116979,break,,null,,,,,,,,,,,,,,,,,,
15005.800000071526,,pt2_realistic_rating,2131987,US_Cities_List/nat_parkcity.png,,52,US_Cities_List/nat_parkcity.png,NAT,4,,,,,,,,,,,,,,,
null,,confidence_buffer,2132091,confidence_buffer,,null,,,,,,,,,,,,,,,,,,
3021.8000000715256,,pt2_unique_rating,2135114,US_Cities_List/nat_parkcity.png,,52,,,4,,,,,,,,,,,,,,,
null,,confidence_buffer,2135218,confidence_buffer,,null,,,,,,,,,,,,,,,,,,
4366.899999976158,,pt2_memorable_rating,2139588,US_Cities_List/nat_parkcity.png,,53,,,5,,,,,,,,,,,,,,,
null,,confidence_buffer,2139692,confidence_buffer,,null,,,,,,,,,,,,,,,,,,
1433.2000000476837,,recognition_phase,2141128,US_Cities_List/nat_parkcity.png,,49,,,,,,old,1,1,,,,,,,,,,
null,,confidence_buffer,2141232,confidence_buffer,,null,,,,,,,,,,,,,,,,,,
null,,thebreak,2141734,break,,null,,,,,,,,,,,,,,,,,,
7544.899999976158,,pt2_realistic_rating,2149282,Fictional_Cities_List/img_natural_05.png,,49,Fictional_Cities_List/img_natural_05.png,NAT,1,,,,,,,,,,,,,,,
null,,confidence_buffer,2149388,confidence_buffer,,null,,,,,,,,,,,,,,,,,,
20306.399999976158,,pt2_unique_rating,2169698,Fictional_Cities_List/img_natural_05.png,,52,,,4,,,,,,,,,,,,,,,
null,,confidence_buffer,2169802,confidence_buffer,,null,,,,,,,,,,,,,,,,,,
3262.1999999284744,,pt2_memorable_rating,2173067,Fictional_Cities_List/img_natural_05.png,,52,,,4,,,,,,,,,,,,,,,
null,,confidence_buffer,2173170,confidence_buffer,,null,,,,,,,,,,,,,,,,,,
2202.5,,recognition_phase,2175375,Fictional_Cities_List/img_natural_05.png,,52,,,,,,new,1,1,,,,,,,,,,
null,,confidence_buffer,2175478,confidence_buffer,,null,,,,,,,,,,,,,,,,,,
null,,thebreak,2175980,break,,null,,,,,,,,,,,,,,,,,,
23091.299999952316,,pt2_realistic_rating,2199074,US_Cities_List/mm_berkeleysprings.png,,53,US_Cities_List/mm_berkeleysprings.png,MM,5,,,,,,,,,,,,,,,
null,,confidence_buffer,2199178,confidence_buffer,,null,,,,,,,,,,,,,,,,,,
3757,,pt2_unique_rating,2202937,US_Cities_List/mm_berkeleysprings.png,,52,,,4,,,,,,,,,,,,,,,
null,,confidence_buffer,2203041,confidence_buffer,,null,,,,,,,,,,,,,,,,,,
7745.299999952316,,pt2_memorable_rating,2210789,US_Cities_List/mm_berkeleysprings.png,,52,,,4,,,,,,,,,,,,,,,
null,,confidence_buffer,2210894,confidence_buffer,,null,,,,,,,,,,,,,,,,,,
1219.1000000238419,,recognition_phase,2212116,US_Cities_List/mm_berkeleysprings.png,,49,,,,,,old,1,1,,,,,,,,,,
null,,confidence_buffer,2212218,confidence_buffer,,null,,,,,,,,,,,,,,,,,,
null,,thebreak,2212720,break,,null,,,,,,,,,,,,,,,,,,
5705,,pt2_realistic_rating,2218428,US_Cities_List/mm_hilo.png,,52,US_Cities_List/mm_hilo.png,MM,4,,,,,,,,,,,,,,,
null,,confidence_buffer,2218532,confidence_buffer,,null,,,,,,,,,,,,,,,,,,
8124.599999904633,,pt2_unique_rating,2226659,US_Cities_List/mm_hilo.png,,52,,,4,,,,,,,,,,,,,,,
null,,confidence_buffer,2226761,confidence_buffer,,null,,,,,,,,,,,,,,,,,,
9879,,pt2_memorable_rating,2236642,US_Cities_List/mm_hilo.png,,52,,,4,,,,,,,,,,,,,,,
null,,confidence_buffer,2236744,confidence_buffer,,null,,,,,,,,,,,,,,,,,,
3269.2999999523163,,recognition_phase,2240017,US_Cities_List/mm_hilo.png,,49,,,,,,old,1,1,,,,,,,,,,
null,,confidence_buffer,2240121,confidence_buffer,,null,,,,,,,,,,,,,,,,,,
null,,thebreak,2240623,break,,null,,,,,,,,,,,,,,,,,,
8266.200000047684,,pt2_realistic_rating,2248893,US_Cities_List/mm_cody.png,,50,US_Cities_List/mm_cody.png,MM,2,,,,,,,,,,,,,,,
null,,confidence_buffer,2249005,confidence_buffer,,null,,,,,,,,,,,,,,,,,,
3912.4000000953674,,pt2_unique_rating,2252921,US_Cities_List/mm_cody.png,,51,,,3,,,,,,,,,,,,,,,
null,,confidence_buffer,2253031,confidence_buffer,,null,,,,,,,,,,,,,,,,,,
8727,,pt2_memorable_rating,2261761,US_Cities_List/mm_cody.png,,52,,,4,,,,,,,,,,,,,,,
null,,confidence_buffer,2261866,confidence_buffer,,null,,,,,,,,,,,,,,,,,,
2906,,probe_rating,2264777,probe_rating,,52,,,,4,1,,,,,,,,,,,,,
null,,confidence_buffer,2264889,confidence_buffer,,null,,,,,,,,,,,,,,,,,,
2383.7999999523163,,recognition_phase,2267276,US_Cities_List/mm_cody.png,,52,,,,,,new,1,1,,,,,,,,,,
null,,confidence_buffer,2267389,confidence_buffer,,null,,,,,,,,,,,,,,,,,,
null,,thebreak,2267894,break,,null,,,,,,,,,,,,,,,,,,
5093,,pt2_realistic_rating,2272990,US_Cities_List/mm_athens.png,,53,US_Cities_List/mm_athens.png,MM,5,,,,,,,,,,,,,,,
null,,confidence_buffer,2273101,confidence_buffer,,null,,,,,,,,,,,,,,,,,,
2803.899999976158,,pt2_unique_rating,2275908,US_Cities_List/mm_athens.png,,52,,,4,,,,,,,,,,,,,,,
null,,confidence_buffer,2276018,confidence_buffer,,null,,,,,,,,,,,,,,,,,,
2660.399999976158,,pt2_memorable_rating,2278682,US_Cities_List/mm_athens.png,,53,,,5,,,,,,,,,,,,,,,
null,,confidence_buffer,2278796,confidence_buffer,,null,,,,,,,,,,,,,,,,,,
7143,,recognition_phase,2285942,US_Cities_List/mm_athens.png,,49,,,,,,old,1,1,,,,,,,,,,
null,,confidence_buffer,2286055,confidence_buffer,,null,,,,,,,,,,,,,,,,,,
null,,thebreak,2286566,break,,null,,,,,,,,,,,,,,,,,,
12943,,pt2_realistic_rating,2299512,US_Cities_List/nat_gatlinburg.png,,50,US_Cities_List/nat_gatlinburg.png,NAT,2,,,,,,,,,,,,,,,
null,,confidence_buffer,2299624,confidence_buffer,,null,,,,,,,,,,,,,,,,,,
6749.400000095367,,pt2_unique_rating,2306376,US_Cities_List/nat_gatlinburg.png,,52,,,4,,,,,,,,,,,,,,,
null,,confidence_buffer,2306485,confidence_buffer,,null,,,,,,,,,,,,,,,,,,
14155.5,,pt2_memorable_rating,2320643,US_Cities_List/nat_gatlinburg.png,,53,,,5,,,,,,,,,,,,,,,
null,,confidence_buffer,2320754,confidence_buffer,,null,,,,,,,,,,,,,,,,,,
1602.2999999523163,,recognition_phase,2322359,US_Cities_List/nat_gatlinburg.png,,49,,,,,,old,1,1,,,,,,,,,,
null,,confidence_buffer,2322464,confidence_buffer,,null,,,,,,,,,,,,,,,,,,
null,,thebreak,2322976,break,,null,,,,,,,,,,,,,,,,,,
5452.5,,pt2_realistic_rating,2328432,Fictional_Cities_List/img_natural_38.png,,51,Fictional_Cities_List/img_natural_38.png,NAT,3,,,,,,,,,,,,,,,
null,,confidence_buffer,2328541,confidence_buffer,,null,,,,,,,,,,,,,,,,,,
27038.700000047684,,pt2_unique_rating,2355583,Fictional_Cities_List/img_natural_38.png,,52,,,4,,,,,,,,,,,,,,,
null,,confidence_buffer,2355694,confidence_buffer,,null,,,,,,,,,,,,,,,,,,
5210.200000047684,,pt2_memorable_rating,2360907,Fictional_Cities_List/img_natural_38.png,,52,,,4,,,,,,,,,,,,,,,
null,,confidence_buffer,2361018,confidence_buffer,,null,,,,,,,,,,,,,,,,,,
4938.100000023842,,probe_rating,2365959,probe_rating,,51,,,,3,1,,,,,,,,,,,,,
null,,confidence_buffer,2366066,confidence_buffer,,null,,,,,,,,,,,,,,,,,,
3162.600000023842,,recognition_phase,2369234,Fictional_Cities_List/img_natural_38.png,,51,,,,,,new,1,1,,,,,,,,,,
null,,confidence_buffer,2369338,confidence_buffer,,null,,,,,,,,,,,,,,,,,,
null,,thebreak,2369849,break,,null,,,,,,,,,,,,,,,,,,
6029.699999928474,,pt2_realistic_rating,2375882,Fictional_Cities_List/img_manmade_36.png,,51,Fictional_Cities_List/img_manmade_36.png,MM,3,,,,,,,,,,,,,,,
null,,confidence_buffer,2375989,confidence_buffer,,null,,,,,,,,,,,,,,,,,,
3274.2000000476837,,pt2_unique_rating,2379266,Fictional_Cities_List/img_manmade_36.png,,52,,,4,,,,,,,,,,,,,,,
null,,confidence_buffer,2379377,confidence_buffer,,null,,,,,,,,,,,,,,,,,,
4704.100000023842,,pt2_memorable_rating,2384084,Fictional_Cities_List/img_manmade_36.png,,52,,,4,,,,,,,,,,,,,,,
null,,confidence_buffer,2384197,confidence_buffer,,null,,,,,,,,,,,,,,,,,,
2024.5,,recognition_phase,2386226,Fictional_Cities_List/img_manmade_36.png,,49,,,,,,old,1,1,,,,,,,,,,
null,,confidence_buffer,2386337,confidence_buffer,,null,,,,,,,,,,,,,,,,,,
null,,thebreak,2386843,break,,null,,,,,,,,,,,,,,,,,,
6944.700000047684,,pt2_realistic_rating,2393791,Fictional_Cities_List/img_natural_20.png,,49,Fictional_Cities_List/img_natural_20.png,NAT,1,,,,,,,,,,,,,,,
null,,confidence_buffer,2393903,confidence_buffer,,null,,,,,,,,,,,,,,,,,,
3001.8000000715256,,pt2_unique_rating,2396908,Fictional_Cities_List/img_natural_20.png,,52,,,4,,,,,,,,,,,,,,,
null,,confidence_buffer,2397021,confidence_buffer,,null,,,,,,,,,,,,,,,,,,
2282.399999976158,,pt2_memorable_rating,2399306,Fictional_Cities_List/img_natural_20.png,,53,,,5,,,,,,,,,,,,,,,
null,,confidence_buffer,2399419,confidence_buffer,,null,,,,,,,,,,,,,,,,,,
2123.5,,recognition_phase,2401545,Fictional_Cities_List/img_natural_20.png,,52,,,,,,new,1,1,,,,,,,,,,
null,,confidence_buffer,2401658,confidence_buffer,,null,,,,,,,,,,,,,,,,,,
null,,thebreak,2402162,break,,null,,,,,,,,,,,,,,,,,,
4267.399999976158,,pt2_realistic_rating,2406432,US_Cities_List/mm_natchez.png,,53,US_Cities_List/mm_natchez.png,MM,5,,,,,,,,,,,,,,,
null,,confidence_buffer,2406546,confidence_buffer,,null,,,,,,,,,,,,,,,,,,
4670.300000071526,,probe_rating,2411220,probe_rating,,53,,,,5,1,,,,,,,,,,,,,
null,,confidence_buffer,2411326,confidence_buffer,,null,,,,,,,,,,,,,,,,,,
2850.899999976158,,pt2_unique_rating,2414180,US_Cities_List/mm_natchez.png,,52,,,4,,,,,,,,,,,,,,,
null,,confidence_buffer,2414285,confidence_buffer,,null,,,,,,,,,,,,,,,,,,
5709.700000047684,,pt2_memorable_rating,2419998,US_Cities_List/mm_natchez.png,,52,,,4,,,,,,,,,,,,,,,
null,,confidence_buffer,2420113,confidence_buffer,,null,,,,,,,,,,,,,,,,,,
3024.7000000476837,,recognition_phase,2423142,US_Cities_List/mm_natchez.png,,52,,,,,,new,1,1,,,,,,,,,,
null,,confidence_buffer,2423255,confidence_buffer,,null,,,,,,,,,,,,,,,,,,
null,,thebreak,2423764,break,,null,,,,,,,,,,,,,,,,,,
7129.299999952316,,pt2_realistic_rating,2430896,US_Cities_List/nat_assateagueisland.png,,52,US_Cities_List/nat_assateagueisland.png,NAT,4,,,,,,,,,,,,,,,
null,,confidence_buffer,2431002,confidence_buffer,,null,,,,,,,,,,,,,,,,,,
8012.399999976158,,pt2_unique_rating,2439017,US_Cities_List/nat_assateagueisland.png,,52,,,4,,,,,,,,,,,,,,,
null,,confidence_buffer,2439121,confidence_buffer,,null,,,,,,,,,,,,,,,,,,
2680.399999976158,,pt2_memorable_rating,2441805,US_Cities_List/nat_assateagueisland.png,,52,,,4,,,,,,,,,,,,,,,
null,,confidence_buffer,2441918,confidence_buffer,,null,,,,,,,,,,,,,,,,,,
1863.1000000238419,,recognition_phase,2443785,US_Cities_List/nat_assateagueisland.png,,52,,,,,,new,1,1,,,,,,,,,,
null,,confidence_buffer,2443896,confidence_buffer,,null,,,,,,,,,,,,,,,,,,
null,,thebreak,2444400,break,,null,,,,,,,,,,,,,,,,,,
8124.299999952316,,pt2_realistic_rating,2452528,US_Cities_List/nat_gardnerville.png,,52,US_Cities_List/nat_gardnerville.png,NAT,4,,,,,,,,,,,,,,,
null,,confidence_buffer,2452640,confidence_buffer,,null,,,,,,,,,,,,,,,,,,
3317,,pt2_unique_rating,2455959,US_Cities_List/nat_gardnerville.png,,50,,,2,,,,,,,,,,,,,,,
null,,confidence_buffer,2456066,confidence_buffer,,null,,,,,,,,,,,,,,,,,,
2366.9000000953674,,pt2_memorable_rating,2458436,US_Cities_List/nat_gardnerville.png,,52,,,4,,,,,,,,,,,,,,,
null,,confidence_buffer,2458544,confidence_buffer,,null,,,,,,,,,,,,,,,,,,
17253.300000071526,,recognition_phase,2475802,US_Cities_List/nat_gardnerville.png,,52,,,,,,new,1,1,,,,,,,,,,
null,,confidence_buffer,2475906,confidence_buffer,,null,,,,,,,,,,,,,,,,,,
null,,thebreak,2476420,break,,null,,,,,,,,,,,,,,,,,,
32643.800000071526,,pt2_realistic_rating,2509067,US_Cities_List/nat_okoboji.png,,51,US_Cities_List/nat_okoboji.png,NAT,3,,,,,,,,,,,,,,,
null,,confidence_buffer,2509181,confidence_buffer,,null,,,,,,,,,,,,,,,,,,
3212.7999999523163,,pt2_unique_rating,2512398,US_Cities_List/nat_okoboji.png,,52,,,4,,,,,,,,,,,,,,,
null,,confidence_buffer,2512509,confidence_buffer,,null,,,,,,,,,,,,,,,,,,
10691.5,,pt2_memorable_rating,2523204,US_Cities_List/nat_okoboji.png,,52,,,4,,,,,,,,,,,,,,,
null,,confidence_buffer,2523316,confidence_buffer,,null,,,,,,,,,,,,,,,,,,
2065.1999999284744,,recognition_phase,2525385,US_Cities_List/nat_okoboji.png,,52,,,,,,new,1,1,,,,,,,,,,
null,,confidence_buffer,2525496,confidence_buffer,,null,,,,,,,,,,,,,,,,,,
null,,thebreak,2525999,break,,null,,,,,,,,,,,,,,,,,,
3824,,pt2_realistic_rating,2529826,Fictional_Cities_List/img_manmade_45.png,,52,Fictional_Cities_List/img_manmade_45.png,MM,4,,,,,,,,,,,,,,,
null,,confidence_buffer,2529932,confidence_buffer,,null,,,,,,,,,,,,,,,,,,
13354.399999976158,,pt2_unique_rating,2543289,Fictional_Cities_List/img_manmade_45.png,,50,,,2,,,,,,,,,,,,,,,
null,,confidence_buffer,2543400,confidence_buffer,,null,,,,,,,,,,,,,,,,,,
2128.8000000715256,,pt2_memorable_rating,2545532,Fictional_Cities_List/img_manmade_45.png,,52,,,4,,,,,,,,,,,,,,,
null,,confidence_buffer,2545643,confidence_buffer,,null,,,,,,,,,,,,,,,,,,
1809.2999999523163,,recognition_phase,2547456,Fictional_Cities_List/img_manmade_45.png,,49,,,,,,old,1,1,,,,,,,,,,
null,,confidence_buffer,2547569,confidence_buffer,,null,,,,,,,,,,,,,,,,,,
null,,thebreak,2548079,break,,null,,,,,,,,,,,,,,,,,,
6400.800000071526,,pt2_realistic_rating,2554483,Fictional_Cities_List/img_manmade_24.png,,51,Fictional_Cities_List/img_manmade_24.png,MM,3,,,,,,,,,,,,,,,
null,,confidence_buffer,2554595,confidence_buffer,,null,,,,,,,,,,,,,,,,,,
4229.800000071526,,pt2_unique_rating,2558828,Fictional_Cities_List/img_manmade_24.png,,52,,,4,,,,,,,,,,,,,,,
null,,confidence_buffer,2558939,confidence_buffer,,null,,,,,,,,,,,,,,,,,,
1848.5,,pt2_memorable_rating,2560790,Fictional_Cities_List/img_manmade_24.png,,52,,,4,,,,,,,,,,,,,,,
null,,confidence_buffer,2560895,confidence_buffer,,null,,,,,,,,,,,,,,,,,,
1651.7000000476837,,recognition_phase,2562550,Fictional_Cities_List/img_manmade_24.png,,49,,,,,,old,1,1,,,,,,,,,,
null,,confidence_buffer,2562654,confidence_buffer,,null,,,,,,,,,,,,,,,,,,
null,,thebreak,2563157,break,,null,,,,,,,,,,,,,,,,,,
26718.100000023842,,pt2_realistic_rating,2589880,Fictional_Cities_List/img_manmade_41.png,,52,Fictional_Cities_List/img_manmade_41.png,MM,4,,,,,,,,,,,,,,,
null,,confidence_buffer,2589986,confidence_buffer,,null,,,,,,,,,,,,,,,,,,
3816.100000023842,,pt2_unique_rating,2593805,Fictional_Cities_List/img_manmade_41.png,,52,,,4,,,,,,,,,,,,,,,
null,,confidence_buffer,2593909,confidence_buffer,,null,,,,,,,,,,,,,,,,,,
1782.7000000476837,,pt2_memorable_rating,2595695,Fictional_Cities_List/img_manmade_41.png,,53,,,5,,,,,,,,,,,,,,,
null,,confidence_buffer,2595805,confidence_buffer,,null,,,,,,,,,,,,,,,,,,
16075.600000023842,,recognition_phase,2611884,Fictional_Cities_List/img_manmade_41.png,,49,,,,,,old,0,0.9814814814814815,,,,,,,,,,
null,,confidence_buffer,2611994,confidence_buffer,,null,,,,,,,,,,,,,,,,,,
null,,thebreak,2612502,break,,null,,,,,,,,,,,,,,,,,,
4017.8000000715256,,pt2_realistic_rating,2616523,Fictional_Cities_List/img_manmade_25.png,,49,Fictional_Cities_List/img_manmade_25.png,MM,1,,,,,,,,,,,,,,,
null,,confidence_buffer,2616638,confidence_buffer,,null,,,,,,,,,,,,,,,,,,
6165.799999952316,,pt2_unique_rating,2622807,Fictional_Cities_List/img_manmade_25.png,,52,,,4,,,,,,,,,,,,,,,
null,,confidence_buffer,2622918,confidence_buffer,,null,,,,,,,,,,,,,,,,,,
9946.100000023842,,pt2_memorable_rating,2632869,Fictional_Cities_List/img_manmade_25.png,,53,,,5,,,,,,,,,,,,,,,
null,,confidence_buffer,2632978,confidence_buffer,,null,,,,,,,,,,,,,,,,,,
2565.100000023842,,recognition_phase,2635546,Fictional_Cities_List/img_manmade_25.png,,52,,,,,,new,1,0.9818181818181818,,,,,,,,,,
null,,confidence_buffer,2635650,confidence_buffer,,null,,,,,,,,,,,,,,,,,,
null,,thebreak,2636153,break,,null,,,,,,,,,,,,,,,,,,
7119.400000095367,,pt2_realistic_rating,2643276,Fictional_Cities_List/img_natural_36.png,,52,Fictional_Cities_List/img_natural_36.png,NAT,4,,,,,,,,,,,,,,,
null,,confidence_buffer,2643381,confidence_buffer,,null,,,,,,,,,,,,,,,,,,
19213.399999976158,,pt2_unique_rating,2662599,Fictional_Cities_List/img_natural_36.png,,52,,,4,,,,,,,,,,,,,,,
null,,confidence_buffer,2662710,confidence_buffer,,null,,,,,,,,,,,,,,,,,,
10620.600000023842,,probe_rating,2673334,probe_rating,,51,,,,3,1,,,,,,,,,,,,,
null,,confidence_buffer,2673445,confidence_buffer,,null,,,,,,,,,,,,,,,,,,
2147,,pt2_memorable_rating,2675595,Fictional_Cities_List/img_natural_36.png,,52,,,4,,,,,,,,,,,,,,,
null,,confidence_buffer,2675706,confidence_buffer,,null,,,,,,,,,,,,,,,,,,
9234.200000047684,,recognition_phase,2684943,Fictional_Cities_List/img_natural_36.png,,49,,,,,,old,1,0.9821428571428571,,,,,,,,,,
null,,confidence_buffer,2685054,confidence_buffer,,null,,,,,,,,,,,,,,,,,,
null,,thebreak,2685570,break,,null,,,,,,,,,,,,,,,,,,
3676.7999999523163,,pt2_realistic_rating,2689250,Fictional_Cities_List/img_natural_47.png,,50,Fictional_Cities_List/img_natural_47.png,NAT,2,,,,,,,,,,,,,,,
null,,confidence_buffer,2689365,confidence_buffer,,null,,,,,,,,,,,,,,,,,,
6166.799999952316,,pt2_unique_rating,2695535,Fictional_Cities_List/img_natural_47.png,,52,,,4,,,,,,,,,,,,,,,
null,,confidence_buffer,2695649,confidence_buffer,,null,,,,,,,,,,,,,,,,,,
3671.600000023842,,pt2_memorable_rating,2699324,Fictional_Cities_List/img_natural_47.png,,53,,,5,,,,,,,,,,,,,,,
null,,confidence_buffer,2699428,confidence_buffer,,null,,,,,,,,,,,,,,,,,,
1203.1999999284744,,recognition_phase,2700635,Fictional_Cities_List/img_natural_47.png,,49,,,,,,old,1,0.9824561403508771,,,,,,,,,,
null,,confidence_buffer,2700740,confidence_buffer,,null,,,,,,,,,,,,,,,,,,
null,,thebreak,2701245,break,,null,,,,,,,,,,,,,,,,,,
29155.299999952316,,pt2_realistic_rating,2730403,Fictional_Cities_List/img_manmade_38.png,,51,Fictional_Cities_List/img_manmade_38.png,MM,3,,,,,,,,,,,,,,,
null,,confidence_buffer,2730513,confidence_buffer,,null,,,,,,,,,,,,,,,,,,
3829.2000000476837,,pt2_unique_rating,2734346,Fictional_Cities_List/img_manmade_38.png,,52,,,4,,,,,,,,,,,,,,,
null,,confidence_buffer,2734451,confidence_buffer,,null,,,,,,,,,,,,,,,,,,
3712.600000023842,,pt2_memorable_rating,2738167,Fictional_Cities_List/img_manmade_38.png,,52,,,4,,,,,,,,,,,,,,,
null,,confidence_buffer,2738282,confidence_buffer,,null,,,,,,,,,,,,,,,,,,
2672.3000000715256,,recognition_phase,2740958,Fictional_Cities_List/img_manmade_38.png,,51,,,,,,new,1,0.9827586206896551,,,,,,,,,,
null,,confidence_buffer,2741071,confidence_buffer,,null,,,,,,,,,,,,,,,,,,
null,,thebreak,2741575,break,,null,,,,,,,,,,,,,,,,,,
20356.600000023842,,pt2_realistic_rating,2761934,US_Cities_List/nat_sitka.png,,53,US_Cities_List/nat_sitka.png,NAT,5,,,,,,,,,,,,,,,
null,,confidence_buffer,2762040,confidence_buffer,,null,,,,,,,,,,,,,,,,,,
6533.600000023842,,pt2_unique_rating,2768577,US_Cities_List/nat_sitka.png,,51,,,3,,,,,,,,,,,,,,,
null,,confidence_buffer,2768690,confidence_buffer,,null,,,,,,,,,,,,,,,,,,
5960.399999976158,,pt2_memorable_rating,2774653,US_Cities_List/nat_sitka.png,,52,,,4,,,,,,,,,,,,,,,
null,,confidence_buffer,2774760,confidence_buffer,,null,,,,,,,,,,,,,,,,,,
4668.400000095367,,recognition_phase,2779433,US_Cities_List/nat_sitka.png,,49,,,,,,old,1,0.9830508474576272,,,,,,,,,,
null,,confidence_buffer,2779546,confidence_buffer,,null,,,,,,,,,,,,,,,,,,
null,,thebreak,2780055,break,,null,,,,,,,,,,,,,,,,,,
3874.600000023842,,pt2_realistic_rating,2783933,US_Cities_List/mm_medora.png,,52,US_Cities_List/mm_medora.png,MM,4,,,,,,,,,,,,,,,
null,,confidence_buffer,2784045,confidence_buffer,,null,,,,,,,,,,,,,,,,,,
19144.299999952316,,pt2_unique_rating,2803192,US_Cities_List/mm_medora.png,,52,,,4,,,,,,,,,,,,,,,
null,,confidence_buffer,2803302,confidence_buffer,,null,,,,,,,,,,,,,,,,,,
3269.5,,pt2_memorable_rating,2806575,US_Cities_List/mm_medora.png,,52,,,4,,,,,,,,,,,,,,,
null,,confidence_buffer,2806679,confidence_buffer,,null,,,,,,,,,,,,,,,,,,
1766.7000000476837,,recognition_phase,2808449,US_Cities_List/mm_medora.png,,52,,,,,,new,1,0.9833333333333333,,,,,,,,,,
null,,confidence_buffer,2808572,confidence_buffer,,null,,,,,,,,,,,,,,,,,,
null,,thebreak,2809084,break,,null,,,,,,,,,,,,,,,,,,
,,survey,3451801,survey-questions,,,,,,,,,,,none,high,No, I was fully focused on the study,I was looking at the images keenly,Have I seen an image like this before,Can I remenber the image when I see it again,Is the image distinctive,Does it exist in real life,No,
