rt,responses,trial_type,time_elapsed,stimulus,button_pressed,key_press,name_trial,city_type,rating,probe,probe_accuracy,response,correct,accuracy,problems,smooth,distraction,strategies,familiar,memorable,unique,realistic,similar,comments
13383,{worker_id:67cf59598c1dc7360032e0f3},id_enter,13389,,,,,,,,,,,,,,,,,,,,,
27051,,fullscreen,40448,fullscreen,0,,,,,,,,,,,,,,,,,,,
19776,,intro_0,60230,instruct,,32,,,,,,,,,,,,,,,,,,
12748,,intro_1,72980,instruct,,32,,,,,,,,,,,,,,,,,,
9528,,intro_2,82510,instruct,,32,,,,,,,,,,,,,,,,,,
null,,instruct_dir_4,84015,instruct,,null,,,,,,,,,,,,,,,,,,
null,,thebreak,84520,break,,null,,,,,,,,,,,,,,,,,,
24328,,familiar_rating,108852,Fictional_Cities_List/img_manmade_16.png,,50,Fictional_Cities_List/img_manmade_16.png,MM,2,,,,,,,,,,,,,,,
null,,confidence_buffer,108958,confidence_buffer,,null,,,,,,,,,,,,,,,,,,
8270,,unique_rating,117230,Fictional_Cities_List/img_manmade_16.png,,53,,,5,,,,,,,,,,,,,,,
null,,confidence_buffer,117335,confidence_buffer,,null,,,,,,,,,,,,,,,,,,
36001,,memorable_rating,153338,Fictional_Cities_List/img_manmade_16.png,,49,,,1,,,,,,,,,,,,,,,
null,,confidence_buffer,153452,confidence_buffer,,null,,,,,,,,,,,,,,,,,,
9782,,probe_rating,163235,probe_rating,,52,,,,4,1,,,,,,,,,,,,,
null,,confidence_buffer,163357,confidence_buffer,,null,,,,,,,,,,,,,,,,,,
null,,thebreak,163864,break,,null,,,,,,,,,,,,,,,,,,
11481,,familiar_rating,175345,US_Cities_List/nat_westpalmbeach.png,,49,US_Cities_List/nat_westpalmbeach.png,NAT,1,,,,,,,,,,,,,,,
null,,confidence_buffer,175447,confidence_buffer,,null,,,,,,,,,,,,,,,,,,
4095,,unique_rating,179544,US_Cities_List/nat_westpalmbeach.png,,53,,,5,,,,,,,,,,,,,,,
null,,confidence_buffer,179652,confidence_buffer,,null,,,,,,,,,,,,,,,,,,
5086,,memorable_rating,184741,US_Cities_List/nat_westpalmbeach.png,,49,,,1,,,,,,,,,,,,,,,
null,,confidence_buffer,184854,confidence_buffer,,null,,,,,,,,,,,,,,,,,,
null,,thebreak,185373,break,,null,,,,,,,,,,,,,,,,,,
4443,,familiar_rating,189818,Fictional_Cities_List/img_natural_15.png,,49,Fictional_Cities_List/img_natural_15.png,NAT,1,,,,,,,,,,,,,,,
null,,confidence_buffer,189923,confidence_buffer,,null,,,,,,,,,,,,,,,,,,
5042,,unique_rating,194966,Fictional_Cities_List/img_natural_15.png,,53,,,5,,,,,,,,,,,,,,,
null,,confidence_buffer,195073,confidence_buffer,,null,,,,,,,,,,,,,,,,,,
6276,,memorable_rating,201351,Fictional_Cities_List/img_natural_15.png,,49,,,1,,,,,,,,,,,,,,,
null,,confidence_buffer,201458,confidence_buffer,,null,,,,,,,,,,,,,,,,,,
null,,thebreak,201961,break,,null,,,,,,,,,,,,,,,,,,
4124,,familiar_rating,206087,US_Cities_List/mm_natchez.png,,49,US_Cities_List/mm_natchez.png,MM,1,,,,,,,,,,,,,,,
null,,confidence_buffer,206190,confidence_buffer,,null,,,,,,,,,,,,,,,,,,
3776,,unique_rating,209967,US_Cities_List/mm_natchez.png,,53,,,5,,,,,,,,,,,,,,,
null,,confidence_buffer,210082,confidence_buffer,,null,,,,,,,,,,,,,,,,,,
32725,,memorable_rating,242808,US_Cities_List/mm_natchez.png,,51,,,3,,,,,,,,,,,,,,,
null,,confidence_buffer,242920,confidence_buffer,,null,,,,,,,,,,,,,,,,,,
null,,thebreak,243424,break,,null,,,,,,,,,,,,,,,,,,
7414,,familiar_rating,250839,US_Cities_List/mm_peoria.png,,49,US_Cities_List/mm_peoria.png,MM,1,,,,,,,,,,,,,,,
null,,confidence_buffer,250940,confidence_buffer,,null,,,,,,,,,,,,,,,,,,
3934,,unique_rating,254874,US_Cities_List/mm_peoria.png,,53,,,5,,,,,,,,,,,,,,,
null,,confidence_buffer,254984,confidence_buffer,,null,,,,,,,,,,,,,,,,,,
2432,,memorable_rating,257416,US_Cities_List/mm_peoria.png,,51,,,3,,,,,,,,,,,,,,,
null,,confidence_buffer,257528,confidence_buffer,,null,,,,,,,,,,,,,,,,,,
null,,thebreak,258032,break,,null,,,,,,,,,,,,,,,,,,
5171,,familiar_rating,263204,US_Cities_List/nat_delawarecity.png,,49,US_Cities_List/nat_delawarecity.png,NAT,1,,,,,,,,,,,,,,,
null,,confidence_buffer,263306,confidence_buffer,,null,,,,,,,,,,,,,,,,,,
2474,,unique_rating,265782,US_Cities_List/nat_delawarecity.png,,53,,,5,,,,,,,,,,,,,,,
null,,confidence_buffer,265889,confidence_buffer,,null,,,,,,,,,,,,,,,,,,
2604,,memorable_rating,268493,US_Cities_List/nat_delawarecity.png,,50,,,2,,,,,,,,,,,,,,,
null,,confidence_buffer,268597,confidence_buffer,,null,,,,,,,,,,,,,,,,,,
4328,,probe_rating,272926,probe_rating,,50,,,,2,1,,,,,,,,,,,,,
null,,confidence_buffer,273036,confidence_buffer,,null,,,,,,,,,,,,,,,,,,
null,,thebreak,273541,break,,null,,,,,,,,,,,,,,,,,,
7285,,familiar_rating,280828,US_Cities_List/mm_duck.png,,49,US_Cities_List/mm_duck.png,MM,1,,,,,,,,,,,,,,,
null,,confidence_buffer,280939,confidence_buffer,,null,,,,,,,,,,,,,,,,,,
2455,,unique_rating,283394,US_Cities_List/mm_duck.png,,53,,,5,,,,,,,,,,,,,,,
null,,confidence_buffer,283500,confidence_buffer,,null,,,,,,,,,,,,,,,,,,
3984,,memorable_rating,287485,US_Cities_List/mm_duck.png,,51,,,3,,,,,,,,,,,,,,,
null,,confidence_buffer,287591,confidence_buffer,,null,,,,,,,,,,,,,,,,,,
null,,thebreak,288096,break,,null,,,,,,,,,,,,,,,,,,
33405,,familiar_rating,321503,US_Cities_List/mm_athens.png,,50,US_Cities_List/mm_athens.png,MM,2,,,,,,,,,,,,,,,
null,,confidence_buffer,321617,confidence_buffer,,null,,,,,,,,,,,,,,,,,,
2592,,unique_rating,324209,US_Cities_List/mm_athens.png,,53,,,5,,,,,,,,,,,,,,,
null,,confidence_buffer,324320,confidence_buffer,,null,,,,,,,,,,,,,,,,,,
2564,,memorable_rating,326884,US_Cities_List/mm_athens.png,,51,,,3,,,,,,,,,,,,,,,
null,,confidence_buffer,326993,confidence_buffer,,null,,,,,,,,,,,,,,,,,,
null,,thebreak,327497,break,,null,,,,,,,,,,,,,,,,,,
23679,,familiar_rating,351177,Fictional_Cities_List/img_natural_46.png,,50,Fictional_Cities_List/img_natural_46.png,NAT,2,,,,,,,,,,,,,,,
null,,confidence_buffer,351285,confidence_buffer,,null,,,,,,,,,,,,,,,,,,
3821,,unique_rating,355106,Fictional_Cities_List/img_natural_46.png,,53,,,5,,,,,,,,,,,,,,,
null,,confidence_buffer,355214,confidence_buffer,,null,,,,,,,,,,,,,,,,,,
4960,,memorable_rating,360175,Fictional_Cities_List/img_natural_46.png,,52,,,4,,,,,,,,,,,,,,,
null,,confidence_buffer,360281,confidence_buffer,,null,,,,,,,,,,,,,,,,,,
null,,thebreak,360783,break,,null,,,,,,,,,,,,,,,,,,
3682,,familiar_rating,364466,US_Cities_List/nat_natchez.png,,49,US_Cities_List/nat_natchez.png,NAT,1,,,,,,,,,,,,,,,
null,,confidence_buffer,364574,confidence_buffer,,null,,,,,,,,,,,,,,,,,,
4633,,unique_rating,369215,US_Cities_List/nat_natchez.png,,53,,,5,,,,,,,,,,,,,,,
null,,confidence_buffer,369321,confidence_buffer,,null,,,,,,,,,,,,,,,,,,
3078,,memorable_rating,372401,US_Cities_List/nat_natchez.png,,50,,,2,,,,,,,,,,,,,,,
null,,confidence_buffer,372515,confidence_buffer,,null,,,,,,,,,,,,,,,,,,
null,,thebreak,373017,break,,null,,,,,,,,,,,,,,,,,,
6887,,familiar_rating,379905,Fictional_Cities_List/img_manmade_49.png,,49,Fictional_Cities_List/img_manmade_49.png,MM,1,,,,,,,,,,,,,,,
null,,confidence_buffer,380018,confidence_buffer,,null,,,,,,,,,,,,,,,,,,
3906,,unique_rating,383924,Fictional_Cities_List/img_manmade_49.png,,51,,,3,,,,,,,,,,,,,,,
null,,confidence_buffer,384033,confidence_buffer,,null,,,,,,,,,,,,,,,,,,
3284,,memorable_rating,387318,Fictional_Cities_List/img_manmade_49.png,,50,,,2,,,,,,,,,,,,,,,
null,,confidence_buffer,387432,confidence_buffer,,null,,,,,,,,,,,,,,,,,,
null,,thebreak,387938,break,,null,,,,,,,,,,,,,,,,,,
44843,,familiar_rating,432781,US_Cities_List/mm_hanover.png,,50,US_Cities_List/mm_hanover.png,MM,2,,,,,,,,,,,,,,,
null,,confidence_buffer,432889,confidence_buffer,,null,,,,,,,,,,,,,,,,,,
6748,,unique_rating,439637,US_Cities_List/mm_hanover.png,,51,,,3,,,,,,,,,,,,,,,
null,,confidence_buffer,439750,confidence_buffer,,null,,,,,,,,,,,,,,,,,,
2941,,memorable_rating,442692,US_Cities_List/mm_hanover.png,,51,,,3,,,,,,,,,,,,,,,
null,,confidence_buffer,442801,confidence_buffer,,null,,,,,,,,,,,,,,,,,,
null,,thebreak,443308,break,,null,,,,,,,,,,,,,,,,,,
17748,,familiar_rating,461057,US_Cities_List/mm_okoboji.png,,50,US_Cities_List/mm_okoboji.png,MM,2,,,,,,,,,,,,,,,
null,,confidence_buffer,461164,confidence_buffer,,null,,,,,,,,,,,,,,,,,,
7736,,unique_rating,468902,US_Cities_List/mm_okoboji.png,,53,,,5,,,,,,,,,,,,,,,
null,,confidence_buffer,469011,confidence_buffer,,null,,,,,,,,,,,,,,,,,,
5483,,probe_rating,474495,probe_rating,,49,,,,1,1,,,,,,,,,,,,,
null,,confidence_buffer,474607,confidence_buffer,,null,,,,,,,,,,,,,,,,,,
4663,,memorable_rating,479272,US_Cities_List/mm_okoboji.png,,51,,,3,,,,,,,,,,,,,,,
null,,confidence_buffer,479381,confidence_buffer,,null,,,,,,,,,,,,,,,,,,
null,,thebreak,479890,break,,null,,,,,,,,,,,,,,,,,,
21541,,familiar_rating,501431,US_Cities_List/mm_racine.png,,53,US_Cities_List/mm_racine.png,MM,5,,,,,,,,,,,,,,,
null,,confidence_buffer,501535,confidence_buffer,,null,,,,,,,,,,,,,,,,,,
2121,,unique_rating,503657,US_Cities_List/mm_racine.png,,53,,,5,,,,,,,,,,,,,,,
null,,confidence_buffer,503767,confidence_buffer,,null,,,,,,,,,,,,,,,,,,
3311,,memorable_rating,507079,US_Cities_List/mm_racine.png,,53,,,5,,,,,,,,,,,,,,,
null,,confidence_buffer,507180,confidence_buffer,,null,,,,,,,,,,,,,,,,,,
null,,thebreak,507685,break,,null,,,,,,,,,,,,,,,,,,
5047,,familiar_rating,512731,US_Cities_List/nat_hanover.png,,49,US_Cities_List/nat_hanover.png,NAT,1,,,,,,,,,,,,,,,
null,,confidence_buffer,512832,confidence_buffer,,null,,,,,,,,,,,,,,,,,,
3039,,unique_rating,515872,US_Cities_List/nat_hanover.png,,53,,,5,,,,,,,,,,,,,,,
null,,confidence_buffer,515976,confidence_buffer,,null,,,,,,,,,,,,,,,,,,
2897,,memorable_rating,518875,US_Cities_List/nat_hanover.png,,51,,,3,,,,,,,,,,,,,,,
null,,confidence_buffer,518984,confidence_buffer,,null,,,,,,,,,,,,,,,,,,
null,,thebreak,519486,break,,null,,,,,,,,,,,,,,,,,,
25433,,familiar_rating,544921,US_Cities_List/mm_sisters.png,,49,US_Cities_List/mm_sisters.png,MM,1,,,,,,,,,,,,,,,
null,,confidence_buffer,545029,confidence_buffer,,null,,,,,,,,,,,,,,,,,,
2024,,unique_rating,547053,US_Cities_List/mm_sisters.png,,51,,,3,,,,,,,,,,,,,,,
null,,confidence_buffer,547159,confidence_buffer,,null,,,,,,,,,,,,,,,,,,
1900,,memorable_rating,549059,US_Cities_List/mm_sisters.png,,51,,,3,,,,,,,,,,,,,,,
null,,confidence_buffer,549170,confidence_buffer,,null,,,,,,,,,,,,,,,,,,
null,,thebreak,549684,break,,null,,,,,,,,,,,,,,,,,,
2877,,familiar_rating,552562,Fictional_Cities_List/img_manmade_25.png,,49,Fictional_Cities_List/img_manmade_25.png,MM,1,,,,,,,,,,,,,,,
null,,confidence_buffer,552670,confidence_buffer,,null,,,,,,,,,,,,,,,,,,
6636,,unique_rating,559308,Fictional_Cities_List/img_manmade_25.png,,52,,,4,,,,,,,,,,,,,,,
null,,confidence_buffer,559418,confidence_buffer,,null,,,,,,,,,,,,,,,,,,
2134,,memorable_rating,561553,Fictional_Cities_List/img_manmade_25.png,,52,,,4,,,,,,,,,,,,,,,
null,,confidence_buffer,561658,confidence_buffer,,null,,,,,,,,,,,,,,,,,,
null,,thebreak,562163,break,,null,,,,,,,,,,,,,,,,,,
3479,,familiar_rating,565643,US_Cities_List/nat_livingston.png,,49,US_Cities_List/nat_livingston.png,NAT,1,,,,,,,,,,,,,,,
null,,confidence_buffer,565748,confidence_buffer,,null,,,,,,,,,,,,,,,,,,
6325,,probe_rating,572074,probe_rating,,53,,,,5,1,,,,,,,,,,,,,
null,,confidence_buffer,572175,confidence_buffer,,null,,,,,,,,,,,,,,,,,,
5216,,unique_rating,577392,US_Cities_List/nat_livingston.png,,53,,,5,,,,,,,,,,,,,,,
null,,confidence_buffer,577500,confidence_buffer,,null,,,,,,,,,,,,,,,,,,
2570,,memorable_rating,580072,US_Cities_List/nat_livingston.png,,53,,,5,,,,,,,,,,,,,,,
null,,confidence_buffer,580178,confidence_buffer,,null,,,,,,,,,,,,,,,,,,
null,,thebreak,580682,break,,null,,,,,,,,,,,,,,,,,,
4573,,familiar_rating,585257,Fictional_Cities_List/img_manmade_42.png,,49,Fictional_Cities_List/img_manmade_42.png,MM,1,,,,,,,,,,,,,,,
null,,confidence_buffer,585366,confidence_buffer,,null,,,,,,,,,,,,,,,,,,
4175,,probe_rating,589542,probe_rating,,53,,,,5,1,,,,,,,,,,,,,
null,,confidence_buffer,589652,confidence_buffer,,null,,,,,,,,,,,,,,,,,,
2247,,unique_rating,591899,Fictional_Cities_List/img_manmade_42.png,,53,,,5,,,,,,,,,,,,,,,
null,,confidence_buffer,592001,confidence_buffer,,null,,,,,,,,,,,,,,,,,,
1574,,memorable_rating,593575,Fictional_Cities_List/img_manmade_42.png,,53,,,5,,,,,,,,,,,,,,,
null,,confidence_buffer,593685,confidence_buffer,,null,,,,,,,,,,,,,,,,,,
null,,thebreak,594192,break,,null,,,,,,,,,,,,,,,,,,
4232,,familiar_rating,598424,Fictional_Cities_List/img_natural_25.png,,50,Fictional_Cities_List/img_natural_25.png,NAT,2,,,,,,,,,,,,,,,
null,,confidence_buffer,598533,confidence_buffer,,null,,,,,,,,,,,,,,,,,,
3995,,unique_rating,602530,Fictional_Cities_List/img_natural_25.png,,53,,,5,,,,,,,,,,,,,,,
null,,confidence_buffer,602632,confidence_buffer,,null,,,,,,,,,,,,,,,,,,
2108,,memorable_rating,604740,Fictional_Cities_List/img_natural_25.png,,53,,,5,,,,,,,,,,,,,,,
null,,confidence_buffer,604855,confidence_buffer,,null,,,,,,,,,,,,,,,,,,
null,,thebreak,605359,break,,null,,,,,,,,,,,,,,,,,,
3690,,familiar_rating,609051,US_Cities_List/nat_bowlinggreen.png,,50,US_Cities_List/nat_bowlinggreen.png,NAT,2,,,,,,,,,,,,,,,
null,,confidence_buffer,609156,confidence_buffer,,null,,,,,,,,,,,,,,,,,,
5390,,unique_rating,614547,US_Cities_List/nat_bowlinggreen.png,,51,,,3,,,,,,,,,,,,,,,
null,,confidence_buffer,614652,confidence_buffer,,null,,,,,,,,,,,,,,,,,,
2523,,memorable_rating,617176,US_Cities_List/nat_bowlinggreen.png,,51,,,3,,,,,,,,,,,,,,,
null,,confidence_buffer,617287,confidence_buffer,,null,,,,,,,,,,,,,,,,,,
null,,thebreak,617795,break,,null,,,,,,,,,,,,,,,,,,
25417,,familiar_rating,643212,Fictional_Cities_List/img_natural_18.png,,49,Fictional_Cities_List/img_natural_18.png,NAT,1,,,,,,,,,,,,,,,
null,,confidence_buffer,643318,confidence_buffer,,null,,,,,,,,,,,,,,,,,,
3980,,unique_rating,647299,Fictional_Cities_List/img_natural_18.png,,53,,,5,,,,,,,,,,,,,,,
null,,confidence_buffer,647404,confidence_buffer,,null,,,,,,,,,,,,,,,,,,
1902,,memorable_rating,649308,Fictional_Cities_List/img_natural_18.png,,53,,,5,,,,,,,,,,,,,,,
null,,confidence_buffer,649423,confidence_buffer,,null,,,,,,,,,,,,,,,,,,
null,,thebreak,649928,break,,null,,,,,,,,,,,,,,,,,,
5233,,familiar_rating,655162,Fictional_Cities_List/img_manmade_10.png,,49,Fictional_Cities_List/img_manmade_10.png,MM,1,,,,,,,,,,,,,,,
null,,confidence_buffer,655275,confidence_buffer,,null,,,,,,,,,,,,,,,,,,
5603,,unique_rating,660879,Fictional_Cities_List/img_manmade_10.png,,52,,,4,,,,,,,,,,,,,,,
null,,confidence_buffer,660980,confidence_buffer,,null,,,,,,,,,,,,,,,,,,
1899,,memorable_rating,662879,Fictional_Cities_List/img_manmade_10.png,,52,,,4,,,,,,,,,,,,,,,
null,,confidence_buffer,662981,confidence_buffer,,null,,,,,,,,,,,,,,,,,,
null,,thebreak,663487,break,,null,,,,,,,,,,,,,,,,,,
28959,,familiar_rating,692447,Fictional_Cities_List/img_natural_31.png,,50,Fictional_Cities_List/img_natural_31.png,NAT,2,,,,,,,,,,,,,,,
null,,confidence_buffer,692564,confidence_buffer,,null,,,,,,,,,,,,,,,,,,
3706,,unique_rating,696270,Fictional_Cities_List/img_natural_31.png,,53,,,5,,,,,,,,,,,,,,,
null,,confidence_buffer,696374,confidence_buffer,,null,,,,,,,,,,,,,,,,,,
1556,,memorable_rating,697931,Fictional_Cities_List/img_natural_31.png,,53,,,5,,,,,,,,,,,,,,,
null,,confidence_buffer,698046,confidence_buffer,,null,,,,,,,,,,,,,,,,,,
null,,thebreak,698549,break,,null,,,,,,,,,,,,,,,,,,
3718,,familiar_rating,702268,Fictional_Cities_List/img_natural_13.png,,49,Fictional_Cities_List/img_natural_13.png,NAT,1,,,,,,,,,,,,,,,
null,,confidence_buffer,702370,confidence_buffer,,null,,,,,,,,,,,,,,,,,,
3791,,unique_rating,706163,Fictional_Cities_List/img_natural_13.png,,53,,,5,,,,,,,,,,,,,,,
null,,confidence_buffer,706277,confidence_buffer,,null,,,,,,,,,,,,,,,,,,
3076,,probe_rating,709355,probe_rating,,49,,,,1,1,,,,,,,,,,,,,
null,,confidence_buffer,709459,confidence_buffer,,null,,,,,,,,,,,,,,,,,,
2561,,memorable_rating,712020,Fictional_Cities_List/img_natural_13.png,,53,,,5,,,,,,,,,,,,,,,
null,,confidence_buffer,712128,confidence_buffer,,null,,,,,,,,,,,,,,,,,,
null,,thebreak,712633,break,,null,,,,,,,,,,,,,,,,,,
3827,,familiar_rating,716462,Fictional_Cities_List/img_natural_44.png,,49,Fictional_Cities_List/img_natural_44.png,NAT,1,,,,,,,,,,,,,,,
null,,confidence_buffer,716658,confidence_buffer,,null,,,,,,,,,,,,,,,,,,
2865,,unique_rating,719525,Fictional_Cities_List/img_natural_44.png,,52,,,4,,,,,,,,,,,,,,,
null,,confidence_buffer,719626,confidence_buffer,,null,,,,,,,,,,,,,,,,,,
2763,,memorable_rating,722390,Fictional_Cities_List/img_natural_44.png,,53,,,5,,,,,,,,,,,,,,,
null,,confidence_buffer,722499,confidence_buffer,,null,,,,,,,,,,,,,,,,,,
null,,thebreak,723002,break,,null,,,,,,,,,,,,,,,,,,
5199,,familiar_rating,728202,Fictional_Cities_List/img_natural_01.png,,50,Fictional_Cities_List/img_natural_01.png,NAT,2,,,,,,,,,,,,,,,
null,,confidence_buffer,728312,confidence_buffer,,null,,,,,,,,,,,,,,,,,,
2598,,unique_rating,730911,Fictional_Cities_List/img_natural_01.png,,53,,,5,,,,,,,,,,,,,,,
null,,confidence_buffer,731025,confidence_buffer,,null,,,,,,,,,,,,,,,,,,
1792,,memorable_rating,732820,Fictional_Cities_List/img_natural_01.png,,53,,,5,,,,,,,,,,,,,,,
null,,confidence_buffer,732930,confidence_buffer,,null,,,,,,,,,,,,,,,,,,
3431,,probe_rating,736363,probe_rating,,52,,,,4,1,,,,,,,,,,,,,
null,,confidence_buffer,736479,confidence_buffer,,null,,,,,,,,,,,,,,,,,,
null,,thebreak,736983,break,,null,,,,,,,,,,,,,,,,,,
5295,,familiar_rating,742280,Fictional_Cities_List/img_manmade_44.png,,51,Fictional_Cities_List/img_manmade_44.png,MM,3,,,,,,,,,,,,,,,
null,,confidence_buffer,742384,confidence_buffer,,null,,,,,,,,,,,,,,,,,,
3117,,probe_rating,745502,probe_rating,,52,,,,4,1,,,,,,,,,,,,,
null,,confidence_buffer,745610,confidence_buffer,,null,,,,,,,,,,,,,,,,,,
3065,,unique_rating,748675,Fictional_Cities_List/img_manmade_44.png,,53,,,5,,,,,,,,,,,,,,,
null,,confidence_buffer,748792,confidence_buffer,,null,,,,,,,,,,,,,,,,,,
1644,,memorable_rating,750436,Fictional_Cities_List/img_manmade_44.png,,53,,,5,,,,,,,,,,,,,,,
null,,confidence_buffer,750554,confidence_buffer,,null,,,,,,,,,,,,,,,,,,
null,,thebreak,751058,break,,null,,,,,,,,,,,,,,,,,,
2184,,familiar_rating,753242,US_Cities_List/nat_leesburg.png,,49,US_Cities_List/nat_leesburg.png,NAT,1,,,,,,,,,,,,,,,
null,,confidence_buffer,753348,confidence_buffer,,null,,,,,,,,,,,,,,,,,,
2749,,unique_rating,756098,US_Cities_List/nat_leesburg.png,,51,,,3,,,,,,,,,,,,,,,
null,,confidence_buffer,756210,confidence_buffer,,null,,,,,,,,,,,,,,,,,,
3564,,memorable_rating,759775,US_Cities_List/nat_leesburg.png,,51,,,3,,,,,,,,,,,,,,,
null,,confidence_buffer,759881,confidence_buffer,,null,,,,,,,,,,,,,,,,,,
1974,,probe_rating,761856,probe_rating,,53,,,,5,1,,,,,,,,,,,,,
null,,confidence_buffer,761972,confidence_buffer,,null,,,,,,,,,,,,,,,,,,
null,,thebreak,762476,break,,null,,,,,,,,,,,,,,,,,,
4182,,familiar_rating,766659,Fictional_Cities_List/img_manmade_18.png,,49,Fictional_Cities_List/img_manmade_18.png,MM,1,,,,,,,,,,,,,,,
null,,confidence_buffer,766761,confidence_buffer,,null,,,,,,,,,,,,,,,,,,
3975,,unique_rating,770737,Fictional_Cities_List/img_manmade_18.png,,53,,,5,,,,,,,,,,,,,,,
null,,confidence_buffer,770850,confidence_buffer,,null,,,,,,,,,,,,,,,,,,
3251,,memorable_rating,774103,Fictional_Cities_List/img_manmade_18.png,,53,,,5,,,,,,,,,,,,,,,
null,,confidence_buffer,774212,confidence_buffer,,null,,,,,,,,,,,,,,,,,,
null,,thebreak,774718,break,,null,,,,,,,,,,,,,,,,,,
8965,,intro_0,783683,instruct,,32,,,,,,,,,,,,,,,,,,
11208,,intro_1,794892,instruct,,32,,,,,,,,,,,,,,,,,,
71140,,intro_2,866033,instruct,,32,,,,,,,,,,,,,,,,,,
null,,instruct_dir_4,867543,instruct,,null,,,,,,,,,,,,,,,,,,
11671,,pt2_realistic_rating,879215,Fictional_Cities_List/img_natural_41.png,,50,Fictional_Cities_List/img_natural_41.png,NAT,2,,,,,,,,,,,,,,,
null,,confidence_buffer,879327,confidence_buffer,,null,,,,,,,,,,,,,,,,,,
5201,,pt2_unique_rating,884529,Fictional_Cities_List/img_natural_41.png,,52,,,4,,,,,,,,,,,,,,,
null,,confidence_buffer,884639,confidence_buffer,,null,,,,,,,,,,,,,,,,,,
2110,,pt2_memorable_rating,886750,Fictional_Cities_List/img_natural_41.png,,52,,,4,,,,,,,,,,,,,,,
null,,confidence_buffer,886865,confidence_buffer,,null,,,,,,,,,,,,,,,,,,
6190,,recognition_phase,893056,Fictional_Cities_List/img_natural_41.png,,52,,,,,,new,1,1,,,,,,,,,,
null,,confidence_buffer,893160,confidence_buffer,,null,,,,,,,,,,,,,,,,,,
null,,thebreak,893664,break,,null,,,,,,,,,,,,,,,,,,
8368,,pt2_realistic_rating,902034,Fictional_Cities_List/img_manmade_41.png,,53,Fictional_Cities_List/img_manmade_41.png,MM,5,,,,,,,,,,,,,,,
null,,confidence_buffer,902135,confidence_buffer,,null,,,,,,,,,,,,,,,,,,
3822,,pt2_unique_rating,905957,Fictional_Cities_List/img_manmade_41.png,,53,,,5,,,,,,,,,,,,,,,
null,,confidence_buffer,906062,confidence_buffer,,null,,,,,,,,,,,,,,,,,,
1994,,pt2_memorable_rating,908056,Fictional_Cities_List/img_manmade_41.png,,53,,,5,,,,,,,,,,,,,,,
null,,confidence_buffer,908159,confidence_buffer,,null,,,,,,,,,,,,,,,,,,
4577,,recognition_phase,912737,Fictional_Cities_List/img_manmade_41.png,,52,,,,,,new,1,1,,,,,,,,,,
null,,confidence_buffer,912850,confidence_buffer,,null,,,,,,,,,,,,,,,,,,
null,,thebreak,913357,break,,null,,,,,,,,,,,,,,,,,,
3695,,pt2_realistic_rating,917051,Fictional_Cities_List/img_manmade_10.png,,49,Fictional_Cities_List/img_manmade_10.png,MM,1,,,,,,,,,,,,,,,
null,,confidence_buffer,917165,confidence_buffer,,null,,,,,,,,,,,,,,,,,,
3380,,pt2_unique_rating,920546,Fictional_Cities_List/img_manmade_10.png,,51,,,3,,,,,,,,,,,,,,,
null,,confidence_buffer,920651,confidence_buffer,,null,,,,,,,,,,,,,,,,,,
1562,,pt2_memorable_rating,922215,Fictional_Cities_List/img_manmade_10.png,,51,,,3,,,,,,,,,,,,,,,
null,,confidence_buffer,922322,confidence_buffer,,null,,,,,,,,,,,,,,,,,,
3383,,recognition_phase,925707,Fictional_Cities_List/img_manmade_10.png,,49,,,,,,old,1,1,,,,,,,,,,
null,,confidence_buffer,925821,confidence_buffer,,null,,,,,,,,,,,,,,,,,,
null,,thebreak,926326,break,,null,,,,,,,,,,,,,,,,,,
8710,,pt2_realistic_rating,935036,US_Cities_List/mm_natchez.png,,51,US_Cities_List/mm_natchez.png,MM,3,,,,,,,,,,,,,,,
null,,confidence_buffer,935145,confidence_buffer,,null,,,,,,,,,,,,,,,,,,
9239,,pt2_unique_rating,944384,US_Cities_List/mm_natchez.png,,52,,,4,,,,,,,,,,,,,,,
null,,confidence_buffer,944499,confidence_buffer,,null,,,,,,,,,,,,,,,,,,
3596,,pt2_memorable_rating,948097,US_Cities_List/mm_natchez.png,,52,,,4,,,,,,,,,,,,,,,
null,,confidence_buffer,948209,confidence_buffer,,null,,,,,,,,,,,,,,,,,,
2646,,probe_rating,950858,probe_rating,,50,,,,2,1,,,,,,,,,,,,,
null,,confidence_buffer,950965,confidence_buffer,,null,,,,,,,,,,,,,,,,,,
8630,,recognition_phase,959595,US_Cities_List/mm_natchez.png,,52,,,,,,new,0,0.75,,,,,,,,,,
null,,confidence_buffer,959704,confidence_buffer,,null,,,,,,,,,,,,,,,,,,
null,,thebreak,960210,break,,null,,,,,,,,,,,,,,,,,,
6531,,pt2_realistic_rating,966742,Fictional_Cities_List/img_natural_31.png,,52,Fictional_Cities_List/img_natural_31.png,NAT,4,,,,,,,,,,,,,,,
null,,confidence_buffer,966856,confidence_buffer,,null,,,,,,,,,,,,,,,,,,
2795,,pt2_unique_rating,969652,Fictional_Cities_List/img_natural_31.png,,52,,,4,,,,,,,,,,,,,,,
null,,confidence_buffer,969756,confidence_buffer,,null,,,,,,,,,,,,,,,,,,
1716,,pt2_memorable_rating,971473,Fictional_Cities_List/img_natural_31.png,,52,,,4,,,,,,,,,,,,,,,
null,,confidence_buffer,971576,confidence_buffer,,null,,,,,,,,,,,,,,,,,,
2095,,recognition_phase,973673,Fictional_Cities_List/img_natural_31.png,,49,,,,,,old,1,0.8,,,,,,,,,,
null,,confidence_buffer,973783,confidence_buffer,,null,,,,,,,,,,,,,,,,,,
null,,thebreak,974286,break,,null,,,,,,,,,,,,,,,,,,
4658,,pt2_realistic_rating,978944,US_Cities_List/nat_okoboji.png,,51,US_Cities_List/nat_okoboji.png,NAT,3,,,,,,,,,,,,,,,
null,,confidence_buffer,979048,confidence_buffer,,null,,,,,,,,,,,,,,,,,,
2892,,pt2_unique_rating,981940,US_Cities_List/nat_okoboji.png,,52,,,4,,,,,,,,,,,,,,,
null,,confidence_buffer,982051,confidence_buffer,,null,,,,,,,,,,,,,,,,,,
2035,,pt2_memorable_rating,984086,US_Cities_List/nat_okoboji.png,,52,,,4,,,,,,,,,,,,,,,
null,,confidence_buffer,984196,confidence_buffer,,null,,,,,,,,,,,,,,,,,,
2231,,recognition_phase,986429,US_Cities_List/nat_okoboji.png,,52,,,,,,new,1,0.8333333333333334,,,,,,,,,,
null,,confidence_buffer,986529,confidence_buffer,,null,,,,,,,,,,,,,,,,,,
null,,thebreak,987034,break,,null,,,,,,,,,,,,,,,,,,
7350,,pt2_realistic_rating,994386,Fictional_Cities_List/img_manmade_01.png,,51,Fictional_Cities_List/img_manmade_01.png,MM,3,,,,,,,,,,,,,,,
null,,confidence_buffer,994499,confidence_buffer,,null,,,,,,,,,,,,,,,,,,
1862,,pt2_unique_rating,996362,Fictional_Cities_List/img_manmade_01.png,,52,,,4,,,,,,,,,,,,,,,
null,,confidence_buffer,996472,confidence_buffer,,null,,,,,,,,,,,,,,,,,,
2112,,pt2_memorable_rating,998585,Fictional_Cities_List/img_manmade_01.png,,52,,,4,,,,,,,,,,,,,,,
null,,confidence_buffer,998699,confidence_buffer,,null,,,,,,,,,,,,,,,,,,
2150,,recognition_phase,1000850,Fictional_Cities_List/img_manmade_01.png,,52,,,,,,new,1,0.8571428571428571,,,,,,,,,,
null,,confidence_buffer,1000953,confidence_buffer,,null,,,,,,,,,,,,,,,,,,
null,,thebreak,1001459,break,,null,,,,,,,,,,,,,,,,,,
5457,,pt2_realistic_rating,1006917,Fictional_Cities_List/img_natural_49.png,,53,Fictional_Cities_List/img_natural_49.png,NAT,5,,,,,,,,,,,,,,,
null,,confidence_buffer,1007034,confidence_buffer,,null,,,,,,,,,,,,,,,,,,
3324,,pt2_unique_rating,1010359,Fictional_Cities_List/img_natural_49.png,,51,,,3,,,,,,,,,,,,,,,
null,,confidence_buffer,1010466,confidence_buffer,,null,,,,,,,,,,,,,,,,,,
1401,,pt2_memorable_rating,1011869,Fictional_Cities_List/img_natural_49.png,,52,,,4,,,,,,,,,,,,,,,
null,,confidence_buffer,1011985,confidence_buffer,,null,,,,,,,,,,,,,,,,,,
1512,,recognition_phase,1013498,Fictional_Cities_List/img_natural_49.png,,52,,,,,,new,1,0.875,,,,,,,,,,
null,,confidence_buffer,1013614,confidence_buffer,,null,,,,,,,,,,,,,,,,,,
null,,thebreak,1014117,break,,null,,,,,,,,,,,,,,,,,,
3486,,pt2_realistic_rating,1017605,US_Cities_List/nat_orr.png,,51,US_Cities_List/nat_orr.png,NAT,3,,,,,,,,,,,,,,,
null,,confidence_buffer,1017716,confidence_buffer,,null,,,,,,,,,,,,,,,,,,
2756,,pt2_unique_rating,1020472,US_Cities_List/nat_orr.png,,52,,,4,,,,,,,,,,,,,,,
null,,confidence_buffer,1020578,confidence_buffer,,null,,,,,,,,,,,,,,,,,,
1485,,pt2_memorable_rating,1022063,US_Cities_List/nat_orr.png,,52,,,4,,,,,,,,,,,,,,,
null,,confidence_buffer,1022179,confidence_buffer,,null,,,,,,,,,,,,,,,,,,
3075,,recognition_phase,1025254,US_Cities_List/nat_orr.png,,52,,,,,,new,1,0.8888888888888888,,,,,,,,,,
null,,confidence_buffer,1025369,confidence_buffer,,null,,,,,,,,,,,,,,,,,,
null,,thebreak,1025874,break,,null,,,,,,,,,,,,,,,,,,
2582,,pt2_realistic_rating,1028457,US_Cities_List/nat_boulder.png,,50,US_Cities_List/nat_boulder.png,NAT,2,,,,,,,,,,,,,,,
null,,confidence_buffer,1028568,confidence_buffer,,null,,,,,,,,,,,,,,,,,,
2132,,pt2_unique_rating,1030700,US_Cities_List/nat_boulder.png,,51,,,3,,,,,,,,,,,,,,,
null,,confidence_buffer,1030813,confidence_buffer,,null,,,,,,,,,,,,,,,,,,
1703,,probe_rating,1032516,probe_rating,,52,,,,4,1,,,,,,,,,,,,,
null,,confidence_buffer,1032625,confidence_buffer,,null,,,,,,,,,,,,,,,,,,
1901,,pt2_memorable_rating,1034527,US_Cities_List/nat_boulder.png,,51,,,3,,,,,,,,,,,,,,,
null,,confidence_buffer,1034636,confidence_buffer,,null,,,,,,,,,,,,,,,,,,
2302,,recognition_phase,1036939,US_Cities_List/nat_boulder.png,,52,,,,,,new,1,0.9,,,,,,,,,,
null,,confidence_buffer,1037050,confidence_buffer,,null,,,,,,,,,,,,,,,,,,
null,,thebreak,1037555,break,,null,,,,,,,,,,,,,,,,,,
3619,,pt2_realistic_rating,1041176,US_Cities_List/mm_albuquerque.png,,53,US_Cities_List/mm_albuquerque.png,MM,5,,,,,,,,,,,,,,,
null,,confidence_buffer,1041292,confidence_buffer,,null,,,,,,,,,,,,,,,,,,
1542,,pt2_unique_rating,1042836,US_Cities_List/mm_albuquerque.png,,53,,,5,,,,,,,,,,,,,,,
null,,confidence_buffer,1042944,confidence_buffer,,null,,,,,,,,,,,,,,,,,,
1853,,pt2_memorable_rating,1044798,US_Cities_List/mm_albuquerque.png,,53,,,5,,,,,,,,,,,,,,,
null,,confidence_buffer,1044915,confidence_buffer,,null,,,,,,,,,,,,,,,,,,
2081,,recognition_phase,1046996,US_Cities_List/mm_albuquerque.png,,52,,,,,,new,1,0.9090909090909091,,,,,,,,,,
null,,confidence_buffer,1047111,confidence_buffer,,null,,,,,,,,,,,,,,,,,,
null,,thebreak,1047615,break,,null,,,,,,,,,,,,,,,,,,
5122,,pt2_realistic_rating,1052739,US_Cities_List/nat_natchez.png,,53,US_Cities_List/nat_natchez.png,NAT,5,,,,,,,,,,,,,,,
null,,confidence_buffer,1052844,confidence_buffer,,null,,,,,,,,,,,,,,,,,,
1811,,pt2_unique_rating,1054656,US_Cities_List/nat_natchez.png,,53,,,5,,,,,,,,,,,,,,,
null,,confidence_buffer,1054770,confidence_buffer,,null,,,,,,,,,,,,,,,,,,
3715,,pt2_memorable_rating,1058487,US_Cities_List/nat_natchez.png,,53,,,5,,,,,,,,,,,,,,,
null,,confidence_buffer,1058592,confidence_buffer,,null,,,,,,,,,,,,,,,,,,
1769,,recognition_phase,1060362,US_Cities_List/nat_natchez.png,,52,,,,,,new,0,0.8333333333333334,,,,,,,,,,
null,,confidence_buffer,1060474,confidence_buffer,,null,,,,,,,,,,,,,,,,,,
null,,thebreak,1060980,break,,null,,,,,,,,,,,,,,,,,,
3701,,pt2_realistic_rating,1064682,US_Cities_List/nat_duck.png,,53,US_Cities_List/nat_duck.png,NAT,5,,,,,,,,,,,,,,,
null,,confidence_buffer,1064788,confidence_buffer,,null,,,,,,,,,,,,,,,,,,
1195,,probe_rating,1065984,probe_rating,,50,,,,2,1,,,,,,,,,,,,,
null,,confidence_buffer,1066098,confidence_buffer,,null,,,,,,,,,,,,,,,,,,
2845,,pt2_unique_rating,1068944,US_Cities_List/nat_duck.png,,53,,,5,,,,,,,,,,,,,,,
null,,confidence_buffer,1069046,confidence_buffer,,null,,,,,,,,,,,,,,,,,,
2203,,pt2_memorable_rating,1071250,US_Cities_List/nat_duck.png,,53,,,5,,,,,,,,,,,,,,,
null,,confidence_buffer,1071355,confidence_buffer,,null,,,,,,,,,,,,,,,,,,
1502,,recognition_phase,1072860,US_Cities_List/nat_duck.png,,52,,,,,,new,1,0.8461538461538461,,,,,,,,,,
null,,confidence_buffer,1072966,confidence_buffer,,null,,,,,,,,,,,,,,,,,,
null,,thebreak,1073468,break,,null,,,,,,,,,,,,,,,,,,
2965,,pt2_realistic_rating,1076434,US_Cities_List/nat_bowlinggreen.png,,53,US_Cities_List/nat_bowlinggreen.png,NAT,5,,,,,,,,,,,,,,,
null,,confidence_buffer,1076544,confidence_buffer,,null,,,,,,,,,,,,,,,,,,
1789,,pt2_unique_rating,1078333,US_Cities_List/nat_bowlinggreen.png,,53,,,5,,,,,,,,,,,,,,,
null,,confidence_buffer,1078441,confidence_buffer,,null,,,,,,,,,,,,,,,,,,
2991,,pt2_memorable_rating,1081433,US_Cities_List/nat_bowlinggreen.png,,51,,,3,,,,,,,,,,,,,,,
null,,confidence_buffer,1081538,confidence_buffer,,null,,,,,,,,,,,,,,,,,,
1599,,recognition_phase,1083139,US_Cities_List/nat_bowlinggreen.png,,52,,,,,,new,0,0.7857142857142857,,,,,,,,,,
null,,confidence_buffer,1083253,confidence_buffer,,null,,,,,,,,,,,,,,,,,,
null,,thebreak,1083756,break,,null,,,,,,,,,,,,,,,,,,
8485,,pt2_realistic_rating,1092243,US_Cities_List/mm_racine.png,,53,US_Cities_List/mm_racine.png,MM,5,,,,,,,,,,,,,,,
null,,confidence_buffer,1092350,confidence_buffer,,null,,,,,,,,,,,,,,,,,,
1370,,pt2_unique_rating,1093721,US_Cities_List/mm_racine.png,,53,,,5,,,,,,,,,,,,,,,
null,,confidence_buffer,1093836,confidence_buffer,,null,,,,,,,,,,,,,,,,,,
1233,,pt2_memorable_rating,1095070,US_Cities_List/mm_racine.png,,53,,,5,,,,,,,,,,,,,,,
null,,confidence_buffer,1095178,confidence_buffer,,null,,,,,,,,,,,,,,,,,,
2317,,recognition_phase,1097497,US_Cities_List/mm_racine.png,,49,,,,,,old,1,0.8,,,,,,,,,,
null,,confidence_buffer,1097610,confidence_buffer,,null,,,,,,,,,,,,,,,,,,
null,,thebreak,1098113,break,,null,,,,,,,,,,,,,,,,,,
2979,,pt2_realistic_rating,1101093,US_Cities_List/mm_gloucester.png,,53,US_Cities_List/mm_gloucester.png,MM,5,,,,,,,,,,,,,,,
null,,confidence_buffer,1101207,confidence_buffer,,null,,,,,,,,,,,,,,,,,,
1736,,pt2_unique_rating,1102942,US_Cities_List/mm_gloucester.png,,53,,,5,,,,,,,,,,,,,,,
null,,confidence_buffer,1103056,confidence_buffer,,null,,,,,,,,,,,,,,,,,,
1022,,pt2_memorable_rating,1104079,US_Cities_List/mm_gloucester.png,,53,,,5,,,,,,,,,,,,,,,
null,,confidence_buffer,1104191,confidence_buffer,,null,,,,,,,,,,,,,,,,,,
3090,,recognition_phase,1107281,US_Cities_List/mm_gloucester.png,,52,,,,,,new,1,0.8125,,,,,,,,,,
null,,confidence_buffer,1107395,confidence_buffer,,null,,,,,,,,,,,,,,,,,,
null,,thebreak,1107903,break,,null,,,,,,,,,,,,,,,,,,
3485,,pt2_realistic_rating,1111389,Fictional_Cities_List/img_manmade_12.png,,53,Fictional_Cities_List/img_manmade_12.png,MM,5,,,,,,,,,,,,,,,
null,,confidence_buffer,1111499,confidence_buffer,,null,,,,,,,,,,,,,,,,,,
1299,,pt2_unique_rating,1112800,Fictional_Cities_List/img_manmade_12.png,,53,,,5,,,,,,,,,,,,,,,
null,,confidence_buffer,1112903,confidence_buffer,,null,,,,,,,,,,,,,,,,,,
1351,,probe_rating,1114254,probe_rating,,49,,,,1,1,,,,,,,,,,,,,
null,,confidence_buffer,1114366,confidence_buffer,,null,,,,,,,,,,,,,,,,,,
1764,,pt2_memorable_rating,1116132,Fictional_Cities_List/img_manmade_12.png,,53,,,5,,,,,,,,,,,,,,,
null,,confidence_buffer,1116243,confidence_buffer,,null,,,,,,,,,,,,,,,,,,
3128,,recognition_phase,1119372,Fictional_Cities_List/img_manmade_12.png,,52,,,,,,new,1,0.8235294117647058,,,,,,,,,,
null,,confidence_buffer,1119474,confidence_buffer,,null,,,,,,,,,,,,,,,,,,
null,,thebreak,1119980,break,,null,,,,,,,,,,,,,,,,,,
3532,,pt2_realistic_rating,1123514,US_Cities_List/nat_coeurdalene.png,,52,US_Cities_List/nat_coeurdalene.png,NAT,4,,,,,,,,,,,,,,,
null,,confidence_buffer,1123622,confidence_buffer,,null,,,,,,,,,,,,,,,,,,
2010,,pt2_unique_rating,1125633,US_Cities_List/nat_coeurdalene.png,,51,,,3,,,,,,,,,,,,,,,
null,,confidence_buffer,1125748,confidence_buffer,,null,,,,,,,,,,,,,,,,,,
1886,,pt2_memorable_rating,1127635,US_Cities_List/nat_coeurdalene.png,,51,,,3,,,,,,,,,,,,,,,
null,,confidence_buffer,1127750,confidence_buffer,,null,,,,,,,,,,,,,,,,,,
1782,,recognition_phase,1129534,US_Cities_List/nat_coeurdalene.png,,52,,,,,,new,1,0.8333333333333334,,,,,,,,,,
null,,confidence_buffer,1129653,confidence_buffer,,null,,,,,,,,,,,,,,,,,,
null,,thebreak,1130156,break,,null,,,,,,,,,,,,,,,,,,
4631,,pt2_realistic_rating,1134788,Fictional_Cities_List/img_natural_12.png,,53,Fictional_Cities_List/img_natural_12.png,NAT,5,,,,,,,,,,,,,,,
null,,confidence_buffer,1134895,confidence_buffer,,null,,,,,,,,,,,,,,,,,,
5429,,pt2_unique_rating,1140325,Fictional_Cities_List/img_natural_12.png,,52,,,4,,,,,,,,,,,,,,,
null,,confidence_buffer,1140427,confidence_buffer,,null,,,,,,,,,,,,,,,,,,
1524,,pt2_memorable_rating,1141952,Fictional_Cities_List/img_natural_12.png,,52,,,4,,,,,,,,,,,,,,,
null,,confidence_buffer,1142068,confidence_buffer,,null,,,,,,,,,,,,,,,,,,
1693,,recognition_phase,1143761,Fictional_Cities_List/img_natural_12.png,,52,,,,,,new,1,0.8421052631578947,,,,,,,,,,
null,,confidence_buffer,1143868,confidence_buffer,,null,,,,,,,,,,,,,,,,,,
null,,thebreak,1144373,break,,null,,,,,,,,,,,,,,,,,,
6665,,pt2_realistic_rating,1151039,Fictional_Cities_List/img_manmade_15.png,,51,Fictional_Cities_List/img_manmade_15.png,MM,3,,,,,,,,,,,,,,,
null,,confidence_buffer,1151144,confidence_buffer,,null,,,,,,,,,,,,,,,,,,
1697,,pt2_unique_rating,1152842,Fictional_Cities_List/img_manmade_15.png,,51,,,3,,,,,,,,,,,,,,,
null,,confidence_buffer,1152955,confidence_buffer,,null,,,,,,,,,,,,,,,,,,
1058,,pt2_memorable_rating,1154013,Fictional_Cities_List/img_manmade_15.png,,52,,,4,,,,,,,,,,,,,,,
null,,confidence_buffer,1154120,confidence_buffer,,null,,,,,,,,,,,,,,,,,,
1431,,recognition_phase,1155551,Fictional_Cities_List/img_manmade_15.png,,52,,,,,,new,1,0.85,,,,,,,,,,
null,,confidence_buffer,1155663,confidence_buffer,,null,,,,,,,,,,,,,,,,,,
null,,thebreak,1156164,break,,null,,,,,,,,,,,,,,,,,,
3223,,pt2_realistic_rating,1159389,US_Cities_List/nat_hanover.png,,51,US_Cities_List/nat_hanover.png,NAT,3,,,,,,,,,,,,,,,
null,,confidence_buffer,1159506,confidence_buffer,,null,,,,,,,,,,,,,,,,,,
1793,,pt2_unique_rating,1161300,US_Cities_List/nat_hanover.png,,52,,,4,,,,,,,,,,,,,,,
null,,confidence_buffer,1161407,confidence_buffer,,null,,,,,,,,,,,,,,,,,,
1391,,pt2_memorable_rating,1162799,US_Cities_List/nat_hanover.png,,52,,,4,,,,,,,,,,,,,,,
null,,confidence_buffer,1162900,confidence_buffer,,null,,,,,,,,,,,,,,,,,,
2100,,probe_rating,1165002,probe_rating,,51,,,,3,1,,,,,,,,,,,,,
null,,confidence_buffer,1165117,confidence_buffer,,null,,,,,,,,,,,,,,,,,,
1879,,recognition_phase,1166997,US_Cities_List/nat_hanover.png,,49,,,,,,old,1,0.8571428571428571,,,,,,,,,,
null,,confidence_buffer,1167100,confidence_buffer,,null,,,,,,,,,,,,,,,,,,
null,,thebreak,1167605,break,,null,,,,,,,,,,,,,,,,,,
6148,,pt2_realistic_rating,1173754,Fictional_Cities_List/img_manmade_31.png,,50,Fictional_Cities_List/img_manmade_31.png,MM,2,,,,,,,,,,,,,,,
null,,confidence_buffer,1173858,confidence_buffer,,null,,,,,,,,,,,,,,,,,,
3689,,pt2_unique_rating,1177548,Fictional_Cities_List/img_manmade_31.png,,51,,,3,,,,,,,,,,,,,,,
null,,confidence_buffer,1177661,confidence_buffer,,null,,,,,,,,,,,,,,,,,,
1479,,pt2_memorable_rating,1179143,Fictional_Cities_List/img_manmade_31.png,,51,,,3,,,,,,,,,,,,,,,
null,,confidence_buffer,1179248,confidence_buffer,,null,,,,,,,,,,,,,,,,,,
1721,,recognition_phase,1180971,Fictional_Cities_List/img_manmade_31.png,,52,,,,,,new,1,0.8636363636363636,,,,,,,,,,
null,,confidence_buffer,1181073,confidence_buffer,,null,,,,,,,,,,,,,,,,,,
null,,thebreak,1181577,break,,null,,,,,,,,,,,,,,,,,,
4421,,pt2_realistic_rating,1185998,Fictional_Cities_List/img_manmade_19.png,,50,Fictional_Cities_List/img_manmade_19.png,MM,2,,,,,,,,,,,,,,,
null,,confidence_buffer,1186104,confidence_buffer,,null,,,,,,,,,,,,,,,,,,
2648,,pt2_unique_rating,1188754,Fictional_Cities_List/img_manmade_19.png,,52,,,4,,,,,,,,,,,,,,,
null,,confidence_buffer,1188857,confidence_buffer,,null,,,,,,,,,,,,,,,,,,
1672,,pt2_memorable_rating,1190530,Fictional_Cities_List/img_manmade_19.png,,52,,,4,,,,,,,,,,,,,,,
null,,confidence_buffer,1190634,confidence_buffer,,null,,,,,,,,,,,,,,,,,,
2361,,recognition_phase,1192996,Fictional_Cities_List/img_manmade_19.png,,52,,,,,,new,1,0.8695652173913043,,,,,,,,,,
null,,confidence_buffer,1193103,confidence_buffer,,null,,,,,,,,,,,,,,,,,,
null,,thebreak,1193606,break,,null,,,,,,,,,,,,,,,,,,
2577,,pt2_realistic_rating,1196183,US_Cities_List/mm_athens.png,,53,US_Cities_List/mm_athens.png,MM,5,,,,,,,,,,,,,,,
null,,confidence_buffer,1196294,confidence_buffer,,null,,,,,,,,,,,,,,,,,,
1948,,pt2_unique_rating,1198243,US_Cities_List/mm_athens.png,,53,,,5,,,,,,,,,,,,,,,
null,,confidence_buffer,1198354,confidence_buffer,,null,,,,,,,,,,,,,,,,,,
2434,,pt2_memorable_rating,1200788,US_Cities_List/mm_athens.png,,53,,,5,,,,,,,,,,,,,,,
null,,confidence_buffer,1200899,confidence_buffer,,null,,,,,,,,,,,,,,,,,,
2166,,recognition_phase,1203066,US_Cities_List/mm_athens.png,,49,,,,,,old,1,0.875,,,,,,,,,,
null,,confidence_buffer,1203182,confidence_buffer,,null,,,,,,,,,,,,,,,,,,
null,,thebreak,1203684,break,,null,,,,,,,,,,,,,,,,,,
2851,,pt2_realistic_rating,1206536,US_Cities_List/mm_okoboji.png,,53,US_Cities_List/mm_okoboji.png,MM,5,,,,,,,,,,,,,,,
null,,confidence_buffer,1206642,confidence_buffer,,null,,,,,,,,,,,,,,,,,,
1511,,pt2_unique_rating,1208154,US_Cities_List/mm_okoboji.png,,53,,,5,,,,,,,,,,,,,,,
null,,confidence_buffer,1208261,confidence_buffer,,null,,,,,,,,,,,,,,,,,,
2338,,pt2_memorable_rating,1210600,US_Cities_List/mm_okoboji.png,,53,,,5,,,,,,,,,,,,,,,
null,,confidence_buffer,1210702,confidence_buffer,,null,,,,,,,,,,,,,,,,,,
1461,,recognition_phase,1212162,US_Cities_List/mm_okoboji.png,,49,,,,,,old,1,0.88,,,,,,,,,,
null,,confidence_buffer,1212274,confidence_buffer,,null,,,,,,,,,,,,,,,,,,
null,,thebreak,1212777,break,,null,,,,,,,,,,,,,,,,,,
5417,,pt2_realistic_rating,1218196,Fictional_Cities_List/img_manmade_25.png,,50,Fictional_Cities_List/img_manmade_25.png,MM,2,,,,,,,,,,,,,,,
null,,confidence_buffer,1218299,confidence_buffer,,null,,,,,,,,,,,,,,,,,,
6362,,pt2_unique_rating,1224663,Fictional_Cities_List/img_manmade_25.png,,52,,,4,,,,,,,,,,,,,,,
null,,confidence_buffer,1224766,confidence_buffer,,null,,,,,,,,,,,,,,,,,,
1235,,pt2_memorable_rating,1226001,Fictional_Cities_List/img_manmade_25.png,,52,,,4,,,,,,,,,,,,,,,
null,,confidence_buffer,1226115,confidence_buffer,,null,,,,,,,,,,,,,,,,,,
1102,,recognition_phase,1227218,Fictional_Cities_List/img_manmade_25.png,,49,,,,,,old,1,0.8846153846153846,,,,,,,,,,
null,,confidence_buffer,1227326,confidence_buffer,,null,,,,,,,,,,,,,,,,,,
null,,thebreak,1227829,break,,null,,,,,,,,,,,,,,,,,,
4739,,pt2_realistic_rating,1232569,Fictional_Cities_List/img_natural_16.png,,49,Fictional_Cities_List/img_natural_16.png,NAT,1,,,,,,,,,,,,,,,
null,,confidence_buffer,1232670,confidence_buffer,,null,,,,,,,,,,,,,,,,,,
2778,,pt2_unique_rating,1235450,Fictional_Cities_List/img_natural_16.png,,52,,,4,,,,,,,,,,,,,,,
null,,confidence_buffer,1235562,confidence_buffer,,null,,,,,,,,,,,,,,,,,,
1895,,pt2_memorable_rating,1237459,Fictional_Cities_List/img_natural_16.png,,52,,,4,,,,,,,,,,,,,,,
null,,confidence_buffer,1237561,confidence_buffer,,null,,,,,,,,,,,,,,,,,,
1847,,recognition_phase,1239409,Fictional_Cities_List/img_natural_16.png,,52,,,,,,new,1,0.8888888888888888,,,,,,,,,,
null,,confidence_buffer,1239515,confidence_buffer,,null,,,,,,,,,,,,,,,,,,
null,,thebreak,1240017,break,,null,,,,,,,,,,,,,,,,,,
4130,,pt2_realistic_rating,1244148,Fictional_Cities_List/img_natural_15.png,,50,Fictional_Cities_List/img_natural_15.png,NAT,2,,,,,,,,,,,,,,,
null,,confidence_buffer,1244260,confidence_buffer,,null,,,,,,,,,,,,,,,,,,
1400,,pt2_unique_rating,1245663,Fictional_Cities_List/img_natural_15.png,,52,,,4,,,,,,,,,,,,,,,
null,,confidence_buffer,1245769,confidence_buffer,,null,,,,,,,,,,,,,,,,,,
1615,,pt2_memorable_rating,1247386,Fictional_Cities_List/img_natural_15.png,,52,,,4,,,,,,,,,,,,,,,
null,,confidence_buffer,1247499,confidence_buffer,,null,,,,,,,,,,,,,,,,,,
1843,,recognition_phase,1249341,Fictional_Cities_List/img_natural_15.png,,49,,,,,,old,1,0.8928571428571429,,,,,,,,,,
null,,confidence_buffer,1249447,confidence_buffer,,null,,,,,,,,,,,,,,,,,,
null,,thebreak,1249950,break,,null,,,,,,,,,,,,,,,,,,
2627,,pt2_realistic_rating,1252578,US_Cities_List/nat_leesburg.png,,52,US_Cities_List/nat_leesburg.png,NAT,4,,,,,,,,,,,,,,,
null,,confidence_buffer,1252688,confidence_buffer,,null,,,,,,,,,,,,,,,,,,
1451,,pt2_unique_rating,1254140,US_Cities_List/nat_leesburg.png,,52,,,4,,,,,,,,,,,,,,,
null,,confidence_buffer,1254246,confidence_buffer,,null,,,,,,,,,,,,,,,,,,
1783,,pt2_memorable_rating,1256030,US_Cities_List/nat_leesburg.png,,52,,,4,,,,,,,,,,,,,,,
null,,confidence_buffer,1256137,confidence_buffer,,null,,,,,,,,,,,,,,,,,,
1294,,recognition_phase,1257432,US_Cities_List/nat_leesburg.png,,49,,,,,,old,1,0.896551724137931,,,,,,,,,,
null,,confidence_buffer,1257539,confidence_buffer,,null,,,,,,,,,,,,,,,,,,
null,,thebreak,1258042,break,,null,,,,,,,,,,,,,,,,,,
3806,,pt2_realistic_rating,1261849,Fictional_Cities_List/img_manmade_16.png,,49,Fictional_Cities_List/img_manmade_16.png,MM,1,,,,,,,,,,,,,,,
null,,confidence_buffer,1261959,confidence_buffer,,null,,,,,,,,,,,,,,,,,,
1564,,pt2_unique_rating,1263524,Fictional_Cities_List/img_manmade_16.png,,51,,,3,,,,,,,,,,,,,,,
null,,confidence_buffer,1263626,confidence_buffer,,null,,,,,,,,,,,,,,,,,,
1379,,pt2_memorable_rating,1265006,Fictional_Cities_List/img_manmade_16.png,,52,,,4,,,,,,,,,,,,,,,
null,,confidence_buffer,1265120,confidence_buffer,,null,,,,,,,,,,,,,,,,,,
1497,,recognition_phase,1266619,Fictional_Cities_List/img_manmade_16.png,,49,,,,,,old,1,0.9,,,,,,,,,,
null,,confidence_buffer,1266725,confidence_buffer,,null,,,,,,,,,,,,,,,,,,
null,,thebreak,1267228,break,,null,,,,,,,,,,,,,,,,,,
2797,,pt2_realistic_rating,1270027,US_Cities_List/mm_huntsville.png,,50,US_Cities_List/mm_huntsville.png,MM,2,,,,,,,,,,,,,,,
null,,confidence_buffer,1270138,confidence_buffer,,null,,,,,,,,,,,,,,,,,,
1828,,pt2_unique_rating,1271967,US_Cities_List/mm_huntsville.png,,52,,,4,,,,,,,,,,,,,,,
null,,confidence_buffer,1272072,confidence_buffer,,null,,,,,,,,,,,,,,,,,,
800,,pt2_memorable_rating,1272873,US_Cities_List/mm_huntsville.png,,52,,,4,,,,,,,,,,,,,,,
null,,confidence_buffer,1272983,confidence_buffer,,null,,,,,,,,,,,,,,,,,,
1793,,recognition_phase,1274777,US_Cities_List/mm_huntsville.png,,52,,,,,,new,1,0.9032258064516129,,,,,,,,,,
null,,confidence_buffer,1274884,confidence_buffer,,null,,,,,,,,,,,,,,,,,,
null,,thebreak,1275388,break,,null,,,,,,,,,,,,,,,,,,
4841,,pt2_realistic_rating,1280229,US_Cities_List/mm_peoria.png,,51,US_Cities_List/mm_peoria.png,MM,3,,,,,,,,,,,,,,,
null,,confidence_buffer,1280335,confidence_buffer,,null,,,,,,,,,,,,,,,,,,
1635,,pt2_unique_rating,1281971,US_Cities_List/mm_peoria.png,,52,,,4,,,,,,,,,,,,,,,
null,,confidence_buffer,1282072,confidence_buffer,,null,,,,,,,,,,,,,,,,,,
1711,,pt2_memorable_rating,1283784,US_Cities_List/mm_peoria.png,,52,,,4,,,,,,,,,,,,,,,
null,,confidence_buffer,1283899,confidence_buffer,,null,,,,,,,,,,,,,,,,,,
948,,recognition_phase,1284848,US_Cities_List/mm_peoria.png,,49,,,,,,old,1,0.90625,,,,,,,,,,
null,,confidence_buffer,1284955,confidence_buffer,,null,,,,,,,,,,,,,,,,,,
null,,thebreak,1285459,break,,null,,,,,,,,,,,,,,,,,,
2865,,pt2_realistic_rating,1288324,US_Cities_List/mm_parkcity.png,,50,US_Cities_List/mm_parkcity.png,MM,2,,,,,,,,,,,,,,,
null,,confidence_buffer,1288430,confidence_buffer,,null,,,,,,,,,,,,,,,,,,
1470,,pt2_unique_rating,1289902,US_Cities_List/mm_parkcity.png,,52,,,4,,,,,,,,,,,,,,,
null,,confidence_buffer,1290003,confidence_buffer,,null,,,,,,,,,,,,,,,,,,
1620,,pt2_memorable_rating,1291625,US_Cities_List/mm_parkcity.png,,52,,,4,,,,,,,,,,,,,,,
null,,confidence_buffer,1291733,confidence_buffer,,null,,,,,,,,,,,,,,,,,,
1871,,recognition_phase,1293604,US_Cities_List/mm_parkcity.png,,52,,,,,,new,1,0.9090909090909091,,,,,,,,,,
null,,confidence_buffer,1293714,confidence_buffer,,null,,,,,,,,,,,,,,,,,,
null,,thebreak,1294217,break,,null,,,,,,,,,,,,,,,,,,
2383,,pt2_realistic_rating,1296600,Fictional_Cities_List/img_natural_18.png,,50,Fictional_Cities_List/img_natural_18.png,NAT,2,,,,,,,,,,,,,,,
null,,confidence_buffer,1296702,confidence_buffer,,null,,,,,,,,,,,,,,,,,,
1823,,pt2_unique_rating,1298527,Fictional_Cities_List/img_natural_18.png,,52,,,4,,,,,,,,,,,,,,,
null,,confidence_buffer,1298638,confidence_buffer,,null,,,,,,,,,,,,,,,,,,
879,,pt2_memorable_rating,1299518,Fictional_Cities_List/img_natural_18.png,,52,,,4,,,,,,,,,,,,,,,
null,,confidence_buffer,1299629,confidence_buffer,,null,,,,,,,,,,,,,,,,,,
1764,,recognition_phase,1301393,Fictional_Cities_List/img_natural_18.png,,49,,,,,,old,1,0.9117647058823529,,,,,,,,,,
null,,confidence_buffer,1301501,confidence_buffer,,null,,,,,,,,,,,,,,,,,,
null,,thebreak,1302003,break,,null,,,,,,,,,,,,,,,,,,
2386,,pt2_realistic_rating,1304390,Fictional_Cities_List/img_manmade_42.png,,51,Fictional_Cities_List/img_manmade_42.png,MM,3,,,,,,,,,,,,,,,
null,,confidence_buffer,1304504,confidence_buffer,,null,,,,,,,,,,,,,,,,,,
1730,,pt2_unique_rating,1306234,Fictional_Cities_List/img_manmade_42.png,,52,,,4,,,,,,,,,,,,,,,
null,,confidence_buffer,1306342,confidence_buffer,,null,,,,,,,,,,,,,,,,,,
1718,,pt2_memorable_rating,1308060,Fictional_Cities_List/img_manmade_42.png,,52,,,4,,,,,,,,,,,,,,,
null,,confidence_buffer,1308167,confidence_buffer,,null,,,,,,,,,,,,,,,,,,
1052,,recognition_phase,1309220,Fictional_Cities_List/img_manmade_42.png,,49,,,,,,old,1,0.9142857142857143,,,,,,,,,,
null,,confidence_buffer,1309331,confidence_buffer,,null,,,,,,,,,,,,,,,,,,
null,,thebreak,1309832,break,,null,,,,,,,,,,,,,,,,,,
3658,,pt2_realistic_rating,1313491,US_Cities_List/nat_westpalmbeach.png,,52,US_Cities_List/nat_westpalmbeach.png,NAT,4,,,,,,,,,,,,,,,
null,,confidence_buffer,1313594,confidence_buffer,,null,,,,,,,,,,,,,,,,,,
1093,,pt2_unique_rating,1314687,US_Cities_List/nat_westpalmbeach.png,,52,,,4,,,,,,,,,,,,,,,
null,,confidence_buffer,1314792,confidence_buffer,,null,,,,,,,,,,,,,,,,,,
2741,,pt2_memorable_rating,1317534,US_Cities_List/nat_westpalmbeach.png,,52,,,4,,,,,,,,,,,,,,,
null,,confidence_buffer,1317639,confidence_buffer,,null,,,,,,,,,,,,,,,,,,
896,,recognition_phase,1318536,US_Cities_List/nat_westpalmbeach.png,,49,,,,,,old,1,0.9166666666666666,,,,,,,,,,
null,,confidence_buffer,1318646,confidence_buffer,,null,,,,,,,,,,,,,,,,,,
null,,thebreak,1319150,break,,null,,,,,,,,,,,,,,,,,,
2879,,pt2_realistic_rating,1322029,Fictional_Cities_List/img_natural_19.png,,52,Fictional_Cities_List/img_natural_19.png,NAT,4,,,,,,,,,,,,,,,
null,,confidence_buffer,1322138,confidence_buffer,,null,,,,,,,,,,,,,,,,,,
2990,,probe_rating,1325130,probe_rating,,52,,,,4,1,,,,,,,,,,,,,
null,,confidence_buffer,1325237,confidence_buffer,,null,,,,,,,,,,,,,,,,,,
2300,,pt2_unique_rating,1327537,Fictional_Cities_List/img_natural_19.png,,51,,,3,,,,,,,,,,,,,,,
null,,confidence_buffer,1327646,confidence_buffer,,null,,,,,,,,,,,,,,,,,,
2626,,pt2_memorable_rating,1330272,Fictional_Cities_List/img_natural_19.png,,52,,,4,,,,,,,,,,,,,,,
null,,confidence_buffer,1330382,confidence_buffer,,null,,,,,,,,,,,,,,,,,,
1252,,recognition_phase,1331636,Fictional_Cities_List/img_natural_19.png,,52,,,,,,new,1,0.918918918918919,,,,,,,,,,
null,,confidence_buffer,1331750,confidence_buffer,,null,,,,,,,,,,,,,,,,,,
null,,thebreak,1332285,break,,null,,,,,,,,,,,,,,,,,,
3200,,pt2_realistic_rating,1335487,US_Cities_List/nat_sammamish.png,,51,US_Cities_List/nat_sammamish.png,NAT,3,,,,,,,,,,,,,,,
null,,confidence_buffer,1335588,confidence_buffer,,null,,,,,,,,,,,,,,,,,,
1752,,pt2_unique_rating,1337343,US_Cities_List/nat_sammamish.png,,51,,,3,,,,,,,,,,,,,,,
null,,confidence_buffer,1337459,confidence_buffer,,null,,,,,,,,,,,,,,,,,,
4018,,pt2_memorable_rating,1341477,US_Cities_List/nat_sammamish.png,,52,,,4,,,,,,,,,,,,,,,
null,,confidence_buffer,1341582,confidence_buffer,,null,,,,,,,,,,,,,,,,,,
4315,,recognition_phase,1345898,US_Cities_List/nat_sammamish.png,,51,,,,,,new,1,0.9210526315789473,,,,,,,,,,
null,,confidence_buffer,1346004,confidence_buffer,,null,,,,,,,,,,,,,,,,,,
null,,thebreak,1346507,break,,null,,,,,,,,,,,,,,,,,,
2363,,pt2_realistic_rating,1348872,Fictional_Cities_List/img_manmade_46.png,,50,Fictional_Cities_List/img_manmade_46.png,MM,2,,,,,,,,,,,,,,,
null,,confidence_buffer,1348977,confidence_buffer,,null,,,,,,,,,,,,,,,,,,
3040,,pt2_unique_rating,1352018,Fictional_Cities_List/img_manmade_46.png,,51,,,3,,,,,,,,,,,,,,,
null,,confidence_buffer,1352120,confidence_buffer,,null,,,,,,,,,,,,,,,,,,
1155,,pt2_memorable_rating,1353276,Fictional_Cities_List/img_manmade_46.png,,52,,,4,,,,,,,,,,,,,,,
null,,confidence_buffer,1353378,confidence_buffer,,null,,,,,,,,,,,,,,,,,,
7413,,recognition_phase,1360792,Fictional_Cities_List/img_manmade_46.png,,52,,,,,,new,1,0.9230769230769231,,,,,,,,,,
null,,confidence_buffer,1360905,confidence_buffer,,null,,,,,,,,,,,,,,,,,,
null,,thebreak,1361407,break,,null,,,,,,,,,,,,,,,,,,
2487,,pt2_realistic_rating,1363895,Fictional_Cities_List/img_natural_25.png,,50,Fictional_Cities_List/img_natural_25.png,NAT,2,,,,,,,,,,,,,,,
null,,confidence_buffer,1364005,confidence_buffer,,null,,,,,,,,,,,,,,,,,,
1723,,pt2_unique_rating,1365728,Fictional_Cities_List/img_natural_25.png,,52,,,4,,,,,,,,,,,,,,,
null,,confidence_buffer,1365845,confidence_buffer,,null,,,,,,,,,,,,,,,,,,
2178,,pt2_memorable_rating,1368025,Fictional_Cities_List/img_natural_25.png,,52,,,4,,,,,,,,,,,,,,,
null,,confidence_buffer,1368128,confidence_buffer,,null,,,,,,,,,,,,,,,,,,
1008,,recognition_phase,1369136,Fictional_Cities_List/img_natural_25.png,,49,,,,,,old,1,0.925,,,,,,,,,,
null,,confidence_buffer,1369244,confidence_buffer,,null,,,,,,,,,,,,,,,,,,
null,,thebreak,1369747,break,,null,,,,,,,,,,,,,,,,,,
3479,,pt2_realistic_rating,1373227,Fictional_Cities_List/img_natural_10.png,,50,Fictional_Cities_List/img_natural_10.png,NAT,2,,,,,,,,,,,,,,,
null,,confidence_buffer,1373332,confidence_buffer,,null,,,,,,,,,,,,,,,,,,
1402,,pt2_unique_rating,1374735,Fictional_Cities_List/img_natural_10.png,,52,,,4,,,,,,,,,,,,,,,
null,,confidence_buffer,1374848,confidence_buffer,,null,,,,,,,,,,,,,,,,,,
1638,,pt2_memorable_rating,1376488,Fictional_Cities_List/img_natural_10.png,,52,,,4,,,,,,,,,,,,,,,
null,,confidence_buffer,1376596,confidence_buffer,,null,,,,,,,,,,,,,,,,,,
1353,,recognition_phase,1377949,Fictional_Cities_List/img_natural_10.png,,52,,,,,,new,1,0.926829268292683,,,,,,,,,,
null,,confidence_buffer,1378061,confidence_buffer,,null,,,,,,,,,,,,,,,,,,
null,,thebreak,1378565,break,,null,,,,,,,,,,,,,,,,,,
2493,,pt2_realistic_rating,1381059,Fictional_Cities_List/img_manmade_49.png,,53,Fictional_Cities_List/img_manmade_49.png,MM,5,,,,,,,,,,,,,,,
null,,confidence_buffer,1381162,confidence_buffer,,null,,,,,,,,,,,,,,,,,,
1757,,pt2_unique_rating,1382921,Fictional_Cities_List/img_manmade_49.png,,53,,,5,,,,,,,,,,,,,,,
null,,confidence_buffer,1383035,confidence_buffer,,null,,,,,,,,,,,,,,,,,,
1229,,pt2_memorable_rating,1384264,Fictional_Cities_List/img_manmade_49.png,,53,,,5,,,,,,,,,,,,,,,
null,,confidence_buffer,1384371,confidence_buffer,,null,,,,,,,,,,,,,,,,,,
1156,,recognition_phase,1385528,Fictional_Cities_List/img_manmade_49.png,,49,,,,,,old,1,0.9285714285714286,,,,,,,,,,
null,,confidence_buffer,1385630,confidence_buffer,,null,,,,,,,,,,,,,,,,,,
null,,thebreak,1386133,break,,null,,,,,,,,,,,,,,,,,,
2392,,pt2_realistic_rating,1388527,US_Cities_List/nat_livingston.png,,52,US_Cities_List/nat_livingston.png,NAT,4,,,,,,,,,,,,,,,
null,,confidence_buffer,1388636,confidence_buffer,,null,,,,,,,,,,,,,,,,,,
1639,,pt2_unique_rating,1390277,US_Cities_List/nat_livingston.png,,53,,,5,,,,,,,,,,,,,,,
null,,confidence_buffer,1390381,confidence_buffer,,null,,,,,,,,,,,,,,,,,,
2361,,pt2_memorable_rating,1392743,US_Cities_List/nat_livingston.png,,53,,,5,,,,,,,,,,,,,,,
null,,confidence_buffer,1392852,confidence_buffer,,null,,,,,,,,,,,,,,,,,,
974,,recognition_phase,1393827,US_Cities_List/nat_livingston.png,,49,,,,,,old,1,0.9302325581395349,,,,,,,,,,
null,,confidence_buffer,1393938,confidence_buffer,,null,,,,,,,,,,,,,,,,,,
null,,thebreak,1394441,break,,null,,,,,,,,,,,,,,,,,,
3628,,pt2_realistic_rating,1398070,US_Cities_List/mm_sisters.png,,52,US_Cities_List/mm_sisters.png,MM,4,,,,,,,,,,,,,,,
null,,confidence_buffer,1398182,confidence_buffer,,null,,,,,,,,,,,,,,,,,,
3250,,pt2_unique_rating,1401434,US_Cities_List/mm_sisters.png,,53,,,5,,,,,,,,,,,,,,,
null,,confidence_buffer,1401548,confidence_buffer,,null,,,,,,,,,,,,,,,,,,
4152,,pt2_memorable_rating,1405700,US_Cities_List/mm_sisters.png,,53,,,5,,,,,,,,,,,,,,,
null,,confidence_buffer,1405816,confidence_buffer,,null,,,,,,,,,,,,,,,,,,
976,,recognition_phase,1406794,US_Cities_List/mm_sisters.png,,49,,,,,,old,1,0.9318181818181818,,,,,,,,,,
null,,confidence_buffer,1406902,confidence_buffer,,null,,,,,,,,,,,,,,,,,,
null,,thebreak,1407405,break,,null,,,,,,,,,,,,,,,,,,
7222,,pt2_realistic_rating,1414629,Fictional_Cities_List/img_natural_13.png,,50,Fictional_Cities_List/img_natural_13.png,NAT,2,,,,,,,,,,,,,,,
null,,confidence_buffer,1414735,confidence_buffer,,null,,,,,,,,,,,,,,,,,,
1830,,pt2_unique_rating,1416567,Fictional_Cities_List/img_natural_13.png,,52,,,4,,,,,,,,,,,,,,,
null,,confidence_buffer,1416669,confidence_buffer,,null,,,,,,,,,,,,,,,,,,
5420,,pt2_memorable_rating,1422089,Fictional_Cities_List/img_natural_13.png,,52,,,4,,,,,,,,,,,,,,,
null,,confidence_buffer,1422191,confidence_buffer,,null,,,,,,,,,,,,,,,,,,
1277,,recognition_phase,1423469,Fictional_Cities_List/img_natural_13.png,,49,,,,,,old,1,0.9333333333333333,,,,,,,,,,
null,,confidence_buffer,1423591,confidence_buffer,,null,,,,,,,,,,,,,,,,,,
null,,thebreak,1424095,break,,null,,,,,,,,,,,,,,,,,,
7080,,pt2_realistic_rating,1431177,US_Cities_List/nat_delawarecity.png,,52,US_Cities_List/nat_delawarecity.png,NAT,4,,,,,,,,,,,,,,,
null,,confidence_buffer,1431292,confidence_buffer,,null,,,,,,,,,,,,,,,,,,
8899,,pt2_unique_rating,1440191,US_Cities_List/nat_delawarecity.png,,52,,,4,,,,,,,,,,,,,,,
null,,confidence_buffer,1440299,confidence_buffer,,null,,,,,,,,,,,,,,,,,,
1780,,pt2_memorable_rating,1442080,US_Cities_List/nat_delawarecity.png,,52,,,4,,,,,,,,,,,,,,,
null,,confidence_buffer,1442203,confidence_buffer,,null,,,,,,,,,,,,,,,,,,
1401,,recognition_phase,1443605,US_Cities_List/nat_delawarecity.png,,49,,,,,,old,1,0.9347826086956522,,,,,,,,,,
null,,confidence_buffer,1443713,confidence_buffer,,null,,,,,,,,,,,,,,,,,,
null,,thebreak,1444218,break,,null,,,,,,,,,,,,,,,,,,
3116,,pt2_realistic_rating,1447336,Fictional_Cities_List/img_natural_42.png,,51,Fictional_Cities_List/img_natural_42.png,NAT,3,,,,,,,,,,,,,,,
null,,confidence_buffer,1447446,confidence_buffer,,null,,,,,,,,,,,,,,,,,,
2498,,pt2_unique_rating,1449945,Fictional_Cities_List/img_natural_42.png,,52,,,4,,,,,,,,,,,,,,,
null,,confidence_buffer,1450056,confidence_buffer,,null,,,,,,,,,,,,,,,,,,
1715,,pt2_memorable_rating,1451773,Fictional_Cities_List/img_natural_42.png,,53,,,5,,,,,,,,,,,,,,,
null,,confidence_buffer,1451879,confidence_buffer,,null,,,,,,,,,,,,,,,,,,
1581,,recognition_phase,1453460,Fictional_Cities_List/img_natural_42.png,,52,,,,,,new,1,0.9361702127659575,,,,,,,,,,
null,,confidence_buffer,1453564,confidence_buffer,,null,,,,,,,,,,,,,,,,,,
null,,thebreak,1454066,break,,null,,,,,,,,,,,,,,,,,,
3019,,pt2_realistic_rating,1457086,Fictional_Cities_List/img_manmade_13.png,,50,Fictional_Cities_List/img_manmade_13.png,MM,2,,,,,,,,,,,,,,,
null,,confidence_buffer,1457196,confidence_buffer,,null,,,,,,,,,,,,,,,,,,
1885,,pt2_unique_rating,1459083,Fictional_Cities_List/img_manmade_13.png,,53,,,5,,,,,,,,,,,,,,,
null,,confidence_buffer,1459193,confidence_buffer,,null,,,,,,,,,,,,,,,,,,
1385,,pt2_memorable_rating,1460579,Fictional_Cities_List/img_manmade_13.png,,53,,,5,,,,,,,,,,,,,,,
null,,confidence_buffer,1460688,confidence_buffer,,null,,,,,,,,,,,,,,,,,,
1734,,probe_rating,1462422,probe_rating,,50,,,,2,1,,,,,,,,,,,,,
null,,confidence_buffer,1462530,confidence_buffer,,null,,,,,,,,,,,,,,,,,,
1374,,recognition_phase,1463905,Fictional_Cities_List/img_manmade_13.png,,52,,,,,,new,1,0.9375,,,,,,,,,,
null,,confidence_buffer,1464008,confidence_buffer,,null,,,,,,,,,,,,,,,,,,
null,,thebreak,1464511,break,,null,,,,,,,,,,,,,,,,,,
5990,,pt2_realistic_rating,1470502,US_Cities_List/mm_hilo.png,,51,US_Cities_List/mm_hilo.png,MM,3,,,,,,,,,,,,,,,
null,,confidence_buffer,1470613,confidence_buffer,,null,,,,,,,,,,,,,,,,,,
1957,,pt2_unique_rating,1472569,US_Cities_List/mm_hilo.png,,53,,,5,,,,,,,,,,,,,,,
null,,confidence_buffer,1472672,confidence_buffer,,null,,,,,,,,,,,,,,,,,,
2216,,pt2_memorable_rating,1474888,US_Cities_List/mm_hilo.png,,53,,,5,,,,,,,,,,,,,,,
null,,confidence_buffer,1474998,confidence_buffer,,null,,,,,,,,,,,,,,,,,,
1464,,recognition_phase,1476463,US_Cities_List/mm_hilo.png,,52,,,,,,new,1,0.9387755102040817,,,,,,,,,,
null,,confidence_buffer,1476574,confidence_buffer,,null,,,,,,,,,,,,,,,,,,
null,,thebreak,1477077,break,,null,,,,,,,,,,,,,,,,,,
4907,,pt2_realistic_rating,1481985,US_Cities_List/mm_duck.png,,53,US_Cities_List/mm_duck.png,MM,5,,,,,,,,,,,,,,,
null,,confidence_buffer,1482096,confidence_buffer,,null,,,,,,,,,,,,,,,,,,
1593,,pt2_unique_rating,1483690,US_Cities_List/mm_duck.png,,53,,,5,,,,,,,,,,,,,,,
null,,confidence_buffer,1483793,confidence_buffer,,null,,,,,,,,,,,,,,,,,,
1072,,pt2_memorable_rating,1484865,US_Cities_List/mm_duck.png,,53,,,5,,,,,,,,,,,,,,,
null,,confidence_buffer,1484972,confidence_buffer,,null,,,,,,,,,,,,,,,,,,
1676,,recognition_phase,1486651,US_Cities_List/mm_duck.png,,49,,,,,,old,1,0.94,,,,,,,,,,
null,,confidence_buffer,1486765,confidence_buffer,,null,,,,,,,,,,,,,,,,,,
null,,thebreak,1487267,break,,null,,,,,,,,,,,,,,,,,,
3077,,pt2_realistic_rating,1490346,US_Cities_List/mm_barnard.png,,53,US_Cities_List/mm_barnard.png,MM,5,,,,,,,,,,,,,,,
null,,confidence_buffer,1490459,confidence_buffer,,null,,,,,,,,,,,,,,,,,,
1506,,pt2_unique_rating,1491966,US_Cities_List/mm_barnard.png,,52,,,4,,,,,,,,,,,,,,,
null,,confidence_buffer,1492079,confidence_buffer,,null,,,,,,,,,,,,,,,,,,
1389,,pt2_memorable_rating,1493468,US_Cities_List/mm_barnard.png,,53,,,5,,,,,,,,,,,,,,,
null,,confidence_buffer,1493574,confidence_buffer,,null,,,,,,,,,,,,,,,,,,
1831,,recognition_phase,1495407,US_Cities_List/mm_barnard.png,,52,,,,,,new,1,0.9411764705882353,,,,,,,,,,
null,,confidence_buffer,1495510,confidence_buffer,,null,,,,,,,,,,,,,,,,,,
null,,thebreak,1496015,break,,null,,,,,,,,,,,,,,,,,,
5910,,pt2_realistic_rating,1501926,Fictional_Cities_List/img_natural_44.png,,51,Fictional_Cities_List/img_natural_44.png,NAT,3,,,,,,,,,,,,,,,
null,,confidence_buffer,1502037,confidence_buffer,,null,,,,,,,,,,,,,,,,,,
1634,,pt2_unique_rating,1503673,Fictional_Cities_List/img_natural_44.png,,52,,,4,,,,,,,,,,,,,,,
null,,confidence_buffer,1503786,confidence_buffer,,null,,,,,,,,,,,,,,,,,,
4694,,pt2_memorable_rating,1508482,Fictional_Cities_List/img_natural_44.png,,51,,,3,,,,,,,,,,,,,,,
null,,confidence_buffer,1508598,confidence_buffer,,null,,,,,,,,,,,,,,,,,,
1303,,recognition_phase,1509902,Fictional_Cities_List/img_natural_44.png,,49,,,,,,old,1,0.9423076923076923,,,,,,,,,,
null,,confidence_buffer,1510013,confidence_buffer,,null,,,,,,,,,,,,,,,,,,
null,,thebreak,1510518,break,,null,,,,,,,,,,,,,,,,,,
1918,,pt2_realistic_rating,1512438,US_Cities_List/mm_newport.png,,51,US_Cities_List/mm_newport.png,MM,3,,,,,,,,,,,,,,,
null,,confidence_buffer,1512548,confidence_buffer,,null,,,,,,,,,,,,,,,,,,
2026,,pt2_unique_rating,1514576,US_Cities_List/mm_newport.png,,51,,,3,,,,,,,,,,,,,,,
null,,confidence_buffer,1514689,confidence_buffer,,null,,,,,,,,,,,,,,,,,,
1391,,pt2_memorable_rating,1516080,US_Cities_List/mm_newport.png,,52,,,4,,,,,,,,,,,,,,,
null,,confidence_buffer,1516181,confidence_buffer,,null,,,,,,,,,,,,,,,,,,
1321,,recognition_phase,1517503,US_Cities_List/mm_newport.png,,52,,,,,,new,1,0.9433962264150944,,,,,,,,,,
null,,confidence_buffer,1517614,confidence_buffer,,null,,,,,,,,,,,,,,,,,,
null,,thebreak,1518116,break,,null,,,,,,,,,,,,,,,,,,
5328,,pt2_realistic_rating,1523445,Fictional_Cities_List/img_natural_01.png,,50,Fictional_Cities_List/img_natural_01.png,NAT,2,,,,,,,,,,,,,,,
null,,confidence_buffer,1523554,confidence_buffer,,null,,,,,,,,,,,,,,,,,,
1745,,pt2_unique_rating,1525300,Fictional_Cities_List/img_natural_01.png,,52,,,4,,,,,,,,,,,,,,,
null,,confidence_buffer,1525412,confidence_buffer,,null,,,,,,,,,,,,,,,,,,
3045,,pt2_memorable_rating,1528458,Fictional_Cities_List/img_natural_01.png,,53,,,5,,,,,,,,,,,,,,,
null,,confidence_buffer,1528569,confidence_buffer,,null,,,,,,,,,,,,,,,,,,
1638,,recognition_phase,1530206,Fictional_Cities_List/img_natural_01.png,,49,,,,,,old,1,0.9444444444444444,,,,,,,,,,
null,,confidence_buffer,1530322,confidence_buffer,,null,,,,,,,,,,,,,,,,,,
null,,thebreak,1530825,break,,null,,,,,,,,,,,,,,,,,,
3157,,pt2_realistic_rating,1533985,Fictional_Cities_List/img_manmade_44.png,,52,Fictional_Cities_List/img_manmade_44.png,MM,4,,,,,,,,,,,,,,,
null,,confidence_buffer,1534101,confidence_buffer,,null,,,,,,,,,,,,,,,,,,
2395,,pt2_unique_rating,1536496,Fictional_Cities_List/img_manmade_44.png,,52,,,4,,,,,,,,,,,,,,,
null,,confidence_buffer,1536604,confidence_buffer,,null,,,,,,,,,,,,,,,,,,
2938,,pt2_memorable_rating,1539543,Fictional_Cities_List/img_manmade_44.png,,53,,,5,,,,,,,,,,,,,,,
null,,confidence_buffer,1539656,confidence_buffer,,null,,,,,,,,,,,,,,,,,,
1688,,recognition_phase,1541345,Fictional_Cities_List/img_manmade_44.png,,49,,,,,,old,1,0.9454545454545454,,,,,,,,,,
null,,confidence_buffer,1541449,confidence_buffer,,null,,,,,,,,,,,,,,,,,,
null,,thebreak,1541953,break,,null,,,,,,,,,,,,,,,,,,
6847,,pt2_realistic_rating,1548802,US_Cities_List/nat_medora.png,,51,US_Cities_List/nat_medora.png,NAT,3,,,,,,,,,,,,,,,
null,,confidence_buffer,1548913,confidence_buffer,,null,,,,,,,,,,,,,,,,,,
2118,,pt2_unique_rating,1551031,US_Cities_List/nat_medora.png,,53,,,5,,,,,,,,,,,,,,,
null,,confidence_buffer,1551145,confidence_buffer,,null,,,,,,,,,,,,,,,,,,
2334,,pt2_memorable_rating,1553480,US_Cities_List/nat_medora.png,,51,,,3,,,,,,,,,,,,,,,
null,,confidence_buffer,1553582,confidence_buffer,,null,,,,,,,,,,,,,,,,,,
1537,,recognition_phase,1555119,US_Cities_List/nat_medora.png,,52,,,,,,new,1,0.9464285714285714,,,,,,,,,,
null,,confidence_buffer,1555235,confidence_buffer,,null,,,,,,,,,,,,,,,,,,
null,,thebreak,1555738,break,,null,,,,,,,,,,,,,,,,,,
3070,,pt2_realistic_rating,1558809,US_Cities_List/nat_barnard.png,,51,US_Cities_List/nat_barnard.png,NAT,3,,,,,,,,,,,,,,,
null,,confidence_buffer,1558913,confidence_buffer,,null,,,,,,,,,,,,,,,,,,
1305,,probe_rating,1560219,probe_rating,,50,,,,2,1,,,,,,,,,,,,,
null,,confidence_buffer,1560330,confidence_buffer,,null,,,,,,,,,,,,,,,,,,
2824,,pt2_unique_rating,1563156,US_Cities_List/nat_barnard.png,,52,,,4,,,,,,,,,,,,,,,
null,,confidence_buffer,1563269,confidence_buffer,,null,,,,,,,,,,,,,,,,,,
1645,,pt2_memorable_rating,1564915,US_Cities_List/nat_barnard.png,,52,,,4,,,,,,,,,,,,,,,
null,,confidence_buffer,1565017,confidence_buffer,,null,,,,,,,,,,,,,,,,,,
1457,,recognition_phase,1566476,US_Cities_List/nat_barnard.png,,52,,,,,,new,1,0.9473684210526315,,,,,,,,,,
null,,confidence_buffer,1566589,confidence_buffer,,null,,,,,,,,,,,,,,,,,,
null,,thebreak,1567091,break,,null,,,,,,,,,,,,,,,,,,
3759,,pt2_realistic_rating,1570851,Fictional_Cities_List/img_natural_46.png,,52,Fictional_Cities_List/img_natural_46.png,NAT,4,,,,,,,,,,,,,,,
null,,confidence_buffer,1570959,confidence_buffer,,null,,,,,,,,,,,,,,,,,,
1457,,pt2_unique_rating,1572417,Fictional_Cities_List/img_natural_46.png,,53,,,5,,,,,,,,,,,,,,,
null,,confidence_buffer,1572532,confidence_buffer,,null,,,,,,,,,,,,,,,,,,
1160,,pt2_memorable_rating,1573694,Fictional_Cities_List/img_natural_46.png,,53,,,5,,,,,,,,,,,,,,,
null,,confidence_buffer,1573807,confidence_buffer,,null,,,,,,,,,,,,,,,,,,
1470,,recognition_phase,1575279,Fictional_Cities_List/img_natural_46.png,,49,,,,,,old,1,0.9482758620689655,,,,,,,,,,
null,,confidence_buffer,1575393,confidence_buffer,,null,,,,,,,,,,,,,,,,,,
null,,thebreak,1575897,break,,null,,,,,,,,,,,,,,,,,,
4082,,pt2_realistic_rating,1579980,US_Cities_List/mm_hanover.png,,53,US_Cities_List/mm_hanover.png,MM,5,,,,,,,,,,,,,,,
null,,confidence_buffer,1580097,confidence_buffer,,null,,,,,,,,,,,,,,,,,,
1807,,pt2_unique_rating,1581906,US_Cities_List/mm_hanover.png,,53,,,5,,,,,,,,,,,,,,,
null,,confidence_buffer,1582010,confidence_buffer,,null,,,,,,,,,,,,,,,,,,
1220,,probe_rating,1583230,probe_rating,,49,,,,1,1,,,,,,,,,,,,,
null,,confidence_buffer,1583336,confidence_buffer,,null,,,,,,,,,,,,,,,,,,
1411,,pt2_memorable_rating,1584748,US_Cities_List/mm_hanover.png,,53,,,5,,,,,,,,,,,,,,,
null,,confidence_buffer,1584862,confidence_buffer,,null,,,,,,,,,,,,,,,,,,
1004,,recognition_phase,1585868,US_Cities_List/mm_hanover.png,,49,,,,,,old,1,0.9491525423728814,,,,,,,,,,
null,,confidence_buffer,1585981,confidence_buffer,,null,,,,,,,,,,,,,,,,,,
null,,thebreak,1586485,break,,null,,,,,,,,,,,,,,,,,,
4369,,pt2_realistic_rating,1590855,Fictional_Cities_List/img_manmade_18.png,,51,Fictional_Cities_List/img_manmade_18.png,MM,3,,,,,,,,,,,,,,,
null,,confidence_buffer,1590968,confidence_buffer,,null,,,,,,,,,,,,,,,,,,
1787,,pt2_unique_rating,1592755,Fictional_Cities_List/img_manmade_18.png,,52,,,4,,,,,,,,,,,,,,,
null,,confidence_buffer,1592860,confidence_buffer,,null,,,,,,,,,,,,,,,,,,
1639,,probe_rating,1594499,probe_rating,,52,,,,4,1,,,,,,,,,,,,,
null,,confidence_buffer,1594607,confidence_buffer,,null,,,,,,,,,,,,,,,,,,
3236,,pt2_memorable_rating,1597844,Fictional_Cities_List/img_manmade_18.png,,53,,,5,,,,,,,,,,,,,,,
null,,confidence_buffer,1597956,confidence_buffer,,null,,,,,,,,,,,,,,,,,,
1220,,recognition_phase,1599178,Fictional_Cities_List/img_manmade_18.png,,49,,,,,,old,1,0.95,,,,,,,,,,
null,,confidence_buffer,1599279,confidence_buffer,,null,,,,,,,,,,,,,,,,,,
null,,thebreak,1599783,break,,null,,,,,,,,,,,,,,,,,,
,,survey,2073571,survey-questions,,,,,,,,,,,none,high,i was fully concentrated on the experiment ,None,I rated higher to those images i am familiar to.,I gave high ratings to images that stands out and can easily be remembered ,I gave high ratings to pleasant images in this category ,i gave high ratings to images that looks real and not animated ,No, it's my first time.,It was not at all boring.
