rt,responses,trial_type,time_elapsed,stimulus,button_pressed,key_press,name_trial,city_type,rating,probe,probe_accuracy,response,correct,accuracy,problems,smooth,distraction,strategies,familiar,memorable,unique,realistic,similar,comments
17514,{worker_id:67cf5602d9b2b175541effdb},id_enter,17534,,,,,,,,,,,,,,,,,,,,,
13083.59999999404,,fullscreen,30661,fullscreen,0,,,,,,,,,,,,,,,,,,,
5427.299999982119,,intro_0,36108,instruct,,32,,,,,,,,,,,,,,,,,,
8566,,intro_1,44679,instruct,,32,,,,,,,,,,,,,,,,,,
21138.90000000596,,intro_2,65823,instruct,,32,,,,,,,,,,,,,,,,,,
null,,instruct_dir_4,67331,instruct,,null,,,,,,,,,,,,,,,,,,
null,,thebreak,67846,break,,null,,,,,,,,,,,,,,,,,,
6148.700000017881,,familiar_rating,74002,US_Cities_List/mm_bisbee.png,,49,US_Cities_List/mm_bisbee.png,MM,1,,,,,,,,,,,,,,,
null,,confidence_buffer,74111,confidence_buffer,,null,,,,,,,,,,,,,,,,,,
4298.4000000059605,,unique_rating,78416,US_Cities_List/mm_bisbee.png,,49,,,1,,,,,,,,,,,,,,,
null,,confidence_buffer,78526,confidence_buffer,,null,,,,,,,,,,,,,,,,,,
2603.5,,memorable_rating,81136,US_Cities_List/mm_bisbee.png,,50,,,2,,,,,,,,,,,,,,,
null,,confidence_buffer,81243,confidence_buffer,,null,,,,,,,,,,,,,,,,,,
null,,thebreak,81750,break,,null,,,,,,,,,,,,,,,,,,
6262.799999982119,,familiar_rating,88020,US_Cities_List/nat_sisters.png,,50,US_Cities_List/nat_sisters.png,NAT,2,,,,,,,,,,,,,,,
null,,confidence_buffer,88127,confidence_buffer,,null,,,,,,,,,,,,,,,,,,
2802.2999999821186,,unique_rating,90934,US_Cities_List/nat_sisters.png,,52,,,4,,,,,,,,,,,,,,,
null,,confidence_buffer,91043,confidence_buffer,,null,,,,,,,,,,,,,,,,,,
2075.4000000059605,,memorable_rating,93125,US_Cities_List/nat_sisters.png,,51,,,3,,,,,,,,,,,,,,,
null,,confidence_buffer,93233,confidence_buffer,,null,,,,,,,,,,,,,,,,,,
null,,thebreak,93742,break,,null,,,,,,,,,,,,,,,,,,
2911,,familiar_rating,96658,Fictional_Cities_List/img_natural_03.png,,51,Fictional_Cities_List/img_natural_03.png,NAT,3,,,,,,,,,,,,,,,
null,,confidence_buffer,96764,confidence_buffer,,null,,,,,,,,,,,,,,,,,,
3651.800000011921,,unique_rating,100421,Fictional_Cities_List/img_natural_03.png,,51,,,3,,,,,,,,,,,,,,,
null,,confidence_buffer,100527,confidence_buffer,,null,,,,,,,,,,,,,,,,,,
2665.9000000059605,,memorable_rating,103198,Fictional_Cities_List/img_natural_03.png,,51,,,3,,,,,,,,,,,,,,,
null,,confidence_buffer,103304,confidence_buffer,,null,,,,,,,,,,,,,,,,,,
null,,thebreak,103809,break,,null,,,,,,,,,,,,,,,,,,
2364.7999999821186,,familiar_rating,106179,US_Cities_List/mm_newport.png,,52,US_Cities_List/mm_newport.png,MM,4,,,,,,,,,,,,,,,
null,,confidence_buffer,106287,confidence_buffer,,null,,,,,,,,,,,,,,,,,,
1469.0999999940395,,unique_rating,107761,US_Cities_List/mm_newport.png,,52,,,4,,,,,,,,,,,,,,,
null,,confidence_buffer,107867,confidence_buffer,,null,,,,,,,,,,,,,,,,,,
467.09999999403954,,memorable_rating,108340,US_Cities_List/mm_newport.png,,52,,,4,,,,,,,,,,,,,,,
null,,confidence_buffer,108446,confidence_buffer,,null,,,,,,,,,,,,,,,,,,
null,,thebreak,108956,break,,null,,,,,,,,,,,,,,,,,,
1244.4000000059605,,familiar_rating,110210,Fictional_Cities_List/img_natural_27.png,,53,Fictional_Cities_List/img_natural_27.png,NAT,5,,,,,,,,,,,,,,,
null,,confidence_buffer,110318,confidence_buffer,,null,,,,,,,,,,,,,,,,,,
683.4000000059605,,unique_rating,111008,Fictional_Cities_List/img_natural_27.png,,53,,,5,,,,,,,,,,,,,,,
null,,confidence_buffer,111114,confidence_buffer,,null,,,,,,,,,,,,,,,,,,
212,,probe_rating,111331,probe_rating,,53,,,,5,0,,,,,,,,,,,,,
null,,confidence_buffer,111445,confidence_buffer,,null,,,,,,,,,,,,,,,,,,
526.2999999821186,,memorable_rating,111976,Fictional_Cities_List/img_natural_27.png,,53,,,5,,,,,,,,,,,,,,,
null,,confidence_buffer,112080,confidence_buffer,,null,,,,,,,,,,,,,,,,,,
null,,thebreak,112585,break,,null,,,,,,,,,,,,,,,,,,
3114.0999999940395,,familiar_rating,115703,Fictional_Cities_List/img_natural_33.png,,52,Fictional_Cities_List/img_natural_33.png,NAT,4,,,,,,,,,,,,,,,
null,,confidence_buffer,115810,confidence_buffer,,null,,,,,,,,,,,,,,,,,,
1047.4000000059605,,unique_rating,116863,Fictional_Cities_List/img_natural_33.png,,52,,,4,,,,,,,,,,,,,,,
null,,confidence_buffer,116972,confidence_buffer,,null,,,,,,,,,,,,,,,,,,
965.6999999880791,,memorable_rating,117943,Fictional_Cities_List/img_natural_33.png,,52,,,4,,,,,,,,,,,,,,,
null,,confidence_buffer,118052,confidence_buffer,,null,,,,,,,,,,,,,,,,,,
null,,thebreak,118556,break,,null,,,,,,,,,,,,,,,,,,
2288.5999999940395,,familiar_rating,120851,Fictional_Cities_List/img_manmade_31.png,,51,Fictional_Cities_List/img_manmade_31.png,MM,3,,,,,,,,,,,,,,,
null,,confidence_buffer,120960,confidence_buffer,,null,,,,,,,,,,,,,,,,,,
1086.699999988079,,unique_rating,122053,Fictional_Cities_List/img_manmade_31.png,,51,,,3,,,,,,,,,,,,,,,
null,,confidence_buffer,122164,confidence_buffer,,null,,,,,,,,,,,,,,,,,,
733.2999999821186,,memorable_rating,122904,Fictional_Cities_List/img_manmade_31.png,,51,,,3,,,,,,,,,,,,,,,
null,,confidence_buffer,123014,confidence_buffer,,null,,,,,,,,,,,,,,,,,,
null,,thebreak,123519,break,,null,,,,,,,,,,,,,,,,,,
2018.5999999940395,,familiar_rating,125543,US_Cities_List/nat_watkinsglen.png,,50,US_Cities_List/nat_watkinsglen.png,NAT,2,,,,,,,,,,,,,,,
null,,confidence_buffer,125649,confidence_buffer,,null,,,,,,,,,,,,,,,,,,
1246.2000000178814,,unique_rating,126900,US_Cities_List/nat_watkinsglen.png,,50,,,2,,,,,,,,,,,,,,,
null,,confidence_buffer,127004,confidence_buffer,,null,,,,,,,,,,,,,,,,,,
2800.800000011921,,probe_rating,129809,probe_rating,,49,,,,1,1,,,,,,,,,,,,,
null,,confidence_buffer,129916,confidence_buffer,,null,,,,,,,,,,,,,,,,,,
3022.4000000059605,,memorable_rating,132947,US_Cities_List/nat_watkinsglen.png,,50,,,2,,,,,,,,,,,,,,,
null,,confidence_buffer,133055,confidence_buffer,,null,,,,,,,,,,,,,,,,,,
null,,thebreak,133560,break,,null,,,,,,,,,,,,,,,,,,
2439.5,,familiar_rating,136005,Fictional_Cities_List/img_natural_40.png,,49,Fictional_Cities_List/img_natural_40.png,NAT,1,,,,,,,,,,,,,,,
null,,confidence_buffer,136114,confidence_buffer,,null,,,,,,,,,,,,,,,,,,
1087.5,,unique_rating,137208,Fictional_Cities_List/img_natural_40.png,,50,,,2,,,,,,,,,,,,,,,
null,,confidence_buffer,137314,confidence_buffer,,null,,,,,,,,,,,,,,,,,,
1183.800000011921,,memorable_rating,138502,Fictional_Cities_List/img_natural_40.png,,51,,,3,,,,,,,,,,,,,,,
null,,confidence_buffer,138608,confidence_buffer,,null,,,,,,,,,,,,,,,,,,
null,,thebreak,139127,break,,null,,,,,,,,,,,,,,,,,,
1923.2999999821186,,familiar_rating,141056,US_Cities_List/mm_gardnerville.png,,50,US_Cities_List/mm_gardnerville.png,MM,2,,,,,,,,,,,,,,,
null,,confidence_buffer,141163,confidence_buffer,,null,,,,,,,,,,,,,,,,,,
1074.800000011921,,unique_rating,142243,US_Cities_List/mm_gardnerville.png,,51,,,3,,,,,,,,,,,,,,,
null,,confidence_buffer,142350,confidence_buffer,,null,,,,,,,,,,,,,,,,,,
873.0999999940395,,memorable_rating,143226,US_Cities_List/mm_gardnerville.png,,50,,,2,,,,,,,,,,,,,,,
null,,confidence_buffer,143331,confidence_buffer,,null,,,,,,,,,,,,,,,,,,
null,,thebreak,143833,break,,null,,,,,,,,,,,,,,,,,,
3126.5,,familiar_rating,146963,Fictional_Cities_List/img_manmade_33.png,,51,Fictional_Cities_List/img_manmade_33.png,MM,3,,,,,,,,,,,,,,,
null,,confidence_buffer,147071,confidence_buffer,,null,,,,,,,,,,,,,,,,,,
1312.4000000059605,,unique_rating,148389,Fictional_Cities_List/img_manmade_33.png,,52,,,4,,,,,,,,,,,,,,,
null,,confidence_buffer,148495,confidence_buffer,,null,,,,,,,,,,,,,,,,,,
1709.699999988079,,memorable_rating,150210,Fictional_Cities_List/img_manmade_33.png,,53,,,5,,,,,,,,,,,,,,,
null,,confidence_buffer,150318,confidence_buffer,,null,,,,,,,,,,,,,,,,,,
null,,thebreak,150823,break,,null,,,,,,,,,,,,,,,,,,
1168.5999999940395,,familiar_rating,151996,US_Cities_List/nat_orr.png,,52,US_Cities_List/nat_orr.png,NAT,4,,,,,,,,,,,,,,,
null,,confidence_buffer,152102,confidence_buffer,,null,,,,,,,,,,,,,,,,,,
797.9000000059605,,unique_rating,152906,US_Cities_List/nat_orr.png,,51,,,3,,,,,,,,,,,,,,,
null,,confidence_buffer,153013,confidence_buffer,,null,,,,,,,,,,,,,,,,,,
610.1000000238419,,memorable_rating,153630,US_Cities_List/nat_orr.png,,50,,,2,,,,,,,,,,,,,,,
null,,confidence_buffer,153736,confidence_buffer,,null,,,,,,,,,,,,,,,,,,
null,,thebreak,154241,break,,null,,,,,,,,,,,,,,,,,,
1266.9000000059605,,familiar_rating,155515,US_Cities_List/mm_hilo.png,,50,US_Cities_List/mm_hilo.png,MM,2,,,,,,,,,,,,,,,
null,,confidence_buffer,155622,confidence_buffer,,null,,,,,,,,,,,,,,,,,,
718.7999999821186,,unique_rating,156349,US_Cities_List/mm_hilo.png,,51,,,3,,,,,,,,,,,,,,,
null,,confidence_buffer,156463,confidence_buffer,,null,,,,,,,,,,,,,,,,,,
800.4000000059605,,memorable_rating,157269,US_Cities_List/mm_hilo.png,,52,,,4,,,,,,,,,,,,,,,
null,,confidence_buffer,157378,confidence_buffer,,null,,,,,,,,,,,,,,,,,,
null,,thebreak,157885,break,,null,,,,,,,,,,,,,,,,,,
3482.0999999940395,,familiar_rating,161372,Fictional_Cities_List/img_manmade_17.png,,52,Fictional_Cities_List/img_manmade_17.png,MM,4,,,,,,,,,,,,,,,
null,,confidence_buffer,161478,confidence_buffer,,null,,,,,,,,,,,,,,,,,,
1563.0999999940395,,unique_rating,163046,Fictional_Cities_List/img_manmade_17.png,,51,,,3,,,,,,,,,,,,,,,
null,,confidence_buffer,163153,confidence_buffer,,null,,,,,,,,,,,,,,,,,,
1492.0999999940395,,probe_rating,164650,probe_rating,,52,,,,4,1,,,,,,,,,,,,,
null,,confidence_buffer,164763,confidence_buffer,,null,,,,,,,,,,,,,,,,,,
780.5,,memorable_rating,165552,Fictional_Cities_List/img_manmade_17.png,,51,,,3,,,,,,,,,,,,,,,
null,,confidence_buffer,165658,confidence_buffer,,null,,,,,,,,,,,,,,,,,,
null,,thebreak,166162,break,,null,,,,,,,,,,,,,,,,,,
924.5999999940395,,familiar_rating,167091,Fictional_Cities_List/img_natural_01.png,,50,Fictional_Cities_List/img_natural_01.png,NAT,2,,,,,,,,,,,,,,,
null,,confidence_buffer,167199,confidence_buffer,,null,,,,,,,,,,,,,,,,,,
672.6999999880791,,unique_rating,167878,Fictional_Cities_List/img_natural_01.png,,51,,,3,,,,,,,,,,,,,,,
null,,confidence_buffer,167985,confidence_buffer,,null,,,,,,,,,,,,,,,,,,
503.30000001192093,,memorable_rating,168493,Fictional_Cities_List/img_natural_01.png,,50,,,2,,,,,,,,,,,,,,,
null,,confidence_buffer,168601,confidence_buffer,,null,,,,,,,,,,,,,,,,,,
null,,thebreak,169107,break,,null,,,,,,,,,,,,,,,,,,
1427.699999988079,,familiar_rating,170539,Fictional_Cities_List/img_manmade_18.png,,52,Fictional_Cities_List/img_manmade_18.png,MM,4,,,,,,,,,,,,,,,
null,,confidence_buffer,170647,confidence_buffer,,null,,,,,,,,,,,,,,,,,,
534.7999999821186,,unique_rating,171187,Fictional_Cities_List/img_manmade_18.png,,51,,,3,,,,,,,,,,,,,,,
null,,confidence_buffer,171293,confidence_buffer,,null,,,,,,,,,,,,,,,,,,
1219.4000000059605,,memorable_rating,172518,Fictional_Cities_List/img_manmade_18.png,,50,,,2,,,,,,,,,,,,,,,
null,,confidence_buffer,172623,confidence_buffer,,null,,,,,,,,,,,,,,,,,,
null,,thebreak,173127,break,,null,,,,,,,,,,,,,,,,,,
817,,familiar_rating,173948,US_Cities_List/nat_albuquerque.png,,51,US_Cities_List/nat_albuquerque.png,NAT,3,,,,,,,,,,,,,,,
null,,confidence_buffer,174052,confidence_buffer,,null,,,,,,,,,,,,,,,,,,
982.7999999821186,,unique_rating,175040,US_Cities_List/nat_albuquerque.png,,52,,,4,,,,,,,,,,,,,,,
null,,confidence_buffer,175146,confidence_buffer,,null,,,,,,,,,,,,,,,,,,
627.9000000059605,,memorable_rating,175780,US_Cities_List/nat_albuquerque.png,,51,,,3,,,,,,,,,,,,,,,
null,,confidence_buffer,175886,confidence_buffer,,null,,,,,,,,,,,,,,,,,,
null,,thebreak,176393,break,,null,,,,,,,,,,,,,,,,,,
1588.199999988079,,familiar_rating,177987,US_Cities_List/nat_sanantonio.png,,50,US_Cities_List/nat_sanantonio.png,NAT,2,,,,,,,,,,,,,,,
null,,confidence_buffer,178107,confidence_buffer,,null,,,,,,,,,,,,,,,,,,
744.9000000059605,,unique_rating,178857,US_Cities_List/nat_sanantonio.png,,51,,,3,,,,,,,,,,,,,,,
null,,confidence_buffer,178964,confidence_buffer,,null,,,,,,,,,,,,,,,,,,
943.0999999940395,,memorable_rating,179913,US_Cities_List/nat_sanantonio.png,,52,,,4,,,,,,,,,,,,,,,
null,,confidence_buffer,180028,confidence_buffer,,null,,,,,,,,,,,,,,,,,,
null,,thebreak,180532,break,,null,,,,,,,,,,,,,,,,,,
2552.2000000178814,,familiar_rating,183088,US_Cities_List/mm_cleveland.png,,53,US_Cities_List/mm_cleveland.png,MM,5,,,,,,,,,,,,,,,
null,,confidence_buffer,183196,confidence_buffer,,null,,,,,,,,,,,,,,,,,,
694.9000000059605,,unique_rating,183897,US_Cities_List/mm_cleveland.png,,52,,,4,,,,,,,,,,,,,,,
null,,confidence_buffer,184002,confidence_buffer,,null,,,,,,,,,,,,,,,,,,
590.0999999940395,,memorable_rating,184600,US_Cities_List/mm_cleveland.png,,51,,,3,,,,,,,,,,,,,,,
null,,confidence_buffer,184707,confidence_buffer,,null,,,,,,,,,,,,,,,,,,
null,,thebreak,185214,break,,null,,,,,,,,,,,,,,,,,,
1000.3000000119209,,familiar_rating,186218,Fictional_Cities_List/img_manmade_40.png,,52,Fictional_Cities_List/img_manmade_40.png,MM,4,,,,,,,,,,,,,,,
null,,confidence_buffer,186325,confidence_buffer,,null,,,,,,,,,,,,,,,,,,
724.7000000178814,,unique_rating,187055,Fictional_Cities_List/img_manmade_40.png,,51,,,3,,,,,,,,,,,,,,,
null,,confidence_buffer,187165,confidence_buffer,,null,,,,,,,,,,,,,,,,,,
578.6999999880791,,memorable_rating,187749,Fictional_Cities_List/img_manmade_40.png,,53,,,5,,,,,,,,,,,,,,,
null,,confidence_buffer,187855,confidence_buffer,,null,,,,,,,,,,,,,,,,,,
null,,thebreak,188361,break,,null,,,,,,,,,,,,,,,,,,
674.3000000119209,,familiar_rating,189044,US_Cities_List/nat_gloucester.png,,52,US_Cities_List/nat_gloucester.png,NAT,4,,,,,,,,,,,,,,,
null,,confidence_buffer,189152,confidence_buffer,,null,,,,,,,,,,,,,,,,,,
590,,unique_rating,189747,US_Cities_List/nat_gloucester.png,,51,,,3,,,,,,,,,,,,,,,
null,,confidence_buffer,189856,confidence_buffer,,null,,,,,,,,,,,,,,,,,,
440.40000000596046,,memorable_rating,190301,US_Cities_List/nat_gloucester.png,,52,,,4,,,,,,,,,,,,,,,
null,,confidence_buffer,190407,confidence_buffer,,null,,,,,,,,,,,,,,,,,,
null,,thebreak,190910,break,,null,,,,,,,,,,,,,,,,,,
1468.300000011921,,familiar_rating,192383,Fictional_Cities_List/img_natural_23.png,,53,Fictional_Cities_List/img_natural_23.png,NAT,5,,,,,,,,,,,,,,,
null,,confidence_buffer,192497,confidence_buffer,,null,,,,,,,,,,,,,,,,,,
539,,unique_rating,193043,Fictional_Cities_List/img_natural_23.png,,52,,,4,,,,,,,,,,,,,,,
null,,confidence_buffer,193152,confidence_buffer,,null,,,,,,,,,,,,,,,,,,
560,,memorable_rating,193718,Fictional_Cities_List/img_natural_23.png,,51,,,3,,,,,,,,,,,,,,,
null,,confidence_buffer,193822,confidence_buffer,,null,,,,,,,,,,,,,,,,,,
null,,thebreak,194328,break,,null,,,,,,,,,,,,,,,,,,
879.0999999940395,,familiar_rating,195213,Fictional_Cities_List/img_natural_18.png,,51,Fictional_Cities_List/img_natural_18.png,NAT,3,,,,,,,,,,,,,,,
null,,confidence_buffer,195318,confidence_buffer,,null,,,,,,,,,,,,,,,,,,
681.9000000059605,,unique_rating,196007,Fictional_Cities_List/img_natural_18.png,,52,,,4,,,,,,,,,,,,,,,
null,,confidence_buffer,196114,confidence_buffer,,null,,,,,,,,,,,,,,,,,,
607.6999999880791,,memorable_rating,196727,Fictional_Cities_List/img_natural_18.png,,53,,,5,,,,,,,,,,,,,,,
null,,confidence_buffer,196835,confidence_buffer,,null,,,,,,,,,,,,,,,,,,
null,,thebreak,197340,break,,null,,,,,,,,,,,,,,,,,,
757.3000000119209,,familiar_rating,198103,US_Cities_List/mm_healdsburg.png,,51,US_Cities_List/mm_healdsburg.png,MM,3,,,,,,,,,,,,,,,
null,,confidence_buffer,198209,confidence_buffer,,null,,,,,,,,,,,,,,,,,,
439.90000000596046,,unique_rating,198655,US_Cities_List/mm_healdsburg.png,,52,,,4,,,,,,,,,,,,,,,
null,,confidence_buffer,198764,confidence_buffer,,null,,,,,,,,,,,,,,,,,,
507.19999998807907,,memorable_rating,199277,US_Cities_List/mm_healdsburg.png,,53,,,5,,,,,,,,,,,,,,,
null,,confidence_buffer,199382,confidence_buffer,,null,,,,,,,,,,,,,,,,,,
null,,thebreak,199897,break,,null,,,,,,,,,,,,,,,,,,
1997.7999999821186,,familiar_rating,201901,US_Cities_List/nat_cody.png,,50,US_Cities_List/nat_cody.png,NAT,2,,,,,,,,,,,,,,,
null,,confidence_buffer,202008,confidence_buffer,,null,,,,,,,,,,,,,,,,,,
328.2999999821186,,unique_rating,202341,US_Cities_List/nat_cody.png,,51,,,3,,,,,,,,,,,,,,,
null,,confidence_buffer,202450,confidence_buffer,,null,,,,,,,,,,,,,,,,,,
381.69999998807907,,memorable_rating,202836,US_Cities_List/nat_cody.png,,52,,,4,,,,,,,,,,,,,,,
null,,confidence_buffer,202945,confidence_buffer,,null,,,,,,,,,,,,,,,,,,
null,,thebreak,203449,break,,null,,,,,,,,,,,,,,,,,,
1498.300000011921,,familiar_rating,204952,Fictional_Cities_List/img_natural_14.png,,50,Fictional_Cities_List/img_natural_14.png,NAT,2,,,,,,,,,,,,,,,
null,,confidence_buffer,205057,confidence_buffer,,null,,,,,,,,,,,,,,,,,,
703.5999999940395,,unique_rating,205765,Fictional_Cities_List/img_natural_14.png,,52,,,4,,,,,,,,,,,,,,,
null,,confidence_buffer,205872,confidence_buffer,,null,,,,,,,,,,,,,,,,,,
438.90000000596046,,memorable_rating,206317,Fictional_Cities_List/img_natural_14.png,,53,,,5,,,,,,,,,,,,,,,
null,,confidence_buffer,206422,confidence_buffer,,null,,,,,,,,,,,,,,,,,,
null,,thebreak,206927,break,,null,,,,,,,,,,,,,,,,,,
1367.0999999940395,,familiar_rating,208300,US_Cities_List/mm_hotsprings.png,,50,US_Cities_List/mm_hotsprings.png,MM,2,,,,,,,,,,,,,,,
null,,confidence_buffer,208407,confidence_buffer,,null,,,,,,,,,,,,,,,,,,
963.0999999940395,,unique_rating,209375,US_Cities_List/mm_hotsprings.png,,51,,,3,,,,,,,,,,,,,,,
null,,confidence_buffer,209481,confidence_buffer,,null,,,,,,,,,,,,,,,,,,
429.40000000596046,,memorable_rating,209918,US_Cities_List/mm_hotsprings.png,,52,,,4,,,,,,,,,,,,,,,
null,,confidence_buffer,210023,confidence_buffer,,null,,,,,,,,,,,,,,,,,,
null,,thebreak,210527,break,,null,,,,,,,,,,,,,,,,,,
1659.3999999761581,,familiar_rating,212191,Fictional_Cities_List/img_manmade_01.png,,50,Fictional_Cities_List/img_manmade_01.png,MM,2,,,,,,,,,,,,,,,
null,,confidence_buffer,212306,confidence_buffer,,null,,,,,,,,,,,,,,,,,,
584.3000000119209,,unique_rating,212896,Fictional_Cities_List/img_manmade_01.png,,52,,,4,,,,,,,,,,,,,,,
null,,confidence_buffer,213003,confidence_buffer,,null,,,,,,,,,,,,,,,,,,
1325.0999999940395,,probe_rating,214334,probe_rating,,53,,,,5,1,,,,,,,,,,,,,
null,,confidence_buffer,214438,confidence_buffer,,null,,,,,,,,,,,,,,,,,,
1033.5,,memorable_rating,215476,Fictional_Cities_List/img_manmade_01.png,,53,,,5,,,,,,,,,,,,,,,
null,,confidence_buffer,215582,confidence_buffer,,null,,,,,,,,,,,,,,,,,,
null,,thebreak,216085,break,,null,,,,,,,,,,,,,,,,,,
1308.300000011921,,familiar_rating,217399,Fictional_Cities_List/img_manmade_37.png,,52,Fictional_Cities_List/img_manmade_37.png,MM,4,,,,,,,,,,,,,,,
null,,confidence_buffer,217508,confidence_buffer,,null,,,,,,,,,,,,,,,,,,
946,,unique_rating,218459,Fictional_Cities_List/img_manmade_37.png,,53,,,5,,,,,,,,,,,,,,,
null,,confidence_buffer,218567,confidence_buffer,,null,,,,,,,,,,,,,,,,,,
462.69999998807907,,memorable_rating,219034,Fictional_Cities_List/img_manmade_37.png,,53,,,5,,,,,,,,,,,,,,,
null,,confidence_buffer,219139,confidence_buffer,,null,,,,,,,,,,,,,,,,,,
null,,thebreak,219642,break,,null,,,,,,,,,,,,,,,,,,
681.8000000119209,,familiar_rating,220328,US_Cities_List/mm_watkinsglen.png,,52,US_Cities_List/mm_watkinsglen.png,MM,4,,,,,,,,,,,,,,,
null,,confidence_buffer,220434,confidence_buffer,,null,,,,,,,,,,,,,,,,,,
700.5999999940395,,unique_rating,221139,US_Cities_List/mm_watkinsglen.png,,53,,,5,,,,,,,,,,,,,,,
null,,confidence_buffer,221243,confidence_buffer,,null,,,,,,,,,,,,,,,,,,
437.40000000596046,,memorable_rating,221685,US_Cities_List/mm_watkinsglen.png,,53,,,5,,,,,,,,,,,,,,,
null,,confidence_buffer,221789,confidence_buffer,,null,,,,,,,,,,,,,,,,,,
null,,thebreak,222292,break,,null,,,,,,,,,,,,,,,,,,
5993.0999999940395,,intro_0,228288,instruct,,32,,,,,,,,,,,,,,,,,,
5438,,intro_1,233728,instruct,,32,,,,,,,,,,,,,,,,,,
19699.09999999404,,intro_2,253432,instruct,,32,,,,,,,,,,,,,,,,,,
null,,instruct_dir_4,254936,instruct,,null,,,,,,,,,,,,,,,,,,
7467.300000011921,,pt2_realistic_rating,262408,Fictional_Cities_List/img_natural_33.png,,51,Fictional_Cities_List/img_natural_33.png,NAT,3,,,,,,,,,,,,,,,
null,,confidence_buffer,262533,confidence_buffer,,null,,,,,,,,,,,,,,,,,,
1803,,probe_rating,264342,probe_rating,,51,,,,3,1,,,,,,,,,,,,,
null,,confidence_buffer,264450,confidence_buffer,,null,,,,,,,,,,,,,,,,,,
1499.5,,pt2_unique_rating,265955,Fictional_Cities_List/img_natural_33.png,,51,,,3,,,,,,,,,,,,,,,
null,,confidence_buffer,266062,confidence_buffer,,null,,,,,,,,,,,,,,,,,,
3464.7999999821186,,pt2_memorable_rating,269532,Fictional_Cities_List/img_natural_33.png,,51,,,3,,,,,,,,,,,,,,,
null,,confidence_buffer,269640,confidence_buffer,,null,,,,,,,,,,,,,,,,,,
5071.699999988079,,recognition_phase,274719,Fictional_Cities_List/img_natural_33.png,,49,,,,,,old,1,1,,,,,,,,,,
null,,confidence_buffer,274825,confidence_buffer,,null,,,,,,,,,,,,,,,,,,
null,,thebreak,275330,break,,null,,,,,,,,,,,,,,,,,,
4102.9000000059605,,pt2_realistic_rating,279438,US_Cities_List/mm_gardnerville.png,,51,US_Cities_List/mm_gardnerville.png,MM,3,,,,,,,,,,,,,,,
null,,confidence_buffer,279545,confidence_buffer,,null,,,,,,,,,,,,,,,,,,
1088.199999988079,,pt2_unique_rating,280638,US_Cities_List/mm_gardnerville.png,,51,,,3,,,,,,,,,,,,,,,
null,,confidence_buffer,280743,confidence_buffer,,null,,,,,,,,,,,,,,,,,,
903.4000000059605,,pt2_memorable_rating,281652,US_Cities_List/mm_gardnerville.png,,51,,,3,,,,,,,,,,,,,,,
null,,confidence_buffer,281760,confidence_buffer,,null,,,,,,,,,,,,,,,,,,
2872.0999999940395,,recognition_phase,284639,US_Cities_List/mm_gardnerville.png,,52,,,,,,new,0,0.5,,,,,,,,,,
null,,confidence_buffer,284746,confidence_buffer,,null,,,,,,,,,,,,,,,,,,
null,,thebreak,285251,break,,null,,,,,,,,,,,,,,,,,,
3721.0999999940395,,pt2_realistic_rating,288977,Fictional_Cities_List/img_natural_40.png,,53,Fictional_Cities_List/img_natural_40.png,NAT,5,,,,,,,,,,,,,,,
null,,confidence_buffer,289083,confidence_buffer,,null,,,,,,,,,,,,,,,,,,
778.3999999761581,,pt2_unique_rating,289866,Fictional_Cities_List/img_natural_40.png,,53,,,5,,,,,,,,,,,,,,,
null,,confidence_buffer,289976,confidence_buffer,,null,,,,,,,,,,,,,,,,,,
674.5999999940395,,pt2_memorable_rating,290657,Fictional_Cities_List/img_natural_40.png,,53,,,5,,,,,,,,,,,,,,,
null,,confidence_buffer,290763,confidence_buffer,,null,,,,,,,,,,,,,,,,,,
1741.699999988079,,recognition_phase,292512,Fictional_Cities_List/img_natural_40.png,,49,,,,,,old,1,0.6666666666666666,,,,,,,,,,
null,,confidence_buffer,292616,confidence_buffer,,null,,,,,,,,,,,,,,,,,,
null,,thebreak,293122,break,,null,,,,,,,,,,,,,,,,,,
3204,,pt2_realistic_rating,296330,Fictional_Cities_List/img_manmade_01.png,,52,Fictional_Cities_List/img_manmade_01.png,MM,4,,,,,,,,,,,,,,,
null,,confidence_buffer,296435,confidence_buffer,,null,,,,,,,,,,,,,,,,,,
794.5,,pt2_unique_rating,297234,Fictional_Cities_List/img_manmade_01.png,,52,,,4,,,,,,,,,,,,,,,
null,,confidence_buffer,297341,confidence_buffer,,null,,,,,,,,,,,,,,,,,,
587.7999999821186,,pt2_memorable_rating,297935,Fictional_Cities_List/img_manmade_01.png,,52,,,4,,,,,,,,,,,,,,,
null,,confidence_buffer,298042,confidence_buffer,,null,,,,,,,,,,,,,,,,,,
2201.600000023842,,recognition_phase,300249,Fictional_Cities_List/img_manmade_01.png,,52,,,,,,new,0,0.5,,,,,,,,,,
null,,confidence_buffer,300356,confidence_buffer,,null,,,,,,,,,,,,,,,,,,
null,,thebreak,300860,break,,null,,,,,,,,,,,,,,,,,,
1943,,pt2_realistic_rating,302808,Fictional_Cities_List/img_natural_01.png,,52,Fictional_Cities_List/img_natural_01.png,NAT,4,,,,,,,,,,,,,,,
null,,confidence_buffer,302922,confidence_buffer,,null,,,,,,,,,,,,,,,,,,
1319.9000000059605,,pt2_unique_rating,304249,Fictional_Cities_List/img_natural_01.png,,52,,,4,,,,,,,,,,,,,,,
null,,confidence_buffer,304356,confidence_buffer,,null,,,,,,,,,,,,,,,,,,
748.8999999761581,,pt2_memorable_rating,305112,Fictional_Cities_List/img_natural_01.png,,52,,,4,,,,,,,,,,,,,,,
null,,confidence_buffer,305219,confidence_buffer,,null,,,,,,,,,,,,,,,,,,
1028,,recognition_phase,306253,Fictional_Cities_List/img_natural_01.png,,52,,,,,,new,0,0.4,,,,,,,,,,
null,,confidence_buffer,306358,confidence_buffer,,null,,,,,,,,,,,,,,,,,,
null,,thebreak,306869,break,,null,,,,,,,,,,,,,,,,,,
4361.200000017881,,pt2_realistic_rating,311233,Fictional_Cities_List/img_natural_37.png,,52,Fictional_Cities_List/img_natural_37.png,NAT,4,,,,,,,,,,,,,,,
null,,confidence_buffer,311341,confidence_buffer,,null,,,,,,,,,,,,,,,,,,
1879,,pt2_unique_rating,313227,Fictional_Cities_List/img_natural_37.png,,52,,,4,,,,,,,,,,,,,,,
null,,confidence_buffer,313334,confidence_buffer,,null,,,,,,,,,,,,,,,,,,
698.5999999940395,,pt2_memorable_rating,314038,Fictional_Cities_List/img_natural_37.png,,52,,,4,,,,,,,,,,,,,,,
null,,confidence_buffer,314145,confidence_buffer,,null,,,,,,,,,,,,,,,,,,
717.7000000178814,,recognition_phase,314871,Fictional_Cities_List/img_natural_37.png,,52,,,,,,new,1,0.5,,,,,,,,,,
null,,confidence_buffer,314979,confidence_buffer,,null,,,,,,,,,,,,,,,,,,
null,,thebreak,315483,break,,null,,,,,,,,,,,,,,,,,,
1760.300000011921,,pt2_realistic_rating,317248,Fictional_Cities_List/img_manmade_23.png,,52,Fictional_Cities_List/img_manmade_23.png,MM,4,,,,,,,,,,,,,,,
null,,confidence_buffer,317356,confidence_buffer,,null,,,,,,,,,,,,,,,,,,
837.9000000059605,,pt2_unique_rating,318198,Fictional_Cities_List/img_manmade_23.png,,52,,,4,,,,,,,,,,,,,,,
null,,confidence_buffer,318303,confidence_buffer,,null,,,,,,,,,,,,,,,,,,
589.5,,pt2_memorable_rating,318900,Fictional_Cities_List/img_manmade_23.png,,52,,,4,,,,,,,,,,,,,,,
null,,confidence_buffer,319009,confidence_buffer,,null,,,,,,,,,,,,,,,,,,
776.5,,recognition_phase,319793,Fictional_Cities_List/img_manmade_23.png,,52,,,,,,new,1,0.5714285714285714,,,,,,,,,,
null,,confidence_buffer,319900,confidence_buffer,,null,,,,,,,,,,,,,,,,,,
null,,thebreak,320416,break,,null,,,,,,,,,,,,,,,,,,
1977.5,,pt2_realistic_rating,322399,Fictional_Cities_List/img_manmade_37.png,,52,Fictional_Cities_List/img_manmade_37.png,MM,4,,,,,,,,,,,,,,,
null,,confidence_buffer,322505,confidence_buffer,,null,,,,,,,,,,,,,,,,,,
558.2000000178814,,pt2_unique_rating,323069,Fictional_Cities_List/img_manmade_37.png,,52,,,4,,,,,,,,,,,,,,,
null,,confidence_buffer,323176,confidence_buffer,,null,,,,,,,,,,,,,,,,,,
698.6000000238419,,pt2_memorable_rating,323880,Fictional_Cities_List/img_manmade_37.png,,52,,,4,,,,,,,,,,,,,,,
null,,confidence_buffer,323986,confidence_buffer,,null,,,,,,,,,,,,,,,,,,
751.7999999821186,,recognition_phase,324746,Fictional_Cities_List/img_manmade_37.png,,52,,,,,,new,0,0.5,,,,,,,,,,
null,,confidence_buffer,324854,confidence_buffer,,null,,,,,,,,,,,,,,,,,,
null,,thebreak,325359,break,,null,,,,,,,,,,,,,,,,,,
1894.5,,pt2_realistic_rating,327259,Fictional_Cities_List/img_manmade_03.png,,52,Fictional_Cities_List/img_manmade_03.png,MM,4,,,,,,,,,,,,,,,
null,,confidence_buffer,327366,confidence_buffer,,null,,,,,,,,,,,,,,,,,,
839.4000000059605,,pt2_unique_rating,328210,Fictional_Cities_List/img_manmade_03.png,,52,,,4,,,,,,,,,,,,,,,
null,,confidence_buffer,328317,confidence_buffer,,null,,,,,,,,,,,,,,,,,,
841,,pt2_memorable_rating,329162,Fictional_Cities_List/img_manmade_03.png,,52,,,4,,,,,,,,,,,,,,,
null,,confidence_buffer,329268,confidence_buffer,,null,,,,,,,,,,,,,,,,,,
1549,,recognition_phase,330823,Fictional_Cities_List/img_manmade_03.png,,52,,,,,,new,1,0.5555555555555556,,,,,,,,,,
null,,confidence_buffer,330932,confidence_buffer,,null,,,,,,,,,,,,,,,,,,
null,,thebreak,331438,break,,null,,,,,,,,,,,,,,,,,,
1826.5999999940395,,pt2_realistic_rating,333270,Fictional_Cities_List/img_manmade_35.png,,52,Fictional_Cities_List/img_manmade_35.png,MM,4,,,,,,,,,,,,,,,
null,,confidence_buffer,333377,confidence_buffer,,null,,,,,,,,,,,,,,,,,,
295.10000002384186,,pt2_unique_rating,333677,Fictional_Cities_List/img_manmade_35.png,,52,,,4,,,,,,,,,,,,,,,
null,,confidence_buffer,333783,confidence_buffer,,null,,,,,,,,,,,,,,,,,,
567.5999999940395,,pt2_memorable_rating,334359,Fictional_Cities_List/img_manmade_35.png,,52,,,4,,,,,,,,,,,,,,,
null,,confidence_buffer,334466,confidence_buffer,,null,,,,,,,,,,,,,,,,,,
911,,recognition_phase,335383,Fictional_Cities_List/img_manmade_35.png,,52,,,,,,new,1,0.6,,,,,,,,,,
null,,confidence_buffer,335493,confidence_buffer,,null,,,,,,,,,,,,,,,,,,
null,,thebreak,335998,break,,null,,,,,,,,,,,,,,,,,,
1426.0999999940395,,pt2_realistic_rating,337429,US_Cities_List/nat_duck.png,,52,US_Cities_List/nat_duck.png,NAT,4,,,,,,,,,,,,,,,
null,,confidence_buffer,337534,confidence_buffer,,null,,,,,,,,,,,,,,,,,,
592.4000000059605,,pt2_unique_rating,338131,US_Cities_List/nat_duck.png,,52,,,4,,,,,,,,,,,,,,,
null,,confidence_buffer,338235,confidence_buffer,,null,,,,,,,,,,,,,,,,,,
1315,,pt2_memorable_rating,339554,US_Cities_List/nat_duck.png,,52,,,4,,,,,,,,,,,,,,,
null,,confidence_buffer,339669,confidence_buffer,,null,,,,,,,,,,,,,,,,,,
790,,recognition_phase,340466,US_Cities_List/nat_duck.png,,52,,,,,,new,1,0.6363636363636364,,,,,,,,,,
null,,confidence_buffer,340572,confidence_buffer,,null,,,,,,,,,,,,,,,,,,
null,,thebreak,341078,break,,null,,,,,,,,,,,,,,,,,,
1595.9000000059605,,pt2_realistic_rating,342681,US_Cities_List/nat_cody.png,,52,US_Cities_List/nat_cody.png,NAT,4,,,,,,,,,,,,,,,
null,,confidence_buffer,342789,confidence_buffer,,null,,,,,,,,,,,,,,,,,,
986.2000000178814,,pt2_unique_rating,343779,US_Cities_List/nat_cody.png,,52,,,4,,,,,,,,,,,,,,,
null,,confidence_buffer,343888,confidence_buffer,,null,,,,,,,,,,,,,,,,,,
417.09999999403954,,pt2_memorable_rating,344311,US_Cities_List/nat_cody.png,,52,,,4,,,,,,,,,,,,,,,
null,,confidence_buffer,344416,confidence_buffer,,null,,,,,,,,,,,,,,,,,,
1280.5999999940395,,recognition_phase,345702,US_Cities_List/nat_cody.png,,52,,,,,,new,0,0.5833333333333334,,,,,,,,,,
null,,confidence_buffer,345809,confidence_buffer,,null,,,,,,,,,,,,,,,,,,
null,,thebreak,346316,break,,null,,,,,,,,,,,,,,,,,,
1513.1000000238419,,pt2_realistic_rating,347834,US_Cities_List/nat_gardnerville.png,,52,US_Cities_List/nat_gardnerville.png,NAT,4,,,,,,,,,,,,,,,
null,,confidence_buffer,347942,confidence_buffer,,null,,,,,,,,,,,,,,,,,,
226.89999997615814,,pt2_unique_rating,348176,US_Cities_List/nat_gardnerville.png,,52,,,4,,,,,,,,,,,,,,,
null,,confidence_buffer,348283,confidence_buffer,,null,,,,,,,,,,,,,,,,,,
528.4000000059605,,pt2_memorable_rating,348818,US_Cities_List/nat_gardnerville.png,,52,,,4,,,,,,,,,,,,,,,
null,,confidence_buffer,348926,confidence_buffer,,null,,,,,,,,,,,,,,,,,,
1220.0999999940395,,recognition_phase,350153,US_Cities_List/nat_gardnerville.png,,52,,,,,,new,1,0.6153846153846154,,,,,,,,,,
null,,confidence_buffer,350261,confidence_buffer,,null,,,,,,,,,,,,,,,,,,
null,,thebreak,350766,break,,null,,,,,,,,,,,,,,,,,,
1994.1000000238419,,pt2_realistic_rating,352767,US_Cities_List/nat_sisters.png,,52,US_Cities_List/nat_sisters.png,NAT,4,,,,,,,,,,,,,,,
null,,confidence_buffer,352874,confidence_buffer,,null,,,,,,,,,,,,,,,,,,
918.5999999940395,,pt2_unique_rating,353800,US_Cities_List/nat_sisters.png,,52,,,4,,,,,,,,,,,,,,,
null,,confidence_buffer,353906,confidence_buffer,,null,,,,,,,,,,,,,,,,,,
2007.800000011921,,pt2_memorable_rating,355917,US_Cities_List/nat_sisters.png,,53,,,5,,,,,,,,,,,,,,,
null,,confidence_buffer,356021,confidence_buffer,,null,,,,,,,,,,,,,,,,,,
1470.5999999940395,,recognition_phase,357494,US_Cities_List/nat_sisters.png,,49,,,,,,old,1,0.6428571428571429,,,,,,,,,,
null,,confidence_buffer,357598,confidence_buffer,,null,,,,,,,,,,,,,,,,,,
null,,thebreak,358100,break,,null,,,,,,,,,,,,,,,,,,
2491.9000000059605,,pt2_realistic_rating,360595,Fictional_Cities_List/img_natural_18.png,,52,Fictional_Cities_List/img_natural_18.png,NAT,4,,,,,,,,,,,,,,,
null,,confidence_buffer,360703,confidence_buffer,,null,,,,,,,,,,,,,,,,,,
976.7999999821186,,pt2_unique_rating,361685,Fictional_Cities_List/img_natural_18.png,,52,,,4,,,,,,,,,,,,,,,
null,,confidence_buffer,361790,confidence_buffer,,null,,,,,,,,,,,,,,,,,,
499.5,,pt2_memorable_rating,362293,Fictional_Cities_List/img_natural_18.png,,52,,,4,,,,,,,,,,,,,,,
null,,confidence_buffer,362399,confidence_buffer,,null,,,,,,,,,,,,,,,,,,
1108,,recognition_phase,363511,Fictional_Cities_List/img_natural_18.png,,52,,,,,,new,0,0.6,,,,,,,,,,
null,,confidence_buffer,363618,confidence_buffer,,null,,,,,,,,,,,,,,,,,,
null,,thebreak,364124,break,,null,,,,,,,,,,,,,,,,,,
1460.800000011921,,pt2_realistic_rating,365590,US_Cities_List/mm_racine.png,,52,US_Cities_List/mm_racine.png,MM,4,,,,,,,,,,,,,,,
null,,confidence_buffer,365696,confidence_buffer,,null,,,,,,,,,,,,,,,,,,
1042.699999988079,,pt2_unique_rating,366744,US_Cities_List/mm_racine.png,,52,,,4,,,,,,,,,,,,,,,
null,,confidence_buffer,366850,confidence_buffer,,null,,,,,,,,,,,,,,,,,,
543.5999999940395,,pt2_memorable_rating,367403,US_Cities_List/mm_racine.png,,52,,,4,,,,,,,,,,,,,,,
null,,confidence_buffer,367512,confidence_buffer,,null,,,,,,,,,,,,,,,,,,
777,,recognition_phase,368293,US_Cities_List/mm_racine.png,,52,,,,,,new,1,0.625,,,,,,,,,,
null,,confidence_buffer,368399,confidence_buffer,,null,,,,,,,,,,,,,,,,,,
null,,thebreak,368903,break,,null,,,,,,,,,,,,,,,,,,
3021.800000011921,,pt2_realistic_rating,371931,Fictional_Cities_List/img_manmade_38.png,,51,Fictional_Cities_List/img_manmade_38.png,MM,3,,,,,,,,,,,,,,,
null,,confidence_buffer,372037,confidence_buffer,,null,,,,,,,,,,,,,,,,,,
387.19999998807907,,pt2_unique_rating,372433,Fictional_Cities_List/img_manmade_38.png,,51,,,3,,,,,,,,,,,,,,,
null,,confidence_buffer,372540,confidence_buffer,,null,,,,,,,,,,,,,,,,,,
1719.4000000059605,,pt2_memorable_rating,374267,Fictional_Cities_List/img_manmade_38.png,,51,,,3,,,,,,,,,,,,,,,
null,,confidence_buffer,374375,confidence_buffer,,null,,,,,,,,,,,,,,,,,,
529,,recognition_phase,374911,Fictional_Cities_List/img_manmade_38.png,,52,,,,,,new,1,0.6470588235294118,,,,,,,,,,
null,,confidence_buffer,375018,confidence_buffer,,null,,,,,,,,,,,,,,,,,,
null,,thebreak,375523,break,,null,,,,,,,,,,,,,,,,,,
1149.2999999821186,,pt2_realistic_rating,376678,US_Cities_List/nat_westpalmbeach.png,,51,US_Cities_List/nat_westpalmbeach.png,NAT,3,,,,,,,,,,,,,,,
null,,confidence_buffer,376785,confidence_buffer,,null,,,,,,,,,,,,,,,,,,
526.2999999821186,,probe_rating,377316,probe_rating,,51,,,,3,0,,,,,,,,,,,,,
null,,confidence_buffer,377428,confidence_buffer,,null,,,,,,,,,,,,,,,,,,
1332.5,,pt2_unique_rating,378767,US_Cities_List/nat_westpalmbeach.png,,52,,,4,,,,,,,,,,,,,,,
null,,confidence_buffer,378872,confidence_buffer,,null,,,,,,,,,,,,,,,,,,
792,,pt2_memorable_rating,379671,US_Cities_List/nat_westpalmbeach.png,,52,,,4,,,,,,,,,,,,,,,
null,,confidence_buffer,379778,confidence_buffer,,null,,,,,,,,,,,,,,,,,,
747,,recognition_phase,380535,US_Cities_List/nat_westpalmbeach.png,,52,,,,,,new,1,0.6666666666666666,,,,,,,,,,
null,,confidence_buffer,380643,confidence_buffer,,null,,,,,,,,,,,,,,,,,,
null,,thebreak,381156,break,,null,,,,,,,,,,,,,,,,,,
5812.0999999940395,,pt2_realistic_rating,386977,Fictional_Cities_List/img_manmade_17.png,,51,Fictional_Cities_List/img_manmade_17.png,MM,3,,,,,,,,,,,,,,,
null,,confidence_buffer,387083,confidence_buffer,,null,,,,,,,,,,,,,,,,,,
913,,pt2_unique_rating,388002,Fictional_Cities_List/img_manmade_17.png,,51,,,3,,,,,,,,,,,,,,,
null,,confidence_buffer,388109,confidence_buffer,,null,,,,,,,,,,,,,,,,,,
566.3000000119209,,pt2_memorable_rating,388680,Fictional_Cities_List/img_manmade_17.png,,51,,,3,,,,,,,,,,,,,,,
null,,confidence_buffer,388805,confidence_buffer,,null,,,,,,,,,,,,,,,,,,
1527.699999988079,,probe_rating,390340,probe_rating,,53,,,,5,1,,,,,,,,,,,,,
null,,confidence_buffer,390448,confidence_buffer,,null,,,,,,,,,,,,,,,,,,
1682.5999999940395,,recognition_phase,392139,Fictional_Cities_List/img_manmade_17.png,,52,,,,,,new,0,0.631578947368421,,,,,,,,,,
null,,confidence_buffer,392245,confidence_buffer,,null,,,,,,,,,,,,,,,,,,
null,,thebreak,392749,break,,null,,,,,,,,,,,,,,,,,,
2145.5999999940395,,pt2_realistic_rating,394900,US_Cities_List/mm_healdsburg.png,,52,US_Cities_List/mm_healdsburg.png,MM,4,,,,,,,,,,,,,,,
null,,confidence_buffer,395007,confidence_buffer,,null,,,,,,,,,,,,,,,,,,
751,,pt2_unique_rating,395766,US_Cities_List/mm_healdsburg.png,,52,,,4,,,,,,,,,,,,,,,
null,,confidence_buffer,395875,confidence_buffer,,null,,,,,,,,,,,,,,,,,,
633.2999999821186,,pt2_memorable_rating,396516,US_Cities_List/mm_healdsburg.png,,52,,,4,,,,,,,,,,,,,,,
null,,confidence_buffer,396625,confidence_buffer,,null,,,,,,,,,,,,,,,,,,
1046.7000000178814,,recognition_phase,397679,US_Cities_List/mm_healdsburg.png,,52,,,,,,new,0,0.6,,,,,,,,,,
null,,confidence_buffer,397786,confidence_buffer,,null,,,,,,,,,,,,,,,,,,
null,,thebreak,398289,break,,null,,,,,,,,,,,,,,,,,,
3778.0999999940395,,pt2_realistic_rating,402072,US_Cities_List/mm_leesburg.png,,52,US_Cities_List/mm_leesburg.png,MM,4,,,,,,,,,,,,,,,
null,,confidence_buffer,402185,confidence_buffer,,null,,,,,,,,,,,,,,,,,,
1330.8999999761581,,pt2_unique_rating,403523,US_Cities_List/mm_leesburg.png,,52,,,4,,,,,,,,,,,,,,,
null,,confidence_buffer,403633,confidence_buffer,,null,,,,,,,,,,,,,,,,,,
1728.5,,probe_rating,405367,probe_rating,,49,,,,1,1,,,,,,,,,,,,,
null,,confidence_buffer,405472,confidence_buffer,,null,,,,,,,,,,,,,,,,,,
1042.1000000238419,,pt2_memorable_rating,406518,US_Cities_List/mm_leesburg.png,,52,,,4,,,,,,,,,,,,,,,
null,,confidence_buffer,406623,confidence_buffer,,null,,,,,,,,,,,,,,,,,,
1182.5999999940395,,recognition_phase,407811,US_Cities_List/mm_leesburg.png,,52,,,,,,new,1,0.6190476190476191,,,,,,,,,,
null,,confidence_buffer,407917,confidence_buffer,,null,,,,,,,,,,,,,,,,,,
null,,thebreak,408422,break,,null,,,,,,,,,,,,,,,,,,
1388.800000011921,,pt2_realistic_rating,409816,Fictional_Cities_List/img_manmade_30.png,,52,Fictional_Cities_List/img_manmade_30.png,MM,4,,,,,,,,,,,,,,,
null,,confidence_buffer,409925,confidence_buffer,,null,,,,,,,,,,,,,,,,,,
683.4000000059605,,pt2_unique_rating,410614,Fictional_Cities_List/img_manmade_30.png,,52,,,4,,,,,,,,,,,,,,,
null,,confidence_buffer,410726,confidence_buffer,,null,,,,,,,,,,,,,,,,,,
527.6999999880791,,pt2_memorable_rating,411259,Fictional_Cities_List/img_manmade_30.png,,52,,,4,,,,,,,,,,,,,,,
null,,confidence_buffer,411366,confidence_buffer,,null,,,,,,,,,,,,,,,,,,
913.1999999880791,,recognition_phase,412287,Fictional_Cities_List/img_manmade_30.png,,52,,,,,,new,1,0.6363636363636364,,,,,,,,,,
null,,confidence_buffer,412394,confidence_buffer,,null,,,,,,,,,,,,,,,,,,
null,,thebreak,412901,break,,null,,,,,,,,,,,,,,,,,,
1582.7999999821186,,pt2_realistic_rating,414489,Fictional_Cities_List/img_natural_30.png,,52,Fictional_Cities_List/img_natural_30.png,NAT,4,,,,,,,,,,,,,,,
null,,confidence_buffer,414596,confidence_buffer,,null,,,,,,,,,,,,,,,,,,
570.6999999880791,,pt2_unique_rating,415174,Fictional_Cities_List/img_natural_30.png,,52,,,4,,,,,,,,,,,,,,,
null,,confidence_buffer,415283,confidence_buffer,,null,,,,,,,,,,,,,,,,,,
747.2999999821186,,pt2_memorable_rating,416037,Fictional_Cities_List/img_natural_30.png,,52,,,4,,,,,,,,,,,,,,,
null,,confidence_buffer,416145,confidence_buffer,,null,,,,,,,,,,,,,,,,,,
826.5999999940395,,recognition_phase,416976,Fictional_Cities_List/img_natural_30.png,,52,,,,,,new,1,0.6521739130434783,,,,,,,,,,
null,,confidence_buffer,417085,confidence_buffer,,null,,,,,,,,,,,,,,,,,,
null,,thebreak,417591,break,,null,,,,,,,,,,,,,,,,,,
5251.0999999940395,,pt2_realistic_rating,422847,Fictional_Cities_List/img_manmade_31.png,,52,Fictional_Cities_List/img_manmade_31.png,MM,4,,,,,,,,,,,,,,,
null,,confidence_buffer,422952,confidence_buffer,,null,,,,,,,,,,,,,,,,,,
1069.7999999821186,,pt2_unique_rating,424027,Fictional_Cities_List/img_manmade_31.png,,52,,,4,,,,,,,,,,,,,,,
null,,confidence_buffer,424133,confidence_buffer,,null,,,,,,,,,,,,,,,,,,
570.2000000178814,,pt2_memorable_rating,424708,Fictional_Cities_List/img_manmade_31.png,,52,,,4,,,,,,,,,,,,,,,
null,,confidence_buffer,424813,confidence_buffer,,null,,,,,,,,,,,,,,,,,,
1234.7999999821186,,recognition_phase,426054,Fictional_Cities_List/img_manmade_31.png,,49,,,,,,old,1,0.6666666666666666,,,,,,,,,,
null,,confidence_buffer,426162,confidence_buffer,,null,,,,,,,,,,,,,,,,,,
null,,thebreak,426667,break,,null,,,,,,,,,,,,,,,,,,
2982,,pt2_realistic_rating,429653,US_Cities_List/mm_lakeoftheozarks.png,,53,US_Cities_List/mm_lakeoftheozarks.png,MM,5,,,,,,,,,,,,,,,
null,,confidence_buffer,429762,confidence_buffer,,null,,,,,,,,,,,,,,,,,,
632.0999999940395,,pt2_unique_rating,430401,US_Cities_List/mm_lakeoftheozarks.png,,53,,,5,,,,,,,,,,,,,,,
null,,confidence_buffer,430508,confidence_buffer,,null,,,,,,,,,,,,,,,,,,
739.0999999940395,,pt2_memorable_rating,431253,US_Cities_List/mm_lakeoftheozarks.png,,53,,,5,,,,,,,,,,,,,,,
null,,confidence_buffer,431358,confidence_buffer,,null,,,,,,,,,,,,,,,,,,
2056.300000011921,,recognition_phase,433420,US_Cities_List/mm_lakeoftheozarks.png,,52,,,,,,new,1,0.68,,,,,,,,,,
null,,confidence_buffer,433528,confidence_buffer,,null,,,,,,,,,,,,,,,,,,
null,,thebreak,434033,break,,null,,,,,,,,,,,,,,,,,,
1611.300000011921,,pt2_realistic_rating,435649,US_Cities_List/nat_berkeleysprings.png,,52,US_Cities_List/nat_berkeleysprings.png,NAT,4,,,,,,,,,,,,,,,
null,,confidence_buffer,435757,confidence_buffer,,null,,,,,,,,,,,,,,,,,,
641.0999999940395,,pt2_unique_rating,436401,US_Cities_List/nat_berkeleysprings.png,,52,,,4,,,,,,,,,,,,,,,
null,,confidence_buffer,436508,confidence_buffer,,null,,,,,,,,,,,,,,,,,,
510.10000002384186,,pt2_memorable_rating,437024,US_Cities_List/nat_berkeleysprings.png,,52,,,4,,,,,,,,,,,,,,,
null,,confidence_buffer,437131,confidence_buffer,,null,,,,,,,,,,,,,,,,,,
805.5999999940395,,recognition_phase,437944,US_Cities_List/nat_berkeleysprings.png,,52,,,,,,new,1,0.6923076923076923,,,,,,,,,,
null,,confidence_buffer,438053,confidence_buffer,,null,,,,,,,,,,,,,,,,,,
null,,thebreak,438557,break,,null,,,,,,,,,,,,,,,,,,
2845.0999999940395,,pt2_realistic_rating,441407,Fictional_Cities_List/img_manmade_27.png,,52,Fictional_Cities_List/img_manmade_27.png,MM,4,,,,,,,,,,,,,,,
null,,confidence_buffer,441511,confidence_buffer,,null,,,,,,,,,,,,,,,,,,
660.4000000059605,,pt2_unique_rating,442175,Fictional_Cities_List/img_manmade_27.png,,52,,,4,,,,,,,,,,,,,,,
null,,confidence_buffer,442280,confidence_buffer,,null,,,,,,,,,,,,,,,,,,
676.5999999940395,,pt2_memorable_rating,442965,Fictional_Cities_List/img_manmade_27.png,,52,,,4,,,,,,,,,,,,,,,
null,,confidence_buffer,443072,confidence_buffer,,null,,,,,,,,,,,,,,,,,,
746.4000000059605,,recognition_phase,443824,Fictional_Cities_List/img_manmade_27.png,,52,,,,,,new,1,0.7037037037037037,,,,,,,,,,
null,,confidence_buffer,443932,confidence_buffer,,null,,,,,,,,,,,,,,,,,,
null,,thebreak,444437,break,,null,,,,,,,,,,,,,,,,,,
1288.5,,pt2_realistic_rating,445730,Fictional_Cities_List/img_natural_31.png,,52,Fictional_Cities_List/img_natural_31.png,NAT,4,,,,,,,,,,,,,,,
null,,confidence_buffer,445836,confidence_buffer,,null,,,,,,,,,,,,,,,,,,
465.40000000596046,,pt2_unique_rating,446310,Fictional_Cities_List/img_natural_31.png,,52,,,4,,,,,,,,,,,,,,,
null,,confidence_buffer,446418,confidence_buffer,,null,,,,,,,,,,,,,,,,,,
408.09999999403954,,pt2_memorable_rating,446832,Fictional_Cities_List/img_natural_31.png,,52,,,4,,,,,,,,,,,,,,,
null,,confidence_buffer,446937,confidence_buffer,,null,,,,,,,,,,,,,,,,,,
614,,recognition_phase,447556,Fictional_Cities_List/img_natural_31.png,,52,,,,,,new,1,0.7142857142857143,,,,,,,,,,
null,,confidence_buffer,447662,confidence_buffer,,null,,,,,,,,,,,,,,,,,,
null,,thebreak,448165,break,,null,,,,,,,,,,,,,,,,,,
1117,,pt2_realistic_rating,449288,US_Cities_List/nat_watkinsglen.png,,52,US_Cities_List/nat_watkinsglen.png,NAT,4,,,,,,,,,,,,,,,
null,,confidence_buffer,449394,confidence_buffer,,null,,,,,,,,,,,,,,,,,,
591.4000000059605,,pt2_unique_rating,449992,US_Cities_List/nat_watkinsglen.png,,52,,,4,,,,,,,,,,,,,,,
null,,confidence_buffer,450097,confidence_buffer,,null,,,,,,,,,,,,,,,,,,
514.1999999880791,,pt2_memorable_rating,450619,US_Cities_List/nat_watkinsglen.png,,52,,,4,,,,,,,,,,,,,,,
null,,confidence_buffer,450727,confidence_buffer,,null,,,,,,,,,,,,,,,,,,
1949,,recognition_phase,452686,US_Cities_List/nat_watkinsglen.png,,52,,,,,,new,0,0.6896551724137931,,,,,,,,,,
null,,confidence_buffer,452791,confidence_buffer,,null,,,,,,,,,,,,,,,,,,
null,,thebreak,453294,break,,null,,,,,,,,,,,,,,,,,,
1432.6000000238419,,pt2_realistic_rating,454731,Fictional_Cities_List/img_natural_27.png,,52,Fictional_Cities_List/img_natural_27.png,NAT,4,,,,,,,,,,,,,,,
null,,confidence_buffer,454840,confidence_buffer,,null,,,,,,,,,,,,,,,,,,
524.4000000059605,,pt2_unique_rating,455369,Fictional_Cities_List/img_natural_27.png,,52,,,4,,,,,,,,,,,,,,,
null,,confidence_buffer,455475,confidence_buffer,,null,,,,,,,,,,,,,,,,,,
505,,pt2_memorable_rating,455986,Fictional_Cities_List/img_natural_27.png,,52,,,4,,,,,,,,,,,,,,,
null,,confidence_buffer,456097,confidence_buffer,,null,,,,,,,,,,,,,,,,,,
571.4000000059605,,recognition_phase,456676,Fictional_Cities_List/img_natural_27.png,,52,,,,,,new,0,0.6666666666666666,,,,,,,,,,
null,,confidence_buffer,456784,confidence_buffer,,null,,,,,,,,,,,,,,,,,,
null,,thebreak,457292,break,,null,,,,,,,,,,,,,,,,,,
1356.5,,pt2_realistic_rating,458654,US_Cities_List/mm_okoboji.png,,52,US_Cities_List/mm_okoboji.png,MM,4,,,,,,,,,,,,,,,
null,,confidence_buffer,458763,confidence_buffer,,null,,,,,,,,,,,,,,,,,,
638.7000000178814,,pt2_unique_rating,459409,US_Cities_List/mm_okoboji.png,,52,,,4,,,,,,,,,,,,,,,
null,,confidence_buffer,459514,confidence_buffer,,null,,,,,,,,,,,,,,,,,,
454.80000001192093,,pt2_memorable_rating,459978,US_Cities_List/mm_okoboji.png,,52,,,4,,,,,,,,,,,,,,,
null,,confidence_buffer,460085,confidence_buffer,,null,,,,,,,,,,,,,,,,,,
537.3000000119209,,recognition_phase,460630,US_Cities_List/mm_okoboji.png,,52,,,,,,new,1,0.6774193548387096,,,,,,,,,,
null,,confidence_buffer,460736,confidence_buffer,,null,,,,,,,,,,,,,,,,,,
null,,thebreak,461240,break,,null,,,,,,,,,,,,,,,,,,
2600.0999999940395,,pt2_realistic_rating,463845,Fictional_Cities_List/img_natural_03.png,,52,Fictional_Cities_List/img_natural_03.png,NAT,4,,,,,,,,,,,,,,,
null,,confidence_buffer,463951,confidence_buffer,,null,,,,,,,,,,,,,,,,,,
618,,pt2_unique_rating,464576,Fictional_Cities_List/img_natural_03.png,,52,,,4,,,,,,,,,,,,,,,
null,,confidence_buffer,464683,confidence_buffer,,null,,,,,,,,,,,,,,,,,,
459.40000000596046,,pt2_memorable_rating,465147,Fictional_Cities_List/img_natural_03.png,,52,,,4,,,,,,,,,,,,,,,
null,,confidence_buffer,465252,confidence_buffer,,null,,,,,,,,,,,,,,,,,,
1529.300000011921,,probe_rating,466788,probe_rating,,49,,,,1,1,,,,,,,,,,,,,
null,,confidence_buffer,466896,confidence_buffer,,null,,,,,,,,,,,,,,,,,,
866.9000000059605,,recognition_phase,467768,Fictional_Cities_List/img_natural_03.png,,49,,,,,,old,1,0.6875,,,,,,,,,,
null,,confidence_buffer,467873,confidence_buffer,,null,,,,,,,,,,,,,,,,,,
null,,thebreak,468376,break,,null,,,,,,,,,,,,,,,,,,
1351.4000000059605,,pt2_realistic_rating,469733,Fictional_Cities_List/img_manmade_18.png,,52,Fictional_Cities_List/img_manmade_18.png,MM,4,,,,,,,,,,,,,,,
null,,confidence_buffer,469842,confidence_buffer,,null,,,,,,,,,,,,,,,,,,
354.30000001192093,,pt2_unique_rating,470202,Fictional_Cities_List/img_manmade_18.png,,52,,,4,,,,,,,,,,,,,,,
null,,confidence_buffer,470308,confidence_buffer,,null,,,,,,,,,,,,,,,,,,
370.09999999403954,,pt2_memorable_rating,470683,Fictional_Cities_List/img_manmade_18.png,,52,,,4,,,,,,,,,,,,,,,
null,,confidence_buffer,470790,confidence_buffer,,null,,,,,,,,,,,,,,,,,,
1737.800000011921,,recognition_phase,472536,Fictional_Cities_List/img_manmade_18.png,,52,,,,,,new,0,0.6666666666666666,,,,,,,,,,
null,,confidence_buffer,472642,confidence_buffer,,null,,,,,,,,,,,,,,,,,,
null,,thebreak,473149,break,,null,,,,,,,,,,,,,,,,,,
1197.0999999940395,,pt2_realistic_rating,474353,US_Cities_List/nat_orr.png,,52,US_Cities_List/nat_orr.png,NAT,4,,,,,,,,,,,,,,,
null,,confidence_buffer,474461,confidence_buffer,,null,,,,,,,,,,,,,,,,,,
1294.199999988079,,pt2_unique_rating,475759,US_Cities_List/nat_orr.png,,52,,,4,,,,,,,,,,,,,,,
null,,confidence_buffer,475864,confidence_buffer,,null,,,,,,,,,,,,,,,,,,
10040,,pt2_memorable_rating,485911,US_Cities_List/nat_orr.png,,52,,,4,,,,,,,,,,,,,,,
null,,confidence_buffer,486019,confidence_buffer,,null,,,,,,,,,,,,,,,,,,
961.5999999940395,,recognition_phase,486989,US_Cities_List/nat_orr.png,,52,,,,,,new,0,0.6470588235294118,,,,,,,,,,
null,,confidence_buffer,487096,confidence_buffer,,null,,,,,,,,,,,,,,,,,,
null,,thebreak,487602,break,,null,,,,,,,,,,,,,,,,,,
1400.5999999940395,,pt2_realistic_rating,489008,Fictional_Cities_List/img_manmade_14.png,,52,Fictional_Cities_List/img_manmade_14.png,MM,4,,,,,,,,,,,,,,,
null,,confidence_buffer,489114,confidence_buffer,,null,,,,,,,,,,,,,,,,,,
693.0999999940395,,pt2_unique_rating,489812,Fictional_Cities_List/img_manmade_14.png,,52,,,4,,,,,,,,,,,,,,,
null,,confidence_buffer,489920,confidence_buffer,,null,,,,,,,,,,,,,,,,,,
519.7000000178814,,pt2_memorable_rating,490446,Fictional_Cities_List/img_manmade_14.png,,52,,,4,,,,,,,,,,,,,,,
null,,confidence_buffer,490555,confidence_buffer,,null,,,,,,,,,,,,,,,,,,
1364.7000000178814,,recognition_phase,491928,Fictional_Cities_List/img_manmade_14.png,,52,,,,,,new,1,0.6571428571428571,,,,,,,,,,
null,,confidence_buffer,492036,confidence_buffer,,null,,,,,,,,,,,,,,,,,,
null,,thebreak,492540,break,,null,,,,,,,,,,,,,,,,,,
1248.0999999940395,,pt2_realistic_rating,493793,Fictional_Cities_List/img_manmade_33.png,,52,Fictional_Cities_List/img_manmade_33.png,MM,4,,,,,,,,,,,,,,,
null,,confidence_buffer,493900,confidence_buffer,,null,,,,,,,,,,,,,,,,,,
1377.8999999761581,,pt2_unique_rating,495282,Fictional_Cities_List/img_manmade_33.png,,52,,,4,,,,,,,,,,,,,,,
null,,confidence_buffer,495388,confidence_buffer,,null,,,,,,,,,,,,,,,,,,
460.40000000596046,,pt2_memorable_rating,495853,Fictional_Cities_List/img_manmade_33.png,,52,,,4,,,,,,,,,,,,,,,
null,,confidence_buffer,495959,confidence_buffer,,null,,,,,,,,,,,,,,,,,,
1220.0999999940395,,recognition_phase,497185,Fictional_Cities_List/img_manmade_33.png,,49,,,,,,old,1,0.6666666666666666,,,,,,,,,,
null,,confidence_buffer,497292,confidence_buffer,,null,,,,,,,,,,,,,,,,,,
null,,thebreak,497802,break,,null,,,,,,,,,,,,,,,,,,
1459.5,,pt2_realistic_rating,499266,US_Cities_List/nat_coeurdalene.png,,52,US_Cities_List/nat_coeurdalene.png,NAT,4,,,,,,,,,,,,,,,
null,,confidence_buffer,499374,confidence_buffer,,null,,,,,,,,,,,,,,,,,,
536.9000000059605,,pt2_unique_rating,499917,US_Cities_List/nat_coeurdalene.png,,52,,,4,,,,,,,,,,,,,,,
null,,confidence_buffer,500024,confidence_buffer,,null,,,,,,,,,,,,,,,,,,
720.7999999821186,,pt2_memorable_rating,500752,US_Cities_List/nat_coeurdalene.png,,52,,,4,,,,,,,,,,,,,,,
null,,confidence_buffer,500861,confidence_buffer,,null,,,,,,,,,,,,,,,,,,
575.5,,recognition_phase,501443,US_Cities_List/nat_coeurdalene.png,,52,,,,,,new,1,0.6756756756756757,,,,,,,,,,
null,,confidence_buffer,501548,confidence_buffer,,null,,,,,,,,,,,,,,,,,,
null,,thebreak,502054,break,,null,,,,,,,,,,,,,,,,,,
941.5,,pt2_realistic_rating,503003,US_Cities_List/mm_hotsprings.png,,52,US_Cities_List/mm_hotsprings.png,MM,4,,,,,,,,,,,,,,,
null,,confidence_buffer,503112,confidence_buffer,,null,,,,,,,,,,,,,,,,,,
499.5,,pt2_unique_rating,503618,US_Cities_List/mm_hotsprings.png,,52,,,4,,,,,,,,,,,,,,,
null,,confidence_buffer,503723,confidence_buffer,,null,,,,,,,,,,,,,,,,,,
549.2999999821186,,pt2_memorable_rating,504277,US_Cities_List/mm_hotsprings.png,,52,,,4,,,,,,,,,,,,,,,
null,,confidence_buffer,504383,confidence_buffer,,null,,,,,,,,,,,,,,,,,,
1329,,probe_rating,505720,probe_rating,,53,,,,5,1,,,,,,,,,,,,,
null,,confidence_buffer,505826,confidence_buffer,,null,,,,,,,,,,,,,,,,,,
688.0999999940395,,recognition_phase,506519,US_Cities_List/mm_hotsprings.png,,52,,,,,,new,0,0.6578947368421053,,,,,,,,,,
null,,confidence_buffer,506625,confidence_buffer,,null,,,,,,,,,,,,,,,,,,
null,,thebreak,507128,break,,null,,,,,,,,,,,,,,,,,,
917.3000000119209,,pt2_realistic_rating,508050,US_Cities_List/nat_newhope.png,,52,US_Cities_List/nat_newhope.png,NAT,4,,,,,,,,,,,,,,,
null,,confidence_buffer,508156,confidence_buffer,,null,,,,,,,,,,,,,,,,,,
671.4000000059605,,pt2_unique_rating,508832,US_Cities_List/nat_newhope.png,,52,,,4,,,,,,,,,,,,,,,
null,,confidence_buffer,508936,confidence_buffer,,null,,,,,,,,,,,,,,,,,,
533.1999999880791,,pt2_memorable_rating,509474,US_Cities_List/nat_newhope.png,,52,,,4,,,,,,,,,,,,,,,
null,,confidence_buffer,509581,confidence_buffer,,null,,,,,,,,,,,,,,,,,,
794.7999999821186,,recognition_phase,510381,US_Cities_List/nat_newhope.png,,52,,,,,,new,1,0.6666666666666666,,,,,,,,,,
null,,confidence_buffer,510487,confidence_buffer,,null,,,,,,,,,,,,,,,,,,
null,,thebreak,510991,break,,null,,,,,,,,,,,,,,,,,,
1320.199999988079,,pt2_realistic_rating,512315,Fictional_Cities_List/img_natural_14.png,,52,Fictional_Cities_List/img_natural_14.png,NAT,4,,,,,,,,,,,,,,,
null,,confidence_buffer,512421,confidence_buffer,,null,,,,,,,,,,,,,,,,,,
401.7000000178814,,pt2_unique_rating,512828,Fictional_Cities_List/img_natural_14.png,,52,,,4,,,,,,,,,,,,,,,
null,,confidence_buffer,512937,confidence_buffer,,null,,,,,,,,,,,,,,,,,,
376.19999998807907,,pt2_memorable_rating,513319,Fictional_Cities_List/img_natural_14.png,,52,,,4,,,,,,,,,,,,,,,
null,,confidence_buffer,513423,confidence_buffer,,null,,,,,,,,,,,,,,,,,,
674.7000000178814,,recognition_phase,514103,Fictional_Cities_List/img_natural_14.png,,52,,,,,,new,0,0.65,,,,,,,,,,
null,,confidence_buffer,514209,confidence_buffer,,null,,,,,,,,,,,,,,,,,,
null,,thebreak,514711,break,,null,,,,,,,,,,,,,,,,,,
1108.699999988079,,pt2_realistic_rating,515825,US_Cities_List/nat_gloucester.png,,52,US_Cities_List/nat_gloucester.png,NAT,4,,,,,,,,,,,,,,,
null,,confidence_buffer,515930,confidence_buffer,,null,,,,,,,,,,,,,,,,,,
865.8000000119209,,pt2_unique_rating,516805,US_Cities_List/nat_gloucester.png,,52,,,4,,,,,,,,,,,,,,,
null,,confidence_buffer,516918,confidence_buffer,,null,,,,,,,,,,,,,,,,,,
424.7999999821186,,pt2_memorable_rating,517349,US_Cities_List/nat_gloucester.png,,52,,,4,,,,,,,,,,,,,,,
null,,confidence_buffer,517454,confidence_buffer,,null,,,,,,,,,,,,,,,,,,
750.5,,recognition_phase,518210,US_Cities_List/nat_gloucester.png,,52,,,,,,new,0,0.6341463414634146,,,,,,,,,,
null,,confidence_buffer,518318,confidence_buffer,,null,,,,,,,,,,,,,,,,,,
null,,thebreak,518821,break,,null,,,,,,,,,,,,,,,,,,
1597.9000000059605,,pt2_realistic_rating,520423,US_Cities_List/nat_sanantonio.png,,51,US_Cities_List/nat_sanantonio.png,NAT,3,,,,,,,,,,,,,,,
null,,confidence_buffer,520529,confidence_buffer,,null,,,,,,,,,,,,,,,,,,
990.9000000059605,,pt2_unique_rating,521524,US_Cities_List/nat_sanantonio.png,,51,,,3,,,,,,,,,,,,,,,
null,,confidence_buffer,521629,confidence_buffer,,null,,,,,,,,,,,,,,,,,,
561.2999999821186,,pt2_memorable_rating,522195,US_Cities_List/nat_sanantonio.png,,52,,,4,,,,,,,,,,,,,,,
null,,confidence_buffer,522302,confidence_buffer,,null,,,,,,,,,,,,,,,,,,
882,,recognition_phase,523190,US_Cities_List/nat_sanantonio.png,,52,,,,,,new,0,0.6190476190476191,,,,,,,,,,
null,,confidence_buffer,523297,confidence_buffer,,null,,,,,,,,,,,,,,,,,,
null,,thebreak,523803,break,,null,,,,,,,,,,,,,,,,,,
1197.0999999940395,,pt2_realistic_rating,525006,US_Cities_List/mm_cleveland.png,,51,US_Cities_List/mm_cleveland.png,MM,3,,,,,,,,,,,,,,,
null,,confidence_buffer,525113,confidence_buffer,,null,,,,,,,,,,,,,,,,,,
534.3000000119209,,pt2_unique_rating,525652,US_Cities_List/mm_cleveland.png,,52,,,4,,,,,,,,,,,,,,,
null,,confidence_buffer,525760,confidence_buffer,,null,,,,,,,,,,,,,,,,,,
639.6999999880791,,pt2_memorable_rating,526405,US_Cities_List/mm_cleveland.png,,51,,,3,,,,,,,,,,,,,,,
null,,confidence_buffer,526512,confidence_buffer,,null,,,,,,,,,,,,,,,,,,
1112.4000000059605,,probe_rating,527629,probe_rating,,53,,,,5,1,,,,,,,,,,,,,
null,,confidence_buffer,527736,confidence_buffer,,null,,,,,,,,,,,,,,,,,,
791,,recognition_phase,528532,US_Cities_List/mm_cleveland.png,,52,,,,,,new,0,0.6046511627906976,,,,,,,,,,
null,,confidence_buffer,528640,confidence_buffer,,null,,,,,,,,,,,,,,,,,,
null,,thebreak,529143,break,,null,,,,,,,,,,,,,,,,,,
1283,,pt2_realistic_rating,530430,US_Cities_List/mm_hilo.png,,52,US_Cities_List/mm_hilo.png,MM,4,,,,,,,,,,,,,,,
null,,confidence_buffer,530542,confidence_buffer,,null,,,,,,,,,,,,,,,,,,
802.5,,pt2_unique_rating,531349,US_Cities_List/mm_hilo.png,,51,,,3,,,,,,,,,,,,,,,
null,,confidence_buffer,531454,confidence_buffer,,null,,,,,,,,,,,,,,,,,,
1373.699999988079,,probe_rating,532833,probe_rating,,50,,,,2,1,,,,,,,,,,,,,
null,,confidence_buffer,532941,confidence_buffer,,null,,,,,,,,,,,,,,,,,,
1251.4000000059605,,pt2_memorable_rating,534200,US_Cities_List/mm_hilo.png,,51,,,3,,,,,,,,,,,,,,,
null,,confidence_buffer,534306,confidence_buffer,,null,,,,,,,,,,,,,,,,,,
1206.199999988079,,recognition_phase,535517,US_Cities_List/mm_hilo.png,,52,,,,,,new,0,0.5909090909090909,,,,,,,,,,
null,,confidence_buffer,535626,confidence_buffer,,null,,,,,,,,,,,,,,,,,,
null,,thebreak,536136,break,,null,,,,,,,,,,,,,,,,,,
1389.7999999821186,,pt2_realistic_rating,537532,US_Cities_List/nat_carmel.png,,52,US_Cities_List/nat_carmel.png,NAT,4,,,,,,,,,,,,,,,
null,,confidence_buffer,537639,confidence_buffer,,null,,,,,,,,,,,,,,,,,,
543,,pt2_unique_rating,538187,US_Cities_List/nat_carmel.png,,52,,,4,,,,,,,,,,,,,,,
null,,confidence_buffer,538294,confidence_buffer,,null,,,,,,,,,,,,,,,,,,
453.09999999403954,,pt2_memorable_rating,538752,US_Cities_List/nat_carmel.png,,52,,,4,,,,,,,,,,,,,,,
null,,confidence_buffer,538861,confidence_buffer,,null,,,,,,,,,,,,,,,,,,
849,,recognition_phase,539715,US_Cities_List/nat_carmel.png,,52,,,,,,new,1,0.6,,,,,,,,,,
null,,confidence_buffer,539821,confidence_buffer,,null,,,,,,,,,,,,,,,,,,
null,,thebreak,540324,break,,null,,,,,,,,,,,,,,,,,,
1288.300000011921,,pt2_realistic_rating,541617,US_Cities_List/mm_sitka.png,,52,US_Cities_List/mm_sitka.png,MM,4,,,,,,,,,,,,,,,
null,,confidence_buffer,541728,confidence_buffer,,null,,,,,,,,,,,,,,,,,,
654.8000000119209,,pt2_unique_rating,542389,US_Cities_List/mm_sitka.png,,51,,,3,,,,,,,,,,,,,,,
null,,confidence_buffer,542497,confidence_buffer,,null,,,,,,,,,,,,,,,,,,
417.69999998807907,,pt2_memorable_rating,542919,US_Cities_List/mm_sitka.png,,52,,,4,,,,,,,,,,,,,,,
null,,confidence_buffer,543024,confidence_buffer,,null,,,,,,,,,,,,,,,,,,
742.0999999940395,,recognition_phase,543772,US_Cities_List/mm_sitka.png,,52,,,,,,new,1,0.6086956521739131,,,,,,,,,,
null,,confidence_buffer,543879,confidence_buffer,,null,,,,,,,,,,,,,,,,,,
null,,thebreak,544385,break,,null,,,,,,,,,,,,,,,,,,
1201.1000000238419,,pt2_realistic_rating,545593,US_Cities_List/mm_newport.png,,51,US_Cities_List/mm_newport.png,MM,3,,,,,,,,,,,,,,,
null,,confidence_buffer,545713,confidence_buffer,,null,,,,,,,,,,,,,,,,,,
520.0999999940395,,pt2_unique_rating,546240,US_Cities_List/mm_newport.png,,52,,,4,,,,,,,,,,,,,,,
null,,confidence_buffer,546352,confidence_buffer,,null,,,,,,,,,,,,,,,,,,
781.0999999940395,,pt2_memorable_rating,547140,US_Cities_List/mm_newport.png,,51,,,3,,,,,,,,,,,,,,,
null,,confidence_buffer,547246,confidence_buffer,,null,,,,,,,,,,,,,,,,,,
598.6999999880791,,recognition_phase,547854,US_Cities_List/mm_newport.png,,52,,,,,,new,0,0.5957446808510638,,,,,,,,,,
null,,confidence_buffer,547960,confidence_buffer,,null,,,,,,,,,,,,,,,,,,
null,,thebreak,548465,break,,null,,,,,,,,,,,,,,,,,,
1174,,pt2_realistic_rating,549644,US_Cities_List/nat_albuquerque.png,,52,US_Cities_List/nat_albuquerque.png,NAT,4,,,,,,,,,,,,,,,
null,,confidence_buffer,549751,confidence_buffer,,null,,,,,,,,,,,,,,,,,,
101.19999998807907,,pt2_unique_rating,549860,US_Cities_List/nat_albuquerque.png,,52,,,4,,,,,,,,,,,,,,,
null,,confidence_buffer,549968,confidence_buffer,,null,,,,,,,,,,,,,,,,,,
712.0999999940395,,pt2_memorable_rating,550685,US_Cities_List/nat_albuquerque.png,,52,,,4,,,,,,,,,,,,,,,
null,,confidence_buffer,550790,confidence_buffer,,null,,,,,,,,,,,,,,,,,,
603.8000000119209,,recognition_phase,551398,US_Cities_List/nat_albuquerque.png,,52,,,,,,new,0,0.5833333333333334,,,,,,,,,,
null,,confidence_buffer,551504,confidence_buffer,,null,,,,,,,,,,,,,,,,,,
null,,thebreak,552010,break,,null,,,,,,,,,,,,,,,,,,
1147.7999999821186,,pt2_realistic_rating,553163,US_Cities_List/mm_capemay.png,,52,US_Cities_List/mm_capemay.png,MM,4,,,,,,,,,,,,,,,
null,,confidence_buffer,553272,confidence_buffer,,null,,,,,,,,,,,,,,,,,,
624,,pt2_unique_rating,553902,US_Cities_List/mm_capemay.png,,52,,,4,,,,,,,,,,,,,,,
null,,confidence_buffer,554008,confidence_buffer,,null,,,,,,,,,,,,,,,,,,
626.7999999821186,,pt2_memorable_rating,554642,US_Cities_List/mm_capemay.png,,51,,,3,,,,,,,,,,,,,,,
null,,confidence_buffer,554746,confidence_buffer,,null,,,,,,,,,,,,,,,,,,
504.90000000596046,,recognition_phase,555256,US_Cities_List/mm_capemay.png,,52,,,,,,new,1,0.5918367346938775,,,,,,,,,,
null,,confidence_buffer,555362,confidence_buffer,,null,,,,,,,,,,,,,,,,,,
null,,thebreak,555869,break,,null,,,,,,,,,,,,,,,,,,
1955.5,,pt2_realistic_rating,557829,Fictional_Cities_List/img_manmade_40.png,,51,Fictional_Cities_List/img_manmade_40.png,MM,3,,,,,,,,,,,,,,,
null,,confidence_buffer,557948,confidence_buffer,,null,,,,,,,,,,,,,,,,,,
1347,,pt2_unique_rating,559299,Fictional_Cities_List/img_manmade_40.png,,52,,,4,,,,,,,,,,,,,,,
null,,confidence_buffer,559405,confidence_buffer,,null,,,,,,,,,,,,,,,,,,
744.6000000238419,,pt2_memorable_rating,560154,Fictional_Cities_List/img_manmade_40.png,,52,,,4,,,,,,,,,,,,,,,
null,,confidence_buffer,560259,confidence_buffer,,null,,,,,,,,,,,,,,,,,,
969,,recognition_phase,561233,Fictional_Cities_List/img_manmade_40.png,,52,,,,,,new,0,0.58,,,,,,,,,,
null,,confidence_buffer,561340,confidence_buffer,,null,,,,,,,,,,,,,,,,,,
null,,thebreak,561844,break,,null,,,,,,,,,,,,,,,,,,
1578.4000000059605,,pt2_realistic_rating,563428,Fictional_Cities_List/img_natural_38.png,,52,Fictional_Cities_List/img_natural_38.png,NAT,4,,,,,,,,,,,,,,,
null,,confidence_buffer,563538,confidence_buffer,,null,,,,,,,,,,,,,,,,,,
739.1000000238419,,pt2_unique_rating,564283,Fictional_Cities_List/img_natural_38.png,,52,,,4,,,,,,,,,,,,,,,
null,,confidence_buffer,564391,confidence_buffer,,null,,,,,,,,,,,,,,,,,,
558,,pt2_memorable_rating,564953,Fictional_Cities_List/img_natural_38.png,,52,,,4,,,,,,,,,,,,,,,
null,,confidence_buffer,565059,confidence_buffer,,null,,,,,,,,,,,,,,,,,,
1139.5,,recognition_phase,566205,Fictional_Cities_List/img_natural_38.png,,49,,,,,,old,0,0.5686274509803921,,,,,,,,,,
null,,confidence_buffer,566310,confidence_buffer,,null,,,,,,,,,,,,,,,,,,
null,,thebreak,566826,break,,null,,,,,,,,,,,,,,,,,,
906.0999999940395,,pt2_realistic_rating,567737,US_Cities_List/nat_hanover.png,,51,US_Cities_List/nat_hanover.png,NAT,3,,,,,,,,,,,,,,,
null,,confidence_buffer,567844,confidence_buffer,,null,,,,,,,,,,,,,,,,,,
488.30000001192093,,pt2_unique_rating,568337,US_Cities_List/nat_hanover.png,,51,,,3,,,,,,,,,,,,,,,
null,,confidence_buffer,568446,confidence_buffer,,null,,,,,,,,,,,,,,,,,,
509.30000001192093,,pt2_memorable_rating,568961,US_Cities_List/nat_hanover.png,,52,,,4,,,,,,,,,,,,,,,
null,,confidence_buffer,569065,confidence_buffer,,null,,,,,,,,,,,,,,,,,,
819.3999999761581,,recognition_phase,569893,US_Cities_List/nat_hanover.png,,52,,,,,,new,1,0.5769230769230769,,,,,,,,,,
null,,confidence_buffer,570000,confidence_buffer,,null,,,,,,,,,,,,,,,,,,
null,,thebreak,570503,break,,null,,,,,,,,,,,,,,,,,,
933.5999999940395,,pt2_realistic_rating,571441,Fictional_Cities_List/img_natural_35.png,,52,Fictional_Cities_List/img_natural_35.png,NAT,4,,,,,,,,,,,,,,,
null,,confidence_buffer,571549,confidence_buffer,,null,,,,,,,,,,,,,,,,,,
370.40000000596046,,pt2_unique_rating,571925,Fictional_Cities_List/img_natural_35.png,,51,,,3,,,,,,,,,,,,,,,
null,,confidence_buffer,572038,confidence_buffer,,null,,,,,,,,,,,,,,,,,,
487.59999999403954,,pt2_memorable_rating,572530,Fictional_Cities_List/img_natural_35.png,,52,,,4,,,,,,,,,,,,,,,
null,,confidence_buffer,572635,confidence_buffer,,null,,,,,,,,,,,,,,,,,,
1316.800000011921,,recognition_phase,573957,Fictional_Cities_List/img_natural_35.png,,49,,,,,,old,0,0.5660377358490566,,,,,,,,,,
null,,confidence_buffer,574062,confidence_buffer,,null,,,,,,,,,,,,,,,,,,
null,,thebreak,574565,break,,null,,,,,,,,,,,,,,,,,,
954.5,,pt2_realistic_rating,575524,Fictional_Cities_List/img_natural_17.png,,52,Fictional_Cities_List/img_natural_17.png,NAT,4,,,,,,,,,,,,,,,
null,,confidence_buffer,575633,confidence_buffer,,null,,,,,,,,,,,,,,,,,,
334.59999999403954,,pt2_unique_rating,575973,Fictional_Cities_List/img_natural_17.png,,52,,,4,,,,,,,,,,,,,,,
null,,confidence_buffer,576078,confidence_buffer,,null,,,,,,,,,,,,,,,,,,
460.7999999821186,,pt2_memorable_rating,576547,Fictional_Cities_List/img_natural_17.png,,52,,,4,,,,,,,,,,,,,,,
null,,confidence_buffer,576652,confidence_buffer,,null,,,,,,,,,,,,,,,,,,
1738.4000000059605,,recognition_phase,578397,Fictional_Cities_List/img_natural_17.png,,52,,,,,,new,1,0.5740740740740741,,,,,,,,,,
null,,confidence_buffer,578504,confidence_buffer,,null,,,,,,,,,,,,,,,,,,
null,,thebreak,579008,break,,null,,,,,,,,,,,,,,,,,,
1994.7999999821186,,pt2_realistic_rating,581009,US_Cities_List/mm_bisbee.png,,52,US_Cities_List/mm_bisbee.png,MM,4,,,,,,,,,,,,,,,
null,,confidence_buffer,581114,confidence_buffer,,null,,,,,,,,,,,,,,,,,,
352.40000000596046,,pt2_unique_rating,581472,US_Cities_List/mm_bisbee.png,,51,,,3,,,,,,,,,,,,,,,
null,,confidence_buffer,581577,confidence_buffer,,null,,,,,,,,,,,,,,,,,,
391.40000000596046,,pt2_memorable_rating,581974,US_Cities_List/mm_bisbee.png,,52,,,4,,,,,,,,,,,,,,,
null,,confidence_buffer,582079,confidence_buffer,,null,,,,,,,,,,,,,,,,,,
1303.300000011921,,recognition_phase,583387,US_Cities_List/mm_bisbee.png,,49,,,,,,old,1,0.5818181818181818,,,,,,,,,,
null,,confidence_buffer,583492,confidence_buffer,,null,,,,,,,,,,,,,,,,,,
null,,thebreak,583995,break,,null,,,,,,,,,,,,,,,,,,
1631.2999999821186,,pt2_realistic_rating,585632,Fictional_Cities_List/img_natural_23.png,,52,Fictional_Cities_List/img_natural_23.png,NAT,4,,,,,,,,,,,,,,,
null,,confidence_buffer,585738,confidence_buffer,,null,,,,,,,,,,,,,,,,,,
636.6999999880791,,pt2_unique_rating,586380,Fictional_Cities_List/img_natural_23.png,,51,,,3,,,,,,,,,,,,,,,
null,,confidence_buffer,586485,confidence_buffer,,null,,,,,,,,,,,,,,,,,,
467.69999998807907,,probe_rating,586960,probe_rating,,52,,,,4,0,,,,,,,,,,,,,
null,,confidence_buffer,587066,confidence_buffer,,null,,,,,,,,,,,,,,,,,,
1501.6000000238419,,pt2_memorable_rating,588572,Fictional_Cities_List/img_natural_23.png,,52,,,4,,,,,,,,,,,,,,,
null,,confidence_buffer,588677,confidence_buffer,,null,,,,,,,,,,,,,,,,,,
2244.600000023842,,recognition_phase,590928,Fictional_Cities_List/img_natural_23.png,,49,,,,,,old,1,0.5892857142857143,,,,,,,,,,
null,,confidence_buffer,591041,confidence_buffer,,null,,,,,,,,,,,,,,,,,,
null,,thebreak,591546,break,,null,,,,,,,,,,,,,,,,,,
1351.9000000059605,,pt2_realistic_rating,592903,US_Cities_List/mm_watkinsglen.png,,51,US_Cities_List/mm_watkinsglen.png,MM,3,,,,,,,,,,,,,,,
null,,confidence_buffer,593020,confidence_buffer,,null,,,,,,,,,,,,,,,,,,
719.1000000238419,,pt2_unique_rating,593746,US_Cities_List/mm_watkinsglen.png,,52,,,4,,,,,,,,,,,,,,,
null,,confidence_buffer,593852,confidence_buffer,,null,,,,,,,,,,,,,,,,,,
508.59999999403954,,pt2_memorable_rating,594367,US_Cities_List/mm_watkinsglen.png,,51,,,3,,,,,,,,,,,,,,,
null,,confidence_buffer,594475,confidence_buffer,,null,,,,,,,,,,,,,,,,,,
918.9000000059605,,recognition_phase,595401,US_Cities_List/mm_watkinsglen.png,,52,,,,,,new,0,0.5789473684210527,,,,,,,,,,
null,,confidence_buffer,595507,confidence_buffer,,null,,,,,,,,,,,,,,,,,,
null,,thebreak,596013,break,,null,,,,,,,,,,,,,,,,,,
1452,,pt2_realistic_rating,597470,US_Cities_List/mm_abilene.png,,52,US_Cities_List/mm_abilene.png,MM,4,,,,,,,,,,,,,,,
null,,confidence_buffer,597578,confidence_buffer,,null,,,,,,,,,,,,,,,,,,
456.40000000596046,,pt2_unique_rating,598042,US_Cities_List/mm_abilene.png,,52,,,4,,,,,,,,,,,,,,,
null,,confidence_buffer,598148,confidence_buffer,,null,,,,,,,,,,,,,,,,,,
436.30000001192093,,pt2_memorable_rating,598593,US_Cities_List/mm_abilene.png,,52,,,4,,,,,,,,,,,,,,,
null,,confidence_buffer,598701,confidence_buffer,,null,,,,,,,,,,,,,,,,,,
705.5,,recognition_phase,599414,US_Cities_List/mm_abilene.png,,52,,,,,,new,1,0.5862068965517241,,,,,,,,,,
null,,confidence_buffer,599522,confidence_buffer,,null,,,,,,,,,,,,,,,,,,
null,,thebreak,600027,break,,null,,,,,,,,,,,,,,,,,,
1239.800000011921,,pt2_realistic_rating,601277,Fictional_Cities_List/img_natural_10.png,,52,Fictional_Cities_List/img_natural_10.png,NAT,4,,,,,,,,,,,,,,,
null,,confidence_buffer,601386,confidence_buffer,,null,,,,,,,,,,,,,,,,,,
598.4000000059605,,pt2_unique_rating,601992,Fictional_Cities_List/img_natural_10.png,,52,,,4,,,,,,,,,,,,,,,
null,,confidence_buffer,602099,confidence_buffer,,null,,,,,,,,,,,,,,,,,,
417.90000000596046,,pt2_memorable_rating,602522,Fictional_Cities_List/img_natural_10.png,,52,,,4,,,,,,,,,,,,,,,
null,,confidence_buffer,602628,confidence_buffer,,null,,,,,,,,,,,,,,,,,,
584.5,,recognition_phase,603217,Fictional_Cities_List/img_natural_10.png,,52,,,,,,new,1,0.5932203389830508,,,,,,,,,,
null,,confidence_buffer,603323,confidence_buffer,,null,,,,,,,,,,,,,,,,,,
null,,thebreak,603826,break,,null,,,,,,,,,,,,,,,,,,
1084.699999988079,,pt2_realistic_rating,604916,Fictional_Cities_List/img_manmade_10.png,,52,Fictional_Cities_List/img_manmade_10.png,MM,4,,,,,,,,,,,,,,,
null,,confidence_buffer,605022,confidence_buffer,,null,,,,,,,,,,,,,,,,,,
612.7000000178814,,pt2_unique_rating,605640,Fictional_Cities_List/img_manmade_10.png,,52,,,4,,,,,,,,,,,,,,,
null,,confidence_buffer,605749,confidence_buffer,,null,,,,,,,,,,,,,,,,,,
424.80000001192093,,pt2_memorable_rating,606181,Fictional_Cities_List/img_manmade_10.png,,52,,,4,,,,,,,,,,,,,,,
null,,confidence_buffer,606286,confidence_buffer,,null,,,,,,,,,,,,,,,,,,
631.4000000059605,,recognition_phase,606923,Fictional_Cities_List/img_manmade_10.png,,52,,,,,,new,1,0.6,,,,,,,,,,
null,,confidence_buffer,607029,confidence_buffer,,null,,,,,,,,,,,,,,,,,,
null,,thebreak,607532,break,,null,,,,,,,,,,,,,,,,,,
,,survey,708536,survey-questions,,,,,,,,,,,none,high,no,nothing special,if i have seen it somewhere before,if it is eye catchy enough,if it stands out,if it look real,no,no
