rt,responses,trial_type,time_elapsed,stimulus,button_pressed,key_press,name_trial,city_type,rating,probe,probe_accuracy,response,correct,accuracy,problems,smooth,distraction,strategies,familiar,memorable,unique,realistic,similar,comments
23073.5,{worker_id:67ddbba0fa5e1ce984f9fb87},id_enter,23078,,,,,,,,,,,,,,,,,,,,,
10069.80000000447,,fullscreen,33155,fullscreen,0,,,,,,,,,,,,,,,,,,,
1986.6000000014901,,intro_0,35144,instruct,,32,,,,,,,,,,,,,,,,,,
2585.89999999851,,intro_1,37732,instruct,,32,,,,,,,,,,,,,,,,,,
9193.10000000149,,intro_2,46927,instruct,,32,,,,,,,,,,,,,,,,,,
null,,instruct_dir_4,48435,instruct,,null,,,,,,,,,,,,,,,,,,
null,,thebreak,48946,break,,null,,,,,,,,,,,,,,,,,,
11777.39999999851,,familiar_rating,60718,US_Cities_List/nat_sitka.png,,52,US_Cities_List/nat_sitka.png,NAT,4,,,,,,,,,,,,,,,
null,,confidence_buffer,60835,confidence_buffer,,null,,,,,,,,,,,,,,,,,,
9747.19999999553,,unique_rating,70584,US_Cities_List/nat_sitka.png,,51,,,3,,,,,,,,,,,,,,,
null,,confidence_buffer,70687,confidence_buffer,,null,,,,,,,,,,,,,,,,,,
6109.39999999851,,memorable_rating,76798,US_Cities_List/nat_sitka.png,,52,,,4,,,,,,,,,,,,,,,
null,,confidence_buffer,76915,confidence_buffer,,null,,,,,,,,,,,,,,,,,,
null,,thebreak,77419,break,,null,,,,,,,,,,,,,,,,,,
5831.89999999851,,familiar_rating,83252,Fictional_Cities_List/img_manmade_40.png,,49,Fictional_Cities_List/img_manmade_40.png,MM,1,,,,,,,,,,,,,,,
null,,confidence_buffer,83366,confidence_buffer,,null,,,,,,,,,,,,,,,,,,
4630.5,,unique_rating,87998,Fictional_Cities_List/img_manmade_40.png,,53,,,5,,,,,,,,,,,,,,,
null,,confidence_buffer,88110,confidence_buffer,,null,,,,,,,,,,,,,,,,,,
2133.39999999851,,memorable_rating,90244,Fictional_Cities_List/img_manmade_40.png,,53,,,5,,,,,,,,,,,,,,,
null,,confidence_buffer,90353,confidence_buffer,,null,,,,,,,,,,,,,,,,,,
null,,thebreak,90864,break,,null,,,,,,,,,,,,,,,,,,
6216.10000000149,,familiar_rating,97082,Fictional_Cities_List/img_manmade_47.png,,50,Fictional_Cities_List/img_manmade_47.png,MM,2,,,,,,,,,,,,,,,
null,,confidence_buffer,97191,confidence_buffer,,null,,,,,,,,,,,,,,,,,,
6385.5,,unique_rating,103577,Fictional_Cities_List/img_manmade_47.png,,53,,,5,,,,,,,,,,,,,,,
null,,confidence_buffer,103692,confidence_buffer,,null,,,,,,,,,,,,,,,,,,
2018.6000000014901,,memorable_rating,105713,Fictional_Cities_List/img_manmade_47.png,,53,,,5,,,,,,,,,,,,,,,
null,,confidence_buffer,105822,confidence_buffer,,null,,,,,,,,,,,,,,,,,,
null,,thebreak,106324,break,,null,,,,,,,,,,,,,,,,,,
3034.8000000044703,,familiar_rating,109361,Fictional_Cities_List/img_manmade_14.png,,52,Fictional_Cities_List/img_manmade_14.png,MM,4,,,,,,,,,,,,,,,
null,,confidence_buffer,109477,confidence_buffer,,null,,,,,,,,,,,,,,,,,,
1698.5999999940395,,unique_rating,111177,Fictional_Cities_List/img_manmade_14.png,,53,,,5,,,,,,,,,,,,,,,
null,,confidence_buffer,111281,confidence_buffer,,null,,,,,,,,,,,,,,,,,,
2165.7999999970198,,memorable_rating,113449,Fictional_Cities_List/img_manmade_14.png,,53,,,5,,,,,,,,,,,,,,,
null,,confidence_buffer,113554,confidence_buffer,,null,,,,,,,,,,,,,,,,,,
24151.39999999851,,probe_rating,137713,probe_rating,,50,,,,2,1,,,,,,,,,,,,,
null,,confidence_buffer,137820,confidence_buffer,,null,,,,,,,,,,,,,,,,,,
null,,thebreak,138331,break,,null,,,,,,,,,,,,,,,,,,
8254.80000000447,,familiar_rating,146588,US_Cities_List/nat_peoria.png,,51,US_Cities_List/nat_peoria.png,NAT,3,,,,,,,,,,,,,,,
null,,confidence_buffer,146697,confidence_buffer,,null,,,,,,,,,,,,,,,,,,
2258.7999999970198,,unique_rating,148956,US_Cities_List/nat_peoria.png,,53,,,5,,,,,,,,,,,,,,,
null,,confidence_buffer,149059,confidence_buffer,,null,,,,,,,,,,,,,,,,,,
1409.7000000029802,,memorable_rating,150470,US_Cities_List/nat_peoria.png,,53,,,5,,,,,,,,,,,,,,,
null,,confidence_buffer,150577,confidence_buffer,,null,,,,,,,,,,,,,,,,,,
null,,thebreak,151082,break,,null,,,,,,,,,,,,,,,,,,
3203.89999999851,,familiar_rating,154288,US_Cities_List/mm_westpalmbeach.png,,49,US_Cities_List/mm_westpalmbeach.png,MM,1,,,,,,,,,,,,,,,
null,,confidence_buffer,154393,confidence_buffer,,null,,,,,,,,,,,,,,,,,,
3616.10000000149,,unique_rating,158010,US_Cities_List/mm_westpalmbeach.png,,53,,,5,,,,,,,,,,,,,,,
null,,confidence_buffer,158114,confidence_buffer,,null,,,,,,,,,,,,,,,,,,
859.7000000029802,,memorable_rating,158975,US_Cities_List/mm_westpalmbeach.png,,53,,,5,,,,,,,,,,,,,,,
null,,confidence_buffer,159079,confidence_buffer,,null,,,,,,,,,,,,,,,,,,
null,,thebreak,159590,break,,null,,,,,,,,,,,,,,,,,,
5515,,familiar_rating,165106,Fictional_Cities_List/img_manmade_13.png,,50,Fictional_Cities_List/img_manmade_13.png,MM,2,,,,,,,,,,,,,,,
null,,confidence_buffer,165217,confidence_buffer,,null,,,,,,,,,,,,,,,,,,
2266.89999999851,,unique_rating,167485,Fictional_Cities_List/img_manmade_13.png,,53,,,5,,,,,,,,,,,,,,,
null,,confidence_buffer,167589,confidence_buffer,,null,,,,,,,,,,,,,,,,,,
1041,,memorable_rating,168632,Fictional_Cities_List/img_manmade_13.png,,53,,,5,,,,,,,,,,,,,,,
null,,confidence_buffer,168736,confidence_buffer,,null,,,,,,,,,,,,,,,,,,
null,,thebreak,169239,break,,null,,,,,,,,,,,,,,,,,,
2835.39999999851,,familiar_rating,172075,US_Cities_List/mm_hilo.png,,52,US_Cities_List/mm_hilo.png,MM,4,,,,,,,,,,,,,,,
null,,confidence_buffer,172185,confidence_buffer,,null,,,,,,,,,,,,,,,,,,
1676.2999999970198,,unique_rating,173862,US_Cities_List/mm_hilo.png,,53,,,5,,,,,,,,,,,,,,,
null,,confidence_buffer,173969,confidence_buffer,,null,,,,,,,,,,,,,,,,,,
1154.2999999970198,,memorable_rating,175125,US_Cities_List/mm_hilo.png,,53,,,5,,,,,,,,,,,,,,,
null,,confidence_buffer,175242,confidence_buffer,,null,,,,,,,,,,,,,,,,,,
null,,thebreak,175745,break,,null,,,,,,,,,,,,,,,,,,
2882.7000000029802,,familiar_rating,178629,US_Cities_List/nat_healdsburg.png,,52,US_Cities_List/nat_healdsburg.png,NAT,4,,,,,,,,,,,,,,,
null,,confidence_buffer,178736,confidence_buffer,,null,,,,,,,,,,,,,,,,,,
2373.3000000044703,,unique_rating,181111,US_Cities_List/nat_healdsburg.png,,52,,,4,,,,,,,,,,,,,,,
null,,confidence_buffer,181216,confidence_buffer,,null,,,,,,,,,,,,,,,,,,
1152.5,,memorable_rating,182370,US_Cities_List/nat_healdsburg.png,,52,,,4,,,,,,,,,,,,,,,
null,,confidence_buffer,182472,confidence_buffer,,null,,,,,,,,,,,,,,,,,,
null,,thebreak,182975,break,,null,,,,,,,,,,,,,,,,,,
2911,,familiar_rating,185888,US_Cities_List/nat_coeurdalene.png,,52,US_Cities_List/nat_coeurdalene.png,NAT,4,,,,,,,,,,,,,,,
null,,confidence_buffer,186004,confidence_buffer,,null,,,,,,,,,,,,,,,,,,
2163.5999999940395,,probe_rating,188170,probe_rating,,53,,,,5,0,,,,,,,,,,,,,
null,,confidence_buffer,188276,confidence_buffer,,null,,,,,,,,,,,,,,,,,,
1721.2999999970198,,unique_rating,189999,US_Cities_List/nat_coeurdalene.png,,53,,,5,,,,,,,,,,,,,,,
null,,confidence_buffer,190106,confidence_buffer,,null,,,,,,,,,,,,,,,,,,
1122.1999999955297,,memorable_rating,191230,US_Cities_List/nat_coeurdalene.png,,53,,,5,,,,,,,,,,,,,,,
null,,confidence_buffer,191335,confidence_buffer,,null,,,,,,,,,,,,,,,,,,
null,,thebreak,191838,break,,null,,,,,,,,,,,,,,,,,,
2722.7000000029802,,familiar_rating,194562,Fictional_Cities_List/img_natural_13.png,,49,Fictional_Cities_List/img_natural_13.png,NAT,1,,,,,,,,,,,,,,,
null,,confidence_buffer,194678,confidence_buffer,,null,,,,,,,,,,,,,,,,,,
2223.10000000149,,unique_rating,196903,Fictional_Cities_List/img_natural_13.png,,53,,,5,,,,,,,,,,,,,,,
null,,confidence_buffer,197005,confidence_buffer,,null,,,,,,,,,,,,,,,,,,
993.4000000059605,,probe_rating,197996,probe_rating,,53,,,,5,0,,,,,,,,,,,,,
null,,confidence_buffer,198109,confidence_buffer,,null,,,,,,,,,,,,,,,,,,
3187,,memorable_rating,201298,Fictional_Cities_List/img_natural_13.png,,53,,,5,,,,,,,,,,,,,,,
null,,confidence_buffer,201409,confidence_buffer,,null,,,,,,,,,,,,,,,,,,
null,,thebreak,201913,break,,null,,,,,,,,,,,,,,,,,,
4004.39999999851,,familiar_rating,205919,US_Cities_List/mm_healdsburg.png,,51,US_Cities_List/mm_healdsburg.png,MM,3,,,,,,,,,,,,,,,
null,,confidence_buffer,206037,confidence_buffer,,null,,,,,,,,,,,,,,,,,,
5737.39999999851,,probe_rating,211775,probe_rating,,51,,,,3,1,,,,,,,,,,,,,
null,,confidence_buffer,211880,confidence_buffer,,null,,,,,,,,,,,,,,,,,,
1740.8000000044703,,unique_rating,213623,US_Cities_List/mm_healdsburg.png,,53,,,5,,,,,,,,,,,,,,,
null,,confidence_buffer,213728,confidence_buffer,,null,,,,,,,,,,,,,,,,,,
1205.1000000014901,,memorable_rating,214934,US_Cities_List/mm_healdsburg.png,,53,,,5,,,,,,,,,,,,,,,
null,,confidence_buffer,215042,confidence_buffer,,null,,,,,,,,,,,,,,,,,,
null,,thebreak,215545,break,,null,,,,,,,,,,,,,,,,,,
1787.8000000044703,,familiar_rating,217334,Fictional_Cities_List/img_manmade_12.png,,51,Fictional_Cities_List/img_manmade_12.png,MM,3,,,,,,,,,,,,,,,
null,,confidence_buffer,217448,confidence_buffer,,null,,,,,,,,,,,,,,,,,,
1642.2999999970198,,unique_rating,219092,Fictional_Cities_List/img_manmade_12.png,,52,,,4,,,,,,,,,,,,,,,
null,,confidence_buffer,219209,confidence_buffer,,null,,,,,,,,,,,,,,,,,,
1934.6999999955297,,memorable_rating,221145,Fictional_Cities_List/img_manmade_12.png,,53,,,5,,,,,,,,,,,,,,,
null,,confidence_buffer,221250,confidence_buffer,,null,,,,,,,,,,,,,,,,,,
null,,thebreak,221753,break,,null,,,,,,,,,,,,,,,,,,
29264.39999999851,,familiar_rating,251019,US_Cities_List/nat_okoboji.png,,50,US_Cities_List/nat_okoboji.png,NAT,2,,,,,,,,,,,,,,,
null,,confidence_buffer,251124,confidence_buffer,,null,,,,,,,,,,,,,,,,,,
2496.1999999955297,,unique_rating,253622,US_Cities_List/nat_okoboji.png,,53,,,5,,,,,,,,,,,,,,,
null,,confidence_buffer,253724,confidence_buffer,,null,,,,,,,,,,,,,,,,,,
364.69999999552965,,memorable_rating,254090,US_Cities_List/nat_okoboji.png,,53,,,5,,,,,,,,,,,,,,,
null,,confidence_buffer,254200,confidence_buffer,,null,,,,,,,,,,,,,,,,,,
null,,thebreak,254710,break,,null,,,,,,,,,,,,,,,,,,
3304.5,,familiar_rating,258014,Fictional_Cities_List/img_natural_43.png,,49,Fictional_Cities_List/img_natural_43.png,NAT,1,,,,,,,,,,,,,,,
null,,confidence_buffer,258122,confidence_buffer,,null,,,,,,,,,,,,,,,,,,
1886,,unique_rating,260009,Fictional_Cities_List/img_natural_43.png,,49,,,1,,,,,,,,,,,,,,,
null,,confidence_buffer,260120,confidence_buffer,,null,,,,,,,,,,,,,,,,,,
2903.7999999970198,,probe_rating,263025,probe_rating,,52,,,,4,1,,,,,,,,,,,,,
null,,confidence_buffer,263142,confidence_buffer,,null,,,,,,,,,,,,,,,,,,
1919.1999999955297,,memorable_rating,265063,Fictional_Cities_List/img_natural_43.png,,53,,,5,,,,,,,,,,,,,,,
null,,confidence_buffer,265168,confidence_buffer,,null,,,,,,,,,,,,,,,,,,
null,,thebreak,265672,break,,null,,,,,,,,,,,,,,,,,,
1912.1999999955297,,familiar_rating,267586,Fictional_Cities_List/img_natural_07.png,,53,Fictional_Cities_List/img_natural_07.png,NAT,5,,,,,,,,,,,,,,,
null,,confidence_buffer,267690,confidence_buffer,,null,,,,,,,,,,,,,,,,,,
597.6000000014901,,unique_rating,268289,Fictional_Cities_List/img_natural_07.png,,53,,,5,,,,,,,,,,,,,,,
null,,confidence_buffer,268405,confidence_buffer,,null,,,,,,,,,,,,,,,,,,
501.8999999985099,,memorable_rating,268909,Fictional_Cities_List/img_natural_07.png,,53,,,5,,,,,,,,,,,,,,,
null,,confidence_buffer,269014,confidence_buffer,,null,,,,,,,,,,,,,,,,,,
null,,thebreak,269518,break,,null,,,,,,,,,,,,,,,,,,
2098.89999999851,,familiar_rating,271618,Fictional_Cities_List/img_natural_18.png,,49,Fictional_Cities_List/img_natural_18.png,NAT,1,,,,,,,,,,,,,,,
null,,confidence_buffer,271724,confidence_buffer,,null,,,,,,,,,,,,,,,,,,
3933.8000000044703,,unique_rating,275659,Fictional_Cities_List/img_natural_18.png,,53,,,5,,,,,,,,,,,,,,,
null,,confidence_buffer,275764,confidence_buffer,,null,,,,,,,,,,,,,,,,,,
563.5,,memorable_rating,276329,Fictional_Cities_List/img_natural_18.png,,53,,,5,,,,,,,,,,,,,,,
null,,confidence_buffer,276446,confidence_buffer,,null,,,,,,,,,,,,,,,,,,
3781.89999999851,,probe_rating,280230,probe_rating,,49,,,,1,1,,,,,,,,,,,,,
null,,confidence_buffer,280334,confidence_buffer,,null,,,,,,,,,,,,,,,,,,
null,,thebreak,280837,break,,null,,,,,,,,,,,,,,,,,,
2859.5,,familiar_rating,283699,Fictional_Cities_List/img_natural_04.png,,50,Fictional_Cities_List/img_natural_04.png,NAT,2,,,,,,,,,,,,,,,
null,,confidence_buffer,283804,confidence_buffer,,null,,,,,,,,,,,,,,,,,,
2427.7000000029802,,probe_rating,286234,probe_rating,,51,,,,3,1,,,,,,,,,,,,,
null,,confidence_buffer,286337,confidence_buffer,,null,,,,,,,,,,,,,,,,,,
2255,,unique_rating,288594,Fictional_Cities_List/img_natural_04.png,,53,,,5,,,,,,,,,,,,,,,
null,,confidence_buffer,288702,confidence_buffer,,null,,,,,,,,,,,,,,,,,,
1951.2000000029802,,memorable_rating,290655,Fictional_Cities_List/img_natural_04.png,,53,,,5,,,,,,,,,,,,,,,
null,,confidence_buffer,290761,confidence_buffer,,null,,,,,,,,,,,,,,,,,,
null,,thebreak,291272,break,,null,,,,,,,,,,,,,,,,,,
4282.69999999553,,familiar_rating,295556,US_Cities_List/mm_coeurdalene.png,,52,US_Cities_List/mm_coeurdalene.png,MM,4,,,,,,,,,,,,,,,
null,,confidence_buffer,295660,confidence_buffer,,null,,,,,,,,,,,,,,,,,,
3581.39999999851,,unique_rating,299243,US_Cities_List/mm_coeurdalene.png,,53,,,5,,,,,,,,,,,,,,,
null,,confidence_buffer,299353,confidence_buffer,,null,,,,,,,,,,,,,,,,,,
934.8999999985099,,memorable_rating,300290,US_Cities_List/mm_coeurdalene.png,,53,,,5,,,,,,,,,,,,,,,
null,,confidence_buffer,300405,confidence_buffer,,null,,,,,,,,,,,,,,,,,,
null,,thebreak,300918,break,,null,,,,,,,,,,,,,,,,,,
2567.10000000149,,familiar_rating,303487,US_Cities_List/nat_hilo.png,,50,US_Cities_List/nat_hilo.png,NAT,2,,,,,,,,,,,,,,,
null,,confidence_buffer,303597,confidence_buffer,,null,,,,,,,,,,,,,,,,,,
1203.5,,unique_rating,304801,US_Cities_List/nat_hilo.png,,53,,,5,,,,,,,,,,,,,,,
null,,confidence_buffer,304917,confidence_buffer,,null,,,,,,,,,,,,,,,,,,
798.5,,memorable_rating,305717,US_Cities_List/nat_hilo.png,,53,,,5,,,,,,,,,,,,,,,
null,,confidence_buffer,305823,confidence_buffer,,null,,,,,,,,,,,,,,,,,,
null,,thebreak,306327,break,,null,,,,,,,,,,,,,,,,,,
1965.5,,familiar_rating,308295,US_Cities_List/mm_delawarecity.png,,51,US_Cities_List/mm_delawarecity.png,MM,3,,,,,,,,,,,,,,,
null,,confidence_buffer,308398,confidence_buffer,,null,,,,,,,,,,,,,,,,,,
1569.5,,unique_rating,309969,US_Cities_List/mm_delawarecity.png,,51,,,3,,,,,,,,,,,,,,,
null,,confidence_buffer,310072,confidence_buffer,,null,,,,,,,,,,,,,,,,,,
1013.1999999955297,,memorable_rating,311086,US_Cities_List/mm_delawarecity.png,,51,,,3,,,,,,,,,,,,,,,
null,,confidence_buffer,311195,confidence_buffer,,null,,,,,,,,,,,,,,,,,,
null,,thebreak,311698,break,,null,,,,,,,,,,,,,,,,,,
3770.1999999955297,,familiar_rating,315470,US_Cities_List/nat_westpalmbeach.png,,50,US_Cities_List/nat_westpalmbeach.png,NAT,2,,,,,,,,,,,,,,,
null,,confidence_buffer,315587,confidence_buffer,,null,,,,,,,,,,,,,,,,,,
1914.5,,unique_rating,317503,US_Cities_List/nat_westpalmbeach.png,,53,,,5,,,,,,,,,,,,,,,
null,,confidence_buffer,317613,confidence_buffer,,null,,,,,,,,,,,,,,,,,,
387,,memorable_rating,318001,US_Cities_List/nat_westpalmbeach.png,,53,,,5,,,,,,,,,,,,,,,
null,,confidence_buffer,318112,confidence_buffer,,null,,,,,,,,,,,,,,,,,,
null,,thebreak,318616,break,,null,,,,,,,,,,,,,,,,,,
1136.3999999985099,,familiar_rating,319754,Fictional_Cities_List/img_natural_12.png,,53,Fictional_Cities_List/img_natural_12.png,NAT,5,,,,,,,,,,,,,,,
null,,confidence_buffer,319859,confidence_buffer,,null,,,,,,,,,,,,,,,,,,
892,,unique_rating,320752,Fictional_Cities_List/img_natural_12.png,,53,,,5,,,,,,,,,,,,,,,
null,,confidence_buffer,320861,confidence_buffer,,null,,,,,,,,,,,,,,,,,,
805,,memorable_rating,321668,Fictional_Cities_List/img_natural_12.png,,53,,,5,,,,,,,,,,,,,,,
null,,confidence_buffer,321775,confidence_buffer,,null,,,,,,,,,,,,,,,,,,
null,,thebreak,322288,break,,null,,,,,,,,,,,,,,,,,,
1303.5,,familiar_rating,323593,Fictional_Cities_List/img_manmade_09.png,,51,Fictional_Cities_List/img_manmade_09.png,MM,3,,,,,,,,,,,,,,,
null,,confidence_buffer,323703,confidence_buffer,,null,,,,,,,,,,,,,,,,,,
1382.2999999970198,,unique_rating,325086,Fictional_Cities_List/img_manmade_09.png,,53,,,5,,,,,,,,,,,,,,,
null,,confidence_buffer,325188,confidence_buffer,,null,,,,,,,,,,,,,,,,,,
742.2999999970198,,memorable_rating,325932,Fictional_Cities_List/img_manmade_09.png,,53,,,5,,,,,,,,,,,,,,,
null,,confidence_buffer,326039,confidence_buffer,,null,,,,,,,,,,,,,,,,,,
null,,thebreak,326542,break,,null,,,,,,,,,,,,,,,,,,
3263.39999999851,,familiar_rating,329807,Fictional_Cities_List/img_manmade_04.png,,49,Fictional_Cities_List/img_manmade_04.png,MM,1,,,,,,,,,,,,,,,
null,,confidence_buffer,329911,confidence_buffer,,null,,,,,,,,,,,,,,,,,,
830.2999999970198,,unique_rating,330743,Fictional_Cities_List/img_manmade_04.png,,53,,,5,,,,,,,,,,,,,,,
null,,confidence_buffer,330855,confidence_buffer,,null,,,,,,,,,,,,,,,,,,
620.5,,memorable_rating,331477,Fictional_Cities_List/img_manmade_04.png,,53,,,5,,,,,,,,,,,,,,,
null,,confidence_buffer,331592,confidence_buffer,,null,,,,,,,,,,,,,,,,,,
null,,thebreak,332101,break,,null,,,,,,,,,,,,,,,,,,
1423.1000000014901,,familiar_rating,333526,US_Cities_List/mm_carmel.png,,49,US_Cities_List/mm_carmel.png,MM,1,,,,,,,,,,,,,,,
null,,confidence_buffer,333643,confidence_buffer,,null,,,,,,,,,,,,,,,,,,
1773.5,,unique_rating,335418,US_Cities_List/mm_carmel.png,,53,,,5,,,,,,,,,,,,,,,
null,,confidence_buffer,335532,confidence_buffer,,null,,,,,,,,,,,,,,,,,,
615.3000000044703,,memorable_rating,336150,US_Cities_List/mm_carmel.png,,53,,,5,,,,,,,,,,,,,,,
null,,confidence_buffer,336264,confidence_buffer,,null,,,,,,,,,,,,,,,,,,
null,,thebreak,336769,break,,null,,,,,,,,,,,,,,,,,,
1608,,familiar_rating,338378,Fictional_Cities_List/img_natural_48.png,,50,Fictional_Cities_List/img_natural_48.png,NAT,2,,,,,,,,,,,,,,,
null,,confidence_buffer,338493,confidence_buffer,,null,,,,,,,,,,,,,,,,,,
3207,,unique_rating,341701,Fictional_Cities_List/img_natural_48.png,,52,,,4,,,,,,,,,,,,,,,
null,,confidence_buffer,341811,confidence_buffer,,null,,,,,,,,,,,,,,,,,,
4604,,probe_rating,346417,probe_rating,,49,,,,1,1,,,,,,,,,,,,,
null,,confidence_buffer,346533,confidence_buffer,,null,,,,,,,,,,,,,,,,,,
2220.2000000029802,,memorable_rating,348755,Fictional_Cities_List/img_natural_48.png,,53,,,5,,,,,,,,,,,,,,,
null,,confidence_buffer,348860,confidence_buffer,,null,,,,,,,,,,,,,,,,,,
null,,thebreak,349367,break,,null,,,,,,,,,,,,,,,,,,
2215.60000000149,,familiar_rating,351585,Fictional_Cities_List/img_natural_38.png,,50,Fictional_Cities_List/img_natural_38.png,NAT,2,,,,,,,,,,,,,,,
null,,confidence_buffer,351688,confidence_buffer,,null,,,,,,,,,,,,,,,,,,
1866,,probe_rating,353556,probe_rating,,51,,,,3,1,,,,,,,,,,,,,
null,,confidence_buffer,353659,confidence_buffer,,null,,,,,,,,,,,,,,,,,,
1826.7999999970198,,unique_rating,355488,Fictional_Cities_List/img_natural_38.png,,53,,,5,,,,,,,,,,,,,,,
null,,confidence_buffer,355591,confidence_buffer,,null,,,,,,,,,,,,,,,,,,
952.1999999955297,,memorable_rating,356544,Fictional_Cities_List/img_natural_38.png,,53,,,5,,,,,,,,,,,,,,,
null,,confidence_buffer,356647,confidence_buffer,,null,,,,,,,,,,,,,,,,,,
null,,thebreak,357152,break,,null,,,,,,,,,,,,,,,,,,
5062.70000000298,,familiar_rating,362217,US_Cities_List/mm_sitka.png,,52,US_Cities_List/mm_sitka.png,MM,4,,,,,,,,,,,,,,,
null,,confidence_buffer,362320,confidence_buffer,,null,,,,,,,,,,,,,,,,,,
1187.3999999985099,,unique_rating,363509,US_Cities_List/mm_sitka.png,,53,,,5,,,,,,,,,,,,,,,
null,,confidence_buffer,363613,confidence_buffer,,null,,,,,,,,,,,,,,,,,,
484.29999999701977,,memorable_rating,364099,US_Cities_List/mm_sitka.png,,53,,,5,,,,,,,,,,,,,,,
null,,confidence_buffer,364213,confidence_buffer,,null,,,,,,,,,,,,,,,,,,
null,,thebreak,364717,break,,null,,,,,,,,,,,,,,,,,,
2129.39999999851,,familiar_rating,366848,US_Cities_List/mm_abilene.png,,51,US_Cities_List/mm_abilene.png,MM,3,,,,,,,,,,,,,,,
null,,confidence_buffer,366963,confidence_buffer,,null,,,,,,,,,,,,,,,,,,
898.8000000044703,,unique_rating,367864,US_Cities_List/mm_abilene.png,,52,,,4,,,,,,,,,,,,,,,
null,,confidence_buffer,367980,confidence_buffer,,null,,,,,,,,,,,,,,,,,,
808.8000000044703,,memorable_rating,368790,US_Cities_List/mm_abilene.png,,52,,,4,,,,,,,,,,,,,,,
null,,confidence_buffer,368906,confidence_buffer,,null,,,,,,,,,,,,,,,,,,
null,,thebreak,369417,break,,null,,,,,,,,,,,,,,,,,,
56787.39999999851,,intro_0,426205,instruct,,32,,,,,,,,,,,,,,,,,,
11575.90000000596,,intro_1,437782,instruct,,32,,,,,,,,,,,,,,,,,,
37001,,intro_2,474784,instruct,,32,,,,,,,,,,,,,,,,,,
null,,instruct_dir_4,476288,instruct,,null,,,,,,,,,,,,,,,,,,
9901.39999999851,,pt2_realistic_rating,486191,US_Cities_List/mm_hilo.png,,52,US_Cities_List/mm_hilo.png,MM,4,,,,,,,,,,,,,,,
null,,confidence_buffer,486297,confidence_buffer,,null,,,,,,,,,,,,,,,,,,
2905.10000000149,,pt2_unique_rating,489204,US_Cities_List/mm_hilo.png,,53,,,5,,,,,,,,,,,,,,,
null,,confidence_buffer,489307,confidence_buffer,,null,,,,,,,,,,,,,,,,,,
1561.1000000014901,,pt2_memorable_rating,490869,US_Cities_List/mm_hilo.png,,53,,,5,,,,,,,,,,,,,,,
null,,confidence_buffer,490985,confidence_buffer,,null,,,,,,,,,,,,,,,,,,
3203,,recognition_phase,494189,US_Cities_List/mm_hilo.png,,49,,,,,,old,1,1,,,,,,,,,,
null,,confidence_buffer,494296,confidence_buffer,,null,,,,,,,,,,,,,,,,,,
null,,thebreak,494807,break,,null,,,,,,,,,,,,,,,,,,
3091.39999999851,,pt2_realistic_rating,497900,Fictional_Cities_List/img_manmade_09.png,,53,Fictional_Cities_List/img_manmade_09.png,MM,5,,,,,,,,,,,,,,,
null,,confidence_buffer,498010,confidence_buffer,,null,,,,,,,,,,,,,,,,,,
2112,,probe_rating,500123,probe_rating,,49,,,,1,1,,,,,,,,,,,,,
null,,confidence_buffer,500234,confidence_buffer,,null,,,,,,,,,,,,,,,,,,
1116.0999999940395,,pt2_unique_rating,501352,Fictional_Cities_List/img_manmade_09.png,,53,,,5,,,,,,,,,,,,,,,
null,,confidence_buffer,501469,confidence_buffer,,null,,,,,,,,,,,,,,,,,,
1267.2999999970198,,pt2_memorable_rating,502738,Fictional_Cities_List/img_manmade_09.png,,53,,,5,,,,,,,,,,,,,,,
null,,confidence_buffer,502842,confidence_buffer,,null,,,,,,,,,,,,,,,,,,
1547.8999999985099,,recognition_phase,504392,Fictional_Cities_List/img_manmade_09.png,,49,,,,,,old,1,1,,,,,,,,,,
null,,confidence_buffer,504497,confidence_buffer,,null,,,,,,,,,,,,,,,,,,
null,,thebreak,505000,break,,null,,,,,,,,,,,,,,,,,,
1137.3999999985099,,pt2_realistic_rating,506139,US_Cities_List/mm_carmel.png,,53,US_Cities_List/mm_carmel.png,MM,5,,,,,,,,,,,,,,,
null,,confidence_buffer,506252,confidence_buffer,,null,,,,,,,,,,,,,,,,,,
870.3000000044703,,pt2_unique_rating,507124,US_Cities_List/mm_carmel.png,,53,,,5,,,,,,,,,,,,,,,
null,,confidence_buffer,507234,confidence_buffer,,null,,,,,,,,,,,,,,,,,,
833.2000000029802,,pt2_memorable_rating,508069,US_Cities_List/mm_carmel.png,,53,,,5,,,,,,,,,,,,,,,
null,,confidence_buffer,508185,confidence_buffer,,null,,,,,,,,,,,,,,,,,,
1031.2000000029802,,recognition_phase,509218,US_Cities_List/mm_carmel.png,,49,,,,,,old,1,1,,,,,,,,,,
null,,confidence_buffer,509322,confidence_buffer,,null,,,,,,,,,,,,,,,,,,
null,,thebreak,509833,break,,null,,,,,,,,,,,,,,,,,,
1674.5999999940395,,pt2_realistic_rating,511509,Fictional_Cities_List/img_natural_47.png,,53,Fictional_Cities_List/img_natural_47.png,NAT,5,,,,,,,,,,,,,,,
null,,confidence_buffer,511617,confidence_buffer,,null,,,,,,,,,,,,,,,,,,
765.5,,pt2_unique_rating,512384,Fictional_Cities_List/img_natural_47.png,,53,,,5,,,,,,,,,,,,,,,
null,,confidence_buffer,512494,confidence_buffer,,null,,,,,,,,,,,,,,,,,,
1014.5,,pt2_memorable_rating,513510,Fictional_Cities_List/img_natural_47.png,,53,,,5,,,,,,,,,,,,,,,
null,,confidence_buffer,513615,confidence_buffer,,null,,,,,,,,,,,,,,,,,,
3387,,recognition_phase,517004,Fictional_Cities_List/img_natural_47.png,,52,,,,,,new,1,1,,,,,,,,,,
null,,confidence_buffer,517113,confidence_buffer,,null,,,,,,,,,,,,,,,,,,
null,,thebreak,517617,break,,null,,,,,,,,,,,,,,,,,,
2868.2000000029802,,pt2_realistic_rating,520486,Fictional_Cities_List/img_natural_50.png,,52,Fictional_Cities_List/img_natural_50.png,NAT,4,,,,,,,,,,,,,,,
null,,confidence_buffer,520603,confidence_buffer,,null,,,,,,,,,,,,,,,,,,
1160.6999999955297,,pt2_unique_rating,521765,Fictional_Cities_List/img_natural_50.png,,52,,,4,,,,,,,,,,,,,,,
null,,confidence_buffer,521870,confidence_buffer,,null,,,,,,,,,,,,,,,,,,
2253,,pt2_memorable_rating,524125,Fictional_Cities_List/img_natural_50.png,,53,,,5,,,,,,,,,,,,,,,
null,,confidence_buffer,524237,confidence_buffer,,null,,,,,,,,,,,,,,,,,,
2619.8000000044703,,recognition_phase,526859,Fictional_Cities_List/img_natural_50.png,,52,,,,,,new,1,1,,,,,,,,,,
null,,confidence_buffer,526963,confidence_buffer,,null,,,,,,,,,,,,,,,,,,
null,,thebreak,527465,break,,null,,,,,,,,,,,,,,,,,,
2507,,pt2_realistic_rating,529974,US_Cities_List/nat_hilo.png,,52,US_Cities_List/nat_hilo.png,NAT,4,,,,,,,,,,,,,,,
null,,confidence_buffer,530077,confidence_buffer,,null,,,,,,,,,,,,,,,,,,
961.8999999985099,,pt2_unique_rating,531040,US_Cities_List/nat_hilo.png,,52,,,4,,,,,,,,,,,,,,,
null,,confidence_buffer,531142,confidence_buffer,,null,,,,,,,,,,,,,,,,,,
586,,pt2_memorable_rating,531730,US_Cities_List/nat_hilo.png,,52,,,4,,,,,,,,,,,,,,,
null,,confidence_buffer,531833,confidence_buffer,,null,,,,,,,,,,,,,,,,,,
2325.7000000029802,,recognition_phase,534160,US_Cities_List/nat_hilo.png,,49,,,,,,old,1,1,,,,,,,,,,
null,,confidence_buffer,534266,confidence_buffer,,null,,,,,,,,,,,,,,,,,,
null,,thebreak,534777,break,,null,,,,,,,,,,,,,,,,,,
2772.8000000044703,,pt2_realistic_rating,537552,Fictional_Cities_List/img_manmade_07.png,,52,Fictional_Cities_List/img_manmade_07.png,MM,4,,,,,,,,,,,,,,,
null,,confidence_buffer,537656,confidence_buffer,,null,,,,,,,,,,,,,,,,,,
1117.4000000059605,,pt2_unique_rating,538775,Fictional_Cities_List/img_manmade_07.png,,52,,,4,,,,,,,,,,,,,,,
null,,confidence_buffer,538887,confidence_buffer,,null,,,,,,,,,,,,,,,,,,
662.8000000044703,,pt2_memorable_rating,539552,Fictional_Cities_List/img_manmade_07.png,,52,,,4,,,,,,,,,,,,,,,
null,,confidence_buffer,539667,confidence_buffer,,null,,,,,,,,,,,,,,,,,,
2442.2000000029802,,recognition_phase,542111,Fictional_Cities_List/img_manmade_07.png,,52,,,,,,new,1,1,,,,,,,,,,
null,,confidence_buffer,542225,confidence_buffer,,null,,,,,,,,,,,,,,,,,,
null,,thebreak,542728,break,,null,,,,,,,,,,,,,,,,,,
3861.7000000029802,,pt2_realistic_rating,546595,Fictional_Cities_List/img_natural_09.png,,53,Fictional_Cities_List/img_natural_09.png,NAT,5,,,,,,,,,,,,,,,
null,,confidence_buffer,546699,confidence_buffer,,null,,,,,,,,,,,,,,,,,,
1307.5,,pt2_unique_rating,548008,Fictional_Cities_List/img_natural_09.png,,53,,,5,,,,,,,,,,,,,,,
null,,confidence_buffer,548118,confidence_buffer,,null,,,,,,,,,,,,,,,,,,
834.8999999985099,,pt2_memorable_rating,548954,Fictional_Cities_List/img_natural_09.png,,53,,,5,,,,,,,,,,,,,,,
null,,confidence_buffer,549060,confidence_buffer,,null,,,,,,,,,,,,,,,,,,
2544.5,,recognition_phase,551606,Fictional_Cities_List/img_natural_09.png,,52,,,,,,new,1,1,,,,,,,,,,
null,,confidence_buffer,551711,confidence_buffer,,null,,,,,,,,,,,,,,,,,,
null,,thebreak,552218,break,,null,,,,,,,,,,,,,,,,,,
2663.60000000149,,pt2_realistic_rating,554883,Fictional_Cities_List/img_manmade_43.png,,53,Fictional_Cities_List/img_manmade_43.png,MM,5,,,,,,,,,,,,,,,
null,,confidence_buffer,554991,confidence_buffer,,null,,,,,,,,,,,,,,,,,,
584,,pt2_unique_rating,555577,Fictional_Cities_List/img_manmade_43.png,,53,,,5,,,,,,,,,,,,,,,
null,,confidence_buffer,555680,confidence_buffer,,null,,,,,,,,,,,,,,,,,,
554.8999999985099,,pt2_memorable_rating,556237,Fictional_Cities_List/img_manmade_43.png,,53,,,5,,,,,,,,,,,,,,,
null,,confidence_buffer,556345,confidence_buffer,,null,,,,,,,,,,,,,,,,,,
1525.8000000044703,,recognition_phase,557872,Fictional_Cities_List/img_manmade_43.png,,52,,,,,,new,1,1,,,,,,,,,,
null,,confidence_buffer,557987,confidence_buffer,,null,,,,,,,,,,,,,,,,,,
null,,thebreak,558498,break,,null,,,,,,,,,,,,,,,,,,
2002.8000000044703,,pt2_realistic_rating,560503,US_Cities_List/nat_delawarecity.png,,52,US_Cities_List/nat_delawarecity.png,NAT,4,,,,,,,,,,,,,,,
null,,confidence_buffer,560613,confidence_buffer,,null,,,,,,,,,,,,,,,,,,
541.6999999955297,,pt2_unique_rating,561156,US_Cities_List/nat_delawarecity.png,,52,,,4,,,,,,,,,,,,,,,
null,,confidence_buffer,561267,confidence_buffer,,null,,,,,,,,,,,,,,,,,,
1104.7999999970198,,pt2_memorable_rating,562374,US_Cities_List/nat_delawarecity.png,,52,,,4,,,,,,,,,,,,,,,
null,,confidence_buffer,562491,confidence_buffer,,null,,,,,,,,,,,,,,,,,,
1179.8000000044703,,recognition_phase,563672,US_Cities_List/nat_delawarecity.png,,49,,,,,,old,0,0.9,,,,,,,,,,
null,,confidence_buffer,563783,confidence_buffer,,null,,,,,,,,,,,,,,,,,,
null,,thebreak,564286,break,,null,,,,,,,,,,,,,,,,,,
3153.39999999851,,pt2_realistic_rating,567442,US_Cities_List/nat_abilene.png,,51,US_Cities_List/nat_abilene.png,NAT,3,,,,,,,,,,,,,,,
null,,confidence_buffer,567547,confidence_buffer,,null,,,,,,,,,,,,,,,,,,
899.6000000014901,,pt2_unique_rating,568448,US_Cities_List/nat_abilene.png,,51,,,3,,,,,,,,,,,,,,,
null,,confidence_buffer,568562,confidence_buffer,,null,,,,,,,,,,,,,,,,,,
760.3999999985099,,pt2_memorable_rating,569324,US_Cities_List/nat_abilene.png,,51,,,3,,,,,,,,,,,,,,,
null,,confidence_buffer,569439,confidence_buffer,,null,,,,,,,,,,,,,,,,,,
2202.2999999970198,,recognition_phase,571643,US_Cities_List/nat_abilene.png,,52,,,,,,new,1,0.9090909090909091,,,,,,,,,,
null,,confidence_buffer,571753,confidence_buffer,,null,,,,,,,,,,,,,,,,,,
null,,thebreak,572264,break,,null,,,,,,,,,,,,,,,,,,
1907,,pt2_realistic_rating,574172,Fictional_Cities_List/img_manmade_18.png,,52,Fictional_Cities_List/img_manmade_18.png,MM,4,,,,,,,,,,,,,,,
null,,confidence_buffer,574275,confidence_buffer,,null,,,,,,,,,,,,,,,,,,
519.3000000044703,,pt2_unique_rating,574796,Fictional_Cities_List/img_manmade_18.png,,52,,,4,,,,,,,,,,,,,,,
null,,confidence_buffer,574909,confidence_buffer,,null,,,,,,,,,,,,,,,,,,
696.6000000014901,,pt2_memorable_rating,575607,Fictional_Cities_List/img_manmade_18.png,,52,,,4,,,,,,,,,,,,,,,
null,,confidence_buffer,575710,confidence_buffer,,null,,,,,,,,,,,,,,,,,,
1465.1000000014901,,recognition_phase,577177,Fictional_Cities_List/img_manmade_18.png,,49,,,,,,old,0,0.8333333333333334,,,,,,,,,,
null,,confidence_buffer,577287,confidence_buffer,,null,,,,,,,,,,,,,,,,,,
null,,thebreak,577790,break,,null,,,,,,,,,,,,,,,,,,
2397.89999999851,,pt2_realistic_rating,580189,US_Cities_List/nat_westpalmbeach.png,,53,US_Cities_List/nat_westpalmbeach.png,NAT,5,,,,,,,,,,,,,,,
null,,confidence_buffer,580295,confidence_buffer,,null,,,,,,,,,,,,,,,,,,
707,,pt2_unique_rating,581003,US_Cities_List/nat_westpalmbeach.png,,53,,,5,,,,,,,,,,,,,,,
null,,confidence_buffer,581120,confidence_buffer,,null,,,,,,,,,,,,,,,,,,
645.2999999970198,,pt2_memorable_rating,581767,US_Cities_List/nat_westpalmbeach.png,,53,,,5,,,,,,,,,,,,,,,
null,,confidence_buffer,581876,confidence_buffer,,null,,,,,,,,,,,,,,,,,,
1426,,recognition_phase,583303,US_Cities_List/nat_westpalmbeach.png,,49,,,,,,old,1,0.8461538461538461,,,,,,,,,,
null,,confidence_buffer,583420,confidence_buffer,,null,,,,,,,,,,,,,,,,,,
null,,thebreak,583924,break,,null,,,,,,,,,,,,,,,,,,
2558,,pt2_realistic_rating,586483,US_Cities_List/mm_delawarecity.png,,52,US_Cities_List/mm_delawarecity.png,MM,4,,,,,,,,,,,,,,,
null,,confidence_buffer,586588,confidence_buffer,,null,,,,,,,,,,,,,,,,,,
675.5,,pt2_unique_rating,587265,US_Cities_List/mm_delawarecity.png,,52,,,4,,,,,,,,,,,,,,,
null,,confidence_buffer,587367,confidence_buffer,,null,,,,,,,,,,,,,,,,,,
620.0999999940395,,pt2_memorable_rating,587989,US_Cities_List/mm_delawarecity.png,,52,,,4,,,,,,,,,,,,,,,
null,,confidence_buffer,588095,confidence_buffer,,null,,,,,,,,,,,,,,,,,,
1629.1000000014901,,recognition_phase,589726,US_Cities_List/mm_delawarecity.png,,49,,,,,,old,1,0.8571428571428571,,,,,,,,,,
null,,confidence_buffer,589840,confidence_buffer,,null,,,,,,,,,,,,,,,,,,
null,,thebreak,590344,break,,null,,,,,,,,,,,,,,,,,,
2436.60000000149,,pt2_realistic_rating,592782,US_Cities_List/nat_healdsburg.png,,51,US_Cities_List/nat_healdsburg.png,NAT,3,,,,,,,,,,,,,,,
null,,confidence_buffer,592887,confidence_buffer,,null,,,,,,,,,,,,,,,,,,
808.3999999985099,,pt2_unique_rating,593697,US_Cities_List/nat_healdsburg.png,,51,,,3,,,,,,,,,,,,,,,
null,,confidence_buffer,593813,confidence_buffer,,null,,,,,,,,,,,,,,,,,,
789.7999999970198,,pt2_memorable_rating,594604,US_Cities_List/nat_healdsburg.png,,51,,,3,,,,,,,,,,,,,,,
null,,confidence_buffer,594722,confidence_buffer,,null,,,,,,,,,,,,,,,,,,
857.5,,recognition_phase,595581,US_Cities_List/nat_healdsburg.png,,49,,,,,,old,1,0.8666666666666667,,,,,,,,,,
null,,confidence_buffer,595696,confidence_buffer,,null,,,,,,,,,,,,,,,,,,
null,,thebreak,596199,break,,null,,,,,,,,,,,,,,,,,,
2350.60000000149,,pt2_realistic_rating,598551,Fictional_Cities_List/img_natural_40.png,,51,Fictional_Cities_List/img_natural_40.png,NAT,3,,,,,,,,,,,,,,,
null,,confidence_buffer,598668,confidence_buffer,,null,,,,,,,,,,,,,,,,,,
889.2999999970198,,probe_rating,599559,probe_rating,,52,,,,4,1,,,,,,,,,,,,,
null,,confidence_buffer,599667,confidence_buffer,,null,,,,,,,,,,,,,,,,,,
4516.89999999851,,pt2_unique_rating,604186,Fictional_Cities_List/img_natural_40.png,,52,,,4,,,,,,,,,,,,,,,
null,,confidence_buffer,604293,confidence_buffer,,null,,,,,,,,,,,,,,,,,,
998.8999999985099,,pt2_memorable_rating,605293,Fictional_Cities_List/img_natural_40.png,,52,,,4,,,,,,,,,,,,,,,
null,,confidence_buffer,605406,confidence_buffer,,null,,,,,,,,,,,,,,,,,,
842.8999999985099,,recognition_phase,606250,Fictional_Cities_List/img_natural_40.png,,49,,,,,,old,0,0.8125,,,,,,,,,,
null,,confidence_buffer,606360,confidence_buffer,,null,,,,,,,,,,,,,,,,,,
null,,thebreak,606865,break,,null,,,,,,,,,,,,,,,,,,
1697.6000000014901,,pt2_realistic_rating,608564,Fictional_Cities_List/img_manmade_47.png,,52,Fictional_Cities_List/img_manmade_47.png,MM,4,,,,,,,,,,,,,,,
null,,confidence_buffer,608678,confidence_buffer,,null,,,,,,,,,,,,,,,,,,
1261,,pt2_unique_rating,609941,Fictional_Cities_List/img_manmade_47.png,,52,,,4,,,,,,,,,,,,,,,
null,,confidence_buffer,610052,confidence_buffer,,null,,,,,,,,,,,,,,,,,,
771.8999999985099,,pt2_memorable_rating,610825,Fictional_Cities_List/img_manmade_47.png,,52,,,4,,,,,,,,,,,,,,,
null,,confidence_buffer,610937,confidence_buffer,,null,,,,,,,,,,,,,,,,,,
832.6000000014901,,recognition_phase,611771,Fictional_Cities_List/img_manmade_47.png,,49,,,,,,old,1,0.8235294117647058,,,,,,,,,,
null,,confidence_buffer,611887,confidence_buffer,,null,,,,,,,,,,,,,,,,,,
null,,thebreak,612390,break,,null,,,,,,,,,,,,,,,,,,
1085.2999999970198,,pt2_realistic_rating,613477,Fictional_Cities_List/img_manmade_40.png,,52,Fictional_Cities_List/img_manmade_40.png,MM,4,,,,,,,,,,,,,,,
null,,confidence_buffer,613592,confidence_buffer,,null,,,,,,,,,,,,,,,,,,
791.8999999985099,,pt2_unique_rating,614386,Fictional_Cities_List/img_manmade_40.png,,52,,,4,,,,,,,,,,,,,,,
null,,confidence_buffer,614495,confidence_buffer,,null,,,,,,,,,,,,,,,,,,
684.7000000029802,,pt2_memorable_rating,615181,Fictional_Cities_List/img_manmade_40.png,,52,,,4,,,,,,,,,,,,,,,
null,,confidence_buffer,615291,confidence_buffer,,null,,,,,,,,,,,,,,,,,,
1857.5,,recognition_phase,617150,Fictional_Cities_List/img_manmade_40.png,,49,,,,,,old,1,0.8333333333333334,,,,,,,,,,
null,,confidence_buffer,617267,confidence_buffer,,null,,,,,,,,,,,,,,,,,,
null,,thebreak,617770,break,,null,,,,,,,,,,,,,,,,,,
2706.5,,pt2_realistic_rating,620478,Fictional_Cities_List/img_natural_43.png,,51,Fictional_Cities_List/img_natural_43.png,NAT,3,,,,,,,,,,,,,,,
null,,confidence_buffer,620588,confidence_buffer,,null,,,,,,,,,,,,,,,,,,
1257.1999999955297,,pt2_unique_rating,621846,Fictional_Cities_List/img_natural_43.png,,51,,,3,,,,,,,,,,,,,,,
null,,confidence_buffer,621962,confidence_buffer,,null,,,,,,,,,,,,,,,,,,
1289.6000000014901,,pt2_memorable_rating,623253,Fictional_Cities_List/img_natural_43.png,,51,,,3,,,,,,,,,,,,,,,
null,,confidence_buffer,623369,confidence_buffer,,null,,,,,,,,,,,,,,,,,,
827.6999999955297,,recognition_phase,624198,Fictional_Cities_List/img_natural_43.png,,49,,,,,,old,1,0.8421052631578947,,,,,,,,,,
null,,confidence_buffer,624311,confidence_buffer,,null,,,,,,,,,,,,,,,,,,
null,,thebreak,624814,break,,null,,,,,,,,,,,,,,,,,,
2549,,pt2_realistic_rating,627365,Fictional_Cities_List/img_natural_18.png,,52,Fictional_Cities_List/img_natural_18.png,NAT,4,,,,,,,,,,,,,,,
null,,confidence_buffer,627475,confidence_buffer,,null,,,,,,,,,,,,,,,,,,
985,,pt2_unique_rating,628461,Fictional_Cities_List/img_natural_18.png,,52,,,4,,,,,,,,,,,,,,,
null,,confidence_buffer,628569,confidence_buffer,,null,,,,,,,,,,,,,,,,,,
757.2999999970198,,pt2_memorable_rating,629327,Fictional_Cities_List/img_natural_18.png,,52,,,4,,,,,,,,,,,,,,,
null,,confidence_buffer,629430,confidence_buffer,,null,,,,,,,,,,,,,,,,,,
575.7999999970198,,recognition_phase,630007,Fictional_Cities_List/img_natural_18.png,,49,,,,,,old,1,0.85,,,,,,,,,,
null,,confidence_buffer,630112,confidence_buffer,,null,,,,,,,,,,,,,,,,,,
null,,thebreak,630615,break,,null,,,,,,,,,,,,,,,,,,
2287.10000000149,,pt2_realistic_rating,632903,Fictional_Cities_List/img_manmade_20.png,,51,Fictional_Cities_List/img_manmade_20.png,MM,3,,,,,,,,,,,,,,,
null,,confidence_buffer,633017,confidence_buffer,,null,,,,,,,,,,,,,,,,,,
1153.2000000029802,,pt2_unique_rating,634172,Fictional_Cities_List/img_manmade_20.png,,51,,,3,,,,,,,,,,,,,,,
null,,confidence_buffer,634281,confidence_buffer,,null,,,,,,,,,,,,,,,,,,
824.6000000014901,,pt2_memorable_rating,635107,Fictional_Cities_List/img_manmade_20.png,,51,,,3,,,,,,,,,,,,,,,
null,,confidence_buffer,635223,confidence_buffer,,null,,,,,,,,,,,,,,,,,,
960.1000000014901,,recognition_phase,636185,Fictional_Cities_List/img_manmade_20.png,,49,,,,,,old,0,0.8095238095238095,,,,,,,,,,
null,,confidence_buffer,636288,confidence_buffer,,null,,,,,,,,,,,,,,,,,,
null,,thebreak,636791,break,,null,,,,,,,,,,,,,,,,,,
997.5,,pt2_realistic_rating,637789,US_Cities_List/mm_sitka.png,,49,US_Cities_List/mm_sitka.png,MM,1,,,,,,,,,,,,,,,
null,,confidence_buffer,637903,confidence_buffer,,null,,,,,,,,,,,,,,,,,,
800.3000000044703,,pt2_unique_rating,638705,US_Cities_List/mm_sitka.png,,49,,,1,,,,,,,,,,,,,,,
null,,confidence_buffer,638814,confidence_buffer,,null,,,,,,,,,,,,,,,,,,
1657.2000000029802,,pt2_memorable_rating,640473,US_Cities_List/mm_sitka.png,,49,,,1,,,,,,,,,,,,,,,
null,,confidence_buffer,640587,confidence_buffer,,null,,,,,,,,,,,,,,,,,,
768.5,,recognition_phase,641358,US_Cities_List/mm_sitka.png,,49,,,,,,old,1,0.8181818181818182,,,,,,,,,,
null,,confidence_buffer,641463,confidence_buffer,,null,,,,,,,,,,,,,,,,,,
null,,thebreak,641967,break,,null,,,,,,,,,,,,,,,,,,
1448.6000000014901,,pt2_realistic_rating,643416,US_Cities_List/nat_peoria.png,,51,US_Cities_List/nat_peoria.png,NAT,3,,,,,,,,,,,,,,,
null,,confidence_buffer,643527,confidence_buffer,,null,,,,,,,,,,,,,,,,,,
668.5,,pt2_unique_rating,644197,US_Cities_List/nat_peoria.png,,51,,,3,,,,,,,,,,,,,,,
null,,confidence_buffer,644315,confidence_buffer,,null,,,,,,,,,,,,,,,,,,
1733.5999999940395,,probe_rating,646050,probe_rating,,51,,,,3,1,,,,,,,,,,,,,
null,,confidence_buffer,646160,confidence_buffer,,null,,,,,,,,,,,,,,,,,,
813.8999999985099,,pt2_memorable_rating,646976,US_Cities_List/nat_peoria.png,,51,,,3,,,,,,,,,,,,,,,
null,,confidence_buffer,647086,confidence_buffer,,null,,,,,,,,,,,,,,,,,,
886.7000000029802,,recognition_phase,647974,US_Cities_List/nat_peoria.png,,49,,,,,,old,1,0.8260869565217391,,,,,,,,,,
null,,confidence_buffer,648076,confidence_buffer,,null,,,,,,,,,,,,,,,,,,
null,,thebreak,648579,break,,null,,,,,,,,,,,,,,,,,,
1403.2999999970198,,pt2_realistic_rating,649983,Fictional_Cities_List/img_natural_07.png,,52,Fictional_Cities_List/img_natural_07.png,NAT,4,,,,,,,,,,,,,,,
null,,confidence_buffer,650091,confidence_buffer,,null,,,,,,,,,,,,,,,,,,
763.3000000044703,,pt2_unique_rating,650856,Fictional_Cities_List/img_natural_07.png,,52,,,4,,,,,,,,,,,,,,,
null,,confidence_buffer,650969,confidence_buffer,,null,,,,,,,,,,,,,,,,,,
720.2999999970198,,pt2_memorable_rating,651691,Fictional_Cities_List/img_natural_07.png,,52,,,4,,,,,,,,,,,,,,,
null,,confidence_buffer,651798,confidence_buffer,,null,,,,,,,,,,,,,,,,,,
917.6000000014901,,recognition_phase,652717,Fictional_Cities_List/img_natural_07.png,,49,,,,,,old,1,0.8333333333333334,,,,,,,,,,
null,,confidence_buffer,652834,confidence_buffer,,null,,,,,,,,,,,,,,,,,,
null,,thebreak,653344,break,,null,,,,,,,,,,,,,,,,,,
2473.39999999851,,pt2_realistic_rating,655819,US_Cities_List/mm_peoria.png,,52,US_Cities_List/mm_peoria.png,MM,4,,,,,,,,,,,,,,,
null,,confidence_buffer,655922,confidence_buffer,,null,,,,,,,,,,,,,,,,,,
983.1000000014901,,pt2_unique_rating,656907,US_Cities_List/mm_peoria.png,,52,,,4,,,,,,,,,,,,,,,
null,,confidence_buffer,657011,confidence_buffer,,null,,,,,,,,,,,,,,,,,,
668.5,,pt2_memorable_rating,657681,US_Cities_List/mm_peoria.png,,52,,,4,,,,,,,,,,,,,,,
null,,confidence_buffer,657799,confidence_buffer,,null,,,,,,,,,,,,,,,,,,
1526.3000000044703,,recognition_phase,659327,US_Cities_List/mm_peoria.png,,52,,,,,,new,1,0.84,,,,,,,,,,
null,,confidence_buffer,659440,confidence_buffer,,null,,,,,,,,,,,,,,,,,,
null,,thebreak,659943,break,,null,,,,,,,,,,,,,,,,,,
2408.8000000044703,,pt2_realistic_rating,662354,US_Cities_List/mm_bisbee.png,,51,US_Cities_List/mm_bisbee.png,MM,3,,,,,,,,,,,,,,,
null,,confidence_buffer,662463,confidence_buffer,,null,,,,,,,,,,,,,,,,,,
795,,pt2_unique_rating,663260,US_Cities_List/mm_bisbee.png,,51,,,3,,,,,,,,,,,,,,,
null,,confidence_buffer,663377,confidence_buffer,,null,,,,,,,,,,,,,,,,,,
848.2000000029802,,pt2_memorable_rating,664227,US_Cities_List/mm_bisbee.png,,51,,,3,,,,,,,,,,,,,,,
null,,confidence_buffer,664335,confidence_buffer,,null,,,,,,,,,,,,,,,,,,
1614.3999999985099,,recognition_phase,665951,US_Cities_List/mm_bisbee.png,,52,,,,,,new,1,0.8461538461538461,,,,,,,,,,
null,,confidence_buffer,666059,confidence_buffer,,null,,,,,,,,,,,,,,,,,,
null,,thebreak,666570,break,,null,,,,,,,,,,,,,,,,,,
2910.2000000029802,,pt2_realistic_rating,669482,Fictional_Cities_List/img_natural_20.png,,52,Fictional_Cities_List/img_natural_20.png,NAT,4,,,,,,,,,,,,,,,
null,,confidence_buffer,669588,confidence_buffer,,null,,,,,,,,,,,,,,,,,,
859.7999999970198,,pt2_unique_rating,670449,Fictional_Cities_List/img_natural_20.png,,52,,,4,,,,,,,,,,,,,,,
null,,confidence_buffer,670559,confidence_buffer,,null,,,,,,,,,,,,,,,,,,
1090.6000000014901,,pt2_memorable_rating,671652,Fictional_Cities_List/img_natural_20.png,,52,,,4,,,,,,,,,,,,,,,
null,,confidence_buffer,671762,confidence_buffer,,null,,,,,,,,,,,,,,,,,,
1671.8000000044703,,recognition_phase,673435,Fictional_Cities_List/img_natural_20.png,,52,,,,,,new,1,0.8518518518518519,,,,,,,,,,
null,,confidence_buffer,673540,confidence_buffer,,null,,,,,,,,,,,,,,,,,,
null,,thebreak,674043,break,,null,,,,,,,,,,,,,,,,,,
1489.6999999955297,,pt2_realistic_rating,675534,US_Cities_List/nat_coeurdalene.png,,52,US_Cities_List/nat_coeurdalene.png,NAT,4,,,,,,,,,,,,,,,
null,,confidence_buffer,675641,confidence_buffer,,null,,,,,,,,,,,,,,,,,,
1075.1999999955297,,pt2_unique_rating,676717,US_Cities_List/nat_coeurdalene.png,,52,,,4,,,,,,,,,,,,,,,
null,,confidence_buffer,676827,confidence_buffer,,null,,,,,,,,,,,,,,,,,,
719.7999999970198,,pt2_memorable_rating,677549,US_Cities_List/nat_coeurdalene.png,,52,,,4,,,,,,,,,,,,,,,
null,,confidence_buffer,677663,confidence_buffer,,null,,,,,,,,,,,,,,,,,,
889.5,,recognition_phase,678554,US_Cities_List/nat_coeurdalene.png,,49,,,,,,old,1,0.8571428571428571,,,,,,,,,,
null,,confidence_buffer,678658,confidence_buffer,,null,,,,,,,,,,,,,,,,,,
null,,thebreak,679169,break,,null,,,,,,,,,,,,,,,,,,
1231.2999999970198,,pt2_realistic_rating,680402,US_Cities_List/mm_abilene.png,,51,US_Cities_List/mm_abilene.png,MM,3,,,,,,,,,,,,,,,
null,,confidence_buffer,680507,confidence_buffer,,null,,,,,,,,,,,,,,,,,,
849,,pt2_unique_rating,681358,US_Cities_List/mm_abilene.png,,51,,,3,,,,,,,,,,,,,,,
null,,confidence_buffer,681473,confidence_buffer,,null,,,,,,,,,,,,,,,,,,
839.6000000014901,,pt2_memorable_rating,682314,US_Cities_List/mm_abilene.png,,51,,,3,,,,,,,,,,,,,,,
null,,confidence_buffer,682424,confidence_buffer,,null,,,,,,,,,,,,,,,,,,
2525.10000000149,,probe_rating,684951,probe_rating,,53,,,,5,1,,,,,,,,,,,,,
null,,confidence_buffer,685069,confidence_buffer,,null,,,,,,,,,,,,,,,,,,
795.7999999970198,,recognition_phase,685866,US_Cities_List/mm_abilene.png,,49,,,,,,old,1,0.8620689655172413,,,,,,,,,,
null,,confidence_buffer,685970,confidence_buffer,,null,,,,,,,,,,,,,,,,,,
null,,thebreak,686481,break,,null,,,,,,,,,,,,,,,,,,
2032.4000000059605,,pt2_realistic_rating,688515,US_Cities_List/nat_bisbee.png,,52,US_Cities_List/nat_bisbee.png,NAT,4,,,,,,,,,,,,,,,
null,,confidence_buffer,688624,confidence_buffer,,null,,,,,,,,,,,,,,,,,,
733.7999999970198,,pt2_unique_rating,689359,US_Cities_List/nat_bisbee.png,,52,,,4,,,,,,,,,,,,,,,
null,,confidence_buffer,689469,confidence_buffer,,null,,,,,,,,,,,,,,,,,,
630.3000000044703,,pt2_memorable_rating,690100,US_Cities_List/nat_bisbee.png,,52,,,4,,,,,,,,,,,,,,,
null,,confidence_buffer,690208,confidence_buffer,,null,,,,,,,,,,,,,,,,,,
1443.8999999985099,,recognition_phase,691654,US_Cities_List/nat_bisbee.png,,49,,,,,,old,0,0.8333333333333334,,,,,,,,,,
null,,confidence_buffer,691757,confidence_buffer,,null,,,,,,,,,,,,,,,,,,
null,,thebreak,692264,break,,null,,,,,,,,,,,,,,,,,,
2976.3000000044703,,pt2_realistic_rating,695242,Fictional_Cities_List/img_natural_13.png,,51,Fictional_Cities_List/img_natural_13.png,NAT,3,,,,,,,,,,,,,,,
null,,confidence_buffer,695350,confidence_buffer,,null,,,,,,,,,,,,,,,,,,
806.6999999955297,,pt2_unique_rating,696159,Fictional_Cities_List/img_natural_13.png,,51,,,3,,,,,,,,,,,,,,,
null,,confidence_buffer,696276,confidence_buffer,,null,,,,,,,,,,,,,,,,,,
591.1999999955297,,pt2_memorable_rating,696869,Fictional_Cities_List/img_natural_13.png,,51,,,3,,,,,,,,,,,,,,,
null,,confidence_buffer,696975,confidence_buffer,,null,,,,,,,,,,,,,,,,,,
817.9000000059605,,recognition_phase,697794,Fictional_Cities_List/img_natural_13.png,,49,,,,,,old,1,0.8387096774193549,,,,,,,,,,
null,,confidence_buffer,697902,confidence_buffer,,null,,,,,,,,,,,,,,,,,,
null,,thebreak,698404,break,,null,,,,,,,,,,,,,,,,,,
1855.3999999985099,,pt2_realistic_rating,700261,Fictional_Cities_List/img_manmade_48.png,,52,Fictional_Cities_List/img_manmade_48.png,MM,4,,,,,,,,,,,,,,,
null,,confidence_buffer,700366,confidence_buffer,,null,,,,,,,,,,,,,,,,,,
918.8999999985099,,pt2_unique_rating,701287,Fictional_Cities_List/img_manmade_48.png,,52,,,4,,,,,,,,,,,,,,,
null,,confidence_buffer,701389,confidence_buffer,,null,,,,,,,,,,,,,,,,,,
853.2999999970198,,pt2_memorable_rating,702244,Fictional_Cities_List/img_manmade_48.png,,52,,,4,,,,,,,,,,,,,,,
null,,confidence_buffer,702347,confidence_buffer,,null,,,,,,,,,,,,,,,,,,
1586.3999999985099,,recognition_phase,703935,Fictional_Cities_List/img_manmade_48.png,,52,,,,,,new,1,0.84375,,,,,,,,,,
null,,confidence_buffer,704039,confidence_buffer,,null,,,,,,,,,,,,,,,,,,
null,,thebreak,704541,break,,null,,,,,,,,,,,,,,,,,,
2256.89999999851,,pt2_realistic_rating,706800,US_Cities_List/nat_sitka.png,,53,US_Cities_List/nat_sitka.png,NAT,5,,,,,,,,,,,,,,,
null,,confidence_buffer,706905,confidence_buffer,,null,,,,,,,,,,,,,,,,,,
1639.2999999970198,,pt2_unique_rating,708546,US_Cities_List/nat_sitka.png,,52,,,4,,,,,,,,,,,,,,,
null,,confidence_buffer,708649,confidence_buffer,,null,,,,,,,,,,,,,,,,,,
1203.5,,pt2_memorable_rating,709854,US_Cities_List/nat_sitka.png,,53,,,5,,,,,,,,,,,,,,,
null,,confidence_buffer,709958,confidence_buffer,,null,,,,,,,,,,,,,,,,,,
1426.8999999985099,,probe_rating,711386,probe_rating,,53,,,,5,1,,,,,,,,,,,,,
null,,confidence_buffer,711491,confidence_buffer,,null,,,,,,,,,,,,,,,,,,
2485.5,,recognition_phase,713978,US_Cities_List/nat_sitka.png,,49,,,,,,old,1,0.8484848484848485,,,,,,,,,,
null,,confidence_buffer,714087,confidence_buffer,,null,,,,,,,,,,,,,,,,,,
null,,thebreak,714590,break,,null,,,,,,,,,,,,,,,,,,
1584.7000000029802,,pt2_realistic_rating,716176,US_Cities_List/mm_healdsburg.png,,52,US_Cities_List/mm_healdsburg.png,MM,4,,,,,,,,,,,,,,,
null,,confidence_buffer,716290,confidence_buffer,,null,,,,,,,,,,,,,,,,,,
1514.3000000044703,,probe_rating,717806,probe_rating,,53,,,,5,1,,,,,,,,,,,,,
null,,confidence_buffer,717910,confidence_buffer,,null,,,,,,,,,,,,,,,,,,
1144.2000000029802,,pt2_unique_rating,719056,US_Cities_List/mm_healdsburg.png,,53,,,5,,,,,,,,,,,,,,,
null,,confidence_buffer,719162,confidence_buffer,,null,,,,,,,,,,,,,,,,,,
961.8999999985099,,pt2_memorable_rating,720125,US_Cities_List/mm_healdsburg.png,,53,,,5,,,,,,,,,,,,,,,
null,,confidence_buffer,720239,confidence_buffer,,null,,,,,,,,,,,,,,,,,,
645.1000000014901,,recognition_phase,720885,US_Cities_List/mm_healdsburg.png,,49,,,,,,old,1,0.8529411764705882,,,,,,,,,,
null,,confidence_buffer,721001,confidence_buffer,,null,,,,,,,,,,,,,,,,,,
null,,thebreak,721504,break,,null,,,,,,,,,,,,,,,,,,
1813.2000000029802,,pt2_realistic_rating,723319,Fictional_Cities_List/img_natural_31.png,,53,Fictional_Cities_List/img_natural_31.png,NAT,5,,,,,,,,,,,,,,,
null,,confidence_buffer,723426,confidence_buffer,,null,,,,,,,,,,,,,,,,,,
947.6000000014901,,pt2_unique_rating,724375,Fictional_Cities_List/img_natural_31.png,,53,,,5,,,,,,,,,,,,,,,
null,,confidence_buffer,724490,confidence_buffer,,null,,,,,,,,,,,,,,,,,,
789.2999999970198,,pt2_memorable_rating,725281,Fictional_Cities_List/img_natural_31.png,,53,,,5,,,,,,,,,,,,,,,
null,,confidence_buffer,725391,confidence_buffer,,null,,,,,,,,,,,,,,,,,,
1345.4000000059605,,probe_rating,726738,probe_rating,,53,,,,5,1,,,,,,,,,,,,,
null,,confidence_buffer,726842,confidence_buffer,,null,,,,,,,,,,,,,,,,,,
1321.1999999955297,,recognition_phase,728165,Fictional_Cities_List/img_natural_31.png,,52,,,,,,new,1,0.8571428571428571,,,,,,,,,,
null,,confidence_buffer,728281,confidence_buffer,,null,,,,,,,,,,,,,,,,,,
null,,thebreak,728784,break,,null,,,,,,,,,,,,,,,,,,
1833.2000000029802,,pt2_realistic_rating,730614,US_Cities_List/mm_westpalmbeach.png,,51,US_Cities_List/mm_westpalmbeach.png,MM,3,,,,,,,,,,,,,,,
null,,confidence_buffer,730731,confidence_buffer,,null,,,,,,,,,,,,,,,,,,
725.6999999955297,,pt2_unique_rating,731458,US_Cities_List/mm_westpalmbeach.png,,51,,,3,,,,,,,,,,,,,,,
null,,confidence_buffer,731575,confidence_buffer,,null,,,,,,,,,,,,,,,,,,
696.5,,pt2_memorable_rating,732273,US_Cities_List/mm_westpalmbeach.png,,51,,,3,,,,,,,,,,,,,,,
null,,confidence_buffer,732383,confidence_buffer,,null,,,,,,,,,,,,,,,,,,
1036.5,,recognition_phase,733421,US_Cities_List/mm_westpalmbeach.png,,49,,,,,,old,1,0.8611111111111112,,,,,,,,,,
null,,confidence_buffer,733537,confidence_buffer,,null,,,,,,,,,,,,,,,,,,
null,,thebreak,734039,break,,null,,,,,,,,,,,,,,,,,,
2428,,pt2_realistic_rating,736469,US_Cities_List/nat_okoboji.png,,52,US_Cities_List/nat_okoboji.png,NAT,4,,,,,,,,,,,,,,,
null,,confidence_buffer,736586,confidence_buffer,,null,,,,,,,,,,,,,,,,,,
1262.8000000044703,,pt2_unique_rating,737850,US_Cities_List/nat_okoboji.png,,52,,,4,,,,,,,,,,,,,,,
null,,confidence_buffer,737967,confidence_buffer,,null,,,,,,,,,,,,,,,,,,
1029.5,,pt2_memorable_rating,738998,US_Cities_List/nat_okoboji.png,,52,,,4,,,,,,,,,,,,,,,
null,,confidence_buffer,739108,confidence_buffer,,null,,,,,,,,,,,,,,,,,,
1372.6000000014901,,recognition_phase,740483,US_Cities_List/nat_okoboji.png,,49,,,,,,old,1,0.8648648648648649,,,,,,,,,,
null,,confidence_buffer,740596,confidence_buffer,,null,,,,,,,,,,,,,,,,,,
null,,thebreak,741107,break,,null,,,,,,,,,,,,,,,,,,
2038.7999999970198,,pt2_realistic_rating,743148,Fictional_Cities_List/img_natural_12.png,,51,Fictional_Cities_List/img_natural_12.png,NAT,3,,,,,,,,,,,,,,,
null,,confidence_buffer,743251,confidence_buffer,,null,,,,,,,,,,,,,,,,,,
1131.1999999955297,,pt2_unique_rating,744384,Fictional_Cities_List/img_natural_12.png,,51,,,3,,,,,,,,,,,,,,,
null,,confidence_buffer,744486,confidence_buffer,,null,,,,,,,,,,,,,,,,,,
818.8999999985099,,pt2_memorable_rating,745307,Fictional_Cities_List/img_natural_12.png,,51,,,3,,,,,,,,,,,,,,,
null,,confidence_buffer,745413,confidence_buffer,,null,,,,,,,,,,,,,,,,,,
625.8999999985099,,recognition_phase,746041,Fictional_Cities_List/img_natural_12.png,,49,,,,,,old,1,0.868421052631579,,,,,,,,,,
null,,confidence_buffer,746143,confidence_buffer,,null,,,,,,,,,,,,,,,,,,
null,,thebreak,746646,break,,null,,,,,,,,,,,,,,,,,,
1558.8999999985099,,pt2_realistic_rating,748207,US_Cities_List/nat_athens.png,,52,US_Cities_List/nat_athens.png,NAT,4,,,,,,,,,,,,,,,
null,,confidence_buffer,748321,confidence_buffer,,null,,,,,,,,,,,,,,,,,,
920.3999999985099,,pt2_unique_rating,749243,US_Cities_List/nat_athens.png,,52,,,4,,,,,,,,,,,,,,,
null,,confidence_buffer,749353,confidence_buffer,,null,,,,,,,,,,,,,,,,,,
622.7999999970198,,pt2_memorable_rating,749977,US_Cities_List/nat_athens.png,,52,,,4,,,,,,,,,,,,,,,
null,,confidence_buffer,750084,confidence_buffer,,null,,,,,,,,,,,,,,,,,,
785.8999999985099,,recognition_phase,750871,US_Cities_List/nat_athens.png,,52,,,,,,new,1,0.8717948717948718,,,,,,,,,,
null,,confidence_buffer,750985,confidence_buffer,,null,,,,,,,,,,,,,,,,,,
null,,thebreak,751496,break,,null,,,,,,,,,,,,,,,,,,
1775.5,,pt2_realistic_rating,753273,US_Cities_List/nat_hotsprings.png,,51,US_Cities_List/nat_hotsprings.png,NAT,3,,,,,,,,,,,,,,,
null,,confidence_buffer,753390,confidence_buffer,,null,,,,,,,,,,,,,,,,,,
757.3000000044703,,pt2_unique_rating,754148,US_Cities_List/nat_hotsprings.png,,51,,,3,,,,,,,,,,,,,,,
null,,confidence_buffer,754259,confidence_buffer,,null,,,,,,,,,,,,,,,,,,
926.1999999955297,,pt2_memorable_rating,755187,US_Cities_List/nat_hotsprings.png,,51,,,3,,,,,,,,,,,,,,,
null,,confidence_buffer,755298,confidence_buffer,,null,,,,,,,,,,,,,,,,,,
1374.1000000014901,,recognition_phase,756674,US_Cities_List/nat_hotsprings.png,,49,,,,,,old,0,0.85,,,,,,,,,,
null,,confidence_buffer,756776,confidence_buffer,,null,,,,,,,,,,,,,,,,,,
null,,thebreak,757288,break,,null,,,,,,,,,,,,,,,,,,
1609.5,,pt2_realistic_rating,758899,US_Cities_List/nat_boulder.png,,52,US_Cities_List/nat_boulder.png,NAT,4,,,,,,,,,,,,,,,
null,,confidence_buffer,759003,confidence_buffer,,null,,,,,,,,,,,,,,,,,,
209.29999999701977,,pt2_unique_rating,759214,US_Cities_List/nat_boulder.png,,51,,,3,,,,,,,,,,,,,,,
null,,confidence_buffer,759318,confidence_buffer,,null,,,,,,,,,,,,,,,,,,
1069.5999999940395,,pt2_memorable_rating,760389,US_Cities_List/nat_boulder.png,,51,,,3,,,,,,,,,,,,,,,
null,,confidence_buffer,760506,confidence_buffer,,null,,,,,,,,,,,,,,,,,,
1726.3999999985099,,recognition_phase,762234,US_Cities_List/nat_boulder.png,,52,,,,,,new,1,0.8536585365853658,,,,,,,,,,
null,,confidence_buffer,762352,confidence_buffer,,null,,,,,,,,,,,,,,,,,,
null,,thebreak,762855,break,,null,,,,,,,,,,,,,,,,,,
2818.7999999970198,,pt2_realistic_rating,765674,US_Cities_List/mm_hotsprings.png,,53,US_Cities_List/mm_hotsprings.png,MM,5,,,,,,,,,,,,,,,
null,,confidence_buffer,765783,confidence_buffer,,null,,,,,,,,,,,,,,,,,,
731.8000000044703,,pt2_unique_rating,766516,US_Cities_List/mm_hotsprings.png,,53,,,5,,,,,,,,,,,,,,,
null,,confidence_buffer,766619,confidence_buffer,,null,,,,,,,,,,,,,,,,,,
617.6999999955297,,pt2_memorable_rating,767239,US_Cities_List/mm_hotsprings.png,,53,,,5,,,,,,,,,,,,,,,
null,,confidence_buffer,767342,confidence_buffer,,null,,,,,,,,,,,,,,,,,,
1423.8999999985099,,recognition_phase,768768,US_Cities_List/mm_hotsprings.png,,52,,,,,,new,1,0.8571428571428571,,,,,,,,,,
null,,confidence_buffer,768870,confidence_buffer,,null,,,,,,,,,,,,,,,,,,
null,,thebreak,769378,break,,null,,,,,,,,,,,,,,,,,,
1859.2999999970198,,pt2_realistic_rating,771238,Fictional_Cities_List/img_manmade_12.png,,51,Fictional_Cities_List/img_manmade_12.png,MM,3,,,,,,,,,,,,,,,
null,,confidence_buffer,771349,confidence_buffer,,null,,,,,,,,,,,,,,,,,,
658.8000000044703,,pt2_unique_rating,772009,Fictional_Cities_List/img_manmade_12.png,,51,,,3,,,,,,,,,,,,,,,
null,,confidence_buffer,772112,confidence_buffer,,null,,,,,,,,,,,,,,,,,,
629.8000000044703,,pt2_memorable_rating,772743,Fictional_Cities_List/img_manmade_12.png,,51,,,3,,,,,,,,,,,,,,,
null,,confidence_buffer,772859,confidence_buffer,,null,,,,,,,,,,,,,,,,,,
777,,recognition_phase,773638,Fictional_Cities_List/img_manmade_12.png,,49,,,,,,old,1,0.8604651162790697,,,,,,,,,,
null,,confidence_buffer,773741,confidence_buffer,,null,,,,,,,,,,,,,,,,,,
null,,thebreak,774249,break,,null,,,,,,,,,,,,,,,,,,
1236.1999999955297,,pt2_realistic_rating,775487,Fictional_Cities_List/img_manmade_31.png,,52,Fictional_Cities_List/img_manmade_31.png,MM,4,,,,,,,,,,,,,,,
null,,confidence_buffer,775602,confidence_buffer,,null,,,,,,,,,,,,,,,,,,
900.7999999970198,,pt2_unique_rating,776504,Fictional_Cities_List/img_manmade_31.png,,52,,,4,,,,,,,,,,,,,,,
null,,confidence_buffer,776608,confidence_buffer,,null,,,,,,,,,,,,,,,,,,
637.7000000029802,,pt2_memorable_rating,777247,Fictional_Cities_List/img_manmade_31.png,,52,,,4,,,,,,,,,,,,,,,
null,,confidence_buffer,777364,confidence_buffer,,null,,,,,,,,,,,,,,,,,,
867.8000000044703,,recognition_phase,778234,Fictional_Cities_List/img_manmade_31.png,,49,,,,,,old,0,0.8409090909090909,,,,,,,,,,
null,,confidence_buffer,778343,confidence_buffer,,null,,,,,,,,,,,,,,,,,,
null,,thebreak,778845,break,,null,,,,,,,,,,,,,,,,,,
1641.5999999940395,,pt2_realistic_rating,780489,Fictional_Cities_List/img_manmade_04.png,,52,Fictional_Cities_List/img_manmade_04.png,MM,4,,,,,,,,,,,,,,,
null,,confidence_buffer,780605,confidence_buffer,,null,,,,,,,,,,,,,,,,,,
1755.1999999955297,,pt2_unique_rating,782362,Fictional_Cities_List/img_manmade_04.png,,53,,,5,,,,,,,,,,,,,,,
null,,confidence_buffer,782471,confidence_buffer,,null,,,,,,,,,,,,,,,,,,
691.6000000014901,,pt2_memorable_rating,783164,Fictional_Cities_List/img_manmade_04.png,,53,,,5,,,,,,,,,,,,,,,
null,,confidence_buffer,783271,confidence_buffer,,null,,,,,,,,,,,,,,,,,,
962.3999999985099,,recognition_phase,784235,Fictional_Cities_List/img_manmade_04.png,,49,,,,,,old,1,0.8444444444444444,,,,,,,,,,
null,,confidence_buffer,784339,confidence_buffer,,null,,,,,,,,,,,,,,,,,,
null,,thebreak,784851,break,,null,,,,,,,,,,,,,,,,,,
1822,,pt2_realistic_rating,786674,Fictional_Cities_List/img_natural_48.png,,52,Fictional_Cities_List/img_natural_48.png,NAT,4,,,,,,,,,,,,,,,
null,,confidence_buffer,786778,confidence_buffer,,null,,,,,,,,,,,,,,,,,,
730,,pt2_unique_rating,787509,Fictional_Cities_List/img_natural_48.png,,52,,,4,,,,,,,,,,,,,,,
null,,confidence_buffer,787623,confidence_buffer,,null,,,,,,,,,,,,,,,,,,
525.5,,pt2_memorable_rating,788150,Fictional_Cities_List/img_natural_48.png,,52,,,4,,,,,,,,,,,,,,,
null,,confidence_buffer,788256,confidence_buffer,,null,,,,,,,,,,,,,,,,,,
645.8000000044703,,recognition_phase,788903,Fictional_Cities_List/img_natural_48.png,,52,,,,,,new,0,0.8260869565217391,,,,,,,,,,
null,,confidence_buffer,789019,confidence_buffer,,null,,,,,,,,,,,,,,,,,,
null,,thebreak,789521,break,,null,,,,,,,,,,,,,,,,,,
2492,,pt2_realistic_rating,792015,US_Cities_List/mm_cornwall.png,,51,US_Cities_List/mm_cornwall.png,MM,3,,,,,,,,,,,,,,,
null,,confidence_buffer,792126,confidence_buffer,,null,,,,,,,,,,,,,,,,,,
804,,pt2_unique_rating,792931,US_Cities_List/mm_cornwall.png,,51,,,3,,,,,,,,,,,,,,,
null,,confidence_buffer,793038,confidence_buffer,,null,,,,,,,,,,,,,,,,,,
2070.60000000149,,probe_rating,795110,probe_rating,,53,,,,5,1,,,,,,,,,,,,,
null,,confidence_buffer,795215,confidence_buffer,,null,,,,,,,,,,,,,,,,,,
890.0999999940395,,pt2_memorable_rating,796107,US_Cities_List/mm_cornwall.png,,53,,,5,,,,,,,,,,,,,,,
null,,confidence_buffer,796223,confidence_buffer,,null,,,,,,,,,,,,,,,,,,
2763,,recognition_phase,798988,US_Cities_List/mm_cornwall.png,,52,,,,,,new,1,0.8297872340425532,,,,,,,,,,
null,,confidence_buffer,799104,confidence_buffer,,null,,,,,,,,,,,,,,,,,,
null,,thebreak,799607,break,,null,,,,,,,,,,,,,,,,,,
2051.8000000044703,,pt2_realistic_rating,801660,Fictional_Cities_List/img_manmade_50.png,,52,Fictional_Cities_List/img_manmade_50.png,MM,4,,,,,,,,,,,,,,,
null,,confidence_buffer,801766,confidence_buffer,,null,,,,,,,,,,,,,,,,,,
688.1000000014901,,pt2_unique_rating,802455,Fictional_Cities_List/img_manmade_50.png,,52,,,4,,,,,,,,,,,,,,,
null,,confidence_buffer,802565,confidence_buffer,,null,,,,,,,,,,,,,,,,,,
559.3999999985099,,pt2_memorable_rating,803126,Fictional_Cities_List/img_manmade_50.png,,52,,,4,,,,,,,,,,,,,,,
null,,confidence_buffer,803243,confidence_buffer,,null,,,,,,,,,,,,,,,,,,
1472.1999999955297,,recognition_phase,804717,Fictional_Cities_List/img_manmade_50.png,,52,,,,,,new,1,0.8333333333333334,,,,,,,,,,
null,,confidence_buffer,804832,confidence_buffer,,null,,,,,,,,,,,,,,,,,,
null,,thebreak,805343,break,,null,,,,,,,,,,,,,,,,,,
1821.6999999955297,,pt2_realistic_rating,807166,US_Cities_List/mm_okoboji.png,,51,US_Cities_List/mm_okoboji.png,MM,3,,,,,,,,,,,,,,,
null,,confidence_buffer,807274,confidence_buffer,,null,,,,,,,,,,,,,,,,,,
2037.5,,probe_rating,809313,probe_rating,,49,,,,1,1,,,,,,,,,,,,,
null,,confidence_buffer,809423,confidence_buffer,,null,,,,,,,,,,,,,,,,,,
1289.2999999970198,,pt2_unique_rating,810715,US_Cities_List/mm_okoboji.png,,52,,,4,,,,,,,,,,,,,,,
null,,confidence_buffer,810828,confidence_buffer,,null,,,,,,,,,,,,,,,,,,
739.7000000029802,,pt2_memorable_rating,811570,US_Cities_List/mm_okoboji.png,,52,,,4,,,,,,,,,,,,,,,
null,,confidence_buffer,811680,confidence_buffer,,null,,,,,,,,,,,,,,,,,,
866.5999999940395,,recognition_phase,812548,US_Cities_List/mm_okoboji.png,,52,,,,,,new,1,0.8367346938775511,,,,,,,,,,
null,,confidence_buffer,812662,confidence_buffer,,null,,,,,,,,,,,,,,,,,,
null,,thebreak,813178,break,,null,,,,,,,,,,,,,,,,,,
1975.7000000029802,,pt2_realistic_rating,815155,Fictional_Cities_List/img_manmade_13.png,,51,Fictional_Cities_List/img_manmade_13.png,MM,3,,,,,,,,,,,,,,,
null,,confidence_buffer,815258,confidence_buffer,,null,,,,,,,,,,,,,,,,,,
1237.2999999970198,,pt2_unique_rating,816497,Fictional_Cities_List/img_manmade_13.png,,51,,,3,,,,,,,,,,,,,,,
null,,confidence_buffer,816600,confidence_buffer,,null,,,,,,,,,,,,,,,,,,
830.5999999940395,,pt2_memorable_rating,817433,Fictional_Cities_List/img_manmade_13.png,,51,,,3,,,,,,,,,,,,,,,
null,,confidence_buffer,817535,confidence_buffer,,null,,,,,,,,,,,,,,,,,,
781.4000000059605,,recognition_phase,818318,Fictional_Cities_List/img_manmade_13.png,,49,,,,,,old,1,0.84,,,,,,,,,,
null,,confidence_buffer,818420,confidence_buffer,,null,,,,,,,,,,,,,,,,,,
null,,thebreak,818923,break,,null,,,,,,,,,,,,,,,,,,
3901.9000000059605,,pt2_realistic_rating,822827,Fictional_Cities_List/img_natural_14.png,,51,Fictional_Cities_List/img_natural_14.png,NAT,3,,,,,,,,,,,,,,,
null,,confidence_buffer,822939,confidence_buffer,,null,,,,,,,,,,,,,,,,,,
1015,,pt2_unique_rating,823955,Fictional_Cities_List/img_natural_14.png,,51,,,3,,,,,,,,,,,,,,,
null,,confidence_buffer,824060,confidence_buffer,,null,,,,,,,,,,,,,,,,,,
850.5,,pt2_memorable_rating,824912,Fictional_Cities_List/img_natural_14.png,,51,,,3,,,,,,,,,,,,,,,
null,,confidence_buffer,825027,confidence_buffer,,null,,,,,,,,,,,,,,,,,,
1193.3999999985099,,recognition_phase,826222,Fictional_Cities_List/img_natural_14.png,,49,,,,,,old,0,0.8235294117647058,,,,,,,,,,
null,,confidence_buffer,826332,confidence_buffer,,null,,,,,,,,,,,,,,,,,,
null,,thebreak,826843,break,,null,,,,,,,,,,,,,,,,,,
1688.2999999970198,,pt2_realistic_rating,828533,Fictional_Cities_List/img_manmade_38.png,,52,Fictional_Cities_List/img_manmade_38.png,MM,4,,,,,,,,,,,,,,,
null,,confidence_buffer,828636,confidence_buffer,,null,,,,,,,,,,,,,,,,,,
721.8999999985099,,pt2_unique_rating,829360,Fictional_Cities_List/img_manmade_38.png,,52,,,4,,,,,,,,,,,,,,,
null,,confidence_buffer,829464,confidence_buffer,,null,,,,,,,,,,,,,,,,,,
623.4000000059605,,pt2_memorable_rating,830089,Fictional_Cities_List/img_manmade_38.png,,52,,,4,,,,,,,,,,,,,,,
null,,confidence_buffer,830198,confidence_buffer,,null,,,,,,,,,,,,,,,,,,
1214.2000000029802,,recognition_phase,831414,Fictional_Cities_List/img_manmade_38.png,,52,,,,,,new,1,0.8269230769230769,,,,,,,,,,
null,,confidence_buffer,831523,confidence_buffer,,null,,,,,,,,,,,,,,,,,,
null,,thebreak,832034,break,,null,,,,,,,,,,,,,,,,,,
1446.0999999940395,,pt2_realistic_rating,833481,US_Cities_List/mm_boulder.png,,52,US_Cities_List/mm_boulder.png,MM,4,,,,,,,,,,,,,,,
null,,confidence_buffer,833586,confidence_buffer,,null,,,,,,,,,,,,,,,,,,
1145.5999999940395,,pt2_unique_rating,834733,US_Cities_List/mm_boulder.png,,53,,,5,,,,,,,,,,,,,,,
null,,confidence_buffer,834837,confidence_buffer,,null,,,,,,,,,,,,,,,,,,
992.2000000029802,,pt2_memorable_rating,835831,US_Cities_List/mm_boulder.png,,53,,,5,,,,,,,,,,,,,,,
null,,confidence_buffer,835946,confidence_buffer,,null,,,,,,,,,,,,,,,,,,
999.6000000014901,,recognition_phase,836947,US_Cities_List/mm_boulder.png,,52,,,,,,new,1,0.8301886792452831,,,,,,,,,,
null,,confidence_buffer,837053,confidence_buffer,,null,,,,,,,,,,,,,,,,,,
null,,thebreak,837563,break,,null,,,,,,,,,,,,,,,,,,
1854.3999999985099,,pt2_realistic_rating,839419,Fictional_Cities_List/img_manmade_14.png,,51,Fictional_Cities_List/img_manmade_14.png,MM,3,,,,,,,,,,,,,,,
null,,confidence_buffer,839528,confidence_buffer,,null,,,,,,,,,,,,,,,,,,
733.6999999955297,,pt2_unique_rating,840263,Fictional_Cities_List/img_manmade_14.png,,51,,,3,,,,,,,,,,,,,,,
null,,confidence_buffer,840373,confidence_buffer,,null,,,,,,,,,,,,,,,,,,
1611.3999999985099,,probe_rating,841986,probe_rating,,52,,,,4,1,,,,,,,,,,,,,
null,,confidence_buffer,842089,confidence_buffer,,null,,,,,,,,,,,,,,,,,,
2459.1999999955297,,pt2_memorable_rating,844549,Fictional_Cities_List/img_manmade_14.png,,53,,,5,,,,,,,,,,,,,,,
null,,confidence_buffer,844655,confidence_buffer,,null,,,,,,,,,,,,,,,,,,
592.4000000059605,,recognition_phase,845249,Fictional_Cities_List/img_manmade_14.png,,49,,,,,,old,1,0.8333333333333334,,,,,,,,,,
null,,confidence_buffer,845353,confidence_buffer,,null,,,,,,,,,,,,,,,,,,
null,,thebreak,845863,break,,null,,,,,,,,,,,,,,,,,,
2225.0999999940395,,pt2_realistic_rating,848090,US_Cities_List/nat_carmel.png,,52,US_Cities_List/nat_carmel.png,NAT,4,,,,,,,,,,,,,,,
null,,confidence_buffer,848206,confidence_buffer,,null,,,,,,,,,,,,,,,,,,
696.3000000044703,,pt2_unique_rating,848904,US_Cities_List/nat_carmel.png,,52,,,4,,,,,,,,,,,,,,,
null,,confidence_buffer,849009,confidence_buffer,,null,,,,,,,,,,,,,,,,,,
755.3999999985099,,pt2_memorable_rating,849766,US_Cities_List/nat_carmel.png,,52,,,4,,,,,,,,,,,,,,,
null,,confidence_buffer,849874,confidence_buffer,,null,,,,,,,,,,,,,,,,,,
613.3999999985099,,recognition_phase,850490,US_Cities_List/nat_carmel.png,,52,,,,,,new,1,0.8363636363636363,,,,,,,,,,
null,,confidence_buffer,850597,confidence_buffer,,null,,,,,,,,,,,,,,,,,,
null,,thebreak,851108,break,,null,,,,,,,,,,,,,,,,,,
1840.1999999955297,,pt2_realistic_rating,852954,US_Cities_List/mm_athens.png,,51,US_Cities_List/mm_athens.png,MM,3,,,,,,,,,,,,,,,
null,,confidence_buffer,853059,confidence_buffer,,null,,,,,,,,,,,,,,,,,,
1000.8999999985099,,probe_rating,854061,probe_rating,,51,,,,3,1,,,,,,,,,,,,,
null,,confidence_buffer,854169,confidence_buffer,,null,,,,,,,,,,,,,,,,,,
4478.89999999851,,pt2_unique_rating,858649,US_Cities_List/mm_athens.png,,53,,,5,,,,,,,,,,,,,,,
null,,confidence_buffer,858759,confidence_buffer,,null,,,,,,,,,,,,,,,,,,
1850.2999999970198,,pt2_memorable_rating,860611,US_Cities_List/mm_athens.png,,53,,,5,,,,,,,,,,,,,,,
null,,confidence_buffer,860727,confidence_buffer,,null,,,,,,,,,,,,,,,,,,
2263.0999999940395,,recognition_phase,862991,US_Cities_List/mm_athens.png,,52,,,,,,new,1,0.8392857142857143,,,,,,,,,,
null,,confidence_buffer,863098,confidence_buffer,,null,,,,,,,,,,,,,,,,,,
null,,thebreak,863601,break,,null,,,,,,,,,,,,,,,,,,
34751.60000000149,,pt2_realistic_rating,898354,Fictional_Cities_List/img_natural_04.png,,53,Fictional_Cities_List/img_natural_04.png,NAT,5,,,,,,,,,,,,,,,
null,,confidence_buffer,898456,confidence_buffer,,null,,,,,,,,,,,,,,,,,,
1101.8000000044703,,pt2_unique_rating,899560,Fictional_Cities_List/img_natural_04.png,,53,,,5,,,,,,,,,,,,,,,
null,,confidence_buffer,899671,confidence_buffer,,null,,,,,,,,,,,,,,,,,,
1164.9000000059605,,pt2_memorable_rating,900837,Fictional_Cities_List/img_natural_04.png,,53,,,5,,,,,,,,,,,,,,,
null,,confidence_buffer,900942,confidence_buffer,,null,,,,,,,,,,,,,,,,,,
2166.1999999955297,,recognition_phase,903109,Fictional_Cities_List/img_natural_04.png,,49,,,,,,old,1,0.8421052631578947,,,,,,,,,,
null,,confidence_buffer,903217,confidence_buffer,,null,,,,,,,,,,,,,,,,,,
null,,thebreak,903727,break,,null,,,,,,,,,,,,,,,,,,
1500.3999999985099,,pt2_realistic_rating,905229,US_Cities_List/nat_cornwall.png,,52,US_Cities_List/nat_cornwall.png,NAT,4,,,,,,,,,,,,,,,
null,,confidence_buffer,905336,confidence_buffer,,null,,,,,,,,,,,,,,,,,,
1299.1000000014901,,probe_rating,906637,probe_rating,,51,,,,3,1,,,,,,,,,,,,,
null,,confidence_buffer,906749,confidence_buffer,,null,,,,,,,,,,,,,,,,,,
1875.3999999985099,,pt2_unique_rating,908626,US_Cities_List/nat_cornwall.png,,53,,,5,,,,,,,,,,,,,,,
null,,confidence_buffer,908737,confidence_buffer,,null,,,,,,,,,,,,,,,,,,
782.7999999970198,,pt2_memorable_rating,909521,US_Cities_List/nat_cornwall.png,,53,,,5,,,,,,,,,,,,,,,
null,,confidence_buffer,909627,confidence_buffer,,null,,,,,,,,,,,,,,,,,,
1764.6999999955297,,recognition_phase,911394,US_Cities_List/nat_cornwall.png,,52,,,,,,new,1,0.8448275862068966,,,,,,,,,,
null,,confidence_buffer,911499,confidence_buffer,,null,,,,,,,,,,,,,,,,,,
null,,thebreak,912002,break,,null,,,,,,,,,,,,,,,,,,
1845.3999999985099,,pt2_realistic_rating,913848,Fictional_Cities_List/img_natural_38.png,,51,Fictional_Cities_List/img_natural_38.png,NAT,3,,,,,,,,,,,,,,,
null,,confidence_buffer,913953,confidence_buffer,,null,,,,,,,,,,,,,,,,,,
950.8000000044703,,pt2_unique_rating,914906,Fictional_Cities_List/img_natural_38.png,,51,,,3,,,,,,,,,,,,,,,
null,,confidence_buffer,915022,confidence_buffer,,null,,,,,,,,,,,,,,,,,,
1401.6999999955297,,probe_rating,916425,probe_rating,,53,,,,5,1,,,,,,,,,,,,,
null,,confidence_buffer,916534,confidence_buffer,,null,,,,,,,,,,,,,,,,,,
1979.8999999985099,,pt2_memorable_rating,918516,Fictional_Cities_List/img_natural_38.png,,53,,,5,,,,,,,,,,,,,,,
null,,confidence_buffer,918633,confidence_buffer,,null,,,,,,,,,,,,,,,,,,
2446.7000000029802,,recognition_phase,921081,Fictional_Cities_List/img_natural_38.png,,49,,,,,,old,1,0.847457627118644,,,,,,,,,,
null,,confidence_buffer,921188,confidence_buffer,,null,,,,,,,,,,,,,,,,,,
null,,thebreak,921691,break,,null,,,,,,,,,,,,,,,,,,
2070.60000000149,,pt2_realistic_rating,923763,US_Cities_List/mm_coeurdalene.png,,52,US_Cities_List/mm_coeurdalene.png,MM,4,,,,,,,,,,,,,,,
null,,confidence_buffer,923879,confidence_buffer,,null,,,,,,,,,,,,,,,,,,
614.1999999955297,,pt2_unique_rating,924494,US_Cities_List/mm_coeurdalene.png,,52,,,4,,,,,,,,,,,,,,,
null,,confidence_buffer,924601,confidence_buffer,,null,,,,,,,,,,,,,,,,,,
514.2999999970198,,pt2_memorable_rating,925116,US_Cities_List/mm_coeurdalene.png,,52,,,4,,,,,,,,,,,,,,,
null,,confidence_buffer,925225,confidence_buffer,,null,,,,,,,,,,,,,,,,,,
1328.2000000029802,,recognition_phase,926554,US_Cities_List/mm_coeurdalene.png,,50,,,,,,old,1,0.85,,,,,,,,,,
null,,confidence_buffer,926664,confidence_buffer,,null,,,,,,,,,,,,,,,,,,
null,,thebreak,927172,break,,null,,,,,,,,,,,,,,,,,,
,,survey,1042054,survey-questions,,,,,,,,,,,none,high,rating images,view,yes,yes,yes,yes,no,no
