rt,responses,trial_type,time_elapsed,stimulus,button_pressed,key_press,name_trial,city_type,rating,probe,probe_accuracy,response,correct,accuracy,problems,smooth,distraction,strategies,familiar,memorable,unique,realistic,similar,comments
14809.200000017881,{worker_id:67b664e600a3dbd58913a9b0},id_enter,14812,,,,,,,,,,,,,,,,,,,,,
39962,,fullscreen,54780,fullscreen,0,,,,,,,,,,,,,,,,,,,
7492,,intro_0,62274,instruct,,32,,,,,,,,,,,,,,,,,,
13334.59999999404,,intro_1,75610,instruct,,32,,,,,,,,,,,,,,,,,,
97000.30000001192,,intro_2,172614,instruct,,32,,,,,,,,,,,,,,,,,,
null,,instruct_dir_4,174117,instruct,,null,,,,,,,,,,,,,,,,,,
null,,thebreak,174620,break,,null,,,,,,,,,,,,,,,,,,
13758.59999999404,,familiar_rating,188380,US_Cities_List/mm_bisbee.png,,50,US_Cities_List/mm_bisbee.png,MM,2,,,,,,,,,,,,,,,
null,,confidence_buffer,188483,confidence_buffer,,null,,,,,,,,,,,,,,,,,,
10547.59999999404,,unique_rating,199032,US_Cities_List/mm_bisbee.png,,51,,,3,,,,,,,,,,,,,,,
null,,confidence_buffer,199136,confidence_buffer,,null,,,,,,,,,,,,,,,,,,
12965.90000000596,,memorable_rating,212103,US_Cities_List/mm_bisbee.png,,50,,,2,,,,,,,,,,,,,,,
null,,confidence_buffer,212206,confidence_buffer,,null,,,,,,,,,,,,,,,,,,
null,,thebreak,212708,break,,null,,,,,,,,,,,,,,,,,,
11069.299999982119,,familiar_rating,223779,Fictional_Cities_List/img_manmade_02.png,,52,Fictional_Cities_List/img_manmade_02.png,MM,4,,,,,,,,,,,,,,,
null,,confidence_buffer,223882,confidence_buffer,,null,,,,,,,,,,,,,,,,,,
3729.5,,unique_rating,227613,Fictional_Cities_List/img_manmade_02.png,,52,,,4,,,,,,,,,,,,,,,
null,,confidence_buffer,227716,confidence_buffer,,null,,,,,,,,,,,,,,,,,,
4275.799999982119,,probe_rating,231993,probe_rating,,49,,,,1,1,,,,,,,,,,,,,
null,,confidence_buffer,232096,confidence_buffer,,null,,,,,,,,,,,,,,,,,,
58697.79999998212,,memorable_rating,290797,Fictional_Cities_List/img_manmade_02.png,,52,,,4,,,,,,,,,,,,,,,
null,,confidence_buffer,290901,confidence_buffer,,null,,,,,,,,,,,,,,,,,,
null,,thebreak,291402,break,,null,,,,,,,,,,,,,,,,,,
9311.40000000596,,familiar_rating,300715,US_Cities_List/mm_boulder.png,,50,US_Cities_List/mm_boulder.png,MM,2,,,,,,,,,,,,,,,
null,,confidence_buffer,300817,confidence_buffer,,null,,,,,,,,,,,,,,,,,,
2221.399999976158,,unique_rating,303040,US_Cities_List/mm_boulder.png,,53,,,5,,,,,,,,,,,,,,,
null,,confidence_buffer,303142,confidence_buffer,,null,,,,,,,,,,,,,,,,,,
1390.300000011921,,memorable_rating,304534,US_Cities_List/mm_boulder.png,,53,,,5,,,,,,,,,,,,,,,
null,,confidence_buffer,304636,confidence_buffer,,null,,,,,,,,,,,,,,,,,,
null,,thebreak,305137,break,,null,,,,,,,,,,,,,,,,,,
23910,,familiar_rating,329049,US_Cities_List/nat_bisbee.png,,51,US_Cities_List/nat_bisbee.png,NAT,3,,,,,,,,,,,,,,,
null,,confidence_buffer,329152,confidence_buffer,,null,,,,,,,,,,,,,,,,,,
3282.800000011921,,unique_rating,332436,US_Cities_List/nat_bisbee.png,,51,,,3,,,,,,,,,,,,,,,
null,,confidence_buffer,332538,confidence_buffer,,null,,,,,,,,,,,,,,,,,,
4180.5,,memorable_rating,336720,US_Cities_List/nat_bisbee.png,,52,,,4,,,,,,,,,,,,,,,
null,,confidence_buffer,336823,confidence_buffer,,null,,,,,,,,,,,,,,,,,,
null,,thebreak,337325,break,,null,,,,,,,,,,,,,,,,,,
5736.9000000059605,,familiar_rating,343064,Fictional_Cities_List/img_manmade_03.png,,50,Fictional_Cities_List/img_manmade_03.png,MM,2,,,,,,,,,,,,,,,
null,,confidence_buffer,343166,confidence_buffer,,null,,,,,,,,,,,,,,,,,,
121469.30000001192,,unique_rating,464641,Fictional_Cities_List/img_manmade_03.png,,51,,,3,,,,,,,,,,,,,,,
null,,confidence_buffer,464743,confidence_buffer,,null,,,,,,,,,,,,,,,,,,
2897.4000000059605,,memorable_rating,467642,Fictional_Cities_List/img_manmade_03.png,,50,,,2,,,,,,,,,,,,,,,
null,,confidence_buffer,467743,confidence_buffer,,null,,,,,,,,,,,,,,,,,,
null,,thebreak,468246,break,,null,,,,,,,,,,,,,,,,,,
18986.399999976158,,familiar_rating,487234,US_Cities_List/mm_westpalmbeach.png,,50,US_Cities_List/mm_westpalmbeach.png,MM,2,,,,,,,,,,,,,,,
null,,confidence_buffer,487337,confidence_buffer,,null,,,,,,,,,,,,,,,,,,
2371.699999988079,,unique_rating,489710,US_Cities_List/mm_westpalmbeach.png,,52,,,4,,,,,,,,,,,,,,,
null,,confidence_buffer,489812,confidence_buffer,,null,,,,,,,,,,,,,,,,,,
3261,,memorable_rating,493074,US_Cities_List/mm_westpalmbeach.png,,51,,,3,,,,,,,,,,,,,,,
null,,confidence_buffer,493177,confidence_buffer,,null,,,,,,,,,,,,,,,,,,
null,,thebreak,493680,break,,null,,,,,,,,,,,,,,,,,,
8555.799999982119,,familiar_rating,502237,Fictional_Cities_List/img_natural_35.png,,51,Fictional_Cities_List/img_natural_35.png,NAT,3,,,,,,,,,,,,,,,
null,,confidence_buffer,502339,confidence_buffer,,null,,,,,,,,,,,,,,,,,,
1364.0999999940395,,unique_rating,503705,Fictional_Cities_List/img_natural_35.png,,52,,,4,,,,,,,,,,,,,,,
null,,confidence_buffer,503807,confidence_buffer,,null,,,,,,,,,,,,,,,,,,
883.5999999940395,,memorable_rating,504692,Fictional_Cities_List/img_natural_35.png,,50,,,2,,,,,,,,,,,,,,,
null,,confidence_buffer,504795,confidence_buffer,,null,,,,,,,,,,,,,,,,,,
null,,thebreak,505298,break,,null,,,,,,,,,,,,,,,,,,
2599.899999976158,,familiar_rating,507899,Fictional_Cities_List/img_manmade_33.png,,51,Fictional_Cities_List/img_manmade_33.png,MM,3,,,,,,,,,,,,,,,
null,,confidence_buffer,508002,confidence_buffer,,null,,,,,,,,,,,,,,,,,,
2638.399999976158,,unique_rating,510642,Fictional_Cities_List/img_manmade_33.png,,53,,,5,,,,,,,,,,,,,,,
null,,confidence_buffer,510745,confidence_buffer,,null,,,,,,,,,,,,,,,,,,
4102.5,,memorable_rating,514849,Fictional_Cities_List/img_manmade_33.png,,52,,,4,,,,,,,,,,,,,,,
null,,confidence_buffer,514951,confidence_buffer,,null,,,,,,,,,,,,,,,,,,
null,,thebreak,515452,break,,null,,,,,,,,,,,,,,,,,,
4253.800000011921,,familiar_rating,519707,US_Cities_List/mm_hilo.png,,51,US_Cities_List/mm_hilo.png,MM,3,,,,,,,,,,,,,,,
null,,confidence_buffer,519809,confidence_buffer,,null,,,,,,,,,,,,,,,,,,
6352.9000000059605,,unique_rating,526164,US_Cities_List/mm_hilo.png,,52,,,4,,,,,,,,,,,,,,,
null,,confidence_buffer,526266,confidence_buffer,,null,,,,,,,,,,,,,,,,,,
1409.5,,memorable_rating,527677,US_Cities_List/mm_hilo.png,,52,,,4,,,,,,,,,,,,,,,
null,,confidence_buffer,527780,confidence_buffer,,null,,,,,,,,,,,,,,,,,,
null,,thebreak,528282,break,,null,,,,,,,,,,,,,,,,,,
2932.600000023842,,familiar_rating,531216,US_Cities_List/mm_coeurdalene.png,,53,US_Cities_List/mm_coeurdalene.png,MM,5,,,,,,,,,,,,,,,
null,,confidence_buffer,531318,confidence_buffer,,null,,,,,,,,,,,,,,,,,,
3090.0999999940395,,unique_rating,534410,US_Cities_List/mm_coeurdalene.png,,53,,,5,,,,,,,,,,,,,,,
null,,confidence_buffer,534513,confidence_buffer,,null,,,,,,,,,,,,,,,,,,
2433.4000000059605,,memorable_rating,536948,US_Cities_List/mm_coeurdalene.png,,53,,,5,,,,,,,,,,,,,,,
null,,confidence_buffer,537051,confidence_buffer,,null,,,,,,,,,,,,,,,,,,
null,,thebreak,537553,break,,null,,,,,,,,,,,,,,,,,,
19273,,familiar_rating,556828,US_Cities_List/mm_abilene.png,,51,US_Cities_List/mm_abilene.png,MM,3,,,,,,,,,,,,,,,
null,,confidence_buffer,556931,confidence_buffer,,null,,,,,,,,,,,,,,,,,,
3415.300000011921,,unique_rating,560348,US_Cities_List/mm_abilene.png,,52,,,4,,,,,,,,,,,,,,,
null,,confidence_buffer,560451,confidence_buffer,,null,,,,,,,,,,,,,,,,,,
2028.3999999761581,,memorable_rating,562481,US_Cities_List/mm_abilene.png,,53,,,5,,,,,,,,,,,,,,,
null,,confidence_buffer,562583,confidence_buffer,,null,,,,,,,,,,,,,,,,,,
null,,thebreak,563086,break,,null,,,,,,,,,,,,,,,,,,
7830.199999988079,,familiar_rating,570918,Fictional_Cities_List/img_natural_29.png,,49,Fictional_Cities_List/img_natural_29.png,NAT,1,,,,,,,,,,,,,,,
null,,confidence_buffer,571020,confidence_buffer,,null,,,,,,,,,,,,,,,,,,
2806.7999999821186,,unique_rating,573829,Fictional_Cities_List/img_natural_29.png,,50,,,2,,,,,,,,,,,,,,,
null,,confidence_buffer,573930,confidence_buffer,,null,,,,,,,,,,,,,,,,,,
1173.300000011921,,memorable_rating,575105,Fictional_Cities_List/img_natural_29.png,,49,,,1,,,,,,,,,,,,,,,
null,,confidence_buffer,575208,confidence_buffer,,null,,,,,,,,,,,,,,,,,,
null,,thebreak,575710,break,,null,,,,,,,,,,,,,,,,,,
4459.800000011921,,familiar_rating,580171,US_Cities_List/nat_boulder.png,,49,US_Cities_List/nat_boulder.png,NAT,1,,,,,,,,,,,,,,,
null,,confidence_buffer,580273,confidence_buffer,,null,,,,,,,,,,,,,,,,,,
3213.0999999940395,,unique_rating,583488,US_Cities_List/nat_boulder.png,,50,,,2,,,,,,,,,,,,,,,
null,,confidence_buffer,583591,confidence_buffer,,null,,,,,,,,,,,,,,,,,,
1298.9000000059605,,memorable_rating,584891,US_Cities_List/nat_boulder.png,,51,,,3,,,,,,,,,,,,,,,
null,,confidence_buffer,584993,confidence_buffer,,null,,,,,,,,,,,,,,,,,,
null,,thebreak,585495,break,,null,,,,,,,,,,,,,,,,,,
64102.80000001192,,familiar_rating,649601,US_Cities_List/nat_abilene.png,,51,US_Cities_List/nat_abilene.png,NAT,3,,,,,,,,,,,,,,,
null,,confidence_buffer,649705,confidence_buffer,,null,,,,,,,,,,,,,,,,,,
3059.100000023842,,unique_rating,652765,US_Cities_List/nat_abilene.png,,52,,,4,,,,,,,,,,,,,,,
null,,confidence_buffer,652867,confidence_buffer,,null,,,,,,,,,,,,,,,,,,
1275.0999999940395,,memorable_rating,654143,US_Cities_List/nat_abilene.png,,53,,,5,,,,,,,,,,,,,,,
null,,confidence_buffer,654247,confidence_buffer,,null,,,,,,,,,,,,,,,,,,
4006.800000011921,,probe_rating,658255,probe_rating,,51,,,,3,1,,,,,,,,,,,,,
null,,confidence_buffer,658358,confidence_buffer,,null,,,,,,,,,,,,,,,,,,
null,,thebreak,658861,break,,null,,,,,,,,,,,,,,,,,,
12099.799999982119,,familiar_rating,670963,US_Cities_List/nat_healdsburg.png,,50,US_Cities_List/nat_healdsburg.png,NAT,2,,,,,,,,,,,,,,,
null,,confidence_buffer,671065,confidence_buffer,,null,,,,,,,,,,,,,,,,,,
7409.199999988079,,unique_rating,678476,US_Cities_List/nat_healdsburg.png,,52,,,4,,,,,,,,,,,,,,,
null,,confidence_buffer,678578,confidence_buffer,,null,,,,,,,,,,,,,,,,,,
3696.800000011921,,probe_rating,682276,probe_rating,,52,,,,4,1,,,,,,,,,,,,,
null,,confidence_buffer,682380,confidence_buffer,,null,,,,,,,,,,,,,,,,,,
8483.100000023842,,memorable_rating,690865,US_Cities_List/nat_healdsburg.png,,53,,,5,,,,,,,,,,,,,,,
null,,confidence_buffer,690967,confidence_buffer,,null,,,,,,,,,,,,,,,,,,
null,,thebreak,691468,break,,null,,,,,,,,,,,,,,,,,,
3522.5999999940395,,familiar_rating,694992,Fictional_Cities_List/img_natural_39.png,,53,Fictional_Cities_List/img_natural_39.png,NAT,5,,,,,,,,,,,,,,,
null,,confidence_buffer,695094,confidence_buffer,,null,,,,,,,,,,,,,,,,,,
2627.800000011921,,unique_rating,697723,Fictional_Cities_List/img_natural_39.png,,53,,,5,,,,,,,,,,,,,,,
null,,confidence_buffer,697826,confidence_buffer,,null,,,,,,,,,,,,,,,,,,
1240.9000000059605,,memorable_rating,699068,Fictional_Cities_List/img_natural_39.png,,53,,,5,,,,,,,,,,,,,,,
null,,confidence_buffer,699170,confidence_buffer,,null,,,,,,,,,,,,,,,,,,
null,,thebreak,699673,break,,null,,,,,,,,,,,,,,,,,,
60527.69999998808,,familiar_rating,760204,Fictional_Cities_List/img_natural_33.png,,49,Fictional_Cities_List/img_natural_33.png,NAT,1,,,,,,,,,,,,,,,
null,,confidence_buffer,760307,confidence_buffer,,null,,,,,,,,,,,,,,,,,,
9384.699999988079,,unique_rating,769693,Fictional_Cities_List/img_natural_33.png,,51,,,3,,,,,,,,,,,,,,,
null,,confidence_buffer,769795,confidence_buffer,,null,,,,,,,,,,,,,,,,,,
3680.0999999940395,,memorable_rating,773476,Fictional_Cities_List/img_natural_33.png,,53,,,5,,,,,,,,,,,,,,,
null,,confidence_buffer,773578,confidence_buffer,,null,,,,,,,,,,,,,,,,,,
null,,thebreak,774081,break,,null,,,,,,,,,,,,,,,,,,
42988.29999998212,,familiar_rating,817072,US_Cities_List/mm_hotsprings.png,,53,US_Cities_List/mm_hotsprings.png,MM,5,,,,,,,,,,,,,,,
null,,confidence_buffer,817174,confidence_buffer,,null,,,,,,,,,,,,,,,,,,
3450.0999999940395,,unique_rating,820625,US_Cities_List/mm_hotsprings.png,,53,,,5,,,,,,,,,,,,,,,
null,,confidence_buffer,820729,confidence_buffer,,null,,,,,,,,,,,,,,,,,,
3671.5999999940395,,memorable_rating,824402,US_Cities_List/mm_hotsprings.png,,53,,,5,,,,,,,,,,,,,,,
null,,confidence_buffer,824505,confidence_buffer,,null,,,,,,,,,,,,,,,,,,
null,,thebreak,825007,break,,null,,,,,,,,,,,,,,,,,,
15496,,familiar_rating,840505,Fictional_Cities_List/img_natural_49.png,,52,Fictional_Cities_List/img_natural_49.png,NAT,4,,,,,,,,,,,,,,,
null,,confidence_buffer,840608,confidence_buffer,,null,,,,,,,,,,,,,,,,,,
13312.699999988079,,unique_rating,853923,Fictional_Cities_List/img_natural_49.png,,53,,,5,,,,,,,,,,,,,,,
null,,confidence_buffer,854025,confidence_buffer,,null,,,,,,,,,,,,,,,,,,
1732.3999999761581,,memorable_rating,855759,Fictional_Cities_List/img_natural_49.png,,53,,,5,,,,,,,,,,,,,,,
null,,confidence_buffer,855863,confidence_buffer,,null,,,,,,,,,,,,,,,,,,
null,,thebreak,856366,break,,null,,,,,,,,,,,,,,,,,,
5094.0999999940395,,familiar_rating,861461,US_Cities_List/mm_peoria.png,,49,US_Cities_List/mm_peoria.png,MM,1,,,,,,,,,,,,,,,
null,,confidence_buffer,861564,confidence_buffer,,null,,,,,,,,,,,,,,,,,,
1995.0999999940395,,unique_rating,863561,US_Cities_List/mm_peoria.png,,51,,,3,,,,,,,,,,,,,,,
null,,confidence_buffer,863662,confidence_buffer,,null,,,,,,,,,,,,,,,,,,
1761.199999988079,,memorable_rating,865425,US_Cities_List/mm_peoria.png,,51,,,3,,,,,,,,,,,,,,,
null,,confidence_buffer,865527,confidence_buffer,,null,,,,,,,,,,,,,,,,,,
null,,thebreak,866030,break,,null,,,,,,,,,,,,,,,,,,
3794.100000023842,,familiar_rating,869826,Fictional_Cities_List/img_manmade_29.png,,49,Fictional_Cities_List/img_manmade_29.png,MM,1,,,,,,,,,,,,,,,
null,,confidence_buffer,869929,confidence_buffer,,null,,,,,,,,,,,,,,,,,,
1960.300000011921,,unique_rating,871891,Fictional_Cities_List/img_manmade_29.png,,53,,,5,,,,,,,,,,,,,,,
null,,confidence_buffer,871994,confidence_buffer,,null,,,,,,,,,,,,,,,,,,
858.9000000059605,,memorable_rating,872854,Fictional_Cities_List/img_manmade_29.png,,53,,,5,,,,,,,,,,,,,,,
null,,confidence_buffer,872956,confidence_buffer,,null,,,,,,,,,,,,,,,,,,
1821.6000000238419,,probe_rating,874780,probe_rating,,51,,,,3,1,,,,,,,,,,,,,
null,,confidence_buffer,874881,confidence_buffer,,null,,,,,,,,,,,,,,,,,,
null,,thebreak,875384,break,,null,,,,,,,,,,,,,,,,,,
2818.5,,familiar_rating,878204,Fictional_Cities_List/img_manmade_39.png,,53,Fictional_Cities_List/img_manmade_39.png,MM,5,,,,,,,,,,,,,,,
null,,confidence_buffer,878307,confidence_buffer,,null,,,,,,,,,,,,,,,,,,
2366.2000000178814,,unique_rating,880675,Fictional_Cities_List/img_manmade_39.png,,51,,,3,,,,,,,,,,,,,,,
null,,confidence_buffer,880777,confidence_buffer,,null,,,,,,,,,,,,,,,,,,
2404.800000011921,,memorable_rating,883183,Fictional_Cities_List/img_manmade_39.png,,52,,,4,,,,,,,,,,,,,,,
null,,confidence_buffer,883285,confidence_buffer,,null,,,,,,,,,,,,,,,,,,
null,,thebreak,883788,break,,null,,,,,,,,,,,,,,,,,,
2689.5999999940395,,familiar_rating,886479,US_Cities_List/nat_athens.png,,53,US_Cities_List/nat_athens.png,NAT,5,,,,,,,,,,,,,,,
null,,confidence_buffer,886583,confidence_buffer,,null,,,,,,,,,,,,,,,,,,
3673.5,,unique_rating,890258,US_Cities_List/nat_athens.png,,51,,,3,,,,,,,,,,,,,,,
null,,confidence_buffer,890361,confidence_buffer,,null,,,,,,,,,,,,,,,,,,
2568.9000000059605,,memorable_rating,892932,US_Cities_List/nat_athens.png,,50,,,2,,,,,,,,,,,,,,,
null,,confidence_buffer,893035,confidence_buffer,,null,,,,,,,,,,,,,,,,,,
null,,thebreak,893536,break,,null,,,,,,,,,,,,,,,,,,
3262.5999999940395,,familiar_rating,896801,US_Cities_List/nat_delawarecity.png,,52,US_Cities_List/nat_delawarecity.png,NAT,4,,,,,,,,,,,,,,,
null,,confidence_buffer,896902,confidence_buffer,,null,,,,,,,,,,,,,,,,,,
2858.199999988079,,unique_rating,899762,US_Cities_List/nat_delawarecity.png,,50,,,2,,,,,,,,,,,,,,,
null,,confidence_buffer,899864,confidence_buffer,,null,,,,,,,,,,,,,,,,,,
1472.699999988079,,memorable_rating,901339,US_Cities_List/nat_delawarecity.png,,50,,,2,,,,,,,,,,,,,,,
null,,confidence_buffer,901441,confidence_buffer,,null,,,,,,,,,,,,,,,,,,
null,,thebreak,901945,break,,null,,,,,,,,,,,,,,,,,,
3177.4000000059605,,familiar_rating,905124,Fictional_Cities_List/img_natural_25.png,,52,Fictional_Cities_List/img_natural_25.png,NAT,4,,,,,,,,,,,,,,,
null,,confidence_buffer,905226,confidence_buffer,,null,,,,,,,,,,,,,,,,,,
6145.200000017881,,probe_rating,911373,probe_rating,,52,,,,4,1,,,,,,,,,,,,,
null,,confidence_buffer,911477,confidence_buffer,,null,,,,,,,,,,,,,,,,,,
7274,,unique_rating,918752,Fictional_Cities_List/img_natural_25.png,,52,,,4,,,,,,,,,,,,,,,
null,,confidence_buffer,918856,confidence_buffer,,null,,,,,,,,,,,,,,,,,,
2317.300000011921,,memorable_rating,921174,Fictional_Cities_List/img_natural_25.png,,52,,,4,,,,,,,,,,,,,,,
null,,confidence_buffer,921277,confidence_buffer,,null,,,,,,,,,,,,,,,,,,
null,,thebreak,921780,break,,null,,,,,,,,,,,,,,,,,,
3244.800000011921,,familiar_rating,925026,US_Cities_List/nat_cornwall.png,,51,US_Cities_List/nat_cornwall.png,NAT,3,,,,,,,,,,,,,,,
null,,confidence_buffer,925128,confidence_buffer,,null,,,,,,,,,,,,,,,,,,
2631.699999988079,,probe_rating,927761,probe_rating,,51,,,,3,1,,,,,,,,,,,,,
null,,confidence_buffer,927863,confidence_buffer,,null,,,,,,,,,,,,,,,,,,
7034.700000017881,,unique_rating,934900,US_Cities_List/nat_cornwall.png,,52,,,4,,,,,,,,,,,,,,,
null,,confidence_buffer,935003,confidence_buffer,,null,,,,,,,,,,,,,,,,,,
5008.800000011921,,memorable_rating,940013,US_Cities_List/nat_cornwall.png,,51,,,3,,,,,,,,,,,,,,,
null,,confidence_buffer,940116,confidence_buffer,,null,,,,,,,,,,,,,,,,,,
null,,thebreak,940619,break,,null,,,,,,,,,,,,,,,,,,
3426.199999988079,,familiar_rating,944047,Fictional_Cities_List/img_manmade_35.png,,51,Fictional_Cities_List/img_manmade_35.png,MM,3,,,,,,,,,,,,,,,
null,,confidence_buffer,944149,confidence_buffer,,null,,,,,,,,,,,,,,,,,,
2793,,unique_rating,946944,Fictional_Cities_List/img_manmade_35.png,,53,,,5,,,,,,,,,,,,,,,
null,,confidence_buffer,947047,confidence_buffer,,null,,,,,,,,,,,,,,,,,,
7912.5,,memorable_rating,954962,Fictional_Cities_List/img_manmade_35.png,,53,,,5,,,,,,,,,,,,,,,
null,,confidence_buffer,955064,confidence_buffer,,null,,,,,,,,,,,,,,,,,,
null,,thebreak,955568,break,,null,,,,,,,,,,,,,,,,,,
20844.5,,familiar_rating,976414,Fictional_Cities_List/img_natural_36.png,,51,Fictional_Cities_List/img_natural_36.png,NAT,3,,,,,,,,,,,,,,,
null,,confidence_buffer,976516,confidence_buffer,,null,,,,,,,,,,,,,,,,,,
1893.9000000059605,,unique_rating,978411,Fictional_Cities_List/img_natural_36.png,,49,,,1,,,,,,,,,,,,,,,
null,,confidence_buffer,978515,confidence_buffer,,null,,,,,,,,,,,,,,,,,,
1328.199999988079,,memorable_rating,979844,Fictional_Cities_List/img_natural_36.png,,49,,,1,,,,,,,,,,,,,,,
null,,confidence_buffer,979947,confidence_buffer,,null,,,,,,,,,,,,,,,,,,
null,,thebreak,980450,break,,null,,,,,,,,,,,,,,,,,,
29541.30000001192,,familiar_rating,1009994,Fictional_Cities_List/img_manmade_15.png,,52,Fictional_Cities_List/img_manmade_15.png,MM,4,,,,,,,,,,,,,,,
null,,confidence_buffer,1010095,confidence_buffer,,null,,,,,,,,,,,,,,,,,,
2578.9000000059605,,probe_rating,1012676,probe_rating,,51,,,,3,1,,,,,,,,,,,,,
null,,confidence_buffer,1012779,confidence_buffer,,null,,,,,,,,,,,,,,,,,,
2348.199999988079,,unique_rating,1015129,Fictional_Cities_List/img_manmade_15.png,,52,,,4,,,,,,,,,,,,,,,
null,,confidence_buffer,1015232,confidence_buffer,,null,,,,,,,,,,,,,,,,,,
1636.2999999821186,,memorable_rating,1016869,Fictional_Cities_List/img_manmade_15.png,,51,,,3,,,,,,,,,,,,,,,
null,,confidence_buffer,1016972,confidence_buffer,,null,,,,,,,,,,,,,,,,,,
null,,thebreak,1017474,break,,null,,,,,,,,,,,,,,,,,,
5662.4000000059605,,familiar_rating,1023138,Fictional_Cities_List/img_natural_07.png,,52,Fictional_Cities_List/img_natural_07.png,NAT,4,,,,,,,,,,,,,,,
null,,confidence_buffer,1023240,confidence_buffer,,null,,,,,,,,,,,,,,,,,,
1812.0999999940395,,unique_rating,1025053,Fictional_Cities_List/img_natural_07.png,,51,,,3,,,,,,,,,,,,,,,
null,,confidence_buffer,1025156,confidence_buffer,,null,,,,,,,,,,,,,,,,,,
1607.7000000178814,,memorable_rating,1026766,Fictional_Cities_List/img_natural_07.png,,52,,,4,,,,,,,,,,,,,,,
null,,confidence_buffer,1026868,confidence_buffer,,null,,,,,,,,,,,,,,,,,,
null,,thebreak,1027371,break,,null,,,,,,,,,,,,,,,,,,
6997.799999982119,,intro_0,1034371,instruct,,32,,,,,,,,,,,,,,,,,,
71337.59999999404,,intro_1,1105711,instruct,,32,,,,,,,,,,,,,,,,,,
66943.39999997616,,intro_2,1172657,instruct,,32,,,,,,,,,,,,,,,,,,
null,,instruct_dir_4,1174161,instruct,,null,,,,,,,,,,,,,,,,,,
3560,,pt2_realistic_rating,1177722,Fictional_Cities_List/img_manmade_25.png,,50,Fictional_Cities_List/img_manmade_25.png,MM,2,,,,,,,,,,,,,,,
null,,confidence_buffer,1177825,confidence_buffer,,null,,,,,,,,,,,,,,,,,,
10493.09999999404,,pt2_unique_rating,1188320,Fictional_Cities_List/img_manmade_25.png,,52,,,4,,,,,,,,,,,,,,,
null,,confidence_buffer,1188423,confidence_buffer,,null,,,,,,,,,,,,,,,,,,
2328.0999999940395,,pt2_memorable_rating,1190753,Fictional_Cities_List/img_manmade_25.png,,52,,,4,,,,,,,,,,,,,,,
null,,confidence_buffer,1190855,confidence_buffer,,null,,,,,,,,,,,,,,,,,,
10986.5,,recognition_phase,1201843,Fictional_Cities_List/img_manmade_25.png,,52,,,,,,new,1,1,,,,,,,,,,
null,,confidence_buffer,1201946,confidence_buffer,,null,,,,,,,,,,,,,,,,,,
null,,thebreak,1202449,break,,null,,,,,,,,,,,,,,,,,,
10810.699999988079,,pt2_realistic_rating,1213262,Fictional_Cities_List/img_manmade_33.png,,52,Fictional_Cities_List/img_manmade_33.png,MM,4,,,,,,,,,,,,,,,
null,,confidence_buffer,1213364,confidence_buffer,,null,,,,,,,,,,,,,,,,,,
2354.300000011921,,pt2_unique_rating,1215720,Fictional_Cities_List/img_manmade_33.png,,52,,,4,,,,,,,,,,,,,,,
null,,confidence_buffer,1215823,confidence_buffer,,null,,,,,,,,,,,,,,,,,,
5905.799999982119,,pt2_memorable_rating,1221730,Fictional_Cities_List/img_manmade_33.png,,52,,,4,,,,,,,,,,,,,,,
null,,confidence_buffer,1221833,confidence_buffer,,null,,,,,,,,,,,,,,,,,,
3207.2999999821186,,recognition_phase,1225042,Fictional_Cities_List/img_manmade_33.png,,49,,,,,,old,1,1,,,,,,,,,,
null,,confidence_buffer,1225145,confidence_buffer,,null,,,,,,,,,,,,,,,,,,
null,,thebreak,1225648,break,,null,,,,,,,,,,,,,,,,,,
6985.5999999940395,,pt2_realistic_rating,1232635,Fictional_Cities_List/img_natural_49.png,,53,Fictional_Cities_List/img_natural_49.png,NAT,5,,,,,,,,,,,,,,,
null,,confidence_buffer,1232738,confidence_buffer,,null,,,,,,,,,,,,,,,,,,
4068.5,,pt2_unique_rating,1236808,Fictional_Cities_List/img_natural_49.png,,52,,,4,,,,,,,,,,,,,,,
null,,confidence_buffer,1236911,confidence_buffer,,null,,,,,,,,,,,,,,,,,,
16033.800000011921,,pt2_memorable_rating,1252947,Fictional_Cities_List/img_natural_49.png,,52,,,4,,,,,,,,,,,,,,,
null,,confidence_buffer,1253049,confidence_buffer,,null,,,,,,,,,,,,,,,,,,
3654.800000011921,,recognition_phase,1256706,Fictional_Cities_List/img_natural_49.png,,49,,,,,,old,1,1,,,,,,,,,,
null,,confidence_buffer,1256807,confidence_buffer,,null,,,,,,,,,,,,,,,,,,
null,,thebreak,1257311,break,,null,,,,,,,,,,,,,,,,,,
5870.699999988079,,pt2_realistic_rating,1263183,US_Cities_List/mm_abilene.png,,53,US_Cities_List/mm_abilene.png,MM,5,,,,,,,,,,,,,,,
null,,confidence_buffer,1263286,confidence_buffer,,null,,,,,,,,,,,,,,,,,,
1552,,pt2_unique_rating,1264840,US_Cities_List/mm_abilene.png,,52,,,4,,,,,,,,,,,,,,,
null,,confidence_buffer,1264942,confidence_buffer,,null,,,,,,,,,,,,,,,,,,
10538.300000011921,,pt2_memorable_rating,1275482,US_Cities_List/mm_abilene.png,,52,,,4,,,,,,,,,,,,,,,
null,,confidence_buffer,1275586,confidence_buffer,,null,,,,,,,,,,,,,,,,,,
2139.199999988079,,recognition_phase,1277726,US_Cities_List/mm_abilene.png,,49,,,,,,old,1,1,,,,,,,,,,
null,,confidence_buffer,1277829,confidence_buffer,,null,,,,,,,,,,,,,,,,,,
null,,thebreak,1278332,break,,null,,,,,,,,,,,,,,,,,,
4526.9000000059605,,pt2_realistic_rating,1282860,Fictional_Cities_List/img_natural_15.png,,51,Fictional_Cities_List/img_natural_15.png,NAT,3,,,,,,,,,,,,,,,
null,,confidence_buffer,1282963,confidence_buffer,,null,,,,,,,,,,,,,,,,,,
1590.2000000178814,,pt2_unique_rating,1284555,Fictional_Cities_List/img_natural_15.png,,52,,,4,,,,,,,,,,,,,,,
null,,confidence_buffer,1284657,confidence_buffer,,null,,,,,,,,,,,,,,,,,,
1799.8999999761581,,pt2_memorable_rating,1286459,Fictional_Cities_List/img_natural_15.png,,52,,,4,,,,,,,,,,,,,,,
null,,confidence_buffer,1286561,confidence_buffer,,null,,,,,,,,,,,,,,,,,,
2131.5,,recognition_phase,1288693,Fictional_Cities_List/img_natural_15.png,,52,,,,,,new,1,1,,,,,,,,,,
null,,confidence_buffer,1288796,confidence_buffer,,null,,,,,,,,,,,,,,,,,,
null,,thebreak,1289298,break,,null,,,,,,,,,,,,,,,,,,
4291,,pt2_realistic_rating,1293591,US_Cities_List/mm_westpalmbeach.png,,53,US_Cities_List/mm_westpalmbeach.png,MM,5,,,,,,,,,,,,,,,
null,,confidence_buffer,1293694,confidence_buffer,,null,,,,,,,,,,,,,,,,,,
1808.199999988079,,pt2_unique_rating,1295503,US_Cities_List/mm_westpalmbeach.png,,53,,,5,,,,,,,,,,,,,,,
null,,confidence_buffer,1295606,confidence_buffer,,null,,,,,,,,,,,,,,,,,,
2502.4000000059605,,pt2_memorable_rating,1298110,US_Cities_List/mm_westpalmbeach.png,,52,,,4,,,,,,,,,,,,,,,
null,,confidence_buffer,1298213,confidence_buffer,,null,,,,,,,,,,,,,,,,,,
1496.5,,recognition_phase,1299711,US_Cities_List/mm_westpalmbeach.png,,49,,,,,,old,1,1,,,,,,,,,,
null,,confidence_buffer,1299815,confidence_buffer,,null,,,,,,,,,,,,,,,,,,
null,,thebreak,1300317,break,,null,,,,,,,,,,,,,,,,,,
26057.19999998808,,pt2_realistic_rating,1326376,Fictional_Cities_List/img_natural_33.png,,52,Fictional_Cities_List/img_natural_33.png,NAT,4,,,,,,,,,,,,,,,
null,,confidence_buffer,1326479,confidence_buffer,,null,,,,,,,,,,,,,,,,,,
44490.19999998808,,pt2_unique_rating,1370972,Fictional_Cities_List/img_natural_33.png,,52,,,4,,,,,,,,,,,,,,,
null,,confidence_buffer,1371073,confidence_buffer,,null,,,,,,,,,,,,,,,,,,
3781.4000000059605,,pt2_memorable_rating,1374856,Fictional_Cities_List/img_natural_33.png,,51,,,3,,,,,,,,,,,,,,,
null,,confidence_buffer,1374958,confidence_buffer,,null,,,,,,,,,,,,,,,,,,
1942.9000000059605,,recognition_phase,1376902,Fictional_Cities_List/img_natural_33.png,,49,,,,,,old,1,1,,,,,,,,,,
null,,confidence_buffer,1377004,confidence_buffer,,null,,,,,,,,,,,,,,,,,,
null,,thebreak,1377506,break,,null,,,,,,,,,,,,,,,,,,
37264.59999999404,,pt2_realistic_rating,1414773,Fictional_Cities_List/img_manmade_36.png,,53,Fictional_Cities_List/img_manmade_36.png,MM,5,,,,,,,,,,,,,,,
null,,confidence_buffer,1414876,confidence_buffer,,null,,,,,,,,,,,,,,,,,,
2041.4000000059605,,pt2_unique_rating,1416919,Fictional_Cities_List/img_manmade_36.png,,50,,,2,,,,,,,,,,,,,,,
null,,confidence_buffer,1417020,confidence_buffer,,null,,,,,,,,,,,,,,,,,,
1514.699999988079,,pt2_memorable_rating,1418536,Fictional_Cities_List/img_manmade_36.png,,51,,,3,,,,,,,,,,,,,,,
null,,confidence_buffer,1418639,confidence_buffer,,null,,,,,,,,,,,,,,,,,,
2589.800000011921,,recognition_phase,1421230,Fictional_Cities_List/img_manmade_36.png,,52,,,,,,new,1,1,,,,,,,,,,
null,,confidence_buffer,1421333,confidence_buffer,,null,,,,,,,,,,,,,,,,,,
null,,thebreak,1421835,break,,null,,,,,,,,,,,,,,,,,,
5271.199999988079,,pt2_realistic_rating,1427108,Fictional_Cities_List/img_manmade_03.png,,51,Fictional_Cities_List/img_manmade_03.png,MM,3,,,,,,,,,,,,,,,
null,,confidence_buffer,1427211,confidence_buffer,,null,,,,,,,,,,,,,,,,,,
2712.5999999940395,,pt2_unique_rating,1429925,Fictional_Cities_List/img_manmade_03.png,,52,,,4,,,,,,,,,,,,,,,
null,,confidence_buffer,1430027,confidence_buffer,,null,,,,,,,,,,,,,,,,,,
2619.199999988079,,pt2_memorable_rating,1432648,Fictional_Cities_List/img_manmade_03.png,,51,,,3,,,,,,,,,,,,,,,
null,,confidence_buffer,1432751,confidence_buffer,,null,,,,,,,,,,,,,,,,,,
3591.899999976158,,recognition_phase,1436345,Fictional_Cities_List/img_manmade_03.png,,51,,,,,,new,0,0.8888888888888888,,,,,,,,,,
null,,confidence_buffer,1436447,confidence_buffer,,null,,,,,,,,,,,,,,,,,,
null,,thebreak,1436950,break,,null,,,,,,,,,,,,,,,,,,
3300.699999988079,,pt2_realistic_rating,1440252,US_Cities_List/mm_cornwall.png,,52,US_Cities_List/mm_cornwall.png,MM,4,,,,,,,,,,,,,,,
null,,confidence_buffer,1440355,confidence_buffer,,null,,,,,,,,,,,,,,,,,,
1991.5,,pt2_unique_rating,1442348,US_Cities_List/mm_cornwall.png,,52,,,4,,,,,,,,,,,,,,,
null,,confidence_buffer,1442450,confidence_buffer,,null,,,,,,,,,,,,,,,,,,
1890.5,,probe_rating,1444343,probe_rating,,53,,,,5,1,,,,,,,,,,,,,
null,,confidence_buffer,1444445,confidence_buffer,,null,,,,,,,,,,,,,,,,,,
6108.4000000059605,,pt2_memorable_rating,1450555,US_Cities_List/mm_cornwall.png,,52,,,4,,,,,,,,,,,,,,,
null,,confidence_buffer,1450658,confidence_buffer,,null,,,,,,,,,,,,,,,,,,
5440.5999999940395,,recognition_phase,1456100,US_Cities_List/mm_cornwall.png,,52,,,,,,new,1,0.9,,,,,,,,,,
null,,confidence_buffer,1456203,confidence_buffer,,null,,,,,,,,,,,,,,,,,,
null,,thebreak,1456706,break,,null,,,,,,,,,,,,,,,,,,
75318.90000000596,,pt2_realistic_rating,1532028,Fictional_Cities_List/img_natural_22.png,,51,Fictional_Cities_List/img_natural_22.png,NAT,3,,,,,,,,,,,,,,,
null,,confidence_buffer,1532131,confidence_buffer,,null,,,,,,,,,,,,,,,,,,
10801.40000000596,,pt2_unique_rating,1542934,Fictional_Cities_List/img_natural_22.png,,52,,,4,,,,,,,,,,,,,,,
null,,confidence_buffer,1543036,confidence_buffer,,null,,,,,,,,,,,,,,,,,,
14474.700000017881,,pt2_memorable_rating,1557513,Fictional_Cities_List/img_natural_22.png,,51,,,3,,,,,,,,,,,,,,,
null,,confidence_buffer,1557616,confidence_buffer,,null,,,,,,,,,,,,,,,,,,
51708.40000000596,,recognition_phase,1609328,Fictional_Cities_List/img_natural_22.png,,50,,,,,,old,0,0.8181818181818182,,,,,,,,,,
null,,confidence_buffer,1609429,confidence_buffer,,null,,,,,,,,,,,,,,,,,,
null,,thebreak,1609930,break,,null,,,,,,,,,,,,,,,,,,
4946.200000017881,,pt2_realistic_rating,1614878,Fictional_Cities_List/img_manmade_39.png,,53,Fictional_Cities_List/img_manmade_39.png,MM,5,,,,,,,,,,,,,,,
null,,confidence_buffer,1614980,confidence_buffer,,null,,,,,,,,,,,,,,,,,,
37360.90000000596,,pt2_unique_rating,1652344,Fictional_Cities_List/img_manmade_39.png,,51,,,3,,,,,,,,,,,,,,,
null,,confidence_buffer,1652446,confidence_buffer,,null,,,,,,,,,,,,,,,,,,
2187.5999999940395,,pt2_memorable_rating,1654635,Fictional_Cities_List/img_manmade_39.png,,52,,,4,,,,,,,,,,,,,,,
null,,confidence_buffer,1654739,confidence_buffer,,null,,,,,,,,,,,,,,,,,,
5806,,recognition_phase,1660547,Fictional_Cities_List/img_manmade_39.png,,49,,,,,,old,1,0.8333333333333334,,,,,,,,,,
null,,confidence_buffer,1660649,confidence_buffer,,null,,,,,,,,,,,,,,,,,,
null,,thebreak,1661151,break,,null,,,,,,,,,,,,,,,,,,
4506.300000011921,,pt2_realistic_rating,1665659,Fictional_Cities_List/img_natural_03.png,,50,Fictional_Cities_List/img_natural_03.png,NAT,2,,,,,,,,,,,,,,,
null,,confidence_buffer,1665762,confidence_buffer,,null,,,,,,,,,,,,,,,,,,
2703.5999999940395,,pt2_unique_rating,1668467,Fictional_Cities_List/img_natural_03.png,,51,,,3,,,,,,,,,,,,,,,
null,,confidence_buffer,1668570,confidence_buffer,,null,,,,,,,,,,,,,,,,,,
2524,,pt2_memorable_rating,1671096,Fictional_Cities_List/img_natural_03.png,,51,,,3,,,,,,,,,,,,,,,
null,,confidence_buffer,1671198,confidence_buffer,,null,,,,,,,,,,,,,,,,,,
2552.100000023842,,recognition_phase,1673752,Fictional_Cities_List/img_natural_03.png,,52,,,,,,new,1,0.8461538461538461,,,,,,,,,,
null,,confidence_buffer,1673855,confidence_buffer,,null,,,,,,,,,,,,,,,,,,
null,,thebreak,1674358,break,,null,,,,,,,,,,,,,,,,,,
15243.09999999404,,pt2_realistic_rating,1689603,Fictional_Cities_List/img_natural_16.png,,51,Fictional_Cities_List/img_natural_16.png,NAT,3,,,,,,,,,,,,,,,
null,,confidence_buffer,1689706,confidence_buffer,,null,,,,,,,,,,,,,,,,,,
3262.4000000059605,,pt2_unique_rating,1692971,Fictional_Cities_List/img_natural_16.png,,51,,,3,,,,,,,,,,,,,,,
null,,confidence_buffer,1693073,confidence_buffer,,null,,,,,,,,,,,,,,,,,,
3178.300000011921,,pt2_memorable_rating,1696253,Fictional_Cities_List/img_natural_16.png,,51,,,3,,,,,,,,,,,,,,,
null,,confidence_buffer,1696357,confidence_buffer,,null,,,,,,,,,,,,,,,,,,
2903.2999999821186,,recognition_phase,1699262,Fictional_Cities_List/img_natural_16.png,,52,,,,,,new,1,0.8571428571428571,,,,,,,,,,
null,,confidence_buffer,1699364,confidence_buffer,,null,,,,,,,,,,,,,,,,,,
null,,thebreak,1699866,break,,null,,,,,,,,,,,,,,,,,,
4485.0999999940395,,pt2_realistic_rating,1704353,Fictional_Cities_List/img_manmade_22.png,,52,Fictional_Cities_List/img_manmade_22.png,MM,4,,,,,,,,,,,,,,,
null,,confidence_buffer,1704455,confidence_buffer,,null,,,,,,,,,,,,,,,,,,
1625.199999988079,,pt2_unique_rating,1706082,Fictional_Cities_List/img_manmade_22.png,,52,,,4,,,,,,,,,,,,,,,
null,,confidence_buffer,1706184,confidence_buffer,,null,,,,,,,,,,,,,,,,,,
4061.699999988079,,pt2_memorable_rating,1710248,Fictional_Cities_List/img_manmade_22.png,,51,,,3,,,,,,,,,,,,,,,
null,,confidence_buffer,1710351,confidence_buffer,,null,,,,,,,,,,,,,,,,,,
2918.0999999940395,,recognition_phase,1713271,Fictional_Cities_List/img_manmade_22.png,,52,,,,,,new,1,0.8666666666666667,,,,,,,,,,
null,,confidence_buffer,1713373,confidence_buffer,,null,,,,,,,,,,,,,,,,,,
null,,thebreak,1713877,break,,null,,,,,,,,,,,,,,,,,,
12674.699999988079,,pt2_realistic_rating,1726553,US_Cities_List/nat_cornwall.png,,51,US_Cities_List/nat_cornwall.png,NAT,3,,,,,,,,,,,,,,,
null,,confidence_buffer,1726657,confidence_buffer,,null,,,,,,,,,,,,,,,,,,
21151.59999999404,,pt2_unique_rating,1747810,US_Cities_List/nat_cornwall.png,,51,,,3,,,,,,,,,,,,,,,
null,,confidence_buffer,1747914,confidence_buffer,,null,,,,,,,,,,,,,,,,,,
14840.799999982119,,pt2_memorable_rating,1762757,US_Cities_List/nat_cornwall.png,,50,,,2,,,,,,,,,,,,,,,
null,,confidence_buffer,1762859,confidence_buffer,,null,,,,,,,,,,,,,,,,,,
2520.0999999940395,,recognition_phase,1765380,US_Cities_List/nat_cornwall.png,,49,,,,,,old,1,0.875,,,,,,,,,,
null,,confidence_buffer,1765483,confidence_buffer,,null,,,,,,,,,,,,,,,,,,
null,,thebreak,1765985,break,,null,,,,,,,,,,,,,,,,,,
4361.0999999940395,,pt2_realistic_rating,1770348,US_Cities_List/mm_boulder.png,,53,US_Cities_List/mm_boulder.png,MM,5,,,,,,,,,,,,,,,
null,,confidence_buffer,1770451,confidence_buffer,,null,,,,,,,,,,,,,,,,,,
15270.90000000596,,pt2_unique_rating,1785724,US_Cities_List/mm_boulder.png,,52,,,4,,,,,,,,,,,,,,,
null,,confidence_buffer,1785826,confidence_buffer,,null,,,,,,,,,,,,,,,,,,
2117.5999999940395,,pt2_memorable_rating,1787946,US_Cities_List/mm_boulder.png,,52,,,4,,,,,,,,,,,,,,,
null,,confidence_buffer,1788049,confidence_buffer,,null,,,,,,,,,,,,,,,,,,
1506.199999988079,,recognition_phase,1789557,US_Cities_List/mm_boulder.png,,49,,,,,,old,1,0.8823529411764706,,,,,,,,,,
null,,confidence_buffer,1789660,confidence_buffer,,null,,,,,,,,,,,,,,,,,,
null,,thebreak,1790164,break,,null,,,,,,,,,,,,,,,,,,
2926.300000011921,,pt2_realistic_rating,1793092,Fictional_Cities_List/img_natural_25.png,,52,Fictional_Cities_List/img_natural_25.png,NAT,4,,,,,,,,,,,,,,,
null,,confidence_buffer,1793194,confidence_buffer,,null,,,,,,,,,,,,,,,,,,
2776.5,,pt2_unique_rating,1795972,Fictional_Cities_List/img_natural_25.png,,51,,,3,,,,,,,,,,,,,,,
null,,confidence_buffer,1796075,confidence_buffer,,null,,,,,,,,,,,,,,,,,,
13504.90000000596,,pt2_memorable_rating,1809582,Fictional_Cities_List/img_natural_25.png,,51,,,3,,,,,,,,,,,,,,,
null,,confidence_buffer,1809685,confidence_buffer,,null,,,,,,,,,,,,,,,,,,
2483.800000011921,,recognition_phase,1812171,Fictional_Cities_List/img_natural_25.png,,49,,,,,,old,1,0.8888888888888888,,,,,,,,,,
null,,confidence_buffer,1812274,confidence_buffer,,null,,,,,,,,,,,,,,,,,,
null,,thebreak,1812776,break,,null,,,,,,,,,,,,,,,,,,
6784.5999999940395,,pt2_realistic_rating,1819562,US_Cities_List/mm_sitka.png,,53,US_Cities_List/mm_sitka.png,MM,5,,,,,,,,,,,,,,,
null,,confidence_buffer,1819665,confidence_buffer,,null,,,,,,,,,,,,,,,,,,
2257.7000000178814,,pt2_unique_rating,1821924,US_Cities_List/mm_sitka.png,,52,,,4,,,,,,,,,,,,,,,
null,,confidence_buffer,1822027,confidence_buffer,,null,,,,,,,,,,,,,,,,,,
3613.7999999821186,,pt2_memorable_rating,1825643,US_Cities_List/mm_sitka.png,,50,,,2,,,,,,,,,,,,,,,
null,,confidence_buffer,1825746,confidence_buffer,,null,,,,,,,,,,,,,,,,,,
2477.300000011921,,recognition_phase,1828225,US_Cities_List/mm_sitka.png,,52,,,,,,new,1,0.8947368421052632,,,,,,,,,,
null,,confidence_buffer,1828328,confidence_buffer,,null,,,,,,,,,,,,,,,,,,
null,,thebreak,1828829,break,,null,,,,,,,,,,,,,,,,,,
3426.5999999940395,,pt2_realistic_rating,1832258,Fictional_Cities_List/img_manmade_07.png,,53,Fictional_Cities_List/img_manmade_07.png,MM,5,,,,,,,,,,,,,,,
null,,confidence_buffer,1832360,confidence_buffer,,null,,,,,,,,,,,,,,,,,,
1661.2000000178814,,pt2_unique_rating,1834023,Fictional_Cities_List/img_manmade_07.png,,51,,,3,,,,,,,,,,,,,,,
null,,confidence_buffer,1834126,confidence_buffer,,null,,,,,,,,,,,,,,,,,,
873.6999999880791,,pt2_memorable_rating,1835002,Fictional_Cities_List/img_manmade_07.png,,51,,,3,,,,,,,,,,,,,,,
null,,confidence_buffer,1835105,confidence_buffer,,null,,,,,,,,,,,,,,,,,,
2920.2999999821186,,recognition_phase,1838027,Fictional_Cities_List/img_manmade_07.png,,49,,,,,,old,0,0.85,,,,,,,,,,
null,,confidence_buffer,1838130,confidence_buffer,,null,,,,,,,,,,,,,,,,,,
null,,thebreak,1838633,break,,null,,,,,,,,,,,,,,,,,,
1879.7000000178814,,pt2_realistic_rating,1840514,US_Cities_List/nat_sitka.png,,53,US_Cities_List/nat_sitka.png,NAT,5,,,,,,,,,,,,,,,
null,,confidence_buffer,1840617,confidence_buffer,,null,,,,,,,,,,,,,,,,,,
3291.5999999940395,,probe_rating,1843911,probe_rating,,49,,,,1,1,,,,,,,,,,,,,
null,,confidence_buffer,1844014,confidence_buffer,,null,,,,,,,,,,,,,,,,,,
5081.0999999940395,,pt2_unique_rating,1849097,US_Cities_List/nat_sitka.png,,51,,,3,,,,,,,,,,,,,,,
null,,confidence_buffer,1849199,confidence_buffer,,null,,,,,,,,,,,,,,,,,,
11046.299999982119,,pt2_memorable_rating,1860247,US_Cities_List/nat_sitka.png,,52,,,4,,,,,,,,,,,,,,,
null,,confidence_buffer,1860350,confidence_buffer,,null,,,,,,,,,,,,,,,,,,
4953.9000000059605,,recognition_phase,1865306,US_Cities_List/nat_sitka.png,,52,,,,,,new,1,0.8571428571428571,,,,,,,,,,
null,,confidence_buffer,1865409,confidence_buffer,,null,,,,,,,,,,,,,,,,,,
null,,thebreak,1865912,break,,null,,,,,,,,,,,,,,,,,,
3935,,pt2_realistic_rating,1869849,Fictional_Cities_List/img_natural_02.png,,52,Fictional_Cities_List/img_natural_02.png,NAT,4,,,,,,,,,,,,,,,
null,,confidence_buffer,1869952,confidence_buffer,,null,,,,,,,,,,,,,,,,,,
2072.699999988079,,pt2_unique_rating,1872026,Fictional_Cities_List/img_natural_02.png,,51,,,3,,,,,,,,,,,,,,,
null,,confidence_buffer,1872130,confidence_buffer,,null,,,,,,,,,,,,,,,,,,
6471.899999976158,,pt2_memorable_rating,1878604,Fictional_Cities_List/img_natural_02.png,,51,,,3,,,,,,,,,,,,,,,
null,,confidence_buffer,1878706,confidence_buffer,,null,,,,,,,,,,,,,,,,,,
3318.5,,recognition_phase,1882026,Fictional_Cities_List/img_natural_02.png,,51,,,,,,new,1,0.8636363636363636,,,,,,,,,,
null,,confidence_buffer,1882129,confidence_buffer,,null,,,,,,,,,,,,,,,,,,
null,,thebreak,1882631,break,,null,,,,,,,,,,,,,,,,,,
3038.7000000178814,,pt2_realistic_rating,1885672,Fictional_Cities_List/img_natural_39.png,,53,Fictional_Cities_List/img_natural_39.png,NAT,5,,,,,,,,,,,,,,,
null,,confidence_buffer,1885775,confidence_buffer,,null,,,,,,,,,,,,,,,,,,
1493.699999988079,,pt2_unique_rating,1887270,Fictional_Cities_List/img_natural_39.png,,52,,,4,,,,,,,,,,,,,,,
null,,confidence_buffer,1887373,confidence_buffer,,null,,,,,,,,,,,,,,,,,,
1637.4000000059605,,probe_rating,1889012,probe_rating,,51,,,,3,1,,,,,,,,,,,,,
null,,confidence_buffer,1889114,confidence_buffer,,null,,,,,,,,,,,,,,,,,,
80649.90000000596,,pt2_memorable_rating,1969767,Fictional_Cities_List/img_natural_39.png,,52,,,4,,,,,,,,,,,,,,,
null,,confidence_buffer,1969869,confidence_buffer,,null,,,,,,,,,,,,,,,,,,
3018.800000011921,,recognition_phase,1972890,Fictional_Cities_List/img_natural_39.png,,49,,,,,,old,1,0.8695652173913043,,,,,,,,,,
null,,confidence_buffer,1972993,confidence_buffer,,null,,,,,,,,,,,,,,,,,,
null,,thebreak,1973497,break,,null,,,,,,,,,,,,,,,,,,
74101.90000000596,,pt2_realistic_rating,2047602,US_Cities_List/mm_delawarecity.png,,52,US_Cities_List/mm_delawarecity.png,MM,4,,,,,,,,,,,,,,,
null,,confidence_buffer,2047706,confidence_buffer,,null,,,,,,,,,,,,,,,,,,
8439.59999999404,,pt2_unique_rating,2056147,US_Cities_List/mm_delawarecity.png,,52,,,4,,,,,,,,,,,,,,,
null,,confidence_buffer,2056250,confidence_buffer,,null,,,,,,,,,,,,,,,,,,
3317.899999976158,,pt2_memorable_rating,2059570,US_Cities_List/mm_delawarecity.png,,51,,,3,,,,,,,,,,,,,,,
null,,confidence_buffer,2059673,confidence_buffer,,null,,,,,,,,,,,,,,,,,,
1775.5999999940395,,probe_rating,2061450,probe_rating,,52,,,,4,1,,,,,,,,,,,,,
null,,confidence_buffer,2061554,confidence_buffer,,null,,,,,,,,,,,,,,,,,,
2980.4000000059605,,recognition_phase,2064536,US_Cities_List/mm_delawarecity.png,,52,,,,,,new,1,0.875,,,,,,,,,,
null,,confidence_buffer,2064639,confidence_buffer,,null,,,,,,,,,,,,,,,,,,
null,,thebreak,2065141,break,,null,,,,,,,,,,,,,,,,,,
11213.399999976158,,pt2_realistic_rating,2076356,US_Cities_List/nat_healdsburg.png,,53,US_Cities_List/nat_healdsburg.png,NAT,5,,,,,,,,,,,,,,,
null,,confidence_buffer,2076458,confidence_buffer,,null,,,,,,,,,,,,,,,,,,
4679.5,,pt2_unique_rating,2081139,US_Cities_List/nat_healdsburg.png,,52,,,4,,,,,,,,,,,,,,,
null,,confidence_buffer,2081243,confidence_buffer,,null,,,,,,,,,,,,,,,,,,
19727.69999998808,,pt2_memorable_rating,2100973,US_Cities_List/nat_healdsburg.png,,50,,,2,,,,,,,,,,,,,,,
null,,confidence_buffer,2101076,confidence_buffer,,null,,,,,,,,,,,,,,,,,,
3077.5,,recognition_phase,2104155,US_Cities_List/nat_healdsburg.png,,50,,,,,,old,1,0.88,,,,,,,,,,
null,,confidence_buffer,2104258,confidence_buffer,,null,,,,,,,,,,,,,,,,,,
null,,thebreak,2104761,break,,null,,,,,,,,,,,,,,,,,,
18270.59999999404,,pt2_realistic_rating,2123033,US_Cities_List/mm_athens.png,,53,US_Cities_List/mm_athens.png,MM,5,,,,,,,,,,,,,,,
null,,confidence_buffer,2123137,confidence_buffer,,null,,,,,,,,,,,,,,,,,,
3632.5,,pt2_unique_rating,2126771,US_Cities_List/mm_athens.png,,51,,,3,,,,,,,,,,,,,,,
null,,confidence_buffer,2126874,confidence_buffer,,null,,,,,,,,,,,,,,,,,,
3003,,pt2_memorable_rating,2129878,US_Cities_List/mm_athens.png,,51,,,3,,,,,,,,,,,,,,,
null,,confidence_buffer,2129981,confidence_buffer,,null,,,,,,,,,,,,,,,,,,
2244.100000023842,,recognition_phase,2132227,US_Cities_List/mm_athens.png,,52,,,,,,new,1,0.8846153846153846,,,,,,,,,,
null,,confidence_buffer,2132330,confidence_buffer,,null,,,,,,,,,,,,,,,,,,
null,,thebreak,2132833,break,,null,,,,,,,,,,,,,,,,,,
4277.5999999940395,,pt2_realistic_rating,2137112,Fictional_Cities_List/img_natural_29.png,,51,Fictional_Cities_List/img_natural_29.png,NAT,3,,,,,,,,,,,,,,,
null,,confidence_buffer,2137215,confidence_buffer,,null,,,,,,,,,,,,,,,,,,
2622,,pt2_unique_rating,2139838,Fictional_Cities_List/img_natural_29.png,,50,,,2,,,,,,,,,,,,,,,
null,,confidence_buffer,2139941,confidence_buffer,,null,,,,,,,,,,,,,,,,,,
2347.4000000059605,,pt2_memorable_rating,2142290,Fictional_Cities_List/img_natural_29.png,,50,,,2,,,,,,,,,,,,,,,
null,,confidence_buffer,2142392,confidence_buffer,,null,,,,,,,,,,,,,,,,,,
3577.5999999940395,,recognition_phase,2145972,Fictional_Cities_List/img_natural_29.png,,49,,,,,,old,1,0.8888888888888888,,,,,,,,,,
null,,confidence_buffer,2146075,confidence_buffer,,null,,,,,,,,,,,,,,,,,,
null,,thebreak,2146579,break,,null,,,,,,,,,,,,,,,,,,
33421.19999998808,,pt2_realistic_rating,2180003,Fictional_Cities_List/img_manmade_29.png,,53,Fictional_Cities_List/img_manmade_29.png,MM,5,,,,,,,,,,,,,,,
null,,confidence_buffer,2180106,confidence_buffer,,null,,,,,,,,,,,,,,,,,,
3009.5,,pt2_unique_rating,2183117,Fictional_Cities_List/img_manmade_29.png,,52,,,4,,,,,,,,,,,,,,,
null,,confidence_buffer,2183220,confidence_buffer,,null,,,,,,,,,,,,,,,,,,
2301.5,,pt2_memorable_rating,2185523,Fictional_Cities_List/img_manmade_29.png,,51,,,3,,,,,,,,,,,,,,,
null,,confidence_buffer,2185627,confidence_buffer,,null,,,,,,,,,,,,,,,,,,
1913.7999999821186,,probe_rating,2187542,probe_rating,,52,,,,4,1,,,,,,,,,,,,,
null,,confidence_buffer,2187646,confidence_buffer,,null,,,,,,,,,,,,,,,,,,
2204.699999988079,,recognition_phase,2189852,Fictional_Cities_List/img_manmade_29.png,,49,,,,,,old,1,0.8928571428571429,,,,,,,,,,
null,,confidence_buffer,2189954,confidence_buffer,,null,,,,,,,,,,,,,,,,,,
null,,thebreak,2190456,break,,null,,,,,,,,,,,,,,,,,,
3548.7999999821186,,pt2_realistic_rating,2194007,US_Cities_List/mm_peoria.png,,52,US_Cities_List/mm_peoria.png,MM,4,,,,,,,,,,,,,,,
null,,confidence_buffer,2194109,confidence_buffer,,null,,,,,,,,,,,,,,,,,,
1788.300000011921,,probe_rating,2195899,probe_rating,,52,,,,4,1,,,,,,,,,,,,,
null,,confidence_buffer,2196001,confidence_buffer,,null,,,,,,,,,,,,,,,,,,
4815.5999999940395,,pt2_unique_rating,2200819,US_Cities_List/mm_peoria.png,,52,,,4,,,,,,,,,,,,,,,
null,,confidence_buffer,2200922,confidence_buffer,,null,,,,,,,,,,,,,,,,,,
1453.7999999821186,,pt2_memorable_rating,2202378,US_Cities_List/mm_peoria.png,,52,,,4,,,,,,,,,,,,,,,
null,,confidence_buffer,2202480,confidence_buffer,,null,,,,,,,,,,,,,,,,,,
2215.300000011921,,recognition_phase,2204697,US_Cities_List/mm_peoria.png,,49,,,,,,old,1,0.896551724137931,,,,,,,,,,
null,,confidence_buffer,2204800,confidence_buffer,,null,,,,,,,,,,,,,,,,,,
null,,thebreak,2205304,break,,null,,,,,,,,,,,,,,,,,,
4302.4000000059605,,pt2_realistic_rating,2209608,Fictional_Cities_List/img_natural_36.png,,52,Fictional_Cities_List/img_natural_36.png,NAT,4,,,,,,,,,,,,,,,
null,,confidence_buffer,2209710,confidence_buffer,,null,,,,,,,,,,,,,,,,,,
2139.5999999940395,,pt2_unique_rating,2211851,Fictional_Cities_List/img_natural_36.png,,50,,,2,,,,,,,,,,,,,,,
null,,confidence_buffer,2211954,confidence_buffer,,null,,,,,,,,,,,,,,,,,,
2070.5,,pt2_memorable_rating,2214026,Fictional_Cities_List/img_natural_36.png,,50,,,2,,,,,,,,,,,,,,,
null,,confidence_buffer,2214128,confidence_buffer,,null,,,,,,,,,,,,,,,,,,
2213.7999999821186,,recognition_phase,2216344,Fictional_Cities_List/img_natural_36.png,,50,,,,,,old,1,0.9,,,,,,,,,,
null,,confidence_buffer,2216447,confidence_buffer,,null,,,,,,,,,,,,,,,,,,
null,,thebreak,2216949,break,,null,,,,,,,,,,,,,,,,,,
3696.2999999821186,,pt2_realistic_rating,2220647,US_Cities_List/mm_healdsburg.png,,53,US_Cities_List/mm_healdsburg.png,MM,5,,,,,,,,,,,,,,,
null,,confidence_buffer,2220750,confidence_buffer,,null,,,,,,,,,,,,,,,,,,
1487.5999999940395,,probe_rating,2222240,probe_rating,,52,,,,4,1,,,,,,,,,,,,,
null,,confidence_buffer,2222342,confidence_buffer,,null,,,,,,,,,,,,,,,,,,
1818.2000000178814,,pt2_unique_rating,2224163,US_Cities_List/mm_healdsburg.png,,51,,,3,,,,,,,,,,,,,,,
null,,confidence_buffer,2224266,confidence_buffer,,null,,,,,,,,,,,,,,,,,,
1630.5,,pt2_memorable_rating,2225898,US_Cities_List/mm_healdsburg.png,,51,,,3,,,,,,,,,,,,,,,
null,,confidence_buffer,2226001,confidence_buffer,,null,,,,,,,,,,,,,,,,,,
2302.600000023842,,recognition_phase,2228306,US_Cities_List/mm_healdsburg.png,,52,,,,,,new,1,0.9032258064516129,,,,,,,,,,
null,,confidence_buffer,2228409,confidence_buffer,,null,,,,,,,,,,,,,,,,,,
null,,thebreak,2228913,break,,null,,,,,,,,,,,,,,,,,,
6735.5999999940395,,pt2_realistic_rating,2235650,US_Cities_List/mm_carmel.png,,53,US_Cities_List/mm_carmel.png,MM,5,,,,,,,,,,,,,,,
null,,confidence_buffer,2235753,confidence_buffer,,null,,,,,,,,,,,,,,,,,,
6832.9000000059605,,pt2_unique_rating,2242588,US_Cities_List/mm_carmel.png,,52,,,4,,,,,,,,,,,,,,,
null,,confidence_buffer,2242691,confidence_buffer,,null,,,,,,,,,,,,,,,,,,
2320.5999999940395,,pt2_memorable_rating,2245013,US_Cities_List/mm_carmel.png,,51,,,3,,,,,,,,,,,,,,,
null,,confidence_buffer,2245116,confidence_buffer,,null,,,,,,,,,,,,,,,,,,
20070.59999999404,,recognition_phase,2265189,US_Cities_List/mm_carmel.png,,52,,,,,,new,1,0.90625,,,,,,,,,,
null,,confidence_buffer,2265293,confidence_buffer,,null,,,,,,,,,,,,,,,,,,
null,,thebreak,2265796,break,,null,,,,,,,,,,,,,,,,,,
13593.40000000596,,pt2_realistic_rating,2279392,Fictional_Cities_List/img_manmade_44.png,,53,Fictional_Cities_List/img_manmade_44.png,MM,5,,,,,,,,,,,,,,,
null,,confidence_buffer,2279495,confidence_buffer,,null,,,,,,,,,,,,,,,,,,
5386.100000023842,,pt2_unique_rating,2284883,Fictional_Cities_List/img_manmade_44.png,,51,,,3,,,,,,,,,,,,,,,
null,,confidence_buffer,2284987,confidence_buffer,,null,,,,,,,,,,,,,,,,,,
2101.300000011921,,pt2_memorable_rating,2287090,Fictional_Cities_List/img_manmade_44.png,,51,,,3,,,,,,,,,,,,,,,
null,,confidence_buffer,2287193,confidence_buffer,,null,,,,,,,,,,,,,,,,,,
2075,,recognition_phase,2289270,Fictional_Cities_List/img_manmade_44.png,,50,,,,,,old,0,0.8787878787878788,,,,,,,,,,
null,,confidence_buffer,2289373,confidence_buffer,,null,,,,,,,,,,,,,,,,,,
null,,thebreak,2289876,break,,null,,,,,,,,,,,,,,,,,,
5942.600000023842,,pt2_realistic_rating,2295821,Fictional_Cities_List/img_natural_35.png,,51,Fictional_Cities_List/img_natural_35.png,NAT,3,,,,,,,,,,,,,,,
null,,confidence_buffer,2295923,confidence_buffer,,null,,,,,,,,,,,,,,,,,,
1582.7000000178814,,pt2_unique_rating,2297508,Fictional_Cities_List/img_natural_35.png,,50,,,2,,,,,,,,,,,,,,,
null,,confidence_buffer,2297611,confidence_buffer,,null,,,,,,,,,,,,,,,,,,
2421.399999976158,,pt2_memorable_rating,2300034,Fictional_Cities_List/img_natural_35.png,,51,,,3,,,,,,,,,,,,,,,
null,,confidence_buffer,2300136,confidence_buffer,,null,,,,,,,,,,,,,,,,,,
2008.4000000059605,,recognition_phase,2302147,Fictional_Cities_List/img_natural_35.png,,51,,,,,,new,0,0.8529411764705882,,,,,,,,,,
null,,confidence_buffer,2302250,confidence_buffer,,null,,,,,,,,,,,,,,,,,,
null,,thebreak,2302752,break,,null,,,,,,,,,,,,,,,,,,
4247.0999999940395,,pt2_realistic_rating,2307001,US_Cities_List/nat_carmel.png,,53,US_Cities_List/nat_carmel.png,NAT,5,,,,,,,,,,,,,,,
null,,confidence_buffer,2307104,confidence_buffer,,null,,,,,,,,,,,,,,,,,,
3902.2999999821186,,pt2_unique_rating,2311008,US_Cities_List/nat_carmel.png,,51,,,3,,,,,,,,,,,,,,,
null,,confidence_buffer,2311111,confidence_buffer,,null,,,,,,,,,,,,,,,,,,
4233.5,,pt2_memorable_rating,2315346,US_Cities_List/nat_carmel.png,,52,,,4,,,,,,,,,,,,,,,
null,,confidence_buffer,2315448,confidence_buffer,,null,,,,,,,,,,,,,,,,,,
2771,,recognition_phase,2318221,US_Cities_List/nat_carmel.png,,52,,,,,,new,1,0.8571428571428571,,,,,,,,,,
null,,confidence_buffer,2318324,confidence_buffer,,null,,,,,,,,,,,,,,,,,,
null,,thebreak,2318827,break,,null,,,,,,,,,,,,,,,,,,
2965.199999988079,,pt2_realistic_rating,2321794,US_Cities_List/mm_hotsprings.png,,53,US_Cities_List/mm_hotsprings.png,MM,5,,,,,,,,,,,,,,,
null,,confidence_buffer,2321897,confidence_buffer,,null,,,,,,,,,,,,,,,,,,
24101.59999999404,,pt2_unique_rating,2346000,US_Cities_List/mm_hotsprings.png,,51,,,3,,,,,,,,,,,,,,,
null,,confidence_buffer,2346103,confidence_buffer,,null,,,,,,,,,,,,,,,,,,
20899.40000000596,,pt2_memorable_rating,2367005,US_Cities_List/mm_hotsprings.png,,52,,,4,,,,,,,,,,,,,,,
null,,confidence_buffer,2367108,confidence_buffer,,null,,,,,,,,,,,,,,,,,,
1785.5999999940395,,recognition_phase,2368896,US_Cities_List/mm_hotsprings.png,,49,,,,,,old,1,0.8611111111111112,,,,,,,,,,
null,,confidence_buffer,2368999,confidence_buffer,,null,,,,,,,,,,,,,,,,,,
null,,thebreak,2369502,break,,null,,,,,,,,,,,,,,,,,,
2635.4000000059605,,pt2_realistic_rating,2372139,Fictional_Cities_List/img_natural_07.png,,53,Fictional_Cities_List/img_natural_07.png,NAT,5,,,,,,,,,,,,,,,
null,,confidence_buffer,2372242,confidence_buffer,,null,,,,,,,,,,,,,,,,,,
2236,,pt2_unique_rating,2374480,Fictional_Cities_List/img_natural_07.png,,52,,,4,,,,,,,,,,,,,,,
null,,confidence_buffer,2374583,confidence_buffer,,null,,,,,,,,,,,,,,,,,,
1760.5,,pt2_memorable_rating,2376346,Fictional_Cities_List/img_natural_07.png,,51,,,3,,,,,,,,,,,,,,,
null,,confidence_buffer,2376449,confidence_buffer,,null,,,,,,,,,,,,,,,,,,
2536.9000000059605,,recognition_phase,2378988,Fictional_Cities_List/img_natural_07.png,,50,,,,,,old,1,0.8648648648648649,,,,,,,,,,
null,,confidence_buffer,2379090,confidence_buffer,,null,,,,,,,,,,,,,,,,,,
null,,thebreak,2379594,break,,null,,,,,,,,,,,,,,,,,,
48562.19999998808,,pt2_realistic_rating,2428160,Fictional_Cities_List/img_manmade_20.png,,53,Fictional_Cities_List/img_manmade_20.png,MM,5,,,,,,,,,,,,,,,
null,,confidence_buffer,2428263,confidence_buffer,,null,,,,,,,,,,,,,,,,,,
2154.9000000059605,,pt2_unique_rating,2430420,Fictional_Cities_List/img_manmade_20.png,,52,,,4,,,,,,,,,,,,,,,
null,,confidence_buffer,2430522,confidence_buffer,,null,,,,,,,,,,,,,,,,,,
1337.800000011921,,pt2_memorable_rating,2431861,Fictional_Cities_List/img_manmade_20.png,,52,,,4,,,,,,,,,,,,,,,
null,,confidence_buffer,2431964,confidence_buffer,,null,,,,,,,,,,,,,,,,,,
1936.5999999940395,,recognition_phase,2433902,Fictional_Cities_List/img_manmade_20.png,,49,,,,,,old,0,0.8421052631578947,,,,,,,,,,
null,,confidence_buffer,2434005,confidence_buffer,,null,,,,,,,,,,,,,,,,,,
null,,thebreak,2434508,break,,null,,,,,,,,,,,,,,,,,,
2942,,pt2_realistic_rating,2437452,US_Cities_List/nat_athens.png,,53,US_Cities_List/nat_athens.png,NAT,5,,,,,,,,,,,,,,,
null,,confidence_buffer,2437554,confidence_buffer,,null,,,,,,,,,,,,,,,,,,
1286.4000000059605,,pt2_unique_rating,2438841,US_Cities_List/nat_athens.png,,51,,,3,,,,,,,,,,,,,,,
null,,confidence_buffer,2438945,confidence_buffer,,null,,,,,,,,,,,,,,,,,,
2507.800000011921,,probe_rating,2441455,probe_rating,,51,,,,3,1,,,,,,,,,,,,,
null,,confidence_buffer,2441558,confidence_buffer,,null,,,,,,,,,,,,,,,,,,
2835,,pt2_memorable_rating,2444395,US_Cities_List/nat_athens.png,,51,,,3,,,,,,,,,,,,,,,
null,,confidence_buffer,2444497,confidence_buffer,,null,,,,,,,,,,,,,,,,,,
1700.2000000178814,,recognition_phase,2446198,US_Cities_List/nat_athens.png,,49,,,,,,old,1,0.8461538461538461,,,,,,,,,,
null,,confidence_buffer,2446301,confidence_buffer,,null,,,,,,,,,,,,,,,,,,
null,,thebreak,2446805,break,,null,,,,,,,,,,,,,,,,,,
5224.0999999940395,,pt2_realistic_rating,2452031,US_Cities_List/nat_delawarecity.png,,53,US_Cities_List/nat_delawarecity.png,NAT,5,,,,,,,,,,,,,,,
null,,confidence_buffer,2452134,confidence_buffer,,null,,,,,,,,,,,,,,,,,,
2629.9000000059605,,pt2_unique_rating,2454766,US_Cities_List/nat_delawarecity.png,,50,,,2,,,,,,,,,,,,,,,
null,,confidence_buffer,2454869,confidence_buffer,,null,,,,,,,,,,,,,,,,,,
2524.300000011921,,pt2_memorable_rating,2457395,US_Cities_List/nat_delawarecity.png,,51,,,3,,,,,,,,,,,,,,,
null,,confidence_buffer,2457497,confidence_buffer,,null,,,,,,,,,,,,,,,,,,
9623.59999999404,,recognition_phase,2467123,US_Cities_List/nat_delawarecity.png,,49,,,,,,old,1,0.85,,,,,,,,,,
null,,confidence_buffer,2467225,confidence_buffer,,null,,,,,,,,,,,,,,,,,,
null,,thebreak,2467728,break,,null,,,,,,,,,,,,,,,,,,
19001.19999998808,,pt2_realistic_rating,2486731,Fictional_Cities_List/img_manmade_15.png,,52,Fictional_Cities_List/img_manmade_15.png,MM,4,,,,,,,,,,,,,,,
null,,confidence_buffer,2486834,confidence_buffer,,null,,,,,,,,,,,,,,,,,,
2345.4000000059605,,probe_rating,2489181,probe_rating,,50,,,,2,1,,,,,,,,,,,,,
null,,confidence_buffer,2489284,confidence_buffer,,null,,,,,,,,,,,,,,,,,,
4833.0999999940395,,pt2_unique_rating,2494119,Fictional_Cities_List/img_manmade_15.png,,52,,,4,,,,,,,,,,,,,,,
null,,confidence_buffer,2494222,confidence_buffer,,null,,,,,,,,,,,,,,,,,,
3450.9000000059605,,pt2_memorable_rating,2497675,Fictional_Cities_List/img_manmade_15.png,,52,,,4,,,,,,,,,,,,,,,
null,,confidence_buffer,2497777,confidence_buffer,,null,,,,,,,,,,,,,,,,,,
1170.4000000059605,,recognition_phase,2498950,Fictional_Cities_List/img_manmade_15.png,,50,,,,,,old,1,0.8536585365853658,,,,,,,,,,
null,,confidence_buffer,2499052,confidence_buffer,,null,,,,,,,,,,,,,,,,,,
null,,thebreak,2499555,break,,null,,,,,,,,,,,,,,,,,,
2717.0999999940395,,pt2_realistic_rating,2502274,US_Cities_List/nat_okoboji.png,,51,US_Cities_List/nat_okoboji.png,NAT,3,,,,,,,,,,,,,,,
null,,confidence_buffer,2502377,confidence_buffer,,null,,,,,,,,,,,,,,,,,,
1259.199999988079,,pt2_unique_rating,2503638,US_Cities_List/nat_okoboji.png,,51,,,3,,,,,,,,,,,,,,,
null,,confidence_buffer,2503740,confidence_buffer,,null,,,,,,,,,,,,,,,,,,
2110.2000000178814,,pt2_memorable_rating,2505852,US_Cities_List/nat_okoboji.png,,51,,,3,,,,,,,,,,,,,,,
null,,confidence_buffer,2505954,confidence_buffer,,null,,,,,,,,,,,,,,,,,,
2301.5,,recognition_phase,2508257,US_Cities_List/nat_okoboji.png,,52,,,,,,new,1,0.8571428571428571,,,,,,,,,,
null,,confidence_buffer,2508360,confidence_buffer,,null,,,,,,,,,,,,,,,,,,
null,,thebreak,2508864,break,,null,,,,,,,,,,,,,,,,,,
4353.5999999940395,,pt2_realistic_rating,2513220,US_Cities_List/nat_boulder.png,,51,US_Cities_List/nat_boulder.png,NAT,3,,,,,,,,,,,,,,,
null,,confidence_buffer,2513321,confidence_buffer,,null,,,,,,,,,,,,,,,,,,
2017.5999999940395,,pt2_unique_rating,2515341,US_Cities_List/nat_boulder.png,,52,,,4,,,,,,,,,,,,,,,
null,,confidence_buffer,2515443,confidence_buffer,,null,,,,,,,,,,,,,,,,,,
1990.5,,pt2_memorable_rating,2517436,US_Cities_List/nat_boulder.png,,51,,,3,,,,,,,,,,,,,,,
null,,confidence_buffer,2517538,confidence_buffer,,null,,,,,,,,,,,,,,,,,,
1736.4000000059605,,recognition_phase,2519276,US_Cities_List/nat_boulder.png,,49,,,,,,old,1,0.8604651162790697,,,,,,,,,,
null,,confidence_buffer,2519379,confidence_buffer,,null,,,,,,,,,,,,,,,,,,
null,,thebreak,2519882,break,,null,,,,,,,,,,,,,,,,,,
5482.5,,pt2_realistic_rating,2525367,US_Cities_List/nat_hotsprings.png,,52,US_Cities_List/nat_hotsprings.png,NAT,4,,,,,,,,,,,,,,,
null,,confidence_buffer,2525470,confidence_buffer,,null,,,,,,,,,,,,,,,,,,
11621.5,,pt2_unique_rating,2537094,US_Cities_List/nat_hotsprings.png,,52,,,4,,,,,,,,,,,,,,,
null,,confidence_buffer,2537196,confidence_buffer,,null,,,,,,,,,,,,,,,,,,
1951.7000000178814,,pt2_memorable_rating,2539150,US_Cities_List/nat_hotsprings.png,,52,,,4,,,,,,,,,,,,,,,
null,,confidence_buffer,2539252,confidence_buffer,,null,,,,,,,,,,,,,,,,,,
5304,,recognition_phase,2544558,US_Cities_List/nat_hotsprings.png,,51,,,,,,new,1,0.8636363636363636,,,,,,,,,,
null,,confidence_buffer,2544662,confidence_buffer,,null,,,,,,,,,,,,,,,,,,
null,,thebreak,2545165,break,,null,,,,,,,,,,,,,,,,,,
7606.699999988079,,pt2_realistic_rating,2552774,Fictional_Cities_List/img_manmade_49.png,,53,Fictional_Cities_List/img_manmade_49.png,MM,5,,,,,,,,,,,,,,,
null,,confidence_buffer,2552876,confidence_buffer,,null,,,,,,,,,,,,,,,,,,
1791.8999999761581,,probe_rating,2554669,probe_rating,,50,,,,2,1,,,,,,,,,,,,,
null,,confidence_buffer,2554772,confidence_buffer,,null,,,,,,,,,,,,,,,,,,
2214.9000000059605,,pt2_unique_rating,2556989,Fictional_Cities_List/img_manmade_49.png,,51,,,3,,,,,,,,,,,,,,,
null,,confidence_buffer,2557091,confidence_buffer,,null,,,,,,,,,,,,,,,,,,
2213.0999999940395,,pt2_memorable_rating,2559306,Fictional_Cities_List/img_manmade_49.png,,52,,,4,,,,,,,,,,,,,,,
null,,confidence_buffer,2559409,confidence_buffer,,null,,,,,,,,,,,,,,,,,,
2638.2999999821186,,recognition_phase,2562049,Fictional_Cities_List/img_manmade_49.png,,52,,,,,,new,1,0.8666666666666667,,,,,,,,,,
null,,confidence_buffer,2562152,confidence_buffer,,null,,,,,,,,,,,,,,,,,,
null,,thebreak,2562655,break,,null,,,,,,,,,,,,,,,,,,
3814.4000000059605,,pt2_realistic_rating,2566471,US_Cities_List/nat_peoria.png,,53,US_Cities_List/nat_peoria.png,NAT,5,,,,,,,,,,,,,,,
null,,confidence_buffer,2566574,confidence_buffer,,null,,,,,,,,,,,,,,,,,,
4969.0999999940395,,pt2_unique_rating,2571545,US_Cities_List/nat_peoria.png,,53,,,5,,,,,,,,,,,,,,,
null,,confidence_buffer,2571647,confidence_buffer,,null,,,,,,,,,,,,,,,,,,
2916.600000023842,,pt2_memorable_rating,2574566,US_Cities_List/nat_peoria.png,,52,,,4,,,,,,,,,,,,,,,
null,,confidence_buffer,2574669,confidence_buffer,,null,,,,,,,,,,,,,,,,,,
3633,,recognition_phase,2578304,US_Cities_List/nat_peoria.png,,51,,,,,,new,1,0.8695652173913043,,,,,,,,,,
null,,confidence_buffer,2578407,confidence_buffer,,null,,,,,,,,,,,,,,,,,,
null,,thebreak,2578909,break,,null,,,,,,,,,,,,,,,,,,
2369,,pt2_realistic_rating,2581280,US_Cities_List/mm_coeurdalene.png,,53,US_Cities_List/mm_coeurdalene.png,MM,5,,,,,,,,,,,,,,,
null,,confidence_buffer,2581383,confidence_buffer,,null,,,,,,,,,,,,,,,,,,
2307.699999988079,,pt2_unique_rating,2583693,US_Cities_List/mm_coeurdalene.png,,51,,,3,,,,,,,,,,,,,,,
null,,confidence_buffer,2583797,confidence_buffer,,null,,,,,,,,,,,,,,,,,,
2069,,pt2_memorable_rating,2585868,US_Cities_List/mm_coeurdalene.png,,51,,,3,,,,,,,,,,,,,,,
null,,confidence_buffer,2585971,confidence_buffer,,null,,,,,,,,,,,,,,,,,,
2484.4000000059605,,recognition_phase,2588457,US_Cities_List/mm_coeurdalene.png,,50,,,,,,old,1,0.8723404255319149,,,,,,,,,,
null,,confidence_buffer,2588560,confidence_buffer,,null,,,,,,,,,,,,,,,,,,
null,,thebreak,2589063,break,,null,,,,,,,,,,,,,,,,,,
38735.40000000596,,pt2_realistic_rating,2627801,US_Cities_List/nat_westpalmbeach.png,,52,US_Cities_List/nat_westpalmbeach.png,NAT,4,,,,,,,,,,,,,,,
null,,confidence_buffer,2627905,confidence_buffer,,null,,,,,,,,,,,,,,,,,,
8505,,pt2_unique_rating,2636412,US_Cities_List/nat_westpalmbeach.png,,52,,,4,,,,,,,,,,,,,,,
null,,confidence_buffer,2636516,confidence_buffer,,null,,,,,,,,,,,,,,,,,,
3606.0999999940395,,pt2_memorable_rating,2640124,US_Cities_List/nat_westpalmbeach.png,,52,,,4,,,,,,,,,,,,,,,
null,,confidence_buffer,2640227,confidence_buffer,,null,,,,,,,,,,,,,,,,,,
3906.5,,recognition_phase,2644136,US_Cities_List/nat_westpalmbeach.png,,51,,,,,,new,1,0.875,,,,,,,,,,
null,,confidence_buffer,2644239,confidence_buffer,,null,,,,,,,,,,,,,,,,,,
null,,thebreak,2644741,break,,null,,,,,,,,,,,,,,,,,,
3116.0999999940395,,pt2_realistic_rating,2647859,US_Cities_List/nat_abilene.png,,53,US_Cities_List/nat_abilene.png,NAT,5,,,,,,,,,,,,,,,
null,,confidence_buffer,2647962,confidence_buffer,,null,,,,,,,,,,,,,,,,,,
12034.5,,pt2_unique_rating,2659999,US_Cities_List/nat_abilene.png,,50,,,2,,,,,,,,,,,,,,,
null,,confidence_buffer,2660102,confidence_buffer,,null,,,,,,,,,,,,,,,,,,
2986,,pt2_memorable_rating,2663090,US_Cities_List/nat_abilene.png,,50,,,2,,,,,,,,,,,,,,,
null,,confidence_buffer,2663193,confidence_buffer,,null,,,,,,,,,,,,,,,,,,
3417.399999976158,,recognition_phase,2666612,US_Cities_List/nat_abilene.png,,52,,,,,,new,0,0.8571428571428571,,,,,,,,,,
null,,confidence_buffer,2666715,confidence_buffer,,null,,,,,,,,,,,,,,,,,,
null,,thebreak,2667218,break,,null,,,,,,,,,,,,,,,,,,
3957.7000000178814,,pt2_realistic_rating,2671178,US_Cities_List/mm_bisbee.png,,52,US_Cities_List/mm_bisbee.png,MM,4,,,,,,,,,,,,,,,
null,,confidence_buffer,2671281,confidence_buffer,,null,,,,,,,,,,,,,,,,,,
29962.90000000596,,pt2_unique_rating,2701247,US_Cities_List/mm_bisbee.png,,51,,,3,,,,,,,,,,,,,,,
null,,confidence_buffer,2701350,confidence_buffer,,null,,,,,,,,,,,,,,,,,,
3630.0999999940395,,pt2_memorable_rating,2704982,US_Cities_List/mm_bisbee.png,,53,,,5,,,,,,,,,,,,,,,
null,,confidence_buffer,2705085,confidence_buffer,,null,,,,,,,,,,,,,,,,,,
2474.0999999940395,,recognition_phase,2707561,US_Cities_List/mm_bisbee.png,,49,,,,,,old,1,0.86,,,,,,,,,,
null,,confidence_buffer,2707664,confidence_buffer,,null,,,,,,,,,,,,,,,,,,
null,,thebreak,2708167,break,,null,,,,,,,,,,,,,,,,,,
4850.300000011921,,pt2_realistic_rating,2713019,US_Cities_List/mm_okoboji.png,,53,US_Cities_List/mm_okoboji.png,MM,5,,,,,,,,,,,,,,,
null,,confidence_buffer,2713123,confidence_buffer,,null,,,,,,,,,,,,,,,,,,
8910,,pt2_unique_rating,2722034,US_Cities_List/mm_okoboji.png,,52,,,4,,,,,,,,,,,,,,,
null,,confidence_buffer,2722137,confidence_buffer,,null,,,,,,,,,,,,,,,,,,
8500.699999988079,,pt2_memorable_rating,2730640,US_Cities_List/mm_okoboji.png,,51,,,3,,,,,,,,,,,,,,,
null,,confidence_buffer,2730742,confidence_buffer,,null,,,,,,,,,,,,,,,,,,
6621.9000000059605,,recognition_phase,2737366,US_Cities_List/mm_okoboji.png,,52,,,,,,new,1,0.8627450980392157,,,,,,,,,,
null,,confidence_buffer,2737469,confidence_buffer,,null,,,,,,,,,,,,,,,,,,
null,,thebreak,2737971,break,,null,,,,,,,,,,,,,,,,,,
13890,,pt2_realistic_rating,2751863,Fictional_Cities_List/img_manmade_16.png,,51,Fictional_Cities_List/img_manmade_16.png,MM,3,,,,,,,,,,,,,,,
null,,confidence_buffer,2751967,confidence_buffer,,null,,,,,,,,,,,,,,,,,,
6012.5,,pt2_unique_rating,2757982,Fictional_Cities_List/img_manmade_16.png,,51,,,3,,,,,,,,,,,,,,,
null,,confidence_buffer,2758085,confidence_buffer,,null,,,,,,,,,,,,,,,,,,
5601.4000000059605,,pt2_memorable_rating,2763689,Fictional_Cities_List/img_manmade_16.png,,52,,,4,,,,,,,,,,,,,,,
null,,confidence_buffer,2763791,confidence_buffer,,null,,,,,,,,,,,,,,,,,,
2622.9000000059605,,recognition_phase,2766417,Fictional_Cities_List/img_manmade_16.png,,51,,,,,,new,1,0.8653846153846154,,,,,,,,,,
null,,confidence_buffer,2766520,confidence_buffer,,null,,,,,,,,,,,,,,,,,,
null,,thebreak,2767023,break,,null,,,,,,,,,,,,,,,,,,
3164.5999999940395,,pt2_realistic_rating,2770189,Fictional_Cities_List/img_manmade_02.png,,52,Fictional_Cities_List/img_manmade_02.png,MM,4,,,,,,,,,,,,,,,
null,,confidence_buffer,2770292,confidence_buffer,,null,,,,,,,,,,,,,,,,,,
2688.0999999940395,,pt2_unique_rating,2772982,Fictional_Cities_List/img_manmade_02.png,,52,,,4,,,,,,,,,,,,,,,
null,,confidence_buffer,2773085,confidence_buffer,,null,,,,,,,,,,,,,,,,,,
29129.20000001788,,pt2_memorable_rating,2802218,Fictional_Cities_List/img_manmade_02.png,,50,,,2,,,,,,,,,,,,,,,
null,,confidence_buffer,2802321,confidence_buffer,,null,,,,,,,,,,,,,,,,,,
3747.0999999940395,,recognition_phase,2806070,Fictional_Cities_List/img_manmade_02.png,,49,,,,,,old,1,0.8679245283018868,,,,,,,,,,
null,,confidence_buffer,2806172,confidence_buffer,,null,,,,,,,,,,,,,,,,,,
null,,thebreak,2806675,break,,null,,,,,,,,,,,,,,,,,,
3692.4000000059605,,pt2_realistic_rating,2810370,Fictional_Cities_List/img_natural_44.png,,53,Fictional_Cities_List/img_natural_44.png,NAT,5,,,,,,,,,,,,,,,
null,,confidence_buffer,2810472,confidence_buffer,,null,,,,,,,,,,,,,,,,,,
4270.5,,pt2_unique_rating,2814745,Fictional_Cities_List/img_natural_44.png,,49,,,1,,,,,,,,,,,,,,,
null,,confidence_buffer,2814847,confidence_buffer,,null,,,,,,,,,,,,,,,,,,
2422.5999999940395,,pt2_memorable_rating,2817272,Fictional_Cities_List/img_natural_44.png,,49,,,1,,,,,,,,,,,,,,,
null,,confidence_buffer,2817374,confidence_buffer,,null,,,,,,,,,,,,,,,,,,
3477.199999988079,,recognition_phase,2820854,Fictional_Cities_List/img_natural_44.png,,52,,,,,,new,1,0.8703703703703703,,,,,,,,,,
null,,confidence_buffer,2820956,confidence_buffer,,null,,,,,,,,,,,,,,,,,,
null,,thebreak,2821460,break,,null,,,,,,,,,,,,,,,,,,
4701.300000011921,,pt2_realistic_rating,2826163,US_Cities_List/nat_hilo.png,,51,US_Cities_List/nat_hilo.png,NAT,3,,,,,,,,,,,,,,,
null,,confidence_buffer,2826267,confidence_buffer,,null,,,,,,,,,,,,,,,,,,
2804.9000000059605,,pt2_unique_rating,2829074,US_Cities_List/nat_hilo.png,,51,,,3,,,,,,,,,,,,,,,
null,,confidence_buffer,2829177,confidence_buffer,,null,,,,,,,,,,,,,,,,,,
1278.5,,pt2_memorable_rating,2830457,US_Cities_List/nat_hilo.png,,51,,,3,,,,,,,,,,,,,,,
null,,confidence_buffer,2830560,confidence_buffer,,null,,,,,,,,,,,,,,,,,,
1994.3999999761581,,recognition_phase,2832557,US_Cities_List/nat_hilo.png,,52,,,,,,new,1,0.8727272727272727,,,,,,,,,,
null,,confidence_buffer,2832659,confidence_buffer,,null,,,,,,,,,,,,,,,,,,
null,,thebreak,2833163,break,,null,,,,,,,,,,,,,,,,,,
46607.20000001788,,pt2_realistic_rating,2879773,US_Cities_List/nat_coeurdalene.png,,52,US_Cities_List/nat_coeurdalene.png,NAT,4,,,,,,,,,,,,,,,
null,,confidence_buffer,2879876,confidence_buffer,,null,,,,,,,,,,,,,,,,,,
3750.0999999940395,,pt2_unique_rating,2883628,US_Cities_List/nat_coeurdalene.png,,52,,,4,,,,,,,,,,,,,,,
null,,confidence_buffer,2883730,confidence_buffer,,null,,,,,,,,,,,,,,,,,,
4623,,pt2_memorable_rating,2888354,US_Cities_List/nat_coeurdalene.png,,52,,,4,,,,,,,,,,,,,,,
null,,confidence_buffer,2888457,confidence_buffer,,null,,,,,,,,,,,,,,,,,,
2240.5999999940395,,recognition_phase,2890700,US_Cities_List/nat_coeurdalene.png,,50,,,,,,old,0,0.8571428571428571,,,,,,,,,,
null,,confidence_buffer,2890804,confidence_buffer,,null,,,,,,,,,,,,,,,,,,
null,,thebreak,2891307,break,,null,,,,,,,,,,,,,,,,,,
4232.5,,pt2_realistic_rating,2895541,Fictional_Cities_List/img_manmade_35.png,,52,Fictional_Cities_List/img_manmade_35.png,MM,4,,,,,,,,,,,,,,,
null,,confidence_buffer,2895645,confidence_buffer,,null,,,,,,,,,,,,,,,,,,
1490.5,,probe_rating,2897138,probe_rating,,50,,,,2,1,,,,,,,,,,,,,
null,,confidence_buffer,2897242,confidence_buffer,,null,,,,,,,,,,,,,,,,,,
3014.5,,pt2_unique_rating,2900258,Fictional_Cities_List/img_manmade_35.png,,53,,,5,,,,,,,,,,,,,,,
null,,confidence_buffer,2900361,confidence_buffer,,null,,,,,,,,,,,,,,,,,,
4156.5,,pt2_memorable_rating,2904520,Fictional_Cities_List/img_manmade_35.png,,51,,,3,,,,,,,,,,,,,,,
null,,confidence_buffer,2904624,confidence_buffer,,null,,,,,,,,,,,,,,,,,,
3061,,recognition_phase,2907687,Fictional_Cities_List/img_manmade_35.png,,49,,,,,,old,1,0.8596491228070176,,,,,,,,,,
null,,confidence_buffer,2907791,confidence_buffer,,null,,,,,,,,,,,,,,,,,,
null,,thebreak,2908294,break,,null,,,,,,,,,,,,,,,,,,
3118.7999999821186,,pt2_realistic_rating,2911415,US_Cities_List/nat_bisbee.png,,52,US_Cities_List/nat_bisbee.png,NAT,4,,,,,,,,,,,,,,,
null,,confidence_buffer,2911518,confidence_buffer,,null,,,,,,,,,,,,,,,,,,
5120.199999988079,,pt2_unique_rating,2916641,US_Cities_List/nat_bisbee.png,,50,,,2,,,,,,,,,,,,,,,
null,,confidence_buffer,2916743,confidence_buffer,,null,,,,,,,,,,,,,,,,,,
5175,,pt2_memorable_rating,2921920,US_Cities_List/nat_bisbee.png,,52,,,4,,,,,,,,,,,,,,,
null,,confidence_buffer,2922023,confidence_buffer,,null,,,,,,,,,,,,,,,,,,
16465.69999998808,,recognition_phase,2938492,US_Cities_List/nat_bisbee.png,,49,,,,,,old,1,0.8620689655172413,,,,,,,,,,
null,,confidence_buffer,2938595,confidence_buffer,,null,,,,,,,,,,,,,,,,,,
null,,thebreak,2939098,break,,null,,,,,,,,,,,,,,,,,,
3126.5999999940395,,pt2_realistic_rating,2942227,Fictional_Cities_List/img_natural_20.png,,52,Fictional_Cities_List/img_natural_20.png,NAT,4,,,,,,,,,,,,,,,
null,,confidence_buffer,2942330,confidence_buffer,,null,,,,,,,,,,,,,,,,,,
4952.800000011921,,pt2_unique_rating,2947285,Fictional_Cities_List/img_natural_20.png,,50,,,2,,,,,,,,,,,,,,,
null,,confidence_buffer,2947389,confidence_buffer,,null,,,,,,,,,,,,,,,,,,
15975.899999976158,,pt2_memorable_rating,2963368,Fictional_Cities_List/img_natural_20.png,,49,,,1,,,,,,,,,,,,,,,
null,,confidence_buffer,2963470,confidence_buffer,,null,,,,,,,,,,,,,,,,,,
1655.7000000178814,,probe_rating,2965127,probe_rating,,49,,,,1,1,,,,,,,,,,,,,
null,,confidence_buffer,2965230,confidence_buffer,,null,,,,,,,,,,,,,,,,,,
7730.699999988079,,recognition_phase,2972963,Fictional_Cities_List/img_natural_20.png,,52,,,,,,new,1,0.864406779661017,,,,,,,,,,
null,,confidence_buffer,2973066,confidence_buffer,,null,,,,,,,,,,,,,,,,,,
null,,thebreak,2973570,break,,null,,,,,,,,,,,,,,,,,,
5742.0999999940395,,pt2_realistic_rating,2979315,US_Cities_List/mm_hilo.png,,51,US_Cities_List/mm_hilo.png,MM,3,,,,,,,,,,,,,,,
null,,confidence_buffer,2979419,confidence_buffer,,null,,,,,,,,,,,,,,,,,,
5256.4000000059605,,pt2_unique_rating,2984677,US_Cities_List/mm_hilo.png,,52,,,4,,,,,,,,,,,,,,,
null,,confidence_buffer,2984781,confidence_buffer,,null,,,,,,,,,,,,,,,,,,
1188.199999988079,,pt2_memorable_rating,2985971,US_Cities_List/mm_hilo.png,,52,,,4,,,,,,,,,,,,,,,
null,,confidence_buffer,2986074,confidence_buffer,,null,,,,,,,,,,,,,,,,,,
2275.300000011921,,recognition_phase,2988351,US_Cities_List/mm_hilo.png,,49,,,,,,old,1,0.8666666666666667,,,,,,,,,,
null,,confidence_buffer,2988455,confidence_buffer,,null,,,,,,,,,,,,,,,,,,
null,,thebreak,2988957,break,,null,,,,,,,,,,,,,,,,,,
,,survey,3976473,survey-questions,,,,,,,,,,,none,high,not at all,Familiar places ,Places have seen or been to before,Places that bring back memories,Amazing places ,Places  that looks realistic,Yes, On prolific I think,none
