rt,responses,trial_type,time_elapsed,stimulus,button_pressed,key_press,name_trial,city_type,rating,probe,probe_accuracy,response,correct,accuracy,problems,smooth,distraction,strategies,familiar,memorable,unique,realistic,similar,comments
20933.299999952316,{worker_id:67dd93a4fe9f3e8ed3ace123},id_enter,20941,,,,,,,,,,,,,,,,,,,,,
33713.199999809265,,fullscreen,54663,fullscreen,0,,,,,,,,,,,,,,,,,,,
11901.5,,intro_0,66572,instruct,,32,,,,,,,,,,,,,,,,,,
30102.900000095367,,intro_1,96678,instruct,,32,,,,,,,,,,,,,,,,,,
11362.900000095367,,intro_2,108043,instruct,,32,,,,,,,,,,,,,,,,,,
null,,instruct_dir_4,109554,instruct,,null,,,,,,,,,,,,,,,,,,
null,,thebreak,110061,break,,null,,,,,,,,,,,,,,,,,,
18429.699999809265,,familiar_rating,128493,Fictional_Cities_List/img_manmade_25.png,,52,Fictional_Cities_List/img_manmade_25.png,MM,4,,,,,,,,,,,,,,,
null,,confidence_buffer,128602,confidence_buffer,,null,,,,,,,,,,,,,,,,,,
12426.599999904633,,unique_rating,141031,Fictional_Cities_List/img_manmade_25.png,,51,,,3,,,,,,,,,,,,,,,
null,,confidence_buffer,141144,confidence_buffer,,null,,,,,,,,,,,,,,,,,,
7793.599999904633,,memorable_rating,148940,Fictional_Cities_List/img_manmade_25.png,,51,,,3,,,,,,,,,,,,,,,
null,,confidence_buffer,149050,confidence_buffer,,null,,,,,,,,,,,,,,,,,,
null,,thebreak,149564,break,,null,,,,,,,,,,,,,,,,,,
9238.599999904633,,familiar_rating,158805,Fictional_Cities_List/img_natural_50.png,,50,Fictional_Cities_List/img_natural_50.png,NAT,2,,,,,,,,,,,,,,,
null,,confidence_buffer,158912,confidence_buffer,,null,,,,,,,,,,,,,,,,,,
8877.200000047684,,unique_rating,167792,Fictional_Cities_List/img_natural_50.png,,52,,,4,,,,,,,,,,,,,,,
null,,confidence_buffer,167901,confidence_buffer,,null,,,,,,,,,,,,,,,,,,
11113.599999904633,,probe_rating,179017,probe_rating,,49,,,,1,1,,,,,,,,,,,,,
null,,confidence_buffer,179137,confidence_buffer,,null,,,,,,,,,,,,,,,,,,
7346.900000095367,,memorable_rating,186486,Fictional_Cities_List/img_natural_50.png,,49,,,1,,,,,,,,,,,,,,,
null,,confidence_buffer,186604,confidence_buffer,,null,,,,,,,,,,,,,,,,,,
null,,thebreak,187117,break,,null,,,,,,,,,,,,,,,,,,
9820.599999904633,,familiar_rating,196941,US_Cities_List/mm_capemay.png,,50,US_Cities_List/mm_capemay.png,MM,2,,,,,,,,,,,,,,,
null,,confidence_buffer,197053,confidence_buffer,,null,,,,,,,,,,,,,,,,,,
6432.899999856949,,unique_rating,203488,US_Cities_List/mm_capemay.png,,52,,,4,,,,,,,,,,,,,,,
null,,confidence_buffer,203598,confidence_buffer,,null,,,,,,,,,,,,,,,,,,
6292.200000047684,,probe_rating,209892,probe_rating,,51,,,,3,1,,,,,,,,,,,,,
null,,confidence_buffer,209999,confidence_buffer,,null,,,,,,,,,,,,,,,,,,
3697.2999999523163,,memorable_rating,213698,US_Cities_List/mm_capemay.png,,50,,,2,,,,,,,,,,,,,,,
null,,confidence_buffer,213809,confidence_buffer,,null,,,,,,,,,,,,,,,,,,
null,,thebreak,214318,break,,null,,,,,,,,,,,,,,,,,,
10362.5,,familiar_rating,224683,US_Cities_List/mm_assateagueisland.png,,49,US_Cities_List/mm_assateagueisland.png,MM,1,,,,,,,,,,,,,,,
null,,confidence_buffer,224794,confidence_buffer,,null,,,,,,,,,,,,,,,,,,
4634.299999952316,,unique_rating,229430,US_Cities_List/mm_assateagueisland.png,,53,,,5,,,,,,,,,,,,,,,
null,,confidence_buffer,229541,confidence_buffer,,null,,,,,,,,,,,,,,,,,,
12370.200000047684,,memorable_rating,241913,US_Cities_List/mm_assateagueisland.png,,49,,,1,,,,,,,,,,,,,,,
null,,confidence_buffer,242018,confidence_buffer,,null,,,,,,,,,,,,,,,,,,
null,,thebreak,242522,break,,null,,,,,,,,,,,,,,,,,,
8201.5,,familiar_rating,250725,Fictional_Cities_List/img_manmade_46.png,,49,Fictional_Cities_List/img_manmade_46.png,MM,1,,,,,,,,,,,,,,,
null,,confidence_buffer,250831,confidence_buffer,,null,,,,,,,,,,,,,,,,,,
3833.0999999046326,,unique_rating,254666,Fictional_Cities_List/img_manmade_46.png,,53,,,5,,,,,,,,,,,,,,,
null,,confidence_buffer,254778,confidence_buffer,,null,,,,,,,,,,,,,,,,,,
6545.699999809265,,memorable_rating,261325,Fictional_Cities_List/img_manmade_46.png,,49,,,1,,,,,,,,,,,,,,,
null,,confidence_buffer,261440,confidence_buffer,,null,,,,,,,,,,,,,,,,,,
null,,thebreak,261951,break,,null,,,,,,,,,,,,,,,,,,
10552.299999952316,,familiar_rating,272506,US_Cities_List/nat_sammamish.png,,50,US_Cities_List/nat_sammamish.png,NAT,2,,,,,,,,,,,,,,,
null,,confidence_buffer,272611,confidence_buffer,,null,,,,,,,,,,,,,,,,,,
4408.299999952316,,unique_rating,277021,US_Cities_List/nat_sammamish.png,,50,,,2,,,,,,,,,,,,,,,
null,,confidence_buffer,277125,confidence_buffer,,null,,,,,,,,,,,,,,,,,,
4123.200000047684,,probe_rating,281251,probe_rating,,53,,,,5,1,,,,,,,,,,,,,
null,,confidence_buffer,281360,confidence_buffer,,null,,,,,,,,,,,,,,,,,,
3492.899999856949,,memorable_rating,284855,US_Cities_List/nat_sammamish.png,,50,,,2,,,,,,,,,,,,,,,
null,,confidence_buffer,284962,confidence_buffer,,null,,,,,,,,,,,,,,,,,,
null,,thebreak,285473,break,,null,,,,,,,,,,,,,,,,,,
6796.200000047684,,familiar_rating,292271,US_Cities_List/mm_custer.png,,49,US_Cities_List/mm_custer.png,MM,1,,,,,,,,,,,,,,,
null,,confidence_buffer,292390,confidence_buffer,,null,,,,,,,,,,,,,,,,,,
3177.5,,unique_rating,295570,US_Cities_List/mm_custer.png,,53,,,5,,,,,,,,,,,,,,,
null,,confidence_buffer,295676,confidence_buffer,,null,,,,,,,,,,,,,,,,,,
4800.100000143051,,memorable_rating,300478,US_Cities_List/mm_custer.png,,49,,,1,,,,,,,,,,,,,,,
null,,confidence_buffer,300585,confidence_buffer,,null,,,,,,,,,,,,,,,,,,
null,,thebreak,301088,break,,null,,,,,,,,,,,,,,,,,,
4533.199999809265,,familiar_rating,305623,Fictional_Cities_List/img_natural_35.png,,50,Fictional_Cities_List/img_natural_35.png,NAT,2,,,,,,,,,,,,,,,
null,,confidence_buffer,305729,confidence_buffer,,null,,,,,,,,,,,,,,,,,,
3840.9000000953674,,unique_rating,309572,Fictional_Cities_List/img_natural_35.png,,51,,,3,,,,,,,,,,,,,,,
null,,confidence_buffer,309678,confidence_buffer,,null,,,,,,,,,,,,,,,,,,
7067.100000143051,,memorable_rating,316748,Fictional_Cities_List/img_natural_35.png,,50,,,2,,,,,,,,,,,,,,,
null,,confidence_buffer,316852,confidence_buffer,,null,,,,,,,,,,,,,,,,,,
null,,thebreak,317358,break,,null,,,,,,,,,,,,,,,,,,
12582.700000047684,,familiar_rating,329944,US_Cities_List/mm_huntsville.png,,52,US_Cities_List/mm_huntsville.png,MM,4,,,,,,,,,,,,,,,
null,,confidence_buffer,330058,confidence_buffer,,null,,,,,,,,,,,,,,,,,,
4872.5,,unique_rating,334932,US_Cities_List/mm_huntsville.png,,52,,,4,,,,,,,,,,,,,,,
null,,confidence_buffer,335035,confidence_buffer,,null,,,,,,,,,,,,,,,,,,
5600.599999904633,,memorable_rating,340638,US_Cities_List/mm_huntsville.png,,51,,,3,,,,,,,,,,,,,,,
null,,confidence_buffer,340750,confidence_buffer,,null,,,,,,,,,,,,,,,,,,
null,,thebreak,341260,break,,null,,,,,,,,,,,,,,,,,,
5647.100000143051,,familiar_rating,346909,Fictional_Cities_List/img_manmade_09.png,,49,Fictional_Cities_List/img_manmade_09.png,MM,1,,,,,,,,,,,,,,,
null,,confidence_buffer,347015,confidence_buffer,,null,,,,,,,,,,,,,,,,,,
2804.7000000476837,,unique_rating,349822,Fictional_Cities_List/img_manmade_09.png,,49,,,1,,,,,,,,,,,,,,,
null,,confidence_buffer,349933,confidence_buffer,,null,,,,,,,,,,,,,,,,,,
3434,,memorable_rating,353369,Fictional_Cities_List/img_manmade_09.png,,49,,,1,,,,,,,,,,,,,,,
null,,confidence_buffer,353475,confidence_buffer,,null,,,,,,,,,,,,,,,,,,
null,,thebreak,353988,break,,null,,,,,,,,,,,,,,,,,,
5232.799999952316,,familiar_rating,359224,US_Cities_List/nat_gloucester.png,,49,US_Cities_List/nat_gloucester.png,NAT,1,,,,,,,,,,,,,,,
null,,confidence_buffer,359334,confidence_buffer,,null,,,,,,,,,,,,,,,,,,
7223.700000047684,,unique_rating,366561,US_Cities_List/nat_gloucester.png,,53,,,5,,,,,,,,,,,,,,,
null,,confidence_buffer,366676,confidence_buffer,,null,,,,,,,,,,,,,,,,,,
3901.7999999523163,,probe_rating,370579,probe_rating,,52,,,,4,1,,,,,,,,,,,,,
null,,confidence_buffer,370686,confidence_buffer,,null,,,,,,,,,,,,,,,,,,
7504.200000047684,,memorable_rating,378192,US_Cities_List/nat_gloucester.png,,49,,,1,,,,,,,,,,,,,,,
null,,confidence_buffer,378297,confidence_buffer,,null,,,,,,,,,,,,,,,,,,
null,,thebreak,378803,break,,null,,,,,,,,,,,,,,,,,,
6525.599999904633,,familiar_rating,385330,Fictional_Cities_List/img_natural_17.png,,49,Fictional_Cities_List/img_natural_17.png,NAT,1,,,,,,,,,,,,,,,
null,,confidence_buffer,385439,confidence_buffer,,null,,,,,,,,,,,,,,,,,,
4842,,unique_rating,390284,Fictional_Cities_List/img_natural_17.png,,53,,,5,,,,,,,,,,,,,,,
null,,confidence_buffer,390396,confidence_buffer,,null,,,,,,,,,,,,,,,,,,
3511.5,,memorable_rating,393910,Fictional_Cities_List/img_natural_17.png,,49,,,1,,,,,,,,,,,,,,,
null,,confidence_buffer,394023,confidence_buffer,,null,,,,,,,,,,,,,,,,,,
null,,thebreak,394533,break,,null,,,,,,,,,,,,,,,,,,
2671.5999999046326,,familiar_rating,397207,US_Cities_List/mm_sitka.png,,49,US_Cities_List/mm_sitka.png,MM,1,,,,,,,,,,,,,,,
null,,confidence_buffer,397318,confidence_buffer,,null,,,,,,,,,,,,,,,,,,
4180.899999856949,,unique_rating,401501,US_Cities_List/mm_sitka.png,,52,,,4,,,,,,,,,,,,,,,
null,,confidence_buffer,401606,confidence_buffer,,null,,,,,,,,,,,,,,,,,,
2355.300000190735,,memorable_rating,403963,US_Cities_List/mm_sitka.png,,49,,,1,,,,,,,,,,,,,,,
null,,confidence_buffer,404071,confidence_buffer,,null,,,,,,,,,,,,,,,,,,
null,,thebreak,404577,break,,null,,,,,,,,,,,,,,,,,,
3839.5,,familiar_rating,408419,Fictional_Cities_List/img_manmade_50.png,,49,Fictional_Cities_List/img_manmade_50.png,MM,1,,,,,,,,,,,,,,,
null,,confidence_buffer,408528,confidence_buffer,,null,,,,,,,,,,,,,,,,,,
1319.2000000476837,,unique_rating,409849,Fictional_Cities_List/img_manmade_50.png,,53,,,5,,,,,,,,,,,,,,,
null,,confidence_buffer,409957,confidence_buffer,,null,,,,,,,,,,,,,,,,,,
1582.0999999046326,,memorable_rating,411544,Fictional_Cities_List/img_manmade_50.png,,49,,,1,,,,,,,,,,,,,,,
null,,confidence_buffer,411650,confidence_buffer,,null,,,,,,,,,,,,,,,,,,
null,,thebreak,412164,break,,null,,,,,,,,,,,,,,,,,,
6768.599999904633,,familiar_rating,418935,US_Cities_List/nat_barnard.png,,49,US_Cities_List/nat_barnard.png,NAT,1,,,,,,,,,,,,,,,
null,,confidence_buffer,419047,confidence_buffer,,null,,,,,,,,,,,,,,,,,,
2606.300000190735,,probe_rating,421656,probe_rating,,50,,,,2,1,,,,,,,,,,,,,
null,,confidence_buffer,421763,confidence_buffer,,null,,,,,,,,,,,,,,,,,,
3911.600000143051,,unique_rating,425677,US_Cities_List/nat_barnard.png,,53,,,5,,,,,,,,,,,,,,,
null,,confidence_buffer,425791,confidence_buffer,,null,,,,,,,,,,,,,,,,,,
6895.200000047684,,memorable_rating,432689,US_Cities_List/nat_barnard.png,,50,,,2,,,,,,,,,,,,,,,
null,,confidence_buffer,432801,confidence_buffer,,null,,,,,,,,,,,,,,,,,,
null,,thebreak,433315,break,,null,,,,,,,,,,,,,,,,,,
11235.200000047684,,familiar_rating,444551,Fictional_Cities_List/img_natural_22.png,,50,Fictional_Cities_List/img_natural_22.png,NAT,2,,,,,,,,,,,,,,,
null,,confidence_buffer,444656,confidence_buffer,,null,,,,,,,,,,,,,,,,,,
7284.199999809265,,unique_rating,451942,Fictional_Cities_List/img_natural_22.png,,53,,,5,,,,,,,,,,,,,,,
null,,confidence_buffer,452048,confidence_buffer,,null,,,,,,,,,,,,,,,,,,
2459.5999999046326,,memorable_rating,454510,Fictional_Cities_List/img_natural_22.png,,50,,,2,,,,,,,,,,,,,,,
null,,confidence_buffer,454622,confidence_buffer,,null,,,,,,,,,,,,,,,,,,
null,,thebreak,455139,break,,null,,,,,,,,,,,,,,,,,,
6805.900000095367,,familiar_rating,461947,US_Cities_List/mm_shreveport.png,,52,US_Cities_List/mm_shreveport.png,MM,4,,,,,,,,,,,,,,,
null,,confidence_buffer,462062,confidence_buffer,,null,,,,,,,,,,,,,,,,,,
2573.7999999523163,,unique_rating,464638,US_Cities_List/mm_shreveport.png,,52,,,4,,,,,,,,,,,,,,,
null,,confidence_buffer,464740,confidence_buffer,,null,,,,,,,,,,,,,,,,,,
5926.400000095367,,probe_rating,470668,probe_rating,,50,,,,2,1,,,,,,,,,,,,,
null,,confidence_buffer,470781,confidence_buffer,,null,,,,,,,,,,,,,,,,,,
3660.699999809265,,memorable_rating,474443,US_Cities_List/mm_shreveport.png,,52,,,4,,,,,,,,,,,,,,,
null,,confidence_buffer,474554,confidence_buffer,,null,,,,,,,,,,,,,,,,,,
null,,thebreak,475057,break,,null,,,,,,,,,,,,,,,,,,
8478,,familiar_rating,483537,Fictional_Cities_List/img_manmade_06.png,,50,Fictional_Cities_List/img_manmade_06.png,MM,2,,,,,,,,,,,,,,,
null,,confidence_buffer,483649,confidence_buffer,,null,,,,,,,,,,,,,,,,,,
1388.1000001430511,,unique_rating,485039,Fictional_Cities_List/img_manmade_06.png,,50,,,2,,,,,,,,,,,,,,,
null,,confidence_buffer,485155,confidence_buffer,,null,,,,,,,,,,,,,,,,,,
2287.5999999046326,,memorable_rating,487445,Fictional_Cities_List/img_manmade_06.png,,50,,,2,,,,,,,,,,,,,,,
null,,confidence_buffer,487552,confidence_buffer,,null,,,,,,,,,,,,,,,,,,
null,,thebreak,488062,break,,null,,,,,,,,,,,,,,,,,,
4385.5,,familiar_rating,492450,Fictional_Cities_List/img_natural_29.png,,49,Fictional_Cities_List/img_natural_29.png,NAT,1,,,,,,,,,,,,,,,
null,,confidence_buffer,492562,confidence_buffer,,null,,,,,,,,,,,,,,,,,,
3489.2999999523163,,unique_rating,496053,Fictional_Cities_List/img_natural_29.png,,53,,,5,,,,,,,,,,,,,,,
null,,confidence_buffer,496162,confidence_buffer,,null,,,,,,,,,,,,,,,,,,
4213.400000095367,,memorable_rating,500377,Fictional_Cities_List/img_natural_29.png,,49,,,1,,,,,,,,,,,,,,,
null,,confidence_buffer,500493,confidence_buffer,,null,,,,,,,,,,,,,,,,,,
null,,thebreak,501004,break,,null,,,,,,,,,,,,,,,,,,
6962.900000095367,,familiar_rating,507969,US_Cities_List/nat_athens.png,,51,US_Cities_List/nat_athens.png,NAT,3,,,,,,,,,,,,,,,
null,,confidence_buffer,508072,confidence_buffer,,null,,,,,,,,,,,,,,,,,,
2248.899999856949,,unique_rating,510323,US_Cities_List/nat_athens.png,,51,,,3,,,,,,,,,,,,,,,
null,,confidence_buffer,510425,confidence_buffer,,null,,,,,,,,,,,,,,,,,,
2556.4000000953674,,memorable_rating,512984,US_Cities_List/nat_athens.png,,51,,,3,,,,,,,,,,,,,,,
null,,confidence_buffer,513092,confidence_buffer,,null,,,,,,,,,,,,,,,,,,
null,,thebreak,513610,break,,null,,,,,,,,,,,,,,,,,,
6974.700000047684,,familiar_rating,520587,Fictional_Cities_List/img_natural_47.png,,51,Fictional_Cities_List/img_natural_47.png,NAT,3,,,,,,,,,,,,,,,
null,,confidence_buffer,520708,confidence_buffer,,null,,,,,,,,,,,,,,,,,,
1338.0999999046326,,unique_rating,522048,Fictional_Cities_List/img_natural_47.png,,51,,,3,,,,,,,,,,,,,,,
null,,confidence_buffer,522159,confidence_buffer,,null,,,,,,,,,,,,,,,,,,
3418.300000190735,,memorable_rating,525579,Fictional_Cities_List/img_natural_47.png,,51,,,3,,,,,,,,,,,,,,,
null,,confidence_buffer,525691,confidence_buffer,,null,,,,,,,,,,,,,,,,,,
null,,thebreak,526197,break,,null,,,,,,,,,,,,,,,,,,
7190.5,,familiar_rating,533389,Fictional_Cities_List/img_manmade_35.png,,49,Fictional_Cities_List/img_manmade_35.png,MM,1,,,,,,,,,,,,,,,
null,,confidence_buffer,533508,confidence_buffer,,null,,,,,,,,,,,,,,,,,,
1769.4000000953674,,unique_rating,535279,Fictional_Cities_List/img_manmade_35.png,,53,,,5,,,,,,,,,,,,,,,
null,,confidence_buffer,535394,confidence_buffer,,null,,,,,,,,,,,,,,,,,,
9758.200000047684,,memorable_rating,545155,Fictional_Cities_List/img_manmade_35.png,,49,,,1,,,,,,,,,,,,,,,
null,,confidence_buffer,545267,confidence_buffer,,null,,,,,,,,,,,,,,,,,,
null,,thebreak,545777,break,,null,,,,,,,,,,,,,,,,,,
17005.099999904633,,familiar_rating,562784,US_Cities_List/mm_follybeach.png,,52,US_Cities_List/mm_follybeach.png,MM,4,,,,,,,,,,,,,,,
null,,confidence_buffer,562887,confidence_buffer,,null,,,,,,,,,,,,,,,,,,
3222.2000000476837,,probe_rating,566112,probe_rating,,52,,,,4,1,,,,,,,,,,,,,
null,,confidence_buffer,566225,confidence_buffer,,null,,,,,,,,,,,,,,,,,,
2626.2000000476837,,unique_rating,568852,US_Cities_List/mm_follybeach.png,,52,,,4,,,,,,,,,,,,,,,
null,,confidence_buffer,568961,confidence_buffer,,null,,,,,,,,,,,,,,,,,,
2499.2999999523163,,memorable_rating,571462,US_Cities_List/mm_follybeach.png,,52,,,4,,,,,,,,,,,,,,,
null,,confidence_buffer,571577,confidence_buffer,,null,,,,,,,,,,,,,,,,,,
null,,thebreak,572086,break,,null,,,,,,,,,,,,,,,,,,
5127.700000047684,,familiar_rating,577215,US_Cities_List/nat_sitka.png,,51,US_Cities_List/nat_sitka.png,NAT,3,,,,,,,,,,,,,,,
null,,confidence_buffer,577326,confidence_buffer,,null,,,,,,,,,,,,,,,,,,
3030.5,,probe_rating,580359,probe_rating,,51,,,,3,1,,,,,,,,,,,,,
null,,confidence_buffer,580471,confidence_buffer,,null,,,,,,,,,,,,,,,,,,
4621.299999952316,,unique_rating,585094,US_Cities_List/nat_sitka.png,,53,,,5,,,,,,,,,,,,,,,
null,,confidence_buffer,585205,confidence_buffer,,null,,,,,,,,,,,,,,,,,,
5560.399999856949,,memorable_rating,590767,US_Cities_List/nat_sitka.png,,51,,,3,,,,,,,,,,,,,,,
null,,confidence_buffer,590877,confidence_buffer,,null,,,,,,,,,,,,,,,,,,
null,,thebreak,591382,break,,null,,,,,,,,,,,,,,,,,,
10294.600000143051,,familiar_rating,601679,US_Cities_List/nat_leesburg.png,,50,US_Cities_List/nat_leesburg.png,NAT,2,,,,,,,,,,,,,,,
null,,confidence_buffer,601787,confidence_buffer,,null,,,,,,,,,,,,,,,,,,
1462.2999999523163,,unique_rating,603251,US_Cities_List/nat_leesburg.png,,50,,,2,,,,,,,,,,,,,,,
null,,confidence_buffer,603355,confidence_buffer,,null,,,,,,,,,,,,,,,,,,
1934.2999999523163,,memorable_rating,605292,US_Cities_List/nat_leesburg.png,,50,,,2,,,,,,,,,,,,,,,
null,,confidence_buffer,605402,confidence_buffer,,null,,,,,,,,,,,,,,,,,,
null,,thebreak,605917,break,,null,,,,,,,,,,,,,,,,,,
3971.800000190735,,familiar_rating,609890,Fictional_Cities_List/img_natural_46.png,,49,Fictional_Cities_List/img_natural_46.png,NAT,1,,,,,,,,,,,,,,,
null,,confidence_buffer,609998,confidence_buffer,,null,,,,,,,,,,,,,,,,,,
3218,,unique_rating,613217,Fictional_Cities_List/img_natural_46.png,,53,,,5,,,,,,,,,,,,,,,
null,,confidence_buffer,613333,confidence_buffer,,null,,,,,,,,,,,,,,,,,,
2717.2000000476837,,memorable_rating,616052,Fictional_Cities_List/img_natural_46.png,,49,,,1,,,,,,,,,,,,,,,
null,,confidence_buffer,616163,confidence_buffer,,null,,,,,,,,,,,,,,,,,,
null,,thebreak,616682,break,,null,,,,,,,,,,,,,,,,,,
3570.7000000476837,,familiar_rating,620255,US_Cities_List/nat_gardnerville.png,,52,US_Cities_List/nat_gardnerville.png,NAT,4,,,,,,,,,,,,,,,
null,,confidence_buffer,620368,confidence_buffer,,null,,,,,,,,,,,,,,,,,,
2037.8999998569489,,probe_rating,622408,probe_rating,,49,,,,1,1,,,,,,,,,,,,,
null,,confidence_buffer,622511,confidence_buffer,,null,,,,,,,,,,,,,,,,,,
5563.399999856949,,unique_rating,628076,US_Cities_List/nat_gardnerville.png,,53,,,5,,,,,,,,,,,,,,,
null,,confidence_buffer,628188,confidence_buffer,,null,,,,,,,,,,,,,,,,,,
7227.700000047684,,memorable_rating,635418,US_Cities_List/nat_gardnerville.png,,52,,,4,,,,,,,,,,,,,,,
null,,confidence_buffer,635521,confidence_buffer,,null,,,,,,,,,,,,,,,,,,
null,,thebreak,636027,break,,null,,,,,,,,,,,,,,,,,,
10026.600000143051,,familiar_rating,646055,Fictional_Cities_List/img_natural_13.png,,50,Fictional_Cities_List/img_natural_13.png,NAT,2,,,,,,,,,,,,,,,
null,,confidence_buffer,646165,confidence_buffer,,null,,,,,,,,,,,,,,,,,,
4586,,unique_rating,650753,Fictional_Cities_List/img_natural_13.png,,50,,,2,,,,,,,,,,,,,,,
null,,confidence_buffer,650862,confidence_buffer,,null,,,,,,,,,,,,,,,,,,
1685.4000000953674,,memorable_rating,652549,Fictional_Cities_List/img_natural_13.png,,50,,,2,,,,,,,,,,,,,,,
null,,confidence_buffer,652651,confidence_buffer,,null,,,,,,,,,,,,,,,,,,
null,,thebreak,653157,break,,null,,,,,,,,,,,,,,,,,,
9918.900000095367,,familiar_rating,663078,US_Cities_List/mm_delawarecity.png,,53,US_Cities_List/mm_delawarecity.png,MM,5,,,,,,,,,,,,,,,
null,,confidence_buffer,663188,confidence_buffer,,null,,,,,,,,,,,,,,,,,,
2108.5,,unique_rating,665298,US_Cities_List/mm_delawarecity.png,,53,,,5,,,,,,,,,,,,,,,
null,,confidence_buffer,665401,confidence_buffer,,null,,,,,,,,,,,,,,,,,,
2756.9000000953674,,memorable_rating,668160,US_Cities_List/mm_delawarecity.png,,52,,,4,,,,,,,,,,,,,,,
null,,confidence_buffer,668272,confidence_buffer,,null,,,,,,,,,,,,,,,,,,
null,,thebreak,668778,break,,null,,,,,,,,,,,,,,,,,,
4646.400000095367,,familiar_rating,673426,Fictional_Cities_List/img_manmade_33.png,,53,Fictional_Cities_List/img_manmade_33.png,MM,5,,,,,,,,,,,,,,,
null,,confidence_buffer,673529,confidence_buffer,,null,,,,,,,,,,,,,,,,,,
1999,,unique_rating,675530,Fictional_Cities_List/img_manmade_33.png,,53,,,5,,,,,,,,,,,,,,,
null,,confidence_buffer,675637,confidence_buffer,,null,,,,,,,,,,,,,,,,,,
1970.7999999523163,,memorable_rating,677610,Fictional_Cities_List/img_manmade_33.png,,53,,,5,,,,,,,,,,,,,,,
null,,confidence_buffer,677714,confidence_buffer,,null,,,,,,,,,,,,,,,,,,
null,,thebreak,678217,break,,null,,,,,,,,,,,,,,,,,,
13882.599999904633,,intro_0,692101,instruct,,32,,,,,,,,,,,,,,,,,,
15058.299999952316,,intro_1,707161,instruct,,32,,,,,,,,,,,,,,,,,,
37565.60000014305,,intro_2,744728,instruct,,32,,,,,,,,,,,,,,,,,,
null,,instruct_dir_4,746232,instruct,,null,,,,,,,,,,,,,,,,,,
13209.900000095367,,pt2_realistic_rating,759444,Fictional_Cities_List/img_manmade_46.png,,49,Fictional_Cities_List/img_manmade_46.png,MM,1,,,,,,,,,,,,,,,
null,,confidence_buffer,759555,confidence_buffer,,null,,,,,,,,,,,,,,,,,,
15353.600000143051,,pt2_unique_rating,774910,Fictional_Cities_List/img_manmade_46.png,,53,,,5,,,,,,,,,,,,,,,
null,,confidence_buffer,775026,confidence_buffer,,null,,,,,,,,,,,,,,,,,,
6325.799999952316,,pt2_memorable_rating,781354,Fictional_Cities_List/img_manmade_46.png,,53,,,5,,,,,,,,,,,,,,,
null,,confidence_buffer,781473,confidence_buffer,,null,,,,,,,,,,,,,,,,,,
7936.299999952316,,recognition_phase,789412,Fictional_Cities_List/img_manmade_46.png,,49,,,,,,old,1,1,,,,,,,,,,
null,,confidence_buffer,789517,confidence_buffer,,null,,,,,,,,,,,,,,,,,,
null,,thebreak,790036,break,,null,,,,,,,,,,,,,,,,,,
8037.700000047684,,pt2_realistic_rating,798075,US_Cities_List/mm_delawarecity.png,,53,US_Cities_List/mm_delawarecity.png,MM,5,,,,,,,,,,,,,,,
null,,confidence_buffer,798186,confidence_buffer,,null,,,,,,,,,,,,,,,,,,
1816.1000001430511,,pt2_unique_rating,800004,US_Cities_List/mm_delawarecity.png,,53,,,5,,,,,,,,,,,,,,,
null,,confidence_buffer,800114,confidence_buffer,,null,,,,,,,,,,,,,,,,,,
2323.7000000476837,,pt2_memorable_rating,802440,US_Cities_List/mm_delawarecity.png,,53,,,5,,,,,,,,,,,,,,,
null,,confidence_buffer,802551,confidence_buffer,,null,,,,,,,,,,,,,,,,,,
5417.200000047684,,recognition_phase,807970,US_Cities_List/mm_delawarecity.png,,49,,,,,,old,1,1,,,,,,,,,,
null,,confidence_buffer,808082,confidence_buffer,,null,,,,,,,,,,,,,,,,,,
null,,thebreak,808587,break,,null,,,,,,,,,,,,,,,,,,
6532.799999952316,,pt2_realistic_rating,815123,US_Cities_List/nat_boulder.png,,49,US_Cities_List/nat_boulder.png,NAT,1,,,,,,,,,,,,,,,
null,,confidence_buffer,815230,confidence_buffer,,null,,,,,,,,,,,,,,,,,,
2215.300000190735,,pt2_unique_rating,817448,US_Cities_List/nat_boulder.png,,52,,,4,,,,,,,,,,,,,,,
null,,confidence_buffer,817560,confidence_buffer,,null,,,,,,,,,,,,,,,,,,
2433.699999809265,,probe_rating,819996,probe_rating,,49,,,,1,1,,,,,,,,,,,,,
null,,confidence_buffer,820107,confidence_buffer,,null,,,,,,,,,,,,,,,,,,
3648,,pt2_memorable_rating,823757,US_Cities_List/nat_boulder.png,,50,,,2,,,,,,,,,,,,,,,
null,,confidence_buffer,823867,confidence_buffer,,null,,,,,,,,,,,,,,,,,,
5046.100000143051,,recognition_phase,828915,US_Cities_List/nat_boulder.png,,52,,,,,,new,1,1,,,,,,,,,,
null,,confidence_buffer,829023,confidence_buffer,,null,,,,,,,,,,,,,,,,,,
null,,thebreak,829531,break,,null,,,,,,,,,,,,,,,,,,
11041.700000047684,,pt2_realistic_rating,840575,US_Cities_List/mm_capemay.png,,50,US_Cities_List/mm_capemay.png,MM,2,,,,,,,,,,,,,,,
null,,confidence_buffer,840678,confidence_buffer,,null,,,,,,,,,,,,,,,,,,
4015.5,,pt2_unique_rating,844696,US_Cities_List/mm_capemay.png,,50,,,2,,,,,,,,,,,,,,,
null,,confidence_buffer,844807,confidence_buffer,,null,,,,,,,,,,,,,,,,,,
1083.6000001430511,,pt2_memorable_rating,845893,US_Cities_List/mm_capemay.png,,50,,,2,,,,,,,,,,,,,,,
null,,confidence_buffer,846004,confidence_buffer,,null,,,,,,,,,,,,,,,,,,
4230.200000047684,,recognition_phase,850237,US_Cities_List/mm_capemay.png,,49,,,,,,old,1,1,,,,,,,,,,
null,,confidence_buffer,850348,confidence_buffer,,null,,,,,,,,,,,,,,,,,,
null,,thebreak,850855,break,,null,,,,,,,,,,,,,,,,,,
7517.5,,pt2_realistic_rating,858374,Fictional_Cities_List/img_manmade_35.png,,49,Fictional_Cities_List/img_manmade_35.png,MM,1,,,,,,,,,,,,,,,
null,,confidence_buffer,858485,confidence_buffer,,null,,,,,,,,,,,,,,,,,,
4679.5,,pt2_unique_rating,863167,Fictional_Cities_List/img_manmade_35.png,,52,,,4,,,,,,,,,,,,,,,
null,,confidence_buffer,863278,confidence_buffer,,null,,,,,,,,,,,,,,,,,,
3022,,pt2_memorable_rating,866302,Fictional_Cities_List/img_manmade_35.png,,51,,,3,,,,,,,,,,,,,,,
null,,confidence_buffer,866406,confidence_buffer,,null,,,,,,,,,,,,,,,,,,
3830.9000000953674,,recognition_phase,870239,Fictional_Cities_List/img_manmade_35.png,,49,,,,,,old,1,1,,,,,,,,,,
null,,confidence_buffer,870343,confidence_buffer,,null,,,,,,,,,,,,,,,,,,
null,,thebreak,870851,break,,null,,,,,,,,,,,,,,,,,,
4091.5999999046326,,pt2_realistic_rating,874944,US_Cities_List/mm_okoboji.png,,50,US_Cities_List/mm_okoboji.png,MM,2,,,,,,,,,,,,,,,
null,,confidence_buffer,875055,confidence_buffer,,null,,,,,,,,,,,,,,,,,,
1371.0999999046326,,pt2_unique_rating,876427,US_Cities_List/mm_okoboji.png,,50,,,2,,,,,,,,,,,,,,,
null,,confidence_buffer,876531,confidence_buffer,,null,,,,,,,,,,,,,,,,,,
1557,,pt2_memorable_rating,878090,US_Cities_List/mm_okoboji.png,,50,,,2,,,,,,,,,,,,,,,
null,,confidence_buffer,878207,confidence_buffer,,null,,,,,,,,,,,,,,,,,,
3969.2000000476837,,recognition_phase,882179,US_Cities_List/mm_okoboji.png,,52,,,,,,new,1,1,,,,,,,,,,
null,,confidence_buffer,882295,confidence_buffer,,null,,,,,,,,,,,,,,,,,,
null,,thebreak,882806,break,,null,,,,,,,,,,,,,,,,,,
6919.100000143051,,pt2_realistic_rating,889727,Fictional_Cities_List/img_natural_46.png,,49,Fictional_Cities_List/img_natural_46.png,NAT,1,,,,,,,,,,,,,,,
null,,confidence_buffer,889841,confidence_buffer,,null,,,,,,,,,,,,,,,,,,
3641,,pt2_unique_rating,893484,Fictional_Cities_List/img_natural_46.png,,53,,,5,,,,,,,,,,,,,,,
null,,confidence_buffer,893592,confidence_buffer,,null,,,,,,,,,,,,,,,,,,
6080.099999904633,,pt2_memorable_rating,899674,Fictional_Cities_List/img_natural_46.png,,49,,,1,,,,,,,,,,,,,,,
null,,confidence_buffer,899777,confidence_buffer,,null,,,,,,,,,,,,,,,,,,
2352.199999809265,,recognition_phase,902132,Fictional_Cities_List/img_natural_46.png,,49,,,,,,old,1,1,,,,,,,,,,
null,,confidence_buffer,902247,confidence_buffer,,null,,,,,,,,,,,,,,,,,,
null,,thebreak,902749,break,,null,,,,,,,,,,,,,,,,,,
5083.599999904633,,pt2_realistic_rating,907834,Fictional_Cities_List/img_manmade_43.png,,53,Fictional_Cities_List/img_manmade_43.png,MM,5,,,,,,,,,,,,,,,
null,,confidence_buffer,907946,confidence_buffer,,null,,,,,,,,,,,,,,,,,,
1403.2999999523163,,pt2_unique_rating,909351,Fictional_Cities_List/img_manmade_43.png,,53,,,5,,,,,,,,,,,,,,,
null,,confidence_buffer,909457,confidence_buffer,,null,,,,,,,,,,,,,,,,,,
5295.900000095367,,pt2_memorable_rating,914754,Fictional_Cities_List/img_manmade_43.png,,53,,,5,,,,,,,,,,,,,,,
null,,confidence_buffer,914869,confidence_buffer,,null,,,,,,,,,,,,,,,,,,
4236.199999809265,,recognition_phase,919108,Fictional_Cities_List/img_manmade_43.png,,52,,,,,,new,1,1,,,,,,,,,,
null,,confidence_buffer,919226,confidence_buffer,,null,,,,,,,,,,,,,,,,,,
null,,thebreak,919743,break,,null,,,,,,,,,,,,,,,,,,
7482.299999952316,,pt2_realistic_rating,927227,US_Cities_List/nat_gardnerville.png,,51,US_Cities_List/nat_gardnerville.png,NAT,3,,,,,,,,,,,,,,,
null,,confidence_buffer,927339,confidence_buffer,,null,,,,,,,,,,,,,,,,,,
5019.599999904633,,probe_rating,932362,probe_rating,,51,,,,3,1,,,,,,,,,,,,,
null,,confidence_buffer,932479,confidence_buffer,,null,,,,,,,,,,,,,,,,,,
3910.2999999523163,,pt2_unique_rating,936391,US_Cities_List/nat_gardnerville.png,,51,,,3,,,,,,,,,,,,,,,
null,,confidence_buffer,936501,confidence_buffer,,null,,,,,,,,,,,,,,,,,,
2740.5,,pt2_memorable_rating,939244,US_Cities_List/nat_gardnerville.png,,51,,,3,,,,,,,,,,,,,,,
null,,confidence_buffer,939355,confidence_buffer,,null,,,,,,,,,,,,,,,,,,
2889.399999856949,,recognition_phase,942247,US_Cities_List/nat_gardnerville.png,,49,,,,,,old,1,1,,,,,,,,,,
null,,confidence_buffer,942366,confidence_buffer,,null,,,,,,,,,,,,,,,,,,
null,,thebreak,942874,break,,null,,,,,,,,,,,,,,,,,,
3169.7000000476837,,pt2_realistic_rating,946046,Fictional_Cities_List/img_manmade_29.png,,50,Fictional_Cities_List/img_manmade_29.png,MM,2,,,,,,,,,,,,,,,
null,,confidence_buffer,946156,confidence_buffer,,null,,,,,,,,,,,,,,,,,,
3540.100000143051,,probe_rating,949698,probe_rating,,50,,,,2,1,,,,,,,,,,,,,
null,,confidence_buffer,949815,confidence_buffer,,null,,,,,,,,,,,,,,,,,,
1101.3999998569489,,pt2_unique_rating,950918,Fictional_Cities_List/img_manmade_29.png,,50,,,2,,,,,,,,,,,,,,,
null,,confidence_buffer,951029,confidence_buffer,,null,,,,,,,,,,,,,,,,,,
1977.7999999523163,,pt2_memorable_rating,953009,Fictional_Cities_List/img_manmade_29.png,,51,,,3,,,,,,,,,,,,,,,
null,,confidence_buffer,953125,confidence_buffer,,null,,,,,,,,,,,,,,,,,,
1952.5999999046326,,recognition_phase,955080,Fictional_Cities_List/img_manmade_29.png,,52,,,,,,new,1,1,,,,,,,,,,
null,,confidence_buffer,955191,confidence_buffer,,null,,,,,,,,,,,,,,,,,,
null,,thebreak,955708,break,,null,,,,,,,,,,,,,,,,,,
2606.100000143051,,pt2_realistic_rating,958316,US_Cities_List/mm_albuquerque.png,,50,US_Cities_List/mm_albuquerque.png,MM,2,,,,,,,,,,,,,,,
null,,confidence_buffer,958419,confidence_buffer,,null,,,,,,,,,,,,,,,,,,
1663,,pt2_unique_rating,960084,US_Cities_List/mm_albuquerque.png,,50,,,2,,,,,,,,,,,,,,,
null,,confidence_buffer,960198,confidence_buffer,,null,,,,,,,,,,,,,,,,,,
6299.200000047684,,pt2_memorable_rating,966499,US_Cities_List/mm_albuquerque.png,,51,,,3,,,,,,,,,,,,,,,
null,,confidence_buffer,966617,confidence_buffer,,null,,,,,,,,,,,,,,,,,,
2456.2000000476837,,recognition_phase,969075,US_Cities_List/mm_albuquerque.png,,52,,,,,,new,1,1,,,,,,,,,,
null,,confidence_buffer,969187,confidence_buffer,,null,,,,,,,,,,,,,,,,,,
null,,thebreak,969695,break,,null,,,,,,,,,,,,,,,,,,
4511.600000143051,,pt2_realistic_rating,974209,US_Cities_List/nat_hilo.png,,51,US_Cities_List/nat_hilo.png,NAT,3,,,,,,,,,,,,,,,
null,,confidence_buffer,974317,confidence_buffer,,null,,,,,,,,,,,,,,,,,,
1330.2999999523163,,pt2_unique_rating,975650,US_Cities_List/nat_hilo.png,,51,,,3,,,,,,,,,,,,,,,
null,,confidence_buffer,975758,confidence_buffer,,null,,,,,,,,,,,,,,,,,,
2505.7999999523163,,pt2_memorable_rating,978265,US_Cities_List/nat_hilo.png,,51,,,3,,,,,,,,,,,,,,,
null,,confidence_buffer,978384,confidence_buffer,,null,,,,,,,,,,,,,,,,,,
2062.7000000476837,,recognition_phase,980449,US_Cities_List/nat_hilo.png,,52,,,,,,new,1,1,,,,,,,,,,
null,,confidence_buffer,980560,confidence_buffer,,null,,,,,,,,,,,,,,,,,,
null,,thebreak,981065,break,,null,,,,,,,,,,,,,,,,,,
2407.2000000476837,,pt2_realistic_rating,983474,US_Cities_List/nat_gloucester.png,,50,US_Cities_List/nat_gloucester.png,NAT,2,,,,,,,,,,,,,,,
null,,confidence_buffer,983587,confidence_buffer,,null,,,,,,,,,,,,,,,,,,
6399,,probe_rating,989988,probe_rating,,50,,,,2,0,,,,,,,,,,,,,
null,,confidence_buffer,990094,confidence_buffer,,null,,,,,,,,,,,,,,,,,,
5314.799999952316,,pt2_unique_rating,995411,US_Cities_List/nat_gloucester.png,,50,,,2,,,,,,,,,,,,,,,
null,,confidence_buffer,995519,confidence_buffer,,null,,,,,,,,,,,,,,,,,,
3619.199999809265,,pt2_memorable_rating,999140,US_Cities_List/nat_gloucester.png,,50,,,2,,,,,,,,,,,,,,,
null,,confidence_buffer,999259,confidence_buffer,,null,,,,,,,,,,,,,,,,,,
1842.5999999046326,,recognition_phase,1001104,US_Cities_List/nat_gloucester.png,,49,,,,,,old,1,1,,,,,,,,,,
null,,confidence_buffer,1001208,confidence_buffer,,null,,,,,,,,,,,,,,,,,,
null,,thebreak,1001716,break,,null,,,,,,,,,,,,,,,,,,
4960.799999952316,,pt2_realistic_rating,1006678,US_Cities_List/mm_shreveport.png,,53,US_Cities_List/mm_shreveport.png,MM,5,,,,,,,,,,,,,,,
null,,confidence_buffer,1006783,confidence_buffer,,null,,,,,,,,,,,,,,,,,,
1003.3000001907349,,pt2_unique_rating,1007788,US_Cities_List/mm_shreveport.png,,53,,,5,,,,,,,,,,,,,,,
null,,confidence_buffer,1007891,confidence_buffer,,null,,,,,,,,,,,,,,,,,,
1119.6999998092651,,pt2_memorable_rating,1009013,US_Cities_List/mm_shreveport.png,,53,,,5,,,,,,,,,,,,,,,
null,,confidence_buffer,1009118,confidence_buffer,,null,,,,,,,,,,,,,,,,,,
1723,,recognition_phase,1010843,US_Cities_List/mm_shreveport.png,,49,,,,,,old,1,1,,,,,,,,,,
null,,confidence_buffer,1010949,confidence_buffer,,null,,,,,,,,,,,,,,,,,,
null,,thebreak,1011456,break,,null,,,,,,,,,,,,,,,,,,
3603.600000143051,,pt2_realistic_rating,1015062,US_Cities_List/mm_follybeach.png,,52,US_Cities_List/mm_follybeach.png,MM,4,,,,,,,,,,,,,,,
null,,confidence_buffer,1015173,confidence_buffer,,null,,,,,,,,,,,,,,,,,,
1916.7000000476837,,pt2_unique_rating,1017092,US_Cities_List/mm_follybeach.png,,52,,,4,,,,,,,,,,,,,,,
null,,confidence_buffer,1017202,confidence_buffer,,null,,,,,,,,,,,,,,,,,,
1705.3000001907349,,pt2_memorable_rating,1018910,US_Cities_List/mm_follybeach.png,,52,,,4,,,,,,,,,,,,,,,
null,,confidence_buffer,1019014,confidence_buffer,,null,,,,,,,,,,,,,,,,,,
1687.0999999046326,,recognition_phase,1020704,US_Cities_List/mm_follybeach.png,,49,,,,,,old,1,1,,,,,,,,,,
null,,confidence_buffer,1020810,confidence_buffer,,null,,,,,,,,,,,,,,,,,,
null,,thebreak,1021328,break,,null,,,,,,,,,,,,,,,,,,
4856.5,,pt2_realistic_rating,1026186,US_Cities_List/mm_custer.png,,49,US_Cities_List/mm_custer.png,MM,1,,,,,,,,,,,,,,,
null,,confidence_buffer,1026301,confidence_buffer,,null,,,,,,,,,,,,,,,,,,
3566.7999999523163,,pt2_unique_rating,1029870,US_Cities_List/mm_custer.png,,53,,,5,,,,,,,,,,,,,,,
null,,confidence_buffer,1029974,confidence_buffer,,null,,,,,,,,,,,,,,,,,,
2696.0999999046326,,pt2_memorable_rating,1032672,US_Cities_List/mm_custer.png,,49,,,1,,,,,,,,,,,,,,,
null,,confidence_buffer,1032785,confidence_buffer,,null,,,,,,,,,,,,,,,,,,
1578.9000000953674,,recognition_phase,1034366,US_Cities_List/mm_custer.png,,49,,,,,,old,1,1,,,,,,,,,,
null,,confidence_buffer,1034478,confidence_buffer,,null,,,,,,,,,,,,,,,,,,
null,,thebreak,1034983,break,,null,,,,,,,,,,,,,,,,,,
11592.5,,pt2_realistic_rating,1046577,Fictional_Cities_List/img_natural_13.png,,50,Fictional_Cities_List/img_natural_13.png,NAT,2,,,,,,,,,,,,,,,
null,,confidence_buffer,1046684,confidence_buffer,,null,,,,,,,,,,,,,,,,,,
1128.7999999523163,,pt2_unique_rating,1047815,Fictional_Cities_List/img_natural_13.png,,50,,,2,,,,,,,,,,,,,,,
null,,confidence_buffer,1047924,confidence_buffer,,null,,,,,,,,,,,,,,,,,,
973.6000001430511,,pt2_memorable_rating,1048899,Fictional_Cities_List/img_natural_13.png,,50,,,2,,,,,,,,,,,,,,,
null,,confidence_buffer,1049003,confidence_buffer,,null,,,,,,,,,,,,,,,,,,
1345.7999999523163,,recognition_phase,1050351,Fictional_Cities_List/img_natural_13.png,,49,,,,,,old,1,1,,,,,,,,,,
null,,confidence_buffer,1050466,confidence_buffer,,null,,,,,,,,,,,,,,,,,,
null,,thebreak,1050973,break,,null,,,,,,,,,,,,,,,,,,
9200.299999952316,,pt2_realistic_rating,1060175,Fictional_Cities_List/img_manmade_03.png,,51,Fictional_Cities_List/img_manmade_03.png,MM,3,,,,,,,,,,,,,,,
null,,confidence_buffer,1060278,confidence_buffer,,null,,,,,,,,,,,,,,,,,,
962.5999999046326,,pt2_unique_rating,1061243,Fictional_Cities_List/img_manmade_03.png,,51,,,3,,,,,,,,,,,,,,,
null,,confidence_buffer,1061345,confidence_buffer,,null,,,,,,,,,,,,,,,,,,
962.4000000953674,,pt2_memorable_rating,1062309,Fictional_Cities_List/img_manmade_03.png,,51,,,3,,,,,,,,,,,,,,,
null,,confidence_buffer,1062417,confidence_buffer,,null,,,,,,,,,,,,,,,,,,
2385.7999999523163,,recognition_phase,1064805,Fictional_Cities_List/img_manmade_03.png,,52,,,,,,new,1,1,,,,,,,,,,
null,,confidence_buffer,1064917,confidence_buffer,,null,,,,,,,,,,,,,,,,,,
null,,thebreak,1065427,break,,null,,,,,,,,,,,,,,,,,,
6429.699999809265,,pt2_realistic_rating,1071859,Fictional_Cities_List/img_manmade_50.png,,49,Fictional_Cities_List/img_manmade_50.png,MM,1,,,,,,,,,,,,,,,
null,,confidence_buffer,1071970,confidence_buffer,,null,,,,,,,,,,,,,,,,,,
3609.100000143051,,pt2_unique_rating,1075582,Fictional_Cities_List/img_manmade_50.png,,52,,,4,,,,,,,,,,,,,,,
null,,confidence_buffer,1075691,confidence_buffer,,null,,,,,,,,,,,,,,,,,,
2344.699999809265,,pt2_memorable_rating,1078038,Fictional_Cities_List/img_manmade_50.png,,49,,,1,,,,,,,,,,,,,,,
null,,confidence_buffer,1078151,confidence_buffer,,null,,,,,,,,,,,,,,,,,,
1648.2999999523163,,recognition_phase,1079802,Fictional_Cities_List/img_manmade_50.png,,49,,,,,,old,1,1,,,,,,,,,,
null,,confidence_buffer,1079916,confidence_buffer,,null,,,,,,,,,,,,,,,,,,
null,,thebreak,1080422,break,,null,,,,,,,,,,,,,,,,,,
4362.100000143051,,pt2_realistic_rating,1084786,Fictional_Cities_List/img_manmade_06.png,,52,Fictional_Cities_List/img_manmade_06.png,MM,4,,,,,,,,,,,,,,,
null,,confidence_buffer,1084890,confidence_buffer,,null,,,,,,,,,,,,,,,,,,
1387.0999999046326,,pt2_unique_rating,1086279,Fictional_Cities_List/img_manmade_06.png,,52,,,4,,,,,,,,,,,,,,,
null,,confidence_buffer,1086382,confidence_buffer,,null,,,,,,,,,,,,,,,,,,
4647.800000190735,,pt2_memorable_rating,1091031,Fictional_Cities_List/img_manmade_06.png,,51,,,3,,,,,,,,,,,,,,,
null,,confidence_buffer,1091143,confidence_buffer,,null,,,,,,,,,,,,,,,,,,
1475.7999999523163,,recognition_phase,1092621,Fictional_Cities_List/img_manmade_06.png,,49,,,,,,old,1,1,,,,,,,,,,
null,,confidence_buffer,1092728,confidence_buffer,,null,,,,,,,,,,,,,,,,,,
null,,thebreak,1093239,break,,null,,,,,,,,,,,,,,,,,,
4503.900000095367,,pt2_realistic_rating,1097745,US_Cities_List/nat_parkcity.png,,52,US_Cities_List/nat_parkcity.png,NAT,4,,,,,,,,,,,,,,,
null,,confidence_buffer,1097854,confidence_buffer,,null,,,,,,,,,,,,,,,,,,
1635.7999999523163,,pt2_unique_rating,1099492,US_Cities_List/nat_parkcity.png,,52,,,4,,,,,,,,,,,,,,,
null,,confidence_buffer,1099602,confidence_buffer,,null,,,,,,,,,,,,,,,,,,
2494.5999999046326,,probe_rating,1102098,probe_rating,,51,,,,3,1,,,,,,,,,,,,,
null,,confidence_buffer,1102215,confidence_buffer,,null,,,,,,,,,,,,,,,,,,
5020,,pt2_memorable_rating,1107237,US_Cities_List/nat_parkcity.png,,52,,,4,,,,,,,,,,,,,,,
null,,confidence_buffer,1107348,confidence_buffer,,null,,,,,,,,,,,,,,,,,,
2372.0999999046326,,recognition_phase,1109723,US_Cities_List/nat_parkcity.png,,52,,,,,,new,1,1,,,,,,,,,,
null,,confidence_buffer,1109832,confidence_buffer,,null,,,,,,,,,,,,,,,,,,
null,,thebreak,1110349,break,,null,,,,,,,,,,,,,,,,,,
3144.5999999046326,,pt2_realistic_rating,1113496,Fictional_Cities_List/img_natural_29.png,,49,Fictional_Cities_List/img_natural_29.png,NAT,1,,,,,,,,,,,,,,,
null,,confidence_buffer,1113604,confidence_buffer,,null,,,,,,,,,,,,,,,,,,
2124.4000000953674,,pt2_unique_rating,1115731,Fictional_Cities_List/img_natural_29.png,,53,,,5,,,,,,,,,,,,,,,
null,,confidence_buffer,1115842,confidence_buffer,,null,,,,,,,,,,,,,,,,,,
1825.1000001430511,,pt2_memorable_rating,1117669,Fictional_Cities_List/img_natural_29.png,,49,,,1,,,,,,,,,,,,,,,
null,,confidence_buffer,1117782,confidence_buffer,,null,,,,,,,,,,,,,,,,,,
1377.2000000476837,,recognition_phase,1119161,Fictional_Cities_List/img_natural_29.png,,49,,,,,,old,1,1,,,,,,,,,,
null,,confidence_buffer,1119278,confidence_buffer,,null,,,,,,,,,,,,,,,,,,
null,,thebreak,1119788,break,,null,,,,,,,,,,,,,,,,,,
12743.5,,pt2_realistic_rating,1132533,Fictional_Cities_List/img_natural_17.png,,50,Fictional_Cities_List/img_natural_17.png,NAT,2,,,,,,,,,,,,,,,
null,,confidence_buffer,1132650,confidence_buffer,,null,,,,,,,,,,,,,,,,,,
1333.7000000476837,,pt2_unique_rating,1133985,Fictional_Cities_List/img_natural_17.png,,50,,,2,,,,,,,,,,,,,,,
null,,confidence_buffer,1134096,confidence_buffer,,null,,,,,,,,,,,,,,,,,,
2262.600000143051,,pt2_memorable_rating,1136360,Fictional_Cities_List/img_natural_17.png,,50,,,2,,,,,,,,,,,,,,,
null,,confidence_buffer,1136463,confidence_buffer,,null,,,,,,,,,,,,,,,,,,
1440.2000000476837,,recognition_phase,1137905,Fictional_Cities_List/img_natural_17.png,,49,,,,,,old,1,1,,,,,,,,,,
null,,confidence_buffer,1138015,confidence_buffer,,null,,,,,,,,,,,,,,,,,,
null,,thebreak,1138522,break,,null,,,,,,,,,,,,,,,,,,
7470.099999904633,,pt2_realistic_rating,1145994,Fictional_Cities_List/img_natural_33.png,,49,Fictional_Cities_List/img_natural_33.png,NAT,1,,,,,,,,,,,,,,,
null,,confidence_buffer,1146113,confidence_buffer,,null,,,,,,,,,,,,,,,,,,
1572.2999999523163,,probe_rating,1147688,probe_rating,,50,,,,2,1,,,,,,,,,,,,,
null,,confidence_buffer,1147796,confidence_buffer,,null,,,,,,,,,,,,,,,,,,
3128,,pt2_unique_rating,1150926,Fictional_Cities_List/img_natural_33.png,,52,,,4,,,,,,,,,,,,,,,
null,,confidence_buffer,1151035,confidence_buffer,,null,,,,,,,,,,,,,,,,,,
3317.2000000476837,,pt2_memorable_rating,1154355,Fictional_Cities_List/img_natural_33.png,,49,,,1,,,,,,,,,,,,,,,
null,,confidence_buffer,1154469,confidence_buffer,,null,,,,,,,,,,,,,,,,,,
1783,,recognition_phase,1156254,Fictional_Cities_List/img_natural_33.png,,49,,,,,,old,0,0.9583333333333334,,,,,,,,,,
null,,confidence_buffer,1156365,confidence_buffer,,null,,,,,,,,,,,,,,,,,,
null,,thebreak,1156879,break,,null,,,,,,,,,,,,,,,,,,
7735.100000143051,,pt2_realistic_rating,1164615,Fictional_Cities_List/img_natural_27.png,,50,Fictional_Cities_List/img_natural_27.png,NAT,2,,,,,,,,,,,,,,,
null,,confidence_buffer,1164719,confidence_buffer,,null,,,,,,,,,,,,,,,,,,
899.5,,pt2_unique_rating,1165621,Fictional_Cities_List/img_natural_27.png,,50,,,2,,,,,,,,,,,,,,,
null,,confidence_buffer,1165728,confidence_buffer,,null,,,,,,,,,,,,,,,,,,
956.7000000476837,,pt2_memorable_rating,1166687,Fictional_Cities_List/img_natural_27.png,,50,,,2,,,,,,,,,,,,,,,
null,,confidence_buffer,1166803,confidence_buffer,,null,,,,,,,,,,,,,,,,,,
3673.600000143051,,probe_rating,1170480,probe_rating,,50,,,,2,1,,,,,,,,,,,,,
null,,confidence_buffer,1170585,confidence_buffer,,null,,,,,,,,,,,,,,,,,,
1528.6000001430511,,recognition_phase,1172116,Fictional_Cities_List/img_natural_27.png,,52,,,,,,new,1,0.96,,,,,,,,,,
null,,confidence_buffer,1172227,confidence_buffer,,null,,,,,,,,,,,,,,,,,,
null,,thebreak,1172736,break,,null,,,,,,,,,,,,,,,,,,
4775.400000095367,,pt2_realistic_rating,1177513,Fictional_Cities_List/img_natural_25.png,,50,Fictional_Cities_List/img_natural_25.png,NAT,2,,,,,,,,,,,,,,,
null,,confidence_buffer,1177629,confidence_buffer,,null,,,,,,,,,,,,,,,,,,
937.5,,pt2_unique_rating,1178568,Fictional_Cities_List/img_natural_25.png,,50,,,2,,,,,,,,,,,,,,,
null,,confidence_buffer,1178675,confidence_buffer,,null,,,,,,,,,,,,,,,,,,
1354.5,,pt2_memorable_rating,1180031,Fictional_Cities_List/img_natural_25.png,,50,,,2,,,,,,,,,,,,,,,
null,,confidence_buffer,1180140,confidence_buffer,,null,,,,,,,,,,,,,,,,,,
2659,,recognition_phase,1182801,Fictional_Cities_List/img_natural_25.png,,52,,,,,,new,1,0.9615384615384616,,,,,,,,,,
null,,confidence_buffer,1182908,confidence_buffer,,null,,,,,,,,,,,,,,,,,,
null,,thebreak,1183416,break,,null,,,,,,,,,,,,,,,,,,
8439,,pt2_realistic_rating,1191856,US_Cities_List/nat_sitka.png,,51,US_Cities_List/nat_sitka.png,NAT,3,,,,,,,,,,,,,,,
null,,confidence_buffer,1191966,confidence_buffer,,null,,,,,,,,,,,,,,,,,,
1297.9000000953674,,pt2_unique_rating,1193266,US_Cities_List/nat_sitka.png,,51,,,3,,,,,,,,,,,,,,,
null,,confidence_buffer,1193377,confidence_buffer,,null,,,,,,,,,,,,,,,,,,
1061.8000001907349,,pt2_memorable_rating,1194441,US_Cities_List/nat_sitka.png,,51,,,3,,,,,,,,,,,,,,,
null,,confidence_buffer,1194544,confidence_buffer,,null,,,,,,,,,,,,,,,,,,
1639,,probe_rating,1196185,probe_rating,,49,,,,1,1,,,,,,,,,,,,,
null,,confidence_buffer,1196295,confidence_buffer,,null,,,,,,,,,,,,,,,,,,
2283.899999856949,,recognition_phase,1198581,US_Cities_List/nat_sitka.png,,49,,,,,,old,1,0.9629629629629629,,,,,,,,,,
null,,confidence_buffer,1198688,confidence_buffer,,null,,,,,,,,,,,,,,,,,,
null,,thebreak,1199205,break,,null,,,,,,,,,,,,,,,,,,
6548.400000095367,,pt2_realistic_rating,1205755,Fictional_Cities_List/img_natural_35.png,,49,Fictional_Cities_List/img_natural_35.png,NAT,1,,,,,,,,,,,,,,,
null,,confidence_buffer,1205866,confidence_buffer,,null,,,,,,,,,,,,,,,,,,
3582.7999999523163,,pt2_unique_rating,1209452,Fictional_Cities_List/img_natural_35.png,,52,,,4,,,,,,,,,,,,,,,
null,,confidence_buffer,1209555,confidence_buffer,,null,,,,,,,,,,,,,,,,,,
1678,,pt2_memorable_rating,1211235,Fictional_Cities_List/img_natural_35.png,,49,,,1,,,,,,,,,,,,,,,
null,,confidence_buffer,1211342,confidence_buffer,,null,,,,,,,,,,,,,,,,,,
1548.3999998569489,,recognition_phase,1212893,Fictional_Cities_List/img_natural_35.png,,49,,,,,,old,1,0.9642857142857143,,,,,,,,,,
null,,confidence_buffer,1212999,confidence_buffer,,null,,,,,,,,,,,,,,,,,,
null,,thebreak,1213517,break,,null,,,,,,,,,,,,,,,,,,
8641,,pt2_realistic_rating,1222160,US_Cities_List/mm_bisbee.png,,50,US_Cities_List/mm_bisbee.png,MM,2,,,,,,,,,,,,,,,
null,,confidence_buffer,1222273,confidence_buffer,,null,,,,,,,,,,,,,,,,,,
2198.4000000953674,,pt2_unique_rating,1224473,US_Cities_List/mm_bisbee.png,,50,,,2,,,,,,,,,,,,,,,
null,,confidence_buffer,1224584,confidence_buffer,,null,,,,,,,,,,,,,,,,,,
943,,pt2_memorable_rating,1225530,US_Cities_List/mm_bisbee.png,,50,,,2,,,,,,,,,,,,,,,
null,,confidence_buffer,1225641,confidence_buffer,,null,,,,,,,,,,,,,,,,,,
2347.199999809265,,probe_rating,1227990,probe_rating,,49,,,,1,1,,,,,,,,,,,,,
null,,confidence_buffer,1228097,confidence_buffer,,null,,,,,,,,,,,,,,,,,,
2168.800000190735,,recognition_phase,1230268,US_Cities_List/mm_bisbee.png,,52,,,,,,new,1,0.9655172413793104,,,,,,,,,,
null,,confidence_buffer,1230379,confidence_buffer,,null,,,,,,,,,,,,,,,,,,
null,,thebreak,1230884,break,,null,,,,,,,,,,,,,,,,,,
8823.5,,pt2_realistic_rating,1239711,Fictional_Cities_List/img_manmade_13.png,,51,Fictional_Cities_List/img_manmade_13.png,MM,3,,,,,,,,,,,,,,,
null,,confidence_buffer,1239814,confidence_buffer,,null,,,,,,,,,,,,,,,,,,
1354.5,,pt2_unique_rating,1241171,Fictional_Cities_List/img_manmade_13.png,,51,,,3,,,,,,,,,,,,,,,
null,,confidence_buffer,1241281,confidence_buffer,,null,,,,,,,,,,,,,,,,,,
1561.2999999523163,,pt2_memorable_rating,1242844,Fictional_Cities_List/img_manmade_13.png,,51,,,3,,,,,,,,,,,,,,,
null,,confidence_buffer,1242953,confidence_buffer,,null,,,,,,,,,,,,,,,,,,
1815.5,,recognition_phase,1244772,Fictional_Cities_List/img_manmade_13.png,,52,,,,,,new,1,0.9666666666666667,,,,,,,,,,
null,,confidence_buffer,1244875,confidence_buffer,,null,,,,,,,,,,,,,,,,,,
null,,thebreak,1245393,break,,null,,,,,,,,,,,,,,,,,,
8223.5,,pt2_realistic_rating,1253618,Fictional_Cities_List/img_manmade_25.png,,51,Fictional_Cities_List/img_manmade_25.png,MM,3,,,,,,,,,,,,,,,
null,,confidence_buffer,1253725,confidence_buffer,,null,,,,,,,,,,,,,,,,,,
1091.1999998092651,,pt2_unique_rating,1254818,Fictional_Cities_List/img_manmade_25.png,,51,,,3,,,,,,,,,,,,,,,
null,,confidence_buffer,1254934,confidence_buffer,,null,,,,,,,,,,,,,,,,,,
2112.4000000953674,,pt2_memorable_rating,1257050,Fictional_Cities_List/img_manmade_25.png,,51,,,3,,,,,,,,,,,,,,,
null,,confidence_buffer,1257158,confidence_buffer,,null,,,,,,,,,,,,,,,,,,
1598.2999999523163,,recognition_phase,1258758,Fictional_Cities_List/img_manmade_25.png,,49,,,,,,old,1,0.967741935483871,,,,,,,,,,
null,,confidence_buffer,1258865,confidence_buffer,,null,,,,,,,,,,,,,,,,,,
null,,thebreak,1259369,break,,null,,,,,,,,,,,,,,,,,,
6998.600000143051,,pt2_realistic_rating,1266370,US_Cities_List/nat_barnard.png,,50,US_Cities_List/nat_barnard.png,NAT,2,,,,,,,,,,,,,,,
null,,confidence_buffer,1266484,confidence_buffer,,null,,,,,,,,,,,,,,,,,,
6164,,pt2_unique_rating,1272651,US_Cities_List/nat_barnard.png,,52,,,4,,,,,,,,,,,,,,,
null,,confidence_buffer,1272762,confidence_buffer,,null,,,,,,,,,,,,,,,,,,
1273.2999999523163,,pt2_memorable_rating,1274038,US_Cities_List/nat_barnard.png,,50,,,2,,,,,,,,,,,,,,,
null,,confidence_buffer,1274150,confidence_buffer,,null,,,,,,,,,,,,,,,,,,
1204,,recognition_phase,1275356,US_Cities_List/nat_barnard.png,,49,,,,,,old,1,0.96875,,,,,,,,,,
null,,confidence_buffer,1275477,confidence_buffer,,null,,,,,,,,,,,,,,,,,,
null,,thebreak,1275982,break,,null,,,,,,,,,,,,,,,,,,
4145.400000095367,,pt2_realistic_rating,1280129,Fictional_Cities_List/img_natural_47.png,,51,Fictional_Cities_List/img_natural_47.png,NAT,3,,,,,,,,,,,,,,,
null,,confidence_buffer,1280238,confidence_buffer,,null,,,,,,,,,,,,,,,,,,
2983,,pt2_unique_rating,1283223,Fictional_Cities_List/img_natural_47.png,,51,,,3,,,,,,,,,,,,,,,
null,,confidence_buffer,1283329,confidence_buffer,,null,,,,,,,,,,,,,,,,,,
1731.5,,pt2_memorable_rating,1285062,Fictional_Cities_List/img_natural_47.png,,50,,,2,,,,,,,,,,,,,,,
null,,confidence_buffer,1285181,confidence_buffer,,null,,,,,,,,,,,,,,,,,,
1471.0999999046326,,recognition_phase,1286654,Fictional_Cities_List/img_natural_47.png,,49,,,,,,old,1,0.9696969696969697,,,,,,,,,,
null,,confidence_buffer,1286766,confidence_buffer,,null,,,,,,,,,,,,,,,,,,
null,,thebreak,1287276,break,,null,,,,,,,,,,,,,,,,,,
7189.899999856949,,pt2_realistic_rating,1294468,US_Cities_List/nat_newport.png,,50,US_Cities_List/nat_newport.png,NAT,2,,,,,,,,,,,,,,,
null,,confidence_buffer,1294588,confidence_buffer,,null,,,,,,,,,,,,,,,,,,
700.0999999046326,,pt2_unique_rating,1295290,US_Cities_List/nat_newport.png,,50,,,2,,,,,,,,,,,,,,,
null,,confidence_buffer,1295402,confidence_buffer,,null,,,,,,,,,,,,,,,,,,
1166.2999999523163,,pt2_memorable_rating,1296570,US_Cities_List/nat_newport.png,,50,,,2,,,,,,,,,,,,,,,
null,,confidence_buffer,1296680,confidence_buffer,,null,,,,,,,,,,,,,,,,,,
1826.5,,recognition_phase,1298508,US_Cities_List/nat_newport.png,,52,,,,,,new,1,0.9705882352941176,,,,,,,,,,
null,,confidence_buffer,1298613,confidence_buffer,,null,,,,,,,,,,,,,,,,,,
null,,thebreak,1299131,break,,null,,,,,,,,,,,,,,,,,,
3568.600000143051,,pt2_realistic_rating,1302702,Fictional_Cities_List/img_manmade_47.png,,51,Fictional_Cities_List/img_manmade_47.png,MM,3,,,,,,,,,,,,,,,
null,,confidence_buffer,1302808,confidence_buffer,,null,,,,,,,,,,,,,,,,,,
1218.3000001907349,,pt2_unique_rating,1304028,Fictional_Cities_List/img_manmade_47.png,,51,,,3,,,,,,,,,,,,,,,
null,,confidence_buffer,1304138,confidence_buffer,,null,,,,,,,,,,,,,,,,,,
1230,,pt2_memorable_rating,1305370,Fictional_Cities_List/img_manmade_47.png,,51,,,3,,,,,,,,,,,,,,,
null,,confidence_buffer,1305476,confidence_buffer,,null,,,,,,,,,,,,,,,,,,
2112.5999999046326,,recognition_phase,1307591,Fictional_Cities_List/img_manmade_47.png,,52,,,,,,new,1,0.9714285714285714,,,,,,,,,,
null,,confidence_buffer,1307706,confidence_buffer,,null,,,,,,,,,,,,,,,,,,
null,,thebreak,1308212,break,,null,,,,,,,,,,,,,,,,,,
6604.099999904633,,pt2_realistic_rating,1314818,US_Cities_List/mm_huntsville.png,,51,US_Cities_List/mm_huntsville.png,MM,3,,,,,,,,,,,,,,,
null,,confidence_buffer,1314934,confidence_buffer,,null,,,,,,,,,,,,,,,,,,
1465.2999999523163,,pt2_unique_rating,1316402,US_Cities_List/mm_huntsville.png,,51,,,3,,,,,,,,,,,,,,,
null,,confidence_buffer,1316512,confidence_buffer,,null,,,,,,,,,,,,,,,,,,
2792.199999809265,,pt2_memorable_rating,1319306,US_Cities_List/mm_huntsville.png,,51,,,3,,,,,,,,,,,,,,,
null,,confidence_buffer,1319408,confidence_buffer,,null,,,,,,,,,,,,,,,,,,
1741,,recognition_phase,1321151,US_Cities_List/mm_huntsville.png,,49,,,,,,old,1,0.9722222222222222,,,,,,,,,,
null,,confidence_buffer,1321257,confidence_buffer,,null,,,,,,,,,,,,,,,,,,
null,,thebreak,1321768,break,,null,,,,,,,,,,,,,,,,,,
4935.299999952316,,pt2_realistic_rating,1326705,US_Cities_List/nat_leesburg.png,,50,US_Cities_List/nat_leesburg.png,NAT,2,,,,,,,,,,,,,,,
null,,confidence_buffer,1326814,confidence_buffer,,null,,,,,,,,,,,,,,,,,,
811.4000000953674,,pt2_unique_rating,1327628,US_Cities_List/nat_leesburg.png,,50,,,2,,,,,,,,,,,,,,,
null,,confidence_buffer,1327737,confidence_buffer,,null,,,,,,,,,,,,,,,,,,
2923.899999856949,,pt2_memorable_rating,1330663,US_Cities_List/nat_leesburg.png,,51,,,3,,,,,,,,,,,,,,,
null,,confidence_buffer,1330770,confidence_buffer,,null,,,,,,,,,,,,,,,,,,
1071,,recognition_phase,1331843,US_Cities_List/nat_leesburg.png,,49,,,,,,old,1,0.972972972972973,,,,,,,,,,
null,,confidence_buffer,1331949,confidence_buffer,,null,,,,,,,,,,,,,,,,,,
null,,thebreak,1332461,break,,null,,,,,,,,,,,,,,,,,,
7018.399999856949,,pt2_realistic_rating,1339481,US_Cities_List/nat_barharbor.png,,50,US_Cities_List/nat_barharbor.png,NAT,2,,,,,,,,,,,,,,,
null,,confidence_buffer,1339592,confidence_buffer,,null,,,,,,,,,,,,,,,,,,
2118.5,,pt2_unique_rating,1341713,US_Cities_List/nat_barharbor.png,,53,,,5,,,,,,,,,,,,,,,
null,,confidence_buffer,1341819,confidence_buffer,,null,,,,,,,,,,,,,,,,,,
1831.7000000476837,,pt2_memorable_rating,1343652,US_Cities_List/nat_barharbor.png,,50,,,2,,,,,,,,,,,,,,,
null,,confidence_buffer,1343768,confidence_buffer,,null,,,,,,,,,,,,,,,,,,
3339.2000000476837,,recognition_phase,1347110,US_Cities_List/nat_barharbor.png,,52,,,,,,new,1,0.9736842105263158,,,,,,,,,,
null,,confidence_buffer,1347220,confidence_buffer,,null,,,,,,,,,,,,,,,,,,
null,,thebreak,1347722,break,,null,,,,,,,,,,,,,,,,,,
4835.099999904633,,pt2_realistic_rating,1352559,US_Cities_List/mm_sitka.png,,49,US_Cities_List/mm_sitka.png,MM,1,,,,,,,,,,,,,,,
null,,confidence_buffer,1352672,confidence_buffer,,null,,,,,,,,,,,,,,,,,,
2388.7999999523163,,pt2_unique_rating,1355062,US_Cities_List/mm_sitka.png,,52,,,4,,,,,,,,,,,,,,,
null,,confidence_buffer,1355167,confidence_buffer,,null,,,,,,,,,,,,,,,,,,
1709.1999998092651,,pt2_memorable_rating,1356878,US_Cities_List/mm_sitka.png,,49,,,1,,,,,,,,,,,,,,,
null,,confidence_buffer,1356995,confidence_buffer,,null,,,,,,,,,,,,,,,,,,
1434.6000001430511,,recognition_phase,1358431,US_Cities_List/mm_sitka.png,,49,,,,,,old,1,0.9743589743589743,,,,,,,,,,
null,,confidence_buffer,1358534,confidence_buffer,,null,,,,,,,,,,,,,,,,,,
null,,thebreak,1359044,break,,null,,,,,,,,,,,,,,,,,,
9010.799999952316,,pt2_realistic_rating,1368057,Fictional_Cities_List/img_manmade_17.png,,50,Fictional_Cities_List/img_manmade_17.png,MM,2,,,,,,,,,,,,,,,
null,,confidence_buffer,1368168,confidence_buffer,,null,,,,,,,,,,,,,,,,,,
3440.2999999523163,,pt2_unique_rating,1371610,Fictional_Cities_List/img_manmade_17.png,,50,,,2,,,,,,,,,,,,,,,
null,,confidence_buffer,1371722,confidence_buffer,,null,,,,,,,,,,,,,,,,,,
1431,,pt2_memorable_rating,1373155,Fictional_Cities_List/img_manmade_17.png,,50,,,2,,,,,,,,,,,,,,,
null,,confidence_buffer,1373261,confidence_buffer,,null,,,,,,,,,,,,,,,,,,
2489.5999999046326,,recognition_phase,1375752,Fictional_Cities_List/img_manmade_17.png,,50,,,,,,old,0,0.95,,,,,,,,,,
null,,confidence_buffer,1375858,confidence_buffer,,null,,,,,,,,,,,,,,,,,,
null,,thebreak,1376368,break,,null,,,,,,,,,,,,,,,,,,
4698.200000047684,,pt2_realistic_rating,1381068,US_Cities_List/mm_natchez.png,,52,US_Cities_List/mm_natchez.png,MM,4,,,,,,,,,,,,,,,
null,,confidence_buffer,1381179,confidence_buffer,,null,,,,,,,,,,,,,,,,,,
1885.2000000476837,,pt2_unique_rating,1383066,US_Cities_List/mm_natchez.png,,52,,,4,,,,,,,,,,,,,,,
null,,confidence_buffer,1383178,confidence_buffer,,null,,,,,,,,,,,,,,,,,,
952,,pt2_memorable_rating,1384132,US_Cities_List/mm_natchez.png,,52,,,4,,,,,,,,,,,,,,,
null,,confidence_buffer,1384236,confidence_buffer,,null,,,,,,,,,,,,,,,,,,
3550.2999999523163,,recognition_phase,1387788,US_Cities_List/mm_natchez.png,,52,,,,,,new,1,0.9512195121951219,,,,,,,,,,
null,,confidence_buffer,1387894,confidence_buffer,,null,,,,,,,,,,,,,,,,,,
null,,thebreak,1388398,break,,null,,,,,,,,,,,,,,,,,,
4260.100000143051,,pt2_realistic_rating,1392660,Fictional_Cities_List/img_natural_06.png,,50,Fictional_Cities_List/img_natural_06.png,NAT,2,,,,,,,,,,,,,,,
null,,confidence_buffer,1392765,confidence_buffer,,null,,,,,,,,,,,,,,,,,,
1832.2000000476837,,pt2_unique_rating,1394600,Fictional_Cities_List/img_natural_06.png,,50,,,2,,,,,,,,,,,,,,,
null,,confidence_buffer,1394711,confidence_buffer,,null,,,,,,,,,,,,,,,,,,
1145.8999998569489,,pt2_memorable_rating,1395859,Fictional_Cities_List/img_natural_06.png,,50,,,2,,,,,,,,,,,,,,,
null,,confidence_buffer,1395974,confidence_buffer,,null,,,,,,,,,,,,,,,,,,
1505.1000001430511,,recognition_phase,1397482,Fictional_Cities_List/img_natural_06.png,,52,,,,,,new,1,0.9523809523809523,,,,,,,,,,
null,,confidence_buffer,1397584,confidence_buffer,,null,,,,,,,,,,,,,,,,,,
null,,thebreak,1398088,break,,null,,,,,,,,,,,,,,,,,,
3917.7999999523163,,pt2_realistic_rating,1402008,US_Cities_List/mm_assateagueisland.png,,51,US_Cities_List/mm_assateagueisland.png,MM,3,,,,,,,,,,,,,,,
null,,confidence_buffer,1402116,confidence_buffer,,null,,,,,,,,,,,,,,,,,,
1572.5,,pt2_unique_rating,1403691,US_Cities_List/mm_assateagueisland.png,,51,,,3,,,,,,,,,,,,,,,
null,,confidence_buffer,1403801,confidence_buffer,,null,,,,,,,,,,,,,,,,,,
1227.6000001430511,,pt2_memorable_rating,1405031,US_Cities_List/mm_assateagueisland.png,,51,,,3,,,,,,,,,,,,,,,
null,,confidence_buffer,1405138,confidence_buffer,,null,,,,,,,,,,,,,,,,,,
1248.3999998569489,,recognition_phase,1406388,US_Cities_List/mm_assateagueisland.png,,49,,,,,,old,1,0.9534883720930233,,,,,,,,,,
null,,confidence_buffer,1406498,confidence_buffer,,null,,,,,,,,,,,,,,,,,,
null,,thebreak,1407003,break,,null,,,,,,,,,,,,,,,,,,
5954.799999952316,,pt2_realistic_rating,1412959,Fictional_Cities_List/img_natural_03.png,,49,Fictional_Cities_List/img_natural_03.png,NAT,1,,,,,,,,,,,,,,,
null,,confidence_buffer,1413066,confidence_buffer,,null,,,,,,,,,,,,,,,,,,
3433.7000000476837,,pt2_unique_rating,1416502,Fictional_Cities_List/img_natural_03.png,,52,,,4,,,,,,,,,,,,,,,
null,,confidence_buffer,1416606,confidence_buffer,,null,,,,,,,,,,,,,,,,,,
1353.5,,pt2_memorable_rating,1417962,Fictional_Cities_List/img_natural_03.png,,49,,,1,,,,,,,,,,,,,,,
null,,confidence_buffer,1418068,confidence_buffer,,null,,,,,,,,,,,,,,,,,,
2714.5,,recognition_phase,1420784,Fictional_Cities_List/img_natural_03.png,,52,,,,,,new,1,0.9545454545454546,,,,,,,,,,
null,,confidence_buffer,1420892,confidence_buffer,,null,,,,,,,,,,,,,,,,,,
null,,thebreak,1421407,break,,null,,,,,,,,,,,,,,,,,,
7066.600000143051,,pt2_realistic_rating,1428475,Fictional_Cities_List/img_manmade_09.png,,50,Fictional_Cities_List/img_manmade_09.png,MM,2,,,,,,,,,,,,,,,
null,,confidence_buffer,1428582,confidence_buffer,,null,,,,,,,,,,,,,,,,,,
1109.6999998092651,,pt2_unique_rating,1429693,Fictional_Cities_List/img_manmade_09.png,,50,,,2,,,,,,,,,,,,,,,
null,,confidence_buffer,1429809,confidence_buffer,,null,,,,,,,,,,,,,,,,,,
988.9000000953674,,pt2_memorable_rating,1430800,Fictional_Cities_List/img_manmade_09.png,,50,,,2,,,,,,,,,,,,,,,
null,,confidence_buffer,1430907,confidence_buffer,,null,,,,,,,,,,,,,,,,,,
1858.3999998569489,,recognition_phase,1432769,Fictional_Cities_List/img_manmade_09.png,,49,,,,,,old,1,0.9555555555555556,,,,,,,,,,
null,,confidence_buffer,1432881,confidence_buffer,,null,,,,,,,,,,,,,,,,,,
null,,thebreak,1433396,break,,null,,,,,,,,,,,,,,,,,,
6706.099999904633,,pt2_realistic_rating,1440104,Fictional_Cities_List/img_natural_43.png,,52,Fictional_Cities_List/img_natural_43.png,NAT,4,,,,,,,,,,,,,,,
null,,confidence_buffer,1440225,confidence_buffer,,null,,,,,,,,,,,,,,,,,,
1512,,pt2_unique_rating,1441739,Fictional_Cities_List/img_natural_43.png,,52,,,4,,,,,,,,,,,,,,,
null,,confidence_buffer,1441846,confidence_buffer,,null,,,,,,,,,,,,,,,,,,
1147.5999999046326,,pt2_memorable_rating,1442997,Fictional_Cities_List/img_natural_43.png,,52,,,4,,,,,,,,,,,,,,,
null,,confidence_buffer,1443108,confidence_buffer,,null,,,,,,,,,,,,,,,,,,
3803.5999999046326,,recognition_phase,1446914,Fictional_Cities_List/img_natural_43.png,,52,,,,,,new,1,0.9565217391304348,,,,,,,,,,
null,,confidence_buffer,1447026,confidence_buffer,,null,,,,,,,,,,,,,,,,,,
null,,thebreak,1447535,break,,null,,,,,,,,,,,,,,,,,,
5453.299999952316,,pt2_realistic_rating,1452990,Fictional_Cities_List/img_natural_22.png,,49,Fictional_Cities_List/img_natural_22.png,NAT,1,,,,,,,,,,,,,,,
null,,confidence_buffer,1453096,confidence_buffer,,null,,,,,,,,,,,,,,,,,,
2429.5999999046326,,pt2_unique_rating,1455527,Fictional_Cities_List/img_natural_22.png,,52,,,4,,,,,,,,,,,,,,,
null,,confidence_buffer,1455638,confidence_buffer,,null,,,,,,,,,,,,,,,,,,
1824.9000000953674,,pt2_memorable_rating,1457465,Fictional_Cities_List/img_natural_22.png,,49,,,1,,,,,,,,,,,,,,,
null,,confidence_buffer,1457568,confidence_buffer,,null,,,,,,,,,,,,,,,,,,
1142.2999999523163,,recognition_phase,1458712,Fictional_Cities_List/img_natural_22.png,,49,,,,,,old,1,0.9574468085106383,,,,,,,,,,
null,,confidence_buffer,1458819,confidence_buffer,,null,,,,,,,,,,,,,,,,,,
null,,thebreak,1459327,break,,null,,,,,,,,,,,,,,,,,,
6337.900000095367,,pt2_realistic_rating,1465666,Fictional_Cities_List/img_manmade_27.png,,52,Fictional_Cities_List/img_manmade_27.png,MM,4,,,,,,,,,,,,,,,
null,,confidence_buffer,1465772,confidence_buffer,,null,,,,,,,,,,,,,,,,,,
3991.899999856949,,pt2_unique_rating,1469765,Fictional_Cities_List/img_manmade_27.png,,52,,,4,,,,,,,,,,,,,,,
null,,confidence_buffer,1469870,confidence_buffer,,null,,,,,,,,,,,,,,,,,,
998.7000000476837,,pt2_memorable_rating,1470871,Fictional_Cities_List/img_manmade_27.png,,52,,,4,,,,,,,,,,,,,,,
null,,confidence_buffer,1470976,confidence_buffer,,null,,,,,,,,,,,,,,,,,,
1439.2000000476837,,recognition_phase,1472416,Fictional_Cities_List/img_manmade_27.png,,52,,,,,,new,1,0.9583333333333334,,,,,,,,,,
null,,confidence_buffer,1472530,confidence_buffer,,null,,,,,,,,,,,,,,,,,,
null,,thebreak,1473046,break,,null,,,,,,,,,,,,,,,,,,
4079.699999809265,,pt2_realistic_rating,1477128,US_Cities_List/mm_sanantonio.png,,51,US_Cities_List/mm_sanantonio.png,MM,3,,,,,,,,,,,,,,,
null,,confidence_buffer,1477231,confidence_buffer,,null,,,,,,,,,,,,,,,,,,
1221.2000000476837,,pt2_unique_rating,1478454,US_Cities_List/mm_sanantonio.png,,51,,,3,,,,,,,,,,,,,,,
null,,confidence_buffer,1478563,confidence_buffer,,null,,,,,,,,,,,,,,,,,,
998.0999999046326,,pt2_memorable_rating,1479563,US_Cities_List/mm_sanantonio.png,,51,,,3,,,,,,,,,,,,,,,
null,,confidence_buffer,1479666,confidence_buffer,,null,,,,,,,,,,,,,,,,,,
3657.2000000476837,,recognition_phase,1483325,US_Cities_List/mm_sanantonio.png,,52,,,,,,new,1,0.9591836734693877,,,,,,,,,,
null,,confidence_buffer,1483435,confidence_buffer,,null,,,,,,,,,,,,,,,,,,
null,,thebreak,1483955,break,,null,,,,,,,,,,,,,,,,,,
7549.200000047684,,pt2_realistic_rating,1491506,US_Cities_List/nat_delawarecity.png,,50,US_Cities_List/nat_delawarecity.png,NAT,2,,,,,,,,,,,,,,,
null,,confidence_buffer,1491612,confidence_buffer,,null,,,,,,,,,,,,,,,,,,
4175.299999952316,,pt2_unique_rating,1495789,US_Cities_List/nat_delawarecity.png,,51,,,3,,,,,,,,,,,,,,,
null,,confidence_buffer,1495892,confidence_buffer,,null,,,,,,,,,,,,,,,,,,
2097.300000190735,,pt2_memorable_rating,1497991,US_Cities_List/nat_delawarecity.png,,50,,,2,,,,,,,,,,,,,,,
null,,confidence_buffer,1498095,confidence_buffer,,null,,,,,,,,,,,,,,,,,,
3773,,recognition_phase,1501870,US_Cities_List/nat_delawarecity.png,,51,,,,,,new,1,0.96,,,,,,,,,,
null,,confidence_buffer,1501976,confidence_buffer,,null,,,,,,,,,,,,,,,,,,
null,,thebreak,1502483,break,,null,,,,,,,,,,,,,,,,,,
11462.799999952316,,pt2_realistic_rating,1513948,US_Cities_List/mm_hanover.png,,51,US_Cities_List/mm_hanover.png,MM,3,,,,,,,,,,,,,,,
null,,confidence_buffer,1514058,confidence_buffer,,null,,,,,,,,,,,,,,,,,,
1649.8000001907349,,pt2_unique_rating,1515710,US_Cities_List/mm_hanover.png,,51,,,3,,,,,,,,,,,,,,,
null,,confidence_buffer,1515826,confidence_buffer,,null,,,,,,,,,,,,,,,,,,
2793.899999856949,,pt2_memorable_rating,1518623,US_Cities_List/mm_hanover.png,,51,,,3,,,,,,,,,,,,,,,
null,,confidence_buffer,1518729,confidence_buffer,,null,,,,,,,,,,,,,,,,,,
2145.2000000476837,,recognition_phase,1520877,US_Cities_List/mm_hanover.png,,52,,,,,,new,1,0.9607843137254902,,,,,,,,,,
null,,confidence_buffer,1520984,confidence_buffer,,null,,,,,,,,,,,,,,,,,,
null,,thebreak,1521495,break,,null,,,,,,,,,,,,,,,,,,
3400.7999999523163,,pt2_realistic_rating,1524897,US_Cities_List/nat_follybeach.png,,50,US_Cities_List/nat_follybeach.png,NAT,2,,,,,,,,,,,,,,,
null,,confidence_buffer,1525007,confidence_buffer,,null,,,,,,,,,,,,,,,,,,
3263.9000000953674,,pt2_unique_rating,1528273,US_Cities_List/nat_follybeach.png,,50,,,2,,,,,,,,,,,,,,,
null,,confidence_buffer,1528376,confidence_buffer,,null,,,,,,,,,,,,,,,,,,
2381.5999999046326,,pt2_memorable_rating,1530760,US_Cities_List/nat_follybeach.png,,50,,,2,,,,,,,,,,,,,,,
null,,confidence_buffer,1530866,confidence_buffer,,null,,,,,,,,,,,,,,,,,,
2734.2999999523163,,recognition_phase,1533602,US_Cities_List/nat_follybeach.png,,52,,,,,,new,1,0.9615384615384616,,,,,,,,,,
null,,confidence_buffer,1533709,confidence_buffer,,null,,,,,,,,,,,,,,,,,,
null,,thebreak,1534222,break,,null,,,,,,,,,,,,,,,,,,
6868.200000047684,,pt2_realistic_rating,1541091,Fictional_Cities_List/img_manmade_33.png,,53,Fictional_Cities_List/img_manmade_33.png,MM,5,,,,,,,,,,,,,,,
null,,confidence_buffer,1541200,confidence_buffer,,null,,,,,,,,,,,,,,,,,,
1773.2999999523163,,pt2_unique_rating,1542975,Fictional_Cities_List/img_manmade_33.png,,53,,,5,,,,,,,,,,,,,,,
null,,confidence_buffer,1543086,confidence_buffer,,null,,,,,,,,,,,,,,,,,,
2208.7000000476837,,pt2_memorable_rating,1545296,Fictional_Cities_List/img_manmade_33.png,,53,,,5,,,,,,,,,,,,,,,
null,,confidence_buffer,1545407,confidence_buffer,,null,,,,,,,,,,,,,,,,,,
2759.100000143051,,probe_rating,1548168,probe_rating,,49,,,,1,1,,,,,,,,,,,,,
null,,confidence_buffer,1548282,confidence_buffer,,null,,,,,,,,,,,,,,,,,,
2026.7000000476837,,recognition_phase,1550310,Fictional_Cities_List/img_manmade_33.png,,49,,,,,,old,1,0.9622641509433962,,,,,,,,,,
null,,confidence_buffer,1550416,confidence_buffer,,null,,,,,,,,,,,,,,,,,,
null,,thebreak,1550923,break,,null,,,,,,,,,,,,,,,,,,
9201.200000047684,,pt2_realistic_rating,1560127,Fictional_Cities_List/img_natural_09.png,,49,Fictional_Cities_List/img_natural_09.png,NAT,1,,,,,,,,,,,,,,,
null,,confidence_buffer,1560240,confidence_buffer,,null,,,,,,,,,,,,,,,,,,
1636.6999998092651,,pt2_unique_rating,1561879,Fictional_Cities_List/img_natural_09.png,,50,,,2,,,,,,,,,,,,,,,
null,,confidence_buffer,1561993,confidence_buffer,,null,,,,,,,,,,,,,,,,,,
1994.8999998569489,,pt2_memorable_rating,1563990,Fictional_Cities_List/img_natural_09.png,,49,,,1,,,,,,,,,,,,,,,
null,,confidence_buffer,1564105,confidence_buffer,,null,,,,,,,,,,,,,,,,,,
3612.5,,recognition_phase,1567719,Fictional_Cities_List/img_natural_09.png,,50,,,,,,old,0,0.9444444444444444,,,,,,,,,,
null,,confidence_buffer,1567822,confidence_buffer,,null,,,,,,,,,,,,,,,,,,
null,,thebreak,1568331,break,,null,,,,,,,,,,,,,,,,,,
3761.7999999523163,,pt2_realistic_rating,1572095,US_Cities_List/nat_athens.png,,51,US_Cities_List/nat_athens.png,NAT,3,,,,,,,,,,,,,,,
null,,confidence_buffer,1572198,confidence_buffer,,null,,,,,,,,,,,,,,,,,,
2647.5,,pt2_unique_rating,1574848,US_Cities_List/nat_athens.png,,51,,,3,,,,,,,,,,,,,,,
null,,confidence_buffer,1574955,confidence_buffer,,null,,,,,,,,,,,,,,,,,,
2566.100000143051,,pt2_memorable_rating,1577524,US_Cities_List/nat_athens.png,,51,,,3,,,,,,,,,,,,,,,
null,,confidence_buffer,1577635,confidence_buffer,,null,,,,,,,,,,,,,,,,,,
1886.5,,recognition_phase,1579524,US_Cities_List/nat_athens.png,,49,,,,,,old,1,0.9454545454545454,,,,,,,,,,
null,,confidence_buffer,1579634,confidence_buffer,,null,,,,,,,,,,,,,,,,,,
null,,thebreak,1580142,break,,null,,,,,,,,,,,,,,,,,,
3926.5999999046326,,pt2_realistic_rating,1584071,US_Cities_List/mm_cody.png,,53,US_Cities_List/mm_cody.png,MM,5,,,,,,,,,,,,,,,
null,,confidence_buffer,1584177,confidence_buffer,,null,,,,,,,,,,,,,,,,,,
1902.7999999523163,,pt2_unique_rating,1586081,US_Cities_List/mm_cody.png,,53,,,5,,,,,,,,,,,,,,,
null,,confidence_buffer,1586191,confidence_buffer,,null,,,,,,,,,,,,,,,,,,
1907,,pt2_memorable_rating,1588100,US_Cities_List/mm_cody.png,,53,,,5,,,,,,,,,,,,,,,
null,,confidence_buffer,1588209,confidence_buffer,,null,,,,,,,,,,,,,,,,,,
3955.7999999523163,,recognition_phase,1592167,US_Cities_List/mm_cody.png,,52,,,,,,new,1,0.9464285714285714,,,,,,,,,,
null,,confidence_buffer,1592277,confidence_buffer,,null,,,,,,,,,,,,,,,,,,
null,,thebreak,1592795,break,,null,,,,,,,,,,,,,,,,,,
4356.5,,pt2_realistic_rating,1597154,US_Cities_List/nat_sammamish.png,,49,US_Cities_List/nat_sammamish.png,NAT,1,,,,,,,,,,,,,,,
null,,confidence_buffer,1597261,confidence_buffer,,null,,,,,,,,,,,,,,,,,,
3056.7000000476837,,pt2_unique_rating,1600320,US_Cities_List/nat_sammamish.png,,51,,,3,,,,,,,,,,,,,,,
null,,confidence_buffer,1600435,confidence_buffer,,null,,,,,,,,,,,,,,,,,,
2297.7999999523163,,pt2_memorable_rating,1602735,US_Cities_List/nat_sammamish.png,,49,,,1,,,,,,,,,,,,,,,
null,,confidence_buffer,1602851,confidence_buffer,,null,,,,,,,,,,,,,,,,,,
1829.5,,recognition_phase,1604683,US_Cities_List/nat_sammamish.png,,49,,,,,,old,1,0.9473684210526315,,,,,,,,,,
null,,confidence_buffer,1604794,confidence_buffer,,null,,,,,,,,,,,,,,,,,,
null,,thebreak,1605310,break,,null,,,,,,,,,,,,,,,,,,
3400.300000190735,,pt2_realistic_rating,1608713,Fictional_Cities_List/img_manmade_22.png,,53,Fictional_Cities_List/img_manmade_22.png,MM,5,,,,,,,,,,,,,,,
null,,confidence_buffer,1608823,confidence_buffer,,null,,,,,,,,,,,,,,,,,,
1776,,pt2_unique_rating,1610601,Fictional_Cities_List/img_manmade_22.png,,53,,,5,,,,,,,,,,,,,,,
null,,confidence_buffer,1610712,confidence_buffer,,null,,,,,,,,,,,,,,,,,,
1113.5999999046326,,pt2_memorable_rating,1611827,Fictional_Cities_List/img_manmade_22.png,,53,,,5,,,,,,,,,,,,,,,
null,,confidence_buffer,1611930,confidence_buffer,,null,,,,,,,,,,,,,,,,,,
2983.2000000476837,,recognition_phase,1614915,Fictional_Cities_List/img_manmade_22.png,,52,,,,,,new,1,0.9482758620689655,,,,,,,,,,
null,,confidence_buffer,1615026,confidence_buffer,,null,,,,,,,,,,,,,,,,,,
null,,thebreak,1615536,break,,null,,,,,,,,,,,,,,,,,,
3021.2000000476837,,pt2_realistic_rating,1618559,Fictional_Cities_List/img_natural_50.png,,49,Fictional_Cities_List/img_natural_50.png,NAT,1,,,,,,,,,,,,,,,
null,,confidence_buffer,1618663,confidence_buffer,,null,,,,,,,,,,,,,,,,,,
1661.5999999046326,,pt2_unique_rating,1620326,Fictional_Cities_List/img_natural_50.png,,49,,,1,,,,,,,,,,,,,,,
null,,confidence_buffer,1620439,confidence_buffer,,null,,,,,,,,,,,,,,,,,,
1753.2999999523163,,pt2_memorable_rating,1622195,Fictional_Cities_List/img_natural_50.png,,49,,,1,,,,,,,,,,,,,,,
null,,confidence_buffer,1622307,confidence_buffer,,null,,,,,,,,,,,,,,,,,,
2207.300000190735,,recognition_phase,1624517,Fictional_Cities_List/img_natural_50.png,,49,,,,,,old,1,0.9491525423728814,,,,,,,,,,
null,,confidence_buffer,1624630,confidence_buffer,,null,,,,,,,,,,,,,,,,,,
null,,thebreak,1625144,break,,null,,,,,,,,,,,,,,,,,,
3144.2999999523163,,pt2_realistic_rating,1628290,US_Cities_List/nat_newhope.png,,52,US_Cities_List/nat_newhope.png,NAT,4,,,,,,,,,,,,,,,
null,,confidence_buffer,1628401,confidence_buffer,,null,,,,,,,,,,,,,,,,,,
1662.7000000476837,,pt2_unique_rating,1630066,US_Cities_List/nat_newhope.png,,52,,,4,,,,,,,,,,,,,,,
null,,confidence_buffer,1630170,confidence_buffer,,null,,,,,,,,,,,,,,,,,,
1346.5,,pt2_memorable_rating,1631518,US_Cities_List/nat_newhope.png,,52,,,4,,,,,,,,,,,,,,,
null,,confidence_buffer,1631626,confidence_buffer,,null,,,,,,,,,,,,,,,,,,
1511.2000000476837,,recognition_phase,1633139,US_Cities_List/nat_newhope.png,,52,,,,,,new,1,0.95,,,,,,,,,,
null,,confidence_buffer,1633244,confidence_buffer,,null,,,,,,,,,,,,,,,,,,
null,,thebreak,1633754,break,,null,,,,,,,,,,,,,,,,,,
,,survey,2137470,survey-questions,,,,,,,,,,,none,high,I strictly focused on the study. I did not do anything else.,I memorised the pictures and I was so keen on attention checks and number buttons.,The photo I had seen before.,How fast I could think of the place.,How peculiar it looked like.,How convinsing the photo looked organic.,No,The task was exciting.
