rt,responses,trial_type,time_elapsed,stimulus,button_pressed,key_press,name_trial,city_type,rating,probe,probe_accuracy,response,correct,accuracy,problems,smooth,distraction,strategies,familiar,memorable,unique,realistic,similar,comments
5654.600000023842,{worker_id:67de56006ee9e8080172cf63},id_enter,5675,,,,,,,,,,,,,,,,,,,,,
9709.899999976158,,fullscreen,15411,fullscreen,0,,,,,,,,,,,,,,,,,,,
4454,,intro_0,19876,instruct,,32,,,,,,,,,,,,,,,,,,
24436.700000047684,,intro_1,44320,instruct,,32,,,,,,,,,,,,,,,,,,
10174.5,,intro_2,54499,instruct,,32,,,,,,,,,,,,,,,,,,
null,,instruct_dir_4,56006,instruct,,null,,,,,,,,,,,,,,,,,,
null,,thebreak,56515,break,,null,,,,,,,,,,,,,,,,,,
9728.600000023842,,familiar_rating,66249,Fictional_Cities_List/img_manmade_39.png,,52,Fictional_Cities_List/img_manmade_39.png,MM,4,,,,,,,,,,,,,,,
null,,confidence_buffer,66361,confidence_buffer,,null,,,,,,,,,,,,,,,,,,
5193.399999976158,,unique_rating,71558,Fictional_Cities_List/img_manmade_39.png,,53,,,5,,,,,,,,,,,,,,,
null,,confidence_buffer,71668,confidence_buffer,,null,,,,,,,,,,,,,,,,,,
3494,,memorable_rating,75168,Fictional_Cities_List/img_manmade_39.png,,51,,,3,,,,,,,,,,,,,,,
null,,confidence_buffer,75276,confidence_buffer,,null,,,,,,,,,,,,,,,,,,
3424.7999999523163,,probe_rating,78703,probe_rating,,51,,,,3,1,,,,,,,,,,,,,
null,,confidence_buffer,78810,confidence_buffer,,null,,,,,,,,,,,,,,,,,,
null,,thebreak,79318,break,,null,,,,,,,,,,,,,,,,,,
5539.399999976158,,familiar_rating,84860,US_Cities_List/mm_okoboji.png,,50,US_Cities_List/mm_okoboji.png,MM,2,,,,,,,,,,,,,,,
null,,confidence_buffer,84968,confidence_buffer,,null,,,,,,,,,,,,,,,,,,
5563.799999952316,,unique_rating,90535,US_Cities_List/mm_okoboji.png,,52,,,4,,,,,,,,,,,,,,,
null,,confidence_buffer,90648,confidence_buffer,,null,,,,,,,,,,,,,,,,,,
3831.399999976158,,probe_rating,94484,probe_rating,,51,,,,3,1,,,,,,,,,,,,,
null,,confidence_buffer,94602,confidence_buffer,,null,,,,,,,,,,,,,,,,,,
4696,,memorable_rating,99301,US_Cities_List/mm_okoboji.png,,52,,,4,,,,,,,,,,,,,,,
null,,confidence_buffer,99405,confidence_buffer,,null,,,,,,,,,,,,,,,,,,
null,,thebreak,99913,break,,null,,,,,,,,,,,,,,,,,,
5132.799999952316,,familiar_rating,105048,US_Cities_List/nat_bisbee.png,,52,US_Cities_List/nat_bisbee.png,NAT,4,,,,,,,,,,,,,,,
null,,confidence_buffer,105157,confidence_buffer,,null,,,,,,,,,,,,,,,,,,
3738.2999999523163,,unique_rating,108898,US_Cities_List/nat_bisbee.png,,53,,,5,,,,,,,,,,,,,,,
null,,confidence_buffer,109011,confidence_buffer,,null,,,,,,,,,,,,,,,,,,
4626.399999976158,,memorable_rating,113641,US_Cities_List/nat_bisbee.png,,51,,,3,,,,,,,,,,,,,,,
null,,confidence_buffer,113751,confidence_buffer,,null,,,,,,,,,,,,,,,,,,
null,,thebreak,114256,break,,null,,,,,,,,,,,,,,,,,,
4472.599999904633,,familiar_rating,118731,Fictional_Cities_List/img_natural_19.png,,50,Fictional_Cities_List/img_natural_19.png,NAT,2,,,,,,,,,,,,,,,
null,,confidence_buffer,118835,confidence_buffer,,null,,,,,,,,,,,,,,,,,,
4720.899999976158,,unique_rating,123559,Fictional_Cities_List/img_natural_19.png,,51,,,3,,,,,,,,,,,,,,,
null,,confidence_buffer,123669,confidence_buffer,,null,,,,,,,,,,,,,,,,,,
8427.5,,memorable_rating,132101,Fictional_Cities_List/img_natural_19.png,,49,,,1,,,,,,,,,,,,,,,
null,,confidence_buffer,132213,confidence_buffer,,null,,,,,,,,,,,,,,,,,,
null,,thebreak,132730,break,,null,,,,,,,,,,,,,,,,,,
4634.900000095367,,familiar_rating,137368,US_Cities_List/mm_sitka.png,,53,US_Cities_List/mm_sitka.png,MM,5,,,,,,,,,,,,,,,
null,,confidence_buffer,137494,confidence_buffer,,null,,,,,,,,,,,,,,,,,,
2614.4000000953674,,unique_rating,140111,US_Cities_List/mm_sitka.png,,52,,,4,,,,,,,,,,,,,,,
null,,confidence_buffer,140230,confidence_buffer,,null,,,,,,,,,,,,,,,,,,
1808.0999999046326,,memorable_rating,142041,US_Cities_List/mm_sitka.png,,51,,,3,,,,,,,,,,,,,,,
null,,confidence_buffer,142145,confidence_buffer,,null,,,,,,,,,,,,,,,,,,
null,,thebreak,142647,break,,null,,,,,,,,,,,,,,,,,,
3476.7000000476837,,familiar_rating,146129,US_Cities_List/mm_berkeleysprings.png,,53,US_Cities_List/mm_berkeleysprings.png,MM,5,,,,,,,,,,,,,,,
null,,confidence_buffer,146245,confidence_buffer,,null,,,,,,,,,,,,,,,,,,
2864.4000000953674,,unique_rating,149115,US_Cities_List/mm_berkeleysprings.png,,51,,,3,,,,,,,,,,,,,,,
null,,confidence_buffer,149221,confidence_buffer,,null,,,,,,,,,,,,,,,,,,
1617.5,,memorable_rating,150842,US_Cities_List/mm_berkeleysprings.png,,52,,,4,,,,,,,,,,,,,,,
null,,confidence_buffer,150952,confidence_buffer,,null,,,,,,,,,,,,,,,,,,
null,,thebreak,151465,break,,null,,,,,,,,,,,,,,,,,,
4593.100000023842,,familiar_rating,156061,US_Cities_List/nat_watkinsglen.png,,52,US_Cities_List/nat_watkinsglen.png,NAT,4,,,,,,,,,,,,,,,
null,,confidence_buffer,156168,confidence_buffer,,null,,,,,,,,,,,,,,,,,,
7310.300000071526,,unique_rating,163482,US_Cities_List/nat_watkinsglen.png,,51,,,3,,,,,,,,,,,,,,,
null,,confidence_buffer,163592,confidence_buffer,,null,,,,,,,,,,,,,,,,,,
15457.399999976158,,memorable_rating,179054,US_Cities_List/nat_watkinsglen.png,,52,,,4,,,,,,,,,,,,,,,
null,,confidence_buffer,179161,confidence_buffer,,null,,,,,,,,,,,,,,,,,,
null,,thebreak,179668,break,,null,,,,,,,,,,,,,,,,,,
7262.800000071526,,familiar_rating,186934,US_Cities_List/nat_barnard.png,,53,US_Cities_List/nat_barnard.png,NAT,5,,,,,,,,,,,,,,,
null,,confidence_buffer,187041,confidence_buffer,,null,,,,,,,,,,,,,,,,,,
2129.399999976158,,unique_rating,189172,US_Cities_List/nat_barnard.png,,52,,,4,,,,,,,,,,,,,,,
null,,confidence_buffer,189280,confidence_buffer,,null,,,,,,,,,,,,,,,,,,
2549.899999976158,,memorable_rating,191832,US_Cities_List/nat_barnard.png,,52,,,4,,,,,,,,,,,,,,,
null,,confidence_buffer,191952,confidence_buffer,,null,,,,,,,,,,,,,,,,,,
null,,thebreak,192462,break,,null,,,,,,,,,,,,,,,,,,
3274.2000000476837,,familiar_rating,195740,US_Cities_List/mm_capemay.png,,53,US_Cities_List/mm_capemay.png,MM,5,,,,,,,,,,,,,,,
null,,confidence_buffer,195853,confidence_buffer,,null,,,,,,,,,,,,,,,,,,
2582.600000023842,,unique_rating,198439,US_Cities_List/mm_capemay.png,,51,,,3,,,,,,,,,,,,,,,
null,,confidence_buffer,198548,confidence_buffer,,null,,,,,,,,,,,,,,,,,,
1023.9000000953674,,memorable_rating,199576,US_Cities_List/mm_capemay.png,,52,,,4,,,,,,,,,,,,,,,
null,,confidence_buffer,199690,confidence_buffer,,null,,,,,,,,,,,,,,,,,,
null,,thebreak,200198,break,,null,,,,,,,,,,,,,,,,,,
3531.6999999284744,,familiar_rating,203733,Fictional_Cities_List/img_natural_37.png,,51,Fictional_Cities_List/img_natural_37.png,NAT,3,,,,,,,,,,,,,,,
null,,confidence_buffer,203850,confidence_buffer,,null,,,,,,,,,,,,,,,,,,
2060.7000000476837,,unique_rating,205913,Fictional_Cities_List/img_natural_37.png,,50,,,2,,,,,,,,,,,,,,,
null,,confidence_buffer,206017,confidence_buffer,,null,,,,,,,,,,,,,,,,,,
2398,,memorable_rating,208418,Fictional_Cities_List/img_natural_37.png,,52,,,4,,,,,,,,,,,,,,,
null,,confidence_buffer,208526,confidence_buffer,,null,,,,,,,,,,,,,,,,,,
null,,thebreak,209029,break,,null,,,,,,,,,,,,,,,,,,
3659.3000000715256,,familiar_rating,212690,Fictional_Cities_List/img_natural_33.png,,50,Fictional_Cities_List/img_natural_33.png,NAT,2,,,,,,,,,,,,,,,
null,,confidence_buffer,212799,confidence_buffer,,null,,,,,,,,,,,,,,,,,,
3351.3000000715256,,unique_rating,216154,Fictional_Cities_List/img_natural_33.png,,49,,,1,,,,,,,,,,,,,,,
null,,confidence_buffer,216259,confidence_buffer,,null,,,,,,,,,,,,,,,,,,
2853.9000000953674,,memorable_rating,219117,Fictional_Cities_List/img_natural_33.png,,51,,,3,,,,,,,,,,,,,,,
null,,confidence_buffer,219228,confidence_buffer,,null,,,,,,,,,,,,,,,,,,
null,,thebreak,219731,break,,null,,,,,,,,,,,,,,,,,,
5296.300000071526,,familiar_rating,225029,US_Cities_List/mm_athens.png,,52,US_Cities_List/mm_athens.png,MM,4,,,,,,,,,,,,,,,
null,,confidence_buffer,225140,confidence_buffer,,null,,,,,,,,,,,,,,,,,,
2216.2999999523163,,unique_rating,227360,US_Cities_List/mm_athens.png,,53,,,5,,,,,,,,,,,,,,,
null,,confidence_buffer,227468,confidence_buffer,,null,,,,,,,,,,,,,,,,,,
2927.3000000715256,,memorable_rating,230399,US_Cities_List/mm_athens.png,,51,,,3,,,,,,,,,,,,,,,
null,,confidence_buffer,230504,confidence_buffer,,null,,,,,,,,,,,,,,,,,,
null,,thebreak,231013,break,,null,,,,,,,,,,,,,,,,,,
2891.5,,familiar_rating,233907,Fictional_Cities_List/img_natural_09.png,,52,Fictional_Cities_List/img_natural_09.png,NAT,4,,,,,,,,,,,,,,,
null,,confidence_buffer,234011,confidence_buffer,,null,,,,,,,,,,,,,,,,,,
3016.3000000715256,,unique_rating,237029,Fictional_Cities_List/img_natural_09.png,,50,,,2,,,,,,,,,,,,,,,
null,,confidence_buffer,237139,confidence_buffer,,null,,,,,,,,,,,,,,,,,,
2073.100000023842,,memorable_rating,239217,Fictional_Cities_List/img_natural_09.png,,51,,,3,,,,,,,,,,,,,,,
null,,confidence_buffer,239330,confidence_buffer,,null,,,,,,,,,,,,,,,,,,
null,,thebreak,239839,break,,null,,,,,,,,,,,,,,,,,,
6464.699999928474,,familiar_rating,246305,Fictional_Cities_List/img_manmade_15.png,,52,Fictional_Cities_List/img_manmade_15.png,MM,4,,,,,,,,,,,,,,,
null,,confidence_buffer,246422,confidence_buffer,,null,,,,,,,,,,,,,,,,,,
1708,,unique_rating,248131,Fictional_Cities_List/img_manmade_15.png,,53,,,5,,,,,,,,,,,,,,,
null,,confidence_buffer,248242,confidence_buffer,,null,,,,,,,,,,,,,,,,,,
4041,,memorable_rating,252285,Fictional_Cities_List/img_manmade_15.png,,51,,,3,,,,,,,,,,,,,,,
null,,confidence_buffer,252399,confidence_buffer,,null,,,,,,,,,,,,,,,,,,
null,,thebreak,252912,break,,null,,,,,,,,,,,,,,,,,,
12086.899999976158,,familiar_rating,265002,US_Cities_List/nat_boulder.png,,50,US_Cities_List/nat_boulder.png,NAT,2,,,,,,,,,,,,,,,
null,,confidence_buffer,265115,confidence_buffer,,null,,,,,,,,,,,,,,,,,,
1783.8000000715256,,unique_rating,266901,US_Cities_List/nat_boulder.png,,51,,,3,,,,,,,,,,,,,,,
null,,confidence_buffer,267007,confidence_buffer,,null,,,,,,,,,,,,,,,,,,
11890.299999952316,,memorable_rating,278901,US_Cities_List/nat_boulder.png,,49,,,1,,,,,,,,,,,,,,,
null,,confidence_buffer,279009,confidence_buffer,,null,,,,,,,,,,,,,,,,,,
null,,thebreak,279526,break,,null,,,,,,,,,,,,,,,,,,
572.7999999523163,,familiar_rating,280103,Fictional_Cities_List/img_manmade_50.png,,49,Fictional_Cities_List/img_manmade_50.png,MM,1,,,,,,,,,,,,,,,
null,,confidence_buffer,280208,confidence_buffer,,null,,,,,,,,,,,,,,,,,,
7811.899999976158,,unique_rating,288023,Fictional_Cities_List/img_manmade_50.png,,52,,,4,,,,,,,,,,,,,,,
null,,confidence_buffer,288130,confidence_buffer,,null,,,,,,,,,,,,,,,,,,
4448.100000023842,,memorable_rating,292582,Fictional_Cities_List/img_manmade_50.png,,51,,,3,,,,,,,,,,,,,,,
null,,confidence_buffer,292696,confidence_buffer,,null,,,,,,,,,,,,,,,,,,
null,,thebreak,293202,break,,null,,,,,,,,,,,,,,,,,,
6283.799999952316,,familiar_rating,299491,Fictional_Cities_List/img_natural_28.png,,53,Fictional_Cities_List/img_natural_28.png,NAT,5,,,,,,,,,,,,,,,
null,,confidence_buffer,299600,confidence_buffer,,null,,,,,,,,,,,,,,,,,,
2140.600000023842,,unique_rating,301743,Fictional_Cities_List/img_natural_28.png,,52,,,4,,,,,,,,,,,,,,,
null,,confidence_buffer,301852,confidence_buffer,,null,,,,,,,,,,,,,,,,,,
2121.0999999046326,,memorable_rating,303976,Fictional_Cities_List/img_natural_28.png,,51,,,3,,,,,,,,,,,,,,,
null,,confidence_buffer,304095,confidence_buffer,,null,,,,,,,,,,,,,,,,,,
null,,thebreak,304605,break,,null,,,,,,,,,,,,,,,,,,
2718,,familiar_rating,307325,Fictional_Cities_List/img_manmade_09.png,,53,Fictional_Cities_List/img_manmade_09.png,MM,5,,,,,,,,,,,,,,,
null,,confidence_buffer,307445,confidence_buffer,,null,,,,,,,,,,,,,,,,,,
2119.899999976158,,unique_rating,309569,Fictional_Cities_List/img_manmade_09.png,,51,,,3,,,,,,,,,,,,,,,
null,,confidence_buffer,309679,confidence_buffer,,null,,,,,,,,,,,,,,,,,,
2688,,memorable_rating,312370,Fictional_Cities_List/img_manmade_09.png,,52,,,4,,,,,,,,,,,,,,,
null,,confidence_buffer,312480,confidence_buffer,,null,,,,,,,,,,,,,,,,,,
3588,,probe_rating,316069,probe_rating,,51,,,,3,1,,,,,,,,,,,,,
null,,confidence_buffer,316174,confidence_buffer,,null,,,,,,,,,,,,,,,,,,
null,,thebreak,316681,break,,null,,,,,,,,,,,,,,,,,,
3921.2000000476837,,familiar_rating,320607,US_Cities_List/mm_sanantonio.png,,51,US_Cities_List/mm_sanantonio.png,MM,3,,,,,,,,,,,,,,,
null,,confidence_buffer,320719,confidence_buffer,,null,,,,,,,,,,,,,,,,,,
2355.100000023842,,unique_rating,323078,US_Cities_List/mm_sanantonio.png,,52,,,4,,,,,,,,,,,,,,,
null,,confidence_buffer,323187,confidence_buffer,,null,,,,,,,,,,,,,,,,,,
1432.5999999046326,,memorable_rating,324624,US_Cities_List/mm_sanantonio.png,,51,,,3,,,,,,,,,,,,,,,
null,,confidence_buffer,324729,confidence_buffer,,null,,,,,,,,,,,,,,,,,,
1623.6999999284744,,probe_rating,326354,probe_rating,,51,,,,3,1,,,,,,,,,,,,,
null,,confidence_buffer,326473,confidence_buffer,,null,,,,,,,,,,,,,,,,,,
null,,thebreak,326976,break,,null,,,,,,,,,,,,,,,,,,
3461.8000000715256,,familiar_rating,330440,US_Cities_List/nat_yukon.png,,52,US_Cities_List/nat_yukon.png,NAT,4,,,,,,,,,,,,,,,
null,,confidence_buffer,330560,confidence_buffer,,null,,,,,,,,,,,,,,,,,,
3135.5,,unique_rating,333698,US_Cities_List/nat_yukon.png,,53,,,5,,,,,,,,,,,,,,,
null,,confidence_buffer,333812,confidence_buffer,,null,,,,,,,,,,,,,,,,,,
1937.5,,memorable_rating,335753,US_Cities_List/nat_yukon.png,,51,,,3,,,,,,,,,,,,,,,
null,,confidence_buffer,335861,confidence_buffer,,null,,,,,,,,,,,,,,,,,,
null,,thebreak,336366,break,,null,,,,,,,,,,,,,,,,,,
4845.899999976158,,familiar_rating,341213,US_Cities_List/mm_watkinsglen.png,,52,US_Cities_List/mm_watkinsglen.png,MM,4,,,,,,,,,,,,,,,
null,,confidence_buffer,341315,confidence_buffer,,null,,,,,,,,,,,,,,,,,,
6782.200000047684,,unique_rating,348100,US_Cities_List/mm_watkinsglen.png,,51,,,3,,,,,,,,,,,,,,,
null,,confidence_buffer,348210,confidence_buffer,,null,,,,,,,,,,,,,,,,,,
7816.399999976158,,memorable_rating,356029,US_Cities_List/mm_watkinsglen.png,,50,,,2,,,,,,,,,,,,,,,
null,,confidence_buffer,356133,confidence_buffer,,null,,,,,,,,,,,,,,,,,,
null,,thebreak,356640,break,,null,,,,,,,,,,,,,,,,,,
3689.2000000476837,,familiar_rating,360333,Fictional_Cities_List/img_natural_38.png,,52,Fictional_Cities_List/img_natural_38.png,NAT,4,,,,,,,,,,,,,,,
null,,confidence_buffer,360442,confidence_buffer,,null,,,,,,,,,,,,,,,,,,
3770.399999976158,,unique_rating,364215,Fictional_Cities_List/img_natural_38.png,,53,,,5,,,,,,,,,,,,,,,
null,,confidence_buffer,364330,confidence_buffer,,null,,,,,,,,,,,,,,,,,,
3872.100000023842,,memorable_rating,368207,Fictional_Cities_List/img_natural_38.png,,49,,,1,,,,,,,,,,,,,,,
null,,confidence_buffer,368311,confidence_buffer,,null,,,,,,,,,,,,,,,,,,
null,,thebreak,368820,break,,null,,,,,,,,,,,,,,,,,,
11002.399999976158,,familiar_rating,379826,US_Cities_List/nat_huntsville.png,,52,US_Cities_List/nat_huntsville.png,NAT,4,,,,,,,,,,,,,,,
null,,confidence_buffer,379931,confidence_buffer,,null,,,,,,,,,,,,,,,,,,
2777.5,,unique_rating,382711,US_Cities_List/nat_huntsville.png,,50,,,2,,,,,,,,,,,,,,,
null,,confidence_buffer,382818,confidence_buffer,,null,,,,,,,,,,,,,,,,,,
7454.600000023842,,memorable_rating,390276,US_Cities_List/nat_huntsville.png,,49,,,1,,,,,,,,,,,,,,,
null,,confidence_buffer,390387,confidence_buffer,,null,,,,,,,,,,,,,,,,,,
null,,thebreak,390900,break,,null,,,,,,,,,,,,,,,,,,
2858.7999999523163,,familiar_rating,393763,US_Cities_List/nat_leesburg.png,,53,US_Cities_List/nat_leesburg.png,NAT,5,,,,,,,,,,,,,,,
null,,confidence_buffer,393878,confidence_buffer,,null,,,,,,,,,,,,,,,,,,
1722.0999999046326,,probe_rating,395604,probe_rating,,53,,,,5,1,,,,,,,,,,,,,
null,,confidence_buffer,395716,confidence_buffer,,null,,,,,,,,,,,,,,,,,,
2898.8000000715256,,unique_rating,398619,US_Cities_List/nat_leesburg.png,,52,,,4,,,,,,,,,,,,,,,
null,,confidence_buffer,398732,confidence_buffer,,null,,,,,,,,,,,,,,,,,,
3170.2000000476837,,memorable_rating,401908,US_Cities_List/nat_leesburg.png,,51,,,3,,,,,,,,,,,,,,,
null,,confidence_buffer,402013,confidence_buffer,,null,,,,,,,,,,,,,,,,,,
null,,thebreak,402521,break,,null,,,,,,,,,,,,,,,,,,
22866.899999976158,,familiar_rating,425391,Fictional_Cities_List/img_natural_50.png,,53,Fictional_Cities_List/img_natural_50.png,NAT,5,,,,,,,,,,,,,,,
null,,confidence_buffer,425499,confidence_buffer,,null,,,,,,,,,,,,,,,,,,
3881,,unique_rating,429383,Fictional_Cities_List/img_natural_50.png,,52,,,4,,,,,,,,,,,,,,,
null,,confidence_buffer,429494,confidence_buffer,,null,,,,,,,,,,,,,,,,,,
1778.1000000238419,,memorable_rating,431275,Fictional_Cities_List/img_natural_50.png,,51,,,3,,,,,,,,,,,,,,,
null,,confidence_buffer,431385,confidence_buffer,,null,,,,,,,,,,,,,,,,,,
null,,thebreak,431893,break,,null,,,,,,,,,,,,,,,,,,
4711.300000071526,,familiar_rating,436608,Fictional_Cities_List/img_manmade_43.png,,50,Fictional_Cities_List/img_manmade_43.png,MM,2,,,,,,,,,,,,,,,
null,,confidence_buffer,436715,confidence_buffer,,null,,,,,,,,,,,,,,,,,,
3956.7999999523163,,unique_rating,440673,Fictional_Cities_List/img_manmade_43.png,,51,,,3,,,,,,,,,,,,,,,
null,,confidence_buffer,440789,confidence_buffer,,null,,,,,,,,,,,,,,,,,,
4452.800000071526,,memorable_rating,445244,Fictional_Cities_List/img_manmade_43.png,,49,,,1,,,,,,,,,,,,,,,
null,,confidence_buffer,445351,confidence_buffer,,null,,,,,,,,,,,,,,,,,,
1654.5,,probe_rating,447010,probe_rating,,50,,,,2,1,,,,,,,,,,,,,
null,,confidence_buffer,447128,confidence_buffer,,null,,,,,,,,,,,,,,,,,,
null,,thebreak,447646,break,,null,,,,,,,,,,,,,,,,,,
2862.5,,familiar_rating,450512,Fictional_Cities_List/img_manmade_28.png,,53,Fictional_Cities_List/img_manmade_28.png,MM,5,,,,,,,,,,,,,,,
null,,confidence_buffer,450624,confidence_buffer,,null,,,,,,,,,,,,,,,,,,
2331.399999976158,,unique_rating,452959,Fictional_Cities_List/img_manmade_28.png,,51,,,3,,,,,,,,,,,,,,,
null,,confidence_buffer,453069,confidence_buffer,,null,,,,,,,,,,,,,,,,,,
1566.7999999523163,,memorable_rating,454639,Fictional_Cities_List/img_manmade_28.png,,52,,,4,,,,,,,,,,,,,,,
null,,confidence_buffer,454745,confidence_buffer,,null,,,,,,,,,,,,,,,,,,
null,,thebreak,455249,break,,null,,,,,,,,,,,,,,,,,,
10645.100000023842,,familiar_rating,465898,Fictional_Cities_List/img_manmade_27.png,,53,Fictional_Cities_List/img_manmade_27.png,MM,5,,,,,,,,,,,,,,,
null,,confidence_buffer,466008,confidence_buffer,,null,,,,,,,,,,,,,,,,,,
1800.1000000238419,,unique_rating,467813,Fictional_Cities_List/img_manmade_27.png,,52,,,4,,,,,,,,,,,,,,,
null,,confidence_buffer,467926,confidence_buffer,,null,,,,,,,,,,,,,,,,,,
3040.4000000953674,,memorable_rating,470969,Fictional_Cities_List/img_manmade_27.png,,51,,,3,,,,,,,,,,,,,,,
null,,confidence_buffer,471080,confidence_buffer,,null,,,,,,,,,,,,,,,,,,
1725,,probe_rating,472808,probe_rating,,51,,,,3,1,,,,,,,,,,,,,
null,,confidence_buffer,472925,confidence_buffer,,null,,,,,,,,,,,,,,,,,,
null,,thebreak,473431,break,,null,,,,,,,,,,,,,,,,,,
2929.899999976158,,familiar_rating,476364,Fictional_Cities_List/img_natural_22.png,,52,Fictional_Cities_List/img_natural_22.png,NAT,4,,,,,,,,,,,,,,,
null,,confidence_buffer,476474,confidence_buffer,,null,,,,,,,,,,,,,,,,,,
1964.1000000238419,,unique_rating,478443,Fictional_Cities_List/img_natural_22.png,,53,,,5,,,,,,,,,,,,,,,
null,,confidence_buffer,478549,confidence_buffer,,null,,,,,,,,,,,,,,,,,,
3536.2999999523163,,memorable_rating,482088,Fictional_Cities_List/img_natural_22.png,,51,,,3,,,,,,,,,,,,,,,
null,,confidence_buffer,482205,confidence_buffer,,null,,,,,,,,,,,,,,,,,,
null,,thebreak,482713,break,,null,,,,,,,,,,,,,,,,,,
7800.799999952316,,familiar_rating,490518,US_Cities_List/mm_hilo.png,,50,US_Cities_List/mm_hilo.png,MM,2,,,,,,,,,,,,,,,
null,,confidence_buffer,490627,confidence_buffer,,null,,,,,,,,,,,,,,,,,,
3583.7000000476837,,unique_rating,494214,US_Cities_List/mm_hilo.png,,52,,,4,,,,,,,,,,,,,,,
null,,confidence_buffer,494328,confidence_buffer,,null,,,,,,,,,,,,,,,,,,
1619.1000000238419,,memorable_rating,495949,US_Cities_List/mm_hilo.png,,51,,,3,,,,,,,,,,,,,,,
null,,confidence_buffer,496053,confidence_buffer,,null,,,,,,,,,,,,,,,,,,
null,,thebreak,496563,break,,null,,,,,,,,,,,,,,,,,,
6418.799999952316,,intro_0,502985,instruct,,32,,,,,,,,,,,,,,,,,,
25002.600000023842,,intro_1,527991,instruct,,32,,,,,,,,,,,,,,,,,,
71883.60000002384,,intro_2,599876,instruct,,32,,,,,,,,,,,,,,,,,,
null,,instruct_dir_4,601377,instruct,,null,,,,,,,,,,,,,,,,,,
7390.899999976158,,pt2_realistic_rating,608770,Fictional_Cities_List/img_natural_09.png,,52,Fictional_Cities_List/img_natural_09.png,NAT,4,,,,,,,,,,,,,,,
null,,confidence_buffer,608881,confidence_buffer,,null,,,,,,,,,,,,,,,,,,
4109.5,,pt2_unique_rating,612992,Fictional_Cities_List/img_natural_09.png,,53,,,5,,,,,,,,,,,,,,,
null,,confidence_buffer,613111,confidence_buffer,,null,,,,,,,,,,,,,,,,,,
3848.5,,pt2_memorable_rating,616965,Fictional_Cities_List/img_natural_09.png,,51,,,3,,,,,,,,,,,,,,,
null,,confidence_buffer,617071,confidence_buffer,,null,,,,,,,,,,,,,,,,,,
3982.3000000715256,,recognition_phase,621056,Fictional_Cities_List/img_natural_09.png,,49,,,,,,old,1,1,,,,,,,,,,
null,,confidence_buffer,621166,confidence_buffer,,null,,,,,,,,,,,,,,,,,,
null,,thebreak,621671,break,,null,,,,,,,,,,,,,,,,,,
5592.600000023842,,pt2_realistic_rating,627267,US_Cities_List/nat_boulder.png,,51,US_Cities_List/nat_boulder.png,NAT,3,,,,,,,,,,,,,,,
null,,confidence_buffer,627379,confidence_buffer,,null,,,,,,,,,,,,,,,,,,
3632.600000023842,,pt2_unique_rating,631014,US_Cities_List/nat_boulder.png,,50,,,2,,,,,,,,,,,,,,,
null,,confidence_buffer,631125,confidence_buffer,,null,,,,,,,,,,,,,,,,,,
2401.100000023842,,pt2_memorable_rating,633529,US_Cities_List/nat_boulder.png,,49,,,1,,,,,,,,,,,,,,,
null,,confidence_buffer,633635,confidence_buffer,,null,,,,,,,,,,,,,,,,,,
2133.7000000476837,,recognition_phase,635772,US_Cities_List/nat_boulder.png,,49,,,,,,old,1,1,,,,,,,,,,
null,,confidence_buffer,635879,confidence_buffer,,null,,,,,,,,,,,,,,,,,,
null,,thebreak,636383,break,,null,,,,,,,,,,,,,,,,,,
9546.299999952316,,pt2_realistic_rating,645932,Fictional_Cities_List/img_manmade_37.png,,53,Fictional_Cities_List/img_manmade_37.png,MM,5,,,,,,,,,,,,,,,
null,,confidence_buffer,646044,confidence_buffer,,null,,,,,,,,,,,,,,,,,,
11839.600000023842,,pt2_unique_rating,657886,Fictional_Cities_List/img_manmade_37.png,,51,,,3,,,,,,,,,,,,,,,
null,,confidence_buffer,658000,confidence_buffer,,null,,,,,,,,,,,,,,,,,,
5223.299999952316,,pt2_memorable_rating,663227,Fictional_Cities_List/img_manmade_37.png,,52,,,4,,,,,,,,,,,,,,,
null,,confidence_buffer,663333,confidence_buffer,,null,,,,,,,,,,,,,,,,,,
14702.5,,recognition_phase,678038,Fictional_Cities_List/img_manmade_37.png,,51,,,,,,new,1,1,,,,,,,,,,
null,,confidence_buffer,678151,confidence_buffer,,null,,,,,,,,,,,,,,,,,,
null,,thebreak,678661,break,,null,,,,,,,,,,,,,,,,,,
5211.600000023842,,pt2_realistic_rating,683877,US_Cities_List/nat_bisbee.png,,53,US_Cities_List/nat_bisbee.png,NAT,5,,,,,,,,,,,,,,,
null,,confidence_buffer,683984,confidence_buffer,,null,,,,,,,,,,,,,,,,,,
5201.300000071526,,pt2_unique_rating,689189,US_Cities_List/nat_bisbee.png,,52,,,4,,,,,,,,,,,,,,,
null,,confidence_buffer,689299,confidence_buffer,,null,,,,,,,,,,,,,,,,,,
3236.7999999523163,,probe_rating,692539,probe_rating,,52,,,,4,1,,,,,,,,,,,,,
null,,confidence_buffer,692650,confidence_buffer,,null,,,,,,,,,,,,,,,,,,
8124.699999928474,,pt2_memorable_rating,700778,US_Cities_List/nat_bisbee.png,,51,,,3,,,,,,,,,,,,,,,
null,,confidence_buffer,700892,confidence_buffer,,null,,,,,,,,,,,,,,,,,,
2556.6999999284744,,recognition_phase,703452,US_Cities_List/nat_bisbee.png,,49,,,,,,old,1,1,,,,,,,,,,
null,,confidence_buffer,703558,confidence_buffer,,null,,,,,,,,,,,,,,,,,,
null,,thebreak,704074,break,,null,,,,,,,,,,,,,,,,,,
3807.600000023842,,pt2_realistic_rating,707883,Fictional_Cities_List/img_natural_50.png,,52,Fictional_Cities_List/img_natural_50.png,NAT,4,,,,,,,,,,,,,,,
null,,confidence_buffer,707988,confidence_buffer,,null,,,,,,,,,,,,,,,,,,
2770,,pt2_unique_rating,710760,Fictional_Cities_List/img_natural_50.png,,50,,,2,,,,,,,,,,,,,,,
null,,confidence_buffer,710871,confidence_buffer,,null,,,,,,,,,,,,,,,,,,
1936,,pt2_memorable_rating,712811,Fictional_Cities_List/img_natural_50.png,,51,,,3,,,,,,,,,,,,,,,
null,,confidence_buffer,712920,confidence_buffer,,null,,,,,,,,,,,,,,,,,,
2196.7000000476837,,recognition_phase,715119,Fictional_Cities_List/img_natural_50.png,,49,,,,,,old,1,1,,,,,,,,,,
null,,confidence_buffer,715228,confidence_buffer,,null,,,,,,,,,,,,,,,,,,
null,,thebreak,715735,break,,null,,,,,,,,,,,,,,,,,,
6634.199999928474,,pt2_realistic_rating,722373,Fictional_Cities_List/img_manmade_33.png,,51,Fictional_Cities_List/img_manmade_33.png,MM,3,,,,,,,,,,,,,,,
null,,confidence_buffer,722485,confidence_buffer,,null,,,,,,,,,,,,,,,,,,
2535.5999999046326,,pt2_unique_rating,725024,Fictional_Cities_List/img_manmade_33.png,,53,,,5,,,,,,,,,,,,,,,
null,,confidence_buffer,725130,confidence_buffer,,null,,,,,,,,,,,,,,,,,,
2289.100000023842,,pt2_memorable_rating,727423,Fictional_Cities_List/img_manmade_33.png,,50,,,2,,,,,,,,,,,,,,,
null,,confidence_buffer,727534,confidence_buffer,,null,,,,,,,,,,,,,,,,,,
3807.100000023842,,recognition_phase,731346,Fictional_Cities_List/img_manmade_33.png,,52,,,,,,new,1,1,,,,,,,,,,
null,,confidence_buffer,731457,confidence_buffer,,null,,,,,,,,,,,,,,,,,,
null,,thebreak,731961,break,,null,,,,,,,,,,,,,,,,,,
5479.699999928474,,pt2_realistic_rating,737443,Fictional_Cities_List/img_manmade_27.png,,53,Fictional_Cities_List/img_manmade_27.png,MM,5,,,,,,,,,,,,,,,
null,,confidence_buffer,737556,confidence_buffer,,null,,,,,,,,,,,,,,,,,,
1192.2000000476837,,pt2_unique_rating,738750,Fictional_Cities_List/img_manmade_27.png,,52,,,4,,,,,,,,,,,,,,,
null,,confidence_buffer,738856,confidence_buffer,,null,,,,,,,,,,,,,,,,,,
2842.4000000953674,,pt2_memorable_rating,741701,Fictional_Cities_List/img_manmade_27.png,,51,,,3,,,,,,,,,,,,,,,
null,,confidence_buffer,741808,confidence_buffer,,null,,,,,,,,,,,,,,,,,,
1745.3999999761581,,recognition_phase,743556,Fictional_Cities_List/img_manmade_27.png,,49,,,,,,old,1,1,,,,,,,,,,
null,,confidence_buffer,743670,confidence_buffer,,null,,,,,,,,,,,,,,,,,,
null,,thebreak,744179,break,,null,,,,,,,,,,,,,,,,,,
10975.5,,pt2_realistic_rating,755158,Fictional_Cities_List/img_natural_33.png,,50,Fictional_Cities_List/img_natural_33.png,NAT,2,,,,,,,,,,,,,,,
null,,confidence_buffer,755268,confidence_buffer,,null,,,,,,,,,,,,,,,,,,
2682.8000000715256,,pt2_unique_rating,757955,Fictional_Cities_List/img_natural_33.png,,52,,,4,,,,,,,,,,,,,,,
null,,confidence_buffer,758060,confidence_buffer,,null,,,,,,,,,,,,,,,,,,
3033.399999976158,,pt2_memorable_rating,761095,Fictional_Cities_List/img_natural_33.png,,51,,,3,,,,,,,,,,,,,,,
null,,confidence_buffer,761202,confidence_buffer,,null,,,,,,,,,,,,,,,,,,
1933.6000000238419,,recognition_phase,763139,Fictional_Cities_List/img_natural_33.png,,49,,,,,,old,1,1,,,,,,,,,,
null,,confidence_buffer,763245,confidence_buffer,,null,,,,,,,,,,,,,,,,,,
null,,thebreak,763759,break,,null,,,,,,,,,,,,,,,,,,
15384.799999952316,,pt2_realistic_rating,779147,Fictional_Cities_List/img_natural_28.png,,53,Fictional_Cities_List/img_natural_28.png,NAT,5,,,,,,,,,,,,,,,
null,,confidence_buffer,779258,confidence_buffer,,null,,,,,,,,,,,,,,,,,,
10438.900000095367,,pt2_unique_rating,789700,Fictional_Cities_List/img_natural_28.png,,51,,,3,,,,,,,,,,,,,,,
null,,confidence_buffer,789810,confidence_buffer,,null,,,,,,,,,,,,,,,,,,
2296.5999999046326,,pt2_memorable_rating,792107,Fictional_Cities_List/img_natural_28.png,,52,,,4,,,,,,,,,,,,,,,
null,,confidence_buffer,792218,confidence_buffer,,null,,,,,,,,,,,,,,,,,,
4463.199999928474,,recognition_phase,796684,Fictional_Cities_List/img_natural_28.png,,50,,,,,,old,1,1,,,,,,,,,,
null,,confidence_buffer,796794,confidence_buffer,,null,,,,,,,,,,,,,,,,,,
null,,thebreak,797308,break,,null,,,,,,,,,,,,,,,,,,
5550.099999904633,,pt2_realistic_rating,802862,US_Cities_List/nat_racine.png,,52,US_Cities_List/nat_racine.png,NAT,4,,,,,,,,,,,,,,,
null,,confidence_buffer,802973,confidence_buffer,,null,,,,,,,,,,,,,,,,,,
4469.200000047684,,pt2_unique_rating,807447,US_Cities_List/nat_racine.png,,50,,,2,,,,,,,,,,,,,,,
null,,confidence_buffer,807561,confidence_buffer,,null,,,,,,,,,,,,,,,,,,
2660.899999976158,,pt2_memorable_rating,810224,US_Cities_List/nat_racine.png,,52,,,4,,,,,,,,,,,,,,,
null,,confidence_buffer,810335,confidence_buffer,,null,,,,,,,,,,,,,,,,,,
7626.599999904633,,recognition_phase,817964,US_Cities_List/nat_racine.png,,52,,,,,,new,1,1,,,,,,,,,,
null,,confidence_buffer,818072,confidence_buffer,,null,,,,,,,,,,,,,,,,,,
null,,thebreak,818583,break,,null,,,,,,,,,,,,,,,,,,
5945,,pt2_realistic_rating,824530,US_Cities_List/nat_yukon.png,,53,US_Cities_List/nat_yukon.png,NAT,5,,,,,,,,,,,,,,,
null,,confidence_buffer,824644,confidence_buffer,,null,,,,,,,,,,,,,,,,,,
1999.6000000238419,,pt2_unique_rating,826646,US_Cities_List/nat_yukon.png,,51,,,3,,,,,,,,,,,,,,,
null,,confidence_buffer,826753,confidence_buffer,,null,,,,,,,,,,,,,,,,,,
1494.8999999761581,,pt2_memorable_rating,828251,US_Cities_List/nat_yukon.png,,52,,,4,,,,,,,,,,,,,,,
null,,confidence_buffer,828355,confidence_buffer,,null,,,,,,,,,,,,,,,,,,
1561.3000000715256,,probe_rating,829919,probe_rating,,49,,,,1,1,,,,,,,,,,,,,
null,,confidence_buffer,830032,confidence_buffer,,null,,,,,,,,,,,,,,,,,,
3461,,recognition_phase,833497,US_Cities_List/nat_yukon.png,,50,,,,,,old,1,1,,,,,,,,,,
null,,confidence_buffer,833601,confidence_buffer,,null,,,,,,,,,,,,,,,,,,
null,,thebreak,834108,break,,null,,,,,,,,,,,,,,,,,,
5946.5,,pt2_realistic_rating,840056,US_Cities_List/mm_capemay.png,,52,US_Cities_List/mm_capemay.png,MM,4,,,,,,,,,,,,,,,
null,,confidence_buffer,840168,confidence_buffer,,null,,,,,,,,,,,,,,,,,,
1752.3999999761581,,pt2_unique_rating,841924,US_Cities_List/mm_capemay.png,,53,,,5,,,,,,,,,,,,,,,
null,,confidence_buffer,842037,confidence_buffer,,null,,,,,,,,,,,,,,,,,,
1953.3000000715256,,pt2_memorable_rating,843993,US_Cities_List/mm_capemay.png,,51,,,3,,,,,,,,,,,,,,,
null,,confidence_buffer,844097,confidence_buffer,,null,,,,,,,,,,,,,,,,,,
1501.5999999046326,,recognition_phase,845601,US_Cities_List/mm_capemay.png,,49,,,,,,old,1,1,,,,,,,,,,
null,,confidence_buffer,845705,confidence_buffer,,null,,,,,,,,,,,,,,,,,,
null,,thebreak,846214,break,,null,,,,,,,,,,,,,,,,,,
3563.8000000715256,,pt2_realistic_rating,849782,US_Cities_List/mm_watkinsglen.png,,52,US_Cities_List/mm_watkinsglen.png,MM,4,,,,,,,,,,,,,,,
null,,confidence_buffer,849900,confidence_buffer,,null,,,,,,,,,,,,,,,,,,
2485.600000023842,,pt2_unique_rating,852389,US_Cities_List/mm_watkinsglen.png,,50,,,2,,,,,,,,,,,,,,,
null,,confidence_buffer,852499,confidence_buffer,,null,,,,,,,,,,,,,,,,,,
1103.6000000238419,,pt2_memorable_rating,853605,US_Cities_List/mm_watkinsglen.png,,51,,,3,,,,,,,,,,,,,,,
null,,confidence_buffer,853718,confidence_buffer,,null,,,,,,,,,,,,,,,,,,
1258.2000000476837,,recognition_phase,854982,US_Cities_List/mm_watkinsglen.png,,49,,,,,,old,1,1,,,,,,,,,,
null,,confidence_buffer,855087,confidence_buffer,,null,,,,,,,,,,,,,,,,,,
null,,thebreak,855604,break,,null,,,,,,,,,,,,,,,,,,
5140.799999952316,,pt2_realistic_rating,860749,Fictional_Cities_List/img_natural_19.png,,50,Fictional_Cities_List/img_natural_19.png,NAT,2,,,,,,,,,,,,,,,
null,,confidence_buffer,860858,confidence_buffer,,null,,,,,,,,,,,,,,,,,,
3016.7000000476837,,pt2_unique_rating,863877,Fictional_Cities_List/img_natural_19.png,,52,,,4,,,,,,,,,,,,,,,
null,,confidence_buffer,863982,confidence_buffer,,null,,,,,,,,,,,,,,,,,,
2822.7999999523163,,pt2_memorable_rating,866806,Fictional_Cities_List/img_natural_19.png,,51,,,3,,,,,,,,,,,,,,,
null,,confidence_buffer,866913,confidence_buffer,,null,,,,,,,,,,,,,,,,,,
1737.8999999761581,,recognition_phase,868652,Fictional_Cities_List/img_natural_19.png,,49,,,,,,old,1,1,,,,,,,,,,
null,,confidence_buffer,868755,confidence_buffer,,null,,,,,,,,,,,,,,,,,,
null,,thebreak,869260,break,,null,,,,,,,,,,,,,,,,,,
3584.399999976158,,pt2_realistic_rating,872847,Fictional_Cities_List/img_natural_37.png,,53,Fictional_Cities_List/img_natural_37.png,NAT,5,,,,,,,,,,,,,,,
null,,confidence_buffer,872959,confidence_buffer,,null,,,,,,,,,,,,,,,,,,
5116,,pt2_unique_rating,878076,Fictional_Cities_List/img_natural_37.png,,51,,,3,,,,,,,,,,,,,,,
null,,confidence_buffer,878187,confidence_buffer,,null,,,,,,,,,,,,,,,,,,
2700.2000000476837,,pt2_memorable_rating,880890,Fictional_Cities_List/img_natural_37.png,,52,,,4,,,,,,,,,,,,,,,
null,,confidence_buffer,881001,confidence_buffer,,null,,,,,,,,,,,,,,,,,,
1485.2999999523163,,recognition_phase,882489,Fictional_Cities_List/img_natural_37.png,,49,,,,,,old,1,1,,,,,,,,,,
null,,confidence_buffer,882605,confidence_buffer,,null,,,,,,,,,,,,,,,,,,
null,,thebreak,883112,break,,null,,,,,,,,,,,,,,,,,,
3857.4000000953674,,pt2_realistic_rating,886972,US_Cities_List/mm_okoboji.png,,52,US_Cities_List/mm_okoboji.png,MM,4,,,,,,,,,,,,,,,
null,,confidence_buffer,887076,confidence_buffer,,null,,,,,,,,,,,,,,,,,,
1928.1999999284744,,pt2_unique_rating,889006,US_Cities_List/mm_okoboji.png,,51,,,3,,,,,,,,,,,,,,,
null,,confidence_buffer,889113,confidence_buffer,,null,,,,,,,,,,,,,,,,,,
1535.7999999523163,,pt2_memorable_rating,890651,US_Cities_List/mm_okoboji.png,,53,,,5,,,,,,,,,,,,,,,
null,,confidence_buffer,890758,confidence_buffer,,null,,,,,,,,,,,,,,,,,,
1295,,recognition_phase,892058,US_Cities_List/mm_okoboji.png,,49,,,,,,old,1,1,,,,,,,,,,
null,,confidence_buffer,892164,confidence_buffer,,null,,,,,,,,,,,,,,,,,,
null,,thebreak,892677,break,,null,,,,,,,,,,,,,,,,,,
2758,,pt2_realistic_rating,895438,Fictional_Cities_List/img_manmade_09.png,,53,Fictional_Cities_List/img_manmade_09.png,MM,5,,,,,,,,,,,,,,,
null,,confidence_buffer,895544,confidence_buffer,,null,,,,,,,,,,,,,,,,,,
3068.1999999284744,,pt2_unique_rating,898615,Fictional_Cities_List/img_manmade_09.png,,52,,,4,,,,,,,,,,,,,,,
null,,confidence_buffer,898724,confidence_buffer,,null,,,,,,,,,,,,,,,,,,
1645.7999999523163,,pt2_memorable_rating,900376,Fictional_Cities_List/img_manmade_09.png,,51,,,3,,,,,,,,,,,,,,,
null,,confidence_buffer,900487,confidence_buffer,,null,,,,,,,,,,,,,,,,,,
1461.6000000238419,,recognition_phase,901951,Fictional_Cities_List/img_manmade_09.png,,49,,,,,,old,1,1,,,,,,,,,,
null,,confidence_buffer,902063,confidence_buffer,,null,,,,,,,,,,,,,,,,,,
null,,thebreak,902570,break,,null,,,,,,,,,,,,,,,,,,
7813.600000023842,,pt2_realistic_rating,910388,Fictional_Cities_List/img_natural_36.png,,52,Fictional_Cities_List/img_natural_36.png,NAT,4,,,,,,,,,,,,,,,
null,,confidence_buffer,910507,confidence_buffer,,null,,,,,,,,,,,,,,,,,,
4878.899999976158,,pt2_unique_rating,915389,Fictional_Cities_List/img_natural_36.png,,51,,,3,,,,,,,,,,,,,,,
null,,confidence_buffer,915495,confidence_buffer,,null,,,,,,,,,,,,,,,,,,
3923,,pt2_memorable_rating,919422,Fictional_Cities_List/img_natural_36.png,,50,,,2,,,,,,,,,,,,,,,
null,,confidence_buffer,919534,confidence_buffer,,null,,,,,,,,,,,,,,,,,,
4385.5,,recognition_phase,923923,Fictional_Cities_List/img_natural_36.png,,51,,,,,,new,1,1,,,,,,,,,,
null,,confidence_buffer,924036,confidence_buffer,,null,,,,,,,,,,,,,,,,,,
null,,thebreak,924544,break,,null,,,,,,,,,,,,,,,,,,
5320.399999976158,,pt2_realistic_rating,929866,US_Cities_List/mm_hotsprings.png,,52,US_Cities_List/mm_hotsprings.png,MM,4,,,,,,,,,,,,,,,
null,,confidence_buffer,929971,confidence_buffer,,null,,,,,,,,,,,,,,,,,,
2726,,pt2_unique_rating,932700,US_Cities_List/mm_hotsprings.png,,51,,,3,,,,,,,,,,,,,,,
null,,confidence_buffer,932816,confidence_buffer,,null,,,,,,,,,,,,,,,,,,
1870.8999999761581,,pt2_memorable_rating,934690,US_Cities_List/mm_hotsprings.png,,53,,,5,,,,,,,,,,,,,,,
null,,confidence_buffer,934794,confidence_buffer,,null,,,,,,,,,,,,,,,,,,
3119.5,,recognition_phase,937916,US_Cities_List/mm_hotsprings.png,,51,,,,,,new,1,1,,,,,,,,,,
null,,confidence_buffer,938032,confidence_buffer,,null,,,,,,,,,,,,,,,,,,
null,,thebreak,938543,break,,null,,,,,,,,,,,,,,,,,,
11937.099999904633,,pt2_realistic_rating,950484,Fictional_Cities_List/img_manmade_07.png,,51,Fictional_Cities_List/img_manmade_07.png,MM,3,,,,,,,,,,,,,,,
null,,confidence_buffer,950593,confidence_buffer,,null,,,,,,,,,,,,,,,,,,
2149.6999999284744,,pt2_unique_rating,952745,Fictional_Cities_List/img_manmade_07.png,,52,,,4,,,,,,,,,,,,,,,
null,,confidence_buffer,952850,confidence_buffer,,null,,,,,,,,,,,,,,,,,,
1485.6000000238419,,pt2_memorable_rating,954340,Fictional_Cities_List/img_manmade_07.png,,50,,,2,,,,,,,,,,,,,,,
null,,confidence_buffer,954452,confidence_buffer,,null,,,,,,,,,,,,,,,,,,
4568.399999976158,,recognition_phase,959024,Fictional_Cities_List/img_manmade_07.png,,52,,,,,,new,1,1,,,,,,,,,,
null,,confidence_buffer,959131,confidence_buffer,,null,,,,,,,,,,,,,,,,,,
null,,thebreak,959646,break,,null,,,,,,,,,,,,,,,,,,
23413.900000095367,,pt2_realistic_rating,983062,US_Cities_List/nat_livingston.png,,51,US_Cities_List/nat_livingston.png,NAT,3,,,,,,,,,,,,,,,
null,,confidence_buffer,983179,confidence_buffer,,null,,,,,,,,,,,,,,,,,,
3417.100000023842,,pt2_unique_rating,986601,US_Cities_List/nat_livingston.png,,52,,,4,,,,,,,,,,,,,,,
null,,confidence_buffer,986707,confidence_buffer,,null,,,,,,,,,,,,,,,,,,
4987.600000023842,,pt2_memorable_rating,991698,US_Cities_List/nat_livingston.png,,50,,,2,,,,,,,,,,,,,,,
null,,confidence_buffer,991805,confidence_buffer,,null,,,,,,,,,,,,,,,,,,
2910.4000000953674,,recognition_phase,994717,US_Cities_List/nat_livingston.png,,50,,,,,,old,0,0.9523809523809523,,,,,,,,,,
null,,confidence_buffer,994832,confidence_buffer,,null,,,,,,,,,,,,,,,,,,
null,,thebreak,995334,break,,null,,,,,,,,,,,,,,,,,,
5533.400000095367,,pt2_realistic_rating,1000870,Fictional_Cities_List/img_natural_43.png,,49,Fictional_Cities_List/img_natural_43.png,NAT,1,,,,,,,,,,,,,,,
null,,confidence_buffer,1000974,confidence_buffer,,null,,,,,,,,,,,,,,,,,,
2009.8999999761581,,pt2_unique_rating,1002985,Fictional_Cities_List/img_natural_43.png,,50,,,2,,,,,,,,,,,,,,,
null,,confidence_buffer,1003096,confidence_buffer,,null,,,,,,,,,,,,,,,,,,
2792.2000000476837,,pt2_memorable_rating,1005892,Fictional_Cities_List/img_natural_43.png,,51,,,3,,,,,,,,,,,,,,,
null,,confidence_buffer,1005997,confidence_buffer,,null,,,,,,,,,,,,,,,,,,
3431.600000023842,,recognition_phase,1009430,Fictional_Cities_List/img_natural_43.png,,52,,,,,,new,1,0.9545454545454546,,,,,,,,,,
null,,confidence_buffer,1009546,confidence_buffer,,null,,,,,,,,,,,,,,,,,,
null,,thebreak,1010059,break,,null,,,,,,,,,,,,,,,,,,
6218.899999976158,,pt2_realistic_rating,1016280,Fictional_Cities_List/img_manmade_15.png,,52,Fictional_Cities_List/img_manmade_15.png,MM,4,,,,,,,,,,,,,,,
null,,confidence_buffer,1016396,confidence_buffer,,null,,,,,,,,,,,,,,,,,,
1532.4000000953674,,pt2_unique_rating,1017931,Fictional_Cities_List/img_manmade_15.png,,53,,,5,,,,,,,,,,,,,,,
null,,confidence_buffer,1018039,confidence_buffer,,null,,,,,,,,,,,,,,,,,,
1978.1000000238419,,probe_rating,1020020,probe_rating,,50,,,,2,1,,,,,,,,,,,,,
null,,confidence_buffer,1020144,confidence_buffer,,null,,,,,,,,,,,,,,,,,,
1224,,pt2_memorable_rating,1021372,Fictional_Cities_List/img_manmade_15.png,,51,,,3,,,,,,,,,,,,,,,
null,,confidence_buffer,1021483,confidence_buffer,,null,,,,,,,,,,,,,,,,,,
2847.7000000476837,,recognition_phase,1024334,Fictional_Cities_List/img_manmade_15.png,,49,,,,,,old,1,0.9565217391304348,,,,,,,,,,
null,,confidence_buffer,1024445,confidence_buffer,,null,,,,,,,,,,,,,,,,,,
null,,thebreak,1024962,break,,null,,,,,,,,,,,,,,,,,,
11498.399999976158,,pt2_realistic_rating,1036464,US_Cities_List/mm_newhope.png,,52,US_Cities_List/mm_newhope.png,MM,4,,,,,,,,,,,,,,,
null,,confidence_buffer,1036575,confidence_buffer,,null,,,,,,,,,,,,,,,,,,
2422.7000000476837,,pt2_unique_rating,1039000,US_Cities_List/mm_newhope.png,,50,,,2,,,,,,,,,,,,,,,
null,,confidence_buffer,1039117,confidence_buffer,,null,,,,,,,,,,,,,,,,,,
4601.899999976158,,pt2_memorable_rating,1043721,US_Cities_List/mm_newhope.png,,53,,,5,,,,,,,,,,,,,,,
null,,confidence_buffer,1043831,confidence_buffer,,null,,,,,,,,,,,,,,,,,,
1864,,probe_rating,1045700,probe_rating,,52,,,,4,1,,,,,,,,,,,,,
null,,confidence_buffer,1045813,confidence_buffer,,null,,,,,,,,,,,,,,,,,,
3229.600000023842,,recognition_phase,1049047,US_Cities_List/mm_newhope.png,,51,,,,,,new,1,0.9583333333333334,,,,,,,,,,
null,,confidence_buffer,1049150,confidence_buffer,,null,,,,,,,,,,,,,,,,,,
null,,thebreak,1049663,break,,null,,,,,,,,,,,,,,,,,,
7362.300000071526,,pt2_realistic_rating,1057029,US_Cities_List/mm_sammamish.png,,53,US_Cities_List/mm_sammamish.png,MM,5,,,,,,,,,,,,,,,
null,,confidence_buffer,1057139,confidence_buffer,,null,,,,,,,,,,,,,,,,,,
3828.5,,pt2_unique_rating,1060971,US_Cities_List/mm_sammamish.png,,50,,,2,,,,,,,,,,,,,,,
null,,confidence_buffer,1061078,confidence_buffer,,null,,,,,,,,,,,,,,,,,,
2180,,pt2_memorable_rating,1063261,US_Cities_List/mm_sammamish.png,,51,,,3,,,,,,,,,,,,,,,
null,,confidence_buffer,1063369,confidence_buffer,,null,,,,,,,,,,,,,,,,,,
2511.600000023842,,recognition_phase,1065886,US_Cities_List/mm_sammamish.png,,52,,,,,,new,1,0.96,,,,,,,,,,
null,,confidence_buffer,1066004,confidence_buffer,,null,,,,,,,,,,,,,,,,,,
null,,thebreak,1066513,break,,null,,,,,,,,,,,,,,,,,,
7120.300000071526,,pt2_realistic_rating,1073636,US_Cities_List/mm_berkeleysprings.png,,51,US_Cities_List/mm_berkeleysprings.png,MM,3,,,,,,,,,,,,,,,
null,,confidence_buffer,1073757,confidence_buffer,,null,,,,,,,,,,,,,,,,,,
1950.5,,pt2_unique_rating,1075710,US_Cities_List/mm_berkeleysprings.png,,50,,,2,,,,,,,,,,,,,,,
null,,confidence_buffer,1075815,confidence_buffer,,null,,,,,,,,,,,,,,,,,,
2387.7999999523163,,pt2_memorable_rating,1078206,US_Cities_List/mm_berkeleysprings.png,,52,,,4,,,,,,,,,,,,,,,
null,,confidence_buffer,1078319,confidence_buffer,,null,,,,,,,,,,,,,,,,,,
2223.899999976158,,recognition_phase,1080547,US_Cities_List/mm_berkeleysprings.png,,49,,,,,,old,1,0.9615384615384616,,,,,,,,,,
null,,confidence_buffer,1080650,confidence_buffer,,null,,,,,,,,,,,,,,,,,,
null,,thebreak,1081155,break,,null,,,,,,,,,,,,,,,,,,
11853.200000047684,,pt2_realistic_rating,1093012,US_Cities_List/nat_peoria.png,,50,US_Cities_List/nat_peoria.png,NAT,2,,,,,,,,,,,,,,,
null,,confidence_buffer,1093123,confidence_buffer,,null,,,,,,,,,,,,,,,,,,
6343.799999952316,,pt2_unique_rating,1099469,US_Cities_List/nat_peoria.png,,51,,,3,,,,,,,,,,,,,,,
null,,confidence_buffer,1099579,confidence_buffer,,null,,,,,,,,,,,,,,,,,,
4118,,pt2_memorable_rating,1103698,US_Cities_List/nat_peoria.png,,52,,,4,,,,,,,,,,,,,,,
null,,confidence_buffer,1103806,confidence_buffer,,null,,,,,,,,,,,,,,,,,,
3950.5,,recognition_phase,1107760,US_Cities_List/nat_peoria.png,,51,,,,,,new,1,0.9629629629629629,,,,,,,,,,
null,,confidence_buffer,1107870,confidence_buffer,,null,,,,,,,,,,,,,,,,,,
null,,thebreak,1108387,break,,null,,,,,,,,,,,,,,,,,,
18804.299999952316,,pt2_realistic_rating,1127196,US_Cities_List/nat_hotsprings.png,,53,US_Cities_List/nat_hotsprings.png,NAT,5,,,,,,,,,,,,,,,
null,,confidence_buffer,1127301,confidence_buffer,,null,,,,,,,,,,,,,,,,,,
2708.6999999284744,,pt2_unique_rating,1130014,US_Cities_List/nat_hotsprings.png,,51,,,3,,,,,,,,,,,,,,,
null,,confidence_buffer,1130126,confidence_buffer,,null,,,,,,,,,,,,,,,,,,
1808.3999999761581,,pt2_memorable_rating,1131937,US_Cities_List/nat_hotsprings.png,,52,,,4,,,,,,,,,,,,,,,
null,,confidence_buffer,1132040,confidence_buffer,,null,,,,,,,,,,,,,,,,,,
2636.600000023842,,recognition_phase,1134681,US_Cities_List/nat_hotsprings.png,,50,,,,,,old,0,0.9285714285714286,,,,,,,,,,
null,,confidence_buffer,1134789,confidence_buffer,,null,,,,,,,,,,,,,,,,,,
null,,thebreak,1135297,break,,null,,,,,,,,,,,,,,,,,,
3288.9000000953674,,pt2_realistic_rating,1138590,US_Cities_List/nat_leesburg.png,,53,US_Cities_List/nat_leesburg.png,NAT,5,,,,,,,,,,,,,,,
null,,confidence_buffer,1138698,confidence_buffer,,null,,,,,,,,,,,,,,,,,,
1958.3999999761581,,pt2_unique_rating,1140660,US_Cities_List/nat_leesburg.png,,51,,,3,,,,,,,,,,,,,,,
null,,confidence_buffer,1140766,confidence_buffer,,null,,,,,,,,,,,,,,,,,,
1821.7000000476837,,pt2_memorable_rating,1142590,US_Cities_List/nat_leesburg.png,,52,,,4,,,,,,,,,,,,,,,
null,,confidence_buffer,1142695,confidence_buffer,,null,,,,,,,,,,,,,,,,,,
4226.600000023842,,recognition_phase,1146925,US_Cities_List/nat_leesburg.png,,50,,,,,,old,1,0.9310344827586207,,,,,,,,,,
null,,confidence_buffer,1147030,confidence_buffer,,null,,,,,,,,,,,,,,,,,,
null,,thebreak,1147547,break,,null,,,,,,,,,,,,,,,,,,
8994.800000071526,,pt2_realistic_rating,1156546,Fictional_Cities_List/img_natural_27.png,,49,Fictional_Cities_List/img_natural_27.png,NAT,1,,,,,,,,,,,,,,,
null,,confidence_buffer,1156654,confidence_buffer,,null,,,,,,,,,,,,,,,,,,
2634.899999976158,,pt2_unique_rating,1159292,Fictional_Cities_List/img_natural_27.png,,50,,,2,,,,,,,,,,,,,,,
null,,confidence_buffer,1159397,confidence_buffer,,null,,,,,,,,,,,,,,,,,,
2140,,pt2_memorable_rating,1161540,Fictional_Cities_List/img_natural_27.png,,51,,,3,,,,,,,,,,,,,,,
null,,confidence_buffer,1161648,confidence_buffer,,null,,,,,,,,,,,,,,,,,,
2054.100000023842,,probe_rating,1163705,probe_rating,,50,,,,2,1,,,,,,,,,,,,,
null,,confidence_buffer,1163818,confidence_buffer,,null,,,,,,,,,,,,,,,,,,
5963,,recognition_phase,1169785,Fictional_Cities_List/img_natural_27.png,,49,,,,,,old,0,0.9,,,,,,,,,,
null,,confidence_buffer,1169902,confidence_buffer,,null,,,,,,,,,,,,,,,,,,
null,,thebreak,1170412,break,,null,,,,,,,,,,,,,,,,,,
11729.199999928474,,pt2_realistic_rating,1182145,US_Cities_List/mm_sanantonio.png,,52,US_Cities_List/mm_sanantonio.png,MM,4,,,,,,,,,,,,,,,
null,,confidence_buffer,1182258,confidence_buffer,,null,,,,,,,,,,,,,,,,,,
2821.100000023842,,pt2_unique_rating,1185085,US_Cities_List/mm_sanantonio.png,,51,,,3,,,,,,,,,,,,,,,
null,,confidence_buffer,1185196,confidence_buffer,,null,,,,,,,,,,,,,,,,,,
1943.0999999046326,,pt2_memorable_rating,1187142,US_Cities_List/mm_sanantonio.png,,53,,,5,,,,,,,,,,,,,,,
null,,confidence_buffer,1187259,confidence_buffer,,null,,,,,,,,,,,,,,,,,,
3594.899999976158,,recognition_phase,1190858,US_Cities_List/mm_sanantonio.png,,50,,,,,,old,1,0.9032258064516129,,,,,,,,,,
null,,confidence_buffer,1190970,confidence_buffer,,null,,,,,,,,,,,,,,,,,,
null,,thebreak,1191474,break,,null,,,,,,,,,,,,,,,,,,
6852.200000047684,,pt2_realistic_rating,1198330,US_Cities_List/nat_assateagueisland.png,,51,US_Cities_List/nat_assateagueisland.png,NAT,3,,,,,,,,,,,,,,,
null,,confidence_buffer,1198444,confidence_buffer,,null,,,,,,,,,,,,,,,,,,
3639.899999976158,,pt2_unique_rating,1202087,US_Cities_List/nat_assateagueisland.png,,53,,,5,,,,,,,,,,,,,,,
null,,confidence_buffer,1202197,confidence_buffer,,null,,,,,,,,,,,,,,,,,,
1312.5,,pt2_memorable_rating,1203513,US_Cities_List/nat_assateagueisland.png,,50,,,2,,,,,,,,,,,,,,,
null,,confidence_buffer,1203623,confidence_buffer,,null,,,,,,,,,,,,,,,,,,
5101.899999976158,,recognition_phase,1208727,US_Cities_List/nat_assateagueisland.png,,51,,,,,,new,1,0.90625,,,,,,,,,,
null,,confidence_buffer,1208835,confidence_buffer,,null,,,,,,,,,,,,,,,,,,
null,,thebreak,1209341,break,,null,,,,,,,,,,,,,,,,,,
4730.399999976158,,pt2_realistic_rating,1214074,Fictional_Cities_List/img_manmade_36.png,,50,Fictional_Cities_List/img_manmade_36.png,MM,2,,,,,,,,,,,,,,,
null,,confidence_buffer,1214190,confidence_buffer,,null,,,,,,,,,,,,,,,,,,
3245.100000023842,,pt2_unique_rating,1217438,Fictional_Cities_List/img_manmade_36.png,,52,,,4,,,,,,,,,,,,,,,
null,,confidence_buffer,1217548,confidence_buffer,,null,,,,,,,,,,,,,,,,,,
2570.5,,pt2_memorable_rating,1220121,Fictional_Cities_List/img_manmade_36.png,,49,,,1,,,,,,,,,,,,,,,
null,,confidence_buffer,1220226,confidence_buffer,,null,,,,,,,,,,,,,,,,,,
2893.7999999523163,,recognition_phase,1223124,Fictional_Cities_List/img_manmade_36.png,,52,,,,,,new,1,0.9090909090909091,,,,,,,,,,
null,,confidence_buffer,1223233,confidence_buffer,,null,,,,,,,,,,,,,,,,,,
null,,thebreak,1223739,break,,null,,,,,,,,,,,,,,,,,,
4103.099999904633,,pt2_realistic_rating,1227845,Fictional_Cities_List/img_manmade_43.png,,52,Fictional_Cities_List/img_manmade_43.png,MM,4,,,,,,,,,,,,,,,
null,,confidence_buffer,1227955,confidence_buffer,,null,,,,,,,,,,,,,,,,,,
1338.4000000953674,,pt2_unique_rating,1229297,Fictional_Cities_List/img_manmade_43.png,,53,,,5,,,,,,,,,,,,,,,
null,,confidence_buffer,1229402,confidence_buffer,,null,,,,,,,,,,,,,,,,,,
1983.6000000238419,,pt2_memorable_rating,1231389,Fictional_Cities_List/img_manmade_43.png,,51,,,3,,,,,,,,,,,,,,,
null,,confidence_buffer,1231501,confidence_buffer,,null,,,,,,,,,,,,,,,,,,
1310.7000000476837,,recognition_phase,1232815,Fictional_Cities_List/img_manmade_43.png,,49,,,,,,old,1,0.9117647058823529,,,,,,,,,,
null,,confidence_buffer,1232923,confidence_buffer,,null,,,,,,,,,,,,,,,,,,
null,,thebreak,1233432,break,,null,,,,,,,,,,,,,,,,,,
3724.5,,pt2_realistic_rating,1237159,Fictional_Cities_List/img_natural_39.png,,53,Fictional_Cities_List/img_natural_39.png,NAT,5,,,,,,,,,,,,,,,
null,,confidence_buffer,1237265,confidence_buffer,,null,,,,,,,,,,,,,,,,,,
2010,,pt2_unique_rating,1239277,Fictional_Cities_List/img_natural_39.png,,52,,,4,,,,,,,,,,,,,,,
null,,confidence_buffer,1239391,confidence_buffer,,null,,,,,,,,,,,,,,,,,,
1919.8999999761581,,pt2_memorable_rating,1241313,Fictional_Cities_List/img_natural_39.png,,51,,,3,,,,,,,,,,,,,,,
null,,confidence_buffer,1241432,confidence_buffer,,null,,,,,,,,,,,,,,,,,,
3514.7000000476837,,recognition_phase,1244950,Fictional_Cities_List/img_natural_39.png,,50,,,,,,old,0,0.8857142857142857,,,,,,,,,,
null,,confidence_buffer,1245056,confidence_buffer,,null,,,,,,,,,,,,,,,,,,
null,,thebreak,1245561,break,,null,,,,,,,,,,,,,,,,,,
4734.399999976158,,pt2_realistic_rating,1250300,Fictional_Cities_List/img_natural_31.png,,50,Fictional_Cities_List/img_natural_31.png,NAT,2,,,,,,,,,,,,,,,
null,,confidence_buffer,1250407,confidence_buffer,,null,,,,,,,,,,,,,,,,,,
2215.5,,pt2_unique_rating,1252625,Fictional_Cities_List/img_natural_31.png,,52,,,4,,,,,,,,,,,,,,,
null,,confidence_buffer,1252737,confidence_buffer,,null,,,,,,,,,,,,,,,,,,
2021.7999999523163,,pt2_memorable_rating,1254763,Fictional_Cities_List/img_natural_31.png,,51,,,3,,,,,,,,,,,,,,,
null,,confidence_buffer,1254869,confidence_buffer,,null,,,,,,,,,,,,,,,,,,
2332.7000000476837,,recognition_phase,1257204,Fictional_Cities_List/img_natural_31.png,,52,,,,,,new,1,0.8888888888888888,,,,,,,,,,
null,,confidence_buffer,1257315,confidence_buffer,,null,,,,,,,,,,,,,,,,,,
null,,thebreak,1257831,break,,null,,,,,,,,,,,,,,,,,,
10360.599999904633,,pt2_realistic_rating,1268195,Fictional_Cities_List/img_manmade_39.png,,53,Fictional_Cities_List/img_manmade_39.png,MM,5,,,,,,,,,,,,,,,
null,,confidence_buffer,1268308,confidence_buffer,,null,,,,,,,,,,,,,,,,,,
2683.7999999523163,,pt2_unique_rating,1270995,Fictional_Cities_List/img_manmade_39.png,,52,,,4,,,,,,,,,,,,,,,
null,,confidence_buffer,1271111,confidence_buffer,,null,,,,,,,,,,,,,,,,,,
1892.1000000238419,,pt2_memorable_rating,1273007,Fictional_Cities_List/img_manmade_39.png,,51,,,3,,,,,,,,,,,,,,,
null,,confidence_buffer,1273119,confidence_buffer,,null,,,,,,,,,,,,,,,,,,
1331.3999999761581,,recognition_phase,1274453,Fictional_Cities_List/img_manmade_39.png,,49,,,,,,old,1,0.8918918918918919,,,,,,,,,,
null,,confidence_buffer,1274566,confidence_buffer,,null,,,,,,,,,,,,,,,,,,
null,,thebreak,1275071,break,,null,,,,,,,,,,,,,,,,,,
8202.199999928474,,pt2_realistic_rating,1283275,Fictional_Cities_List/img_natural_15.png,,50,Fictional_Cities_List/img_natural_15.png,NAT,2,,,,,,,,,,,,,,,
null,,confidence_buffer,1283388,confidence_buffer,,null,,,,,,,,,,,,,,,,,,
3662.600000023842,,pt2_unique_rating,1287053,Fictional_Cities_List/img_natural_15.png,,52,,,4,,,,,,,,,,,,,,,
null,,confidence_buffer,1287161,confidence_buffer,,null,,,,,,,,,,,,,,,,,,
1929.1000000238419,,pt2_memorable_rating,1289092,Fictional_Cities_List/img_natural_15.png,,51,,,3,,,,,,,,,,,,,,,
null,,confidence_buffer,1289212,confidence_buffer,,null,,,,,,,,,,,,,,,,,,
2347.7999999523163,,recognition_phase,1291563,Fictional_Cities_List/img_natural_15.png,,51,,,,,,new,1,0.8947368421052632,,,,,,,,,,
null,,confidence_buffer,1291668,confidence_buffer,,null,,,,,,,,,,,,,,,,,,
null,,thebreak,1292173,break,,null,,,,,,,,,,,,,,,,,,
4272.199999928474,,pt2_realistic_rating,1296447,US_Cities_List/nat_watkinsglen.png,,53,US_Cities_List/nat_watkinsglen.png,NAT,5,,,,,,,,,,,,,,,
null,,confidence_buffer,1296561,confidence_buffer,,null,,,,,,,,,,,,,,,,,,
2229.6999999284744,,pt2_unique_rating,1298794,US_Cities_List/nat_watkinsglen.png,,52,,,4,,,,,,,,,,,,,,,
null,,confidence_buffer,1298901,confidence_buffer,,null,,,,,,,,,,,,,,,,,,
2496.2000000476837,,pt2_memorable_rating,1301400,US_Cities_List/nat_watkinsglen.png,,50,,,2,,,,,,,,,,,,,,,
null,,confidence_buffer,1301512,confidence_buffer,,null,,,,,,,,,,,,,,,,,,
1504.6000000238419,,recognition_phase,1303018,US_Cities_List/nat_watkinsglen.png,,49,,,,,,old,1,0.8974358974358975,,,,,,,,,,
null,,confidence_buffer,1303130,confidence_buffer,,null,,,,,,,,,,,,,,,,,,
null,,thebreak,1303637,break,,null,,,,,,,,,,,,,,,,,,
2237.5,,pt2_realistic_rating,1305878,US_Cities_List/mm_carmel.png,,53,US_Cities_List/mm_carmel.png,MM,5,,,,,,,,,,,,,,,
null,,confidence_buffer,1305984,confidence_buffer,,null,,,,,,,,,,,,,,,,,,
3362,,pt2_unique_rating,1309349,US_Cities_List/mm_carmel.png,,52,,,4,,,,,,,,,,,,,,,
null,,confidence_buffer,1309462,confidence_buffer,,null,,,,,,,,,,,,,,,,,,
1466.3999999761581,,pt2_memorable_rating,1310931,US_Cities_List/mm_carmel.png,,50,,,2,,,,,,,,,,,,,,,
null,,confidence_buffer,1311049,confidence_buffer,,null,,,,,,,,,,,,,,,,,,
6142.899999976158,,recognition_phase,1317195,US_Cities_List/mm_carmel.png,,50,,,,,,old,0,0.875,,,,,,,,,,
null,,confidence_buffer,1317311,confidence_buffer,,null,,,,,,,,,,,,,,,,,,
null,,thebreak,1317826,break,,null,,,,,,,,,,,,,,,,,,
2820.0999999046326,,pt2_realistic_rating,1320649,Fictional_Cities_List/img_natural_38.png,,52,Fictional_Cities_List/img_natural_38.png,NAT,4,,,,,,,,,,,,,,,
null,,confidence_buffer,1320754,confidence_buffer,,null,,,,,,,,,,,,,,,,,,
1456.8999999761581,,pt2_unique_rating,1322214,Fictional_Cities_List/img_natural_38.png,,53,,,5,,,,,,,,,,,,,,,
null,,confidence_buffer,1322330,confidence_buffer,,null,,,,,,,,,,,,,,,,,,
1603.2999999523163,,pt2_memorable_rating,1323936,Fictional_Cities_List/img_natural_38.png,,51,,,3,,,,,,,,,,,,,,,
null,,confidence_buffer,1324041,confidence_buffer,,null,,,,,,,,,,,,,,,,,,
3033.5,,recognition_phase,1327077,Fictional_Cities_List/img_natural_38.png,,49,,,,,,old,1,0.8780487804878049,,,,,,,,,,
null,,confidence_buffer,1327192,confidence_buffer,,null,,,,,,,,,,,,,,,,,,
null,,thebreak,1327700,break,,null,,,,,,,,,,,,,,,,,,
8136.5,,pt2_realistic_rating,1335839,Fictional_Cities_List/img_natural_22.png,,51,Fictional_Cities_List/img_natural_22.png,NAT,3,,,,,,,,,,,,,,,
null,,confidence_buffer,1335944,confidence_buffer,,null,,,,,,,,,,,,,,,,,,
1444.8000000715256,,pt2_unique_rating,1337391,Fictional_Cities_List/img_natural_22.png,,53,,,5,,,,,,,,,,,,,,,
null,,confidence_buffer,1337501,confidence_buffer,,null,,,,,,,,,,,,,,,,,,
1352.5,,pt2_memorable_rating,1338855,Fictional_Cities_List/img_natural_22.png,,52,,,4,,,,,,,,,,,,,,,
null,,confidence_buffer,1338971,confidence_buffer,,null,,,,,,,,,,,,,,,,,,
3298.399999976158,,recognition_phase,1342273,Fictional_Cities_List/img_natural_22.png,,50,,,,,,old,1,0.8809523809523809,,,,,,,,,,
null,,confidence_buffer,1342384,confidence_buffer,,null,,,,,,,,,,,,,,,,,,
null,,thebreak,1342902,break,,null,,,,,,,,,,,,,,,,,,
3715.5,,pt2_realistic_rating,1346620,US_Cities_List/mm_athens.png,,53,US_Cities_List/mm_athens.png,MM,5,,,,,,,,,,,,,,,
null,,confidence_buffer,1346733,confidence_buffer,,null,,,,,,,,,,,,,,,,,,
2473.899999976158,,pt2_unique_rating,1349210,US_Cities_List/mm_athens.png,,51,,,3,,,,,,,,,,,,,,,
null,,confidence_buffer,1349319,confidence_buffer,,null,,,,,,,,,,,,,,,,,,
1781.3999999761581,,pt2_memorable_rating,1351103,US_Cities_List/mm_athens.png,,50,,,2,,,,,,,,,,,,,,,
null,,confidence_buffer,1351214,confidence_buffer,,null,,,,,,,,,,,,,,,,,,
1623.8999999761581,,recognition_phase,1352843,US_Cities_List/mm_athens.png,,49,,,,,,old,1,0.8837209302325582,,,,,,,,,,
null,,confidence_buffer,1352963,confidence_buffer,,null,,,,,,,,,,,,,,,,,,
null,,thebreak,1353477,break,,null,,,,,,,,,,,,,,,,,,
3953.399999976158,,pt2_realistic_rating,1357434,US_Cities_List/mm_sitka.png,,51,US_Cities_List/mm_sitka.png,MM,3,,,,,,,,,,,,,,,
null,,confidence_buffer,1357545,confidence_buffer,,null,,,,,,,,,,,,,,,,,,
1856.8999999761581,,pt2_unique_rating,1359405,US_Cities_List/mm_sitka.png,,50,,,2,,,,,,,,,,,,,,,
null,,confidence_buffer,1359519,confidence_buffer,,null,,,,,,,,,,,,,,,,,,
3457.399999976158,,pt2_memorable_rating,1362980,US_Cities_List/mm_sitka.png,,49,,,1,,,,,,,,,,,,,,,
null,,confidence_buffer,1363086,confidence_buffer,,null,,,,,,,,,,,,,,,,,,
1203.2999999523163,,recognition_phase,1364294,US_Cities_List/mm_sitka.png,,49,,,,,,old,1,0.8863636363636364,,,,,,,,,,
null,,confidence_buffer,1364399,confidence_buffer,,null,,,,,,,,,,,,,,,,,,
null,,thebreak,1364905,break,,null,,,,,,,,,,,,,,,,,,
2261,,pt2_realistic_rating,1367169,US_Cities_List/nat_barnard.png,,53,US_Cities_List/nat_barnard.png,NAT,5,,,,,,,,,,,,,,,
null,,confidence_buffer,1367272,confidence_buffer,,null,,,,,,,,,,,,,,,,,,
1824.5,,pt2_unique_rating,1369098,US_Cities_List/nat_barnard.png,,51,,,3,,,,,,,,,,,,,,,
null,,confidence_buffer,1369208,confidence_buffer,,null,,,,,,,,,,,,,,,,,,
762.5,,pt2_memorable_rating,1369973,US_Cities_List/nat_barnard.png,,52,,,4,,,,,,,,,,,,,,,
null,,confidence_buffer,1370087,confidence_buffer,,null,,,,,,,,,,,,,,,,,,
2332,,recognition_phase,1372422,US_Cities_List/nat_barnard.png,,49,,,,,,old,1,0.8888888888888888,,,,,,,,,,
null,,confidence_buffer,1372529,confidence_buffer,,null,,,,,,,,,,,,,,,,,,
null,,thebreak,1373046,break,,null,,,,,,,,,,,,,,,,,,
2745.3000000715256,,pt2_realistic_rating,1375793,US_Cities_List/nat_bowlinggreen.png,,53,US_Cities_List/nat_bowlinggreen.png,NAT,5,,,,,,,,,,,,,,,
null,,confidence_buffer,1375907,confidence_buffer,,null,,,,,,,,,,,,,,,,,,
1890.7999999523163,,pt2_unique_rating,1377800,US_Cities_List/nat_bowlinggreen.png,,50,,,2,,,,,,,,,,,,,,,
null,,confidence_buffer,1377909,confidence_buffer,,null,,,,,,,,,,,,,,,,,,
1405.7000000476837,,pt2_memorable_rating,1379318,US_Cities_List/nat_bowlinggreen.png,,52,,,4,,,,,,,,,,,,,,,
null,,confidence_buffer,1379430,confidence_buffer,,null,,,,,,,,,,,,,,,,,,
3521.600000023842,,recognition_phase,1382956,US_Cities_List/nat_bowlinggreen.png,,51,,,,,,new,1,0.8913043478260869,,,,,,,,,,
null,,confidence_buffer,1383071,confidence_buffer,,null,,,,,,,,,,,,,,,,,,
null,,thebreak,1383577,break,,null,,,,,,,,,,,,,,,,,,
4057,,pt2_realistic_rating,1387635,US_Cities_List/mm_gatlinburg.png,,53,US_Cities_List/mm_gatlinburg.png,MM,5,,,,,,,,,,,,,,,
null,,confidence_buffer,1387744,confidence_buffer,,null,,,,,,,,,,,,,,,,,,
3231.7000000476837,,pt2_unique_rating,1390978,US_Cities_List/mm_gatlinburg.png,,50,,,2,,,,,,,,,,,,,,,
null,,confidence_buffer,1391088,confidence_buffer,,null,,,,,,,,,,,,,,,,,,
1358.2999999523163,,pt2_memorable_rating,1392449,US_Cities_List/mm_gatlinburg.png,,49,,,1,,,,,,,,,,,,,,,
null,,confidence_buffer,1392561,confidence_buffer,,null,,,,,,,,,,,,,,,,,,
3021.5999999046326,,recognition_phase,1395586,US_Cities_List/mm_gatlinburg.png,,52,,,,,,new,1,0.8936170212765957,,,,,,,,,,
null,,confidence_buffer,1395697,confidence_buffer,,null,,,,,,,,,,,,,,,,,,
null,,thebreak,1396211,break,,null,,,,,,,,,,,,,,,,,,
3610.899999976158,,pt2_realistic_rating,1399824,Fictional_Cities_List/img_manmade_19.png,,51,Fictional_Cities_List/img_manmade_19.png,MM,3,,,,,,,,,,,,,,,
null,,confidence_buffer,1399932,confidence_buffer,,null,,,,,,,,,,,,,,,,,,
2404.1999999284744,,pt2_unique_rating,1402339,Fictional_Cities_List/img_manmade_19.png,,50,,,2,,,,,,,,,,,,,,,
null,,confidence_buffer,1402445,confidence_buffer,,null,,,,,,,,,,,,,,,,,,
2184.899999976158,,pt2_memorable_rating,1404632,Fictional_Cities_List/img_manmade_19.png,,49,,,1,,,,,,,,,,,,,,,
null,,confidence_buffer,1404744,confidence_buffer,,null,,,,,,,,,,,,,,,,,,
2899.100000023842,,recognition_phase,1407647,Fictional_Cities_List/img_manmade_19.png,,50,,,,,,old,0,0.875,,,,,,,,,,
null,,confidence_buffer,1407765,confidence_buffer,,null,,,,,,,,,,,,,,,,,,
null,,thebreak,1408282,break,,null,,,,,,,,,,,,,,,,,,
2214.899999976158,,pt2_realistic_rating,1410500,US_Cities_List/mm_leesburg.png,,53,US_Cities_List/mm_leesburg.png,MM,5,,,,,,,,,,,,,,,
null,,confidence_buffer,1410611,confidence_buffer,,null,,,,,,,,,,,,,,,,,,
3133.2000000476837,,pt2_unique_rating,1413747,US_Cities_List/mm_leesburg.png,,51,,,3,,,,,,,,,,,,,,,
null,,confidence_buffer,1413859,confidence_buffer,,null,,,,,,,,,,,,,,,,,,
2972.899999976158,,pt2_memorable_rating,1416833,US_Cities_List/mm_leesburg.png,,52,,,4,,,,,,,,,,,,,,,
null,,confidence_buffer,1416951,confidence_buffer,,null,,,,,,,,,,,,,,,,,,
2718.7999999523163,,recognition_phase,1419675,US_Cities_List/mm_leesburg.png,,50,,,,,,old,0,0.8571428571428571,,,,,,,,,,
null,,confidence_buffer,1419786,confidence_buffer,,null,,,,,,,,,,,,,,,,,,
null,,thebreak,1420291,break,,null,,,,,,,,,,,,,,,,,,
3666.899999976158,,pt2_realistic_rating,1423961,Fictional_Cities_List/img_manmade_28.png,,51,Fictional_Cities_List/img_manmade_28.png,MM,3,,,,,,,,,,,,,,,
null,,confidence_buffer,1424077,confidence_buffer,,null,,,,,,,,,,,,,,,,,,
2140.2999999523163,,pt2_unique_rating,1426222,Fictional_Cities_List/img_manmade_28.png,,50,,,2,,,,,,,,,,,,,,,
null,,confidence_buffer,1426339,confidence_buffer,,null,,,,,,,,,,,,,,,,,,
2007.1999999284744,,pt2_memorable_rating,1428349,Fictional_Cities_List/img_manmade_28.png,,51,,,3,,,,,,,,,,,,,,,
null,,confidence_buffer,1428452,confidence_buffer,,null,,,,,,,,,,,,,,,,,,
2007.2000000476837,,recognition_phase,1430464,Fictional_Cities_List/img_manmade_28.png,,49,,,,,,old,1,0.86,,,,,,,,,,
null,,confidence_buffer,1430574,confidence_buffer,,null,,,,,,,,,,,,,,,,,,
null,,thebreak,1431086,break,,null,,,,,,,,,,,,,,,,,,
3209.2000000476837,,pt2_realistic_rating,1434300,US_Cities_List/mm_duck.png,,52,US_Cities_List/mm_duck.png,MM,4,,,,,,,,,,,,,,,
null,,confidence_buffer,1434414,confidence_buffer,,null,,,,,,,,,,,,,,,,,,
2105.399999976158,,pt2_unique_rating,1436522,US_Cities_List/mm_duck.png,,51,,,3,,,,,,,,,,,,,,,
null,,confidence_buffer,1436633,confidence_buffer,,null,,,,,,,,,,,,,,,,,,
2799.7999999523163,,pt2_memorable_rating,1439436,US_Cities_List/mm_duck.png,,53,,,5,,,,,,,,,,,,,,,
null,,confidence_buffer,1439542,confidence_buffer,,null,,,,,,,,,,,,,,,,,,
2911.1999999284744,,recognition_phase,1442456,US_Cities_List/mm_duck.png,,51,,,,,,new,1,0.8627450980392157,,,,,,,,,,
null,,confidence_buffer,1442558,confidence_buffer,,null,,,,,,,,,,,,,,,,,,
null,,thebreak,1443061,break,,null,,,,,,,,,,,,,,,,,,
3749.2999999523163,,pt2_realistic_rating,1446812,Fictional_Cities_List/img_natural_07.png,,51,Fictional_Cities_List/img_natural_07.png,NAT,3,,,,,,,,,,,,,,,
null,,confidence_buffer,1446915,confidence_buffer,,null,,,,,,,,,,,,,,,,,,
6182,,pt2_unique_rating,1453099,Fictional_Cities_List/img_natural_07.png,,53,,,5,,,,,,,,,,,,,,,
null,,confidence_buffer,1453208,confidence_buffer,,null,,,,,,,,,,,,,,,,,,
1288.3999999761581,,pt2_memorable_rating,1454500,Fictional_Cities_List/img_natural_07.png,,50,,,2,,,,,,,,,,,,,,,
null,,confidence_buffer,1454613,confidence_buffer,,null,,,,,,,,,,,,,,,,,,
5628.299999952316,,recognition_phase,1460247,Fictional_Cities_List/img_natural_07.png,,50,,,,,,old,0,0.8461538461538461,,,,,,,,,,
null,,confidence_buffer,1460358,confidence_buffer,,null,,,,,,,,,,,,,,,,,,
null,,thebreak,1460870,break,,null,,,,,,,,,,,,,,,,,,
3941.899999976158,,pt2_realistic_rating,1464815,US_Cities_List/nat_huntsville.png,,52,US_Cities_List/nat_huntsville.png,NAT,4,,,,,,,,,,,,,,,
null,,confidence_buffer,1464926,confidence_buffer,,null,,,,,,,,,,,,,,,,,,
2085.7000000476837,,pt2_unique_rating,1467015,US_Cities_List/nat_huntsville.png,,53,,,5,,,,,,,,,,,,,,,
null,,confidence_buffer,1467136,confidence_buffer,,null,,,,,,,,,,,,,,,,,,
1280.7999999523163,,pt2_memorable_rating,1468420,US_Cities_List/nat_huntsville.png,,50,,,2,,,,,,,,,,,,,,,
null,,confidence_buffer,1468528,confidence_buffer,,null,,,,,,,,,,,,,,,,,,
1515.7999999523163,,recognition_phase,1470047,US_Cities_List/nat_huntsville.png,,49,,,,,,old,1,0.8490566037735849,,,,,,,,,,
null,,confidence_buffer,1470152,confidence_buffer,,null,,,,,,,,,,,,,,,,,,
null,,thebreak,1470657,break,,null,,,,,,,,,,,,,,,,,,
4377.800000071526,,pt2_realistic_rating,1475038,Fictional_Cities_List/img_manmade_31.png,,53,Fictional_Cities_List/img_manmade_31.png,MM,5,,,,,,,,,,,,,,,
null,,confidence_buffer,1475143,confidence_buffer,,null,,,,,,,,,,,,,,,,,,
1642.6000000238419,,pt2_unique_rating,1476790,Fictional_Cities_List/img_manmade_31.png,,52,,,4,,,,,,,,,,,,,,,
null,,confidence_buffer,1476899,confidence_buffer,,null,,,,,,,,,,,,,,,,,,
1058.0999999046326,,pt2_memorable_rating,1477960,Fictional_Cities_List/img_manmade_31.png,,51,,,3,,,,,,,,,,,,,,,
null,,confidence_buffer,1478063,confidence_buffer,,null,,,,,,,,,,,,,,,,,,
3749.600000023842,,recognition_phase,1481814,Fictional_Cities_List/img_manmade_31.png,,51,,,,,,new,1,0.8518518518518519,,,,,,,,,,
null,,confidence_buffer,1481916,confidence_buffer,,null,,,,,,,,,,,,,,,,,,
null,,thebreak,1482432,break,,null,,,,,,,,,,,,,,,,,,
5185.700000047684,,pt2_realistic_rating,1487621,US_Cities_List/mm_hilo.png,,52,US_Cities_List/mm_hilo.png,MM,4,,,,,,,,,,,,,,,
null,,confidence_buffer,1487731,confidence_buffer,,null,,,,,,,,,,,,,,,,,,
1581.3000000715256,,pt2_unique_rating,1489315,US_Cities_List/mm_hilo.png,,50,,,2,,,,,,,,,,,,,,,
null,,confidence_buffer,1489433,confidence_buffer,,null,,,,,,,,,,,,,,,,,,
1343.7000000476837,,pt2_memorable_rating,1490784,US_Cities_List/mm_hilo.png,,52,,,4,,,,,,,,,,,,,,,
null,,confidence_buffer,1490894,confidence_buffer,,null,,,,,,,,,,,,,,,,,,
1494.6000000238419,,recognition_phase,1492391,US_Cities_List/mm_hilo.png,,49,,,,,,old,1,0.8545454545454545,,,,,,,,,,
null,,confidence_buffer,1492498,confidence_buffer,,null,,,,,,,,,,,,,,,,,,
null,,thebreak,1493013,break,,null,,,,,,,,,,,,,,,,,,
4235.299999952316,,pt2_realistic_rating,1497253,US_Cities_List/nat_natchez.png,,52,US_Cities_List/nat_natchez.png,NAT,4,,,,,,,,,,,,,,,
null,,confidence_buffer,1497364,confidence_buffer,,null,,,,,,,,,,,,,,,,,,
2284.4000000953674,,pt2_unique_rating,1499650,US_Cities_List/nat_natchez.png,,53,,,5,,,,,,,,,,,,,,,
null,,confidence_buffer,1499758,confidence_buffer,,null,,,,,,,,,,,,,,,,,,
1037.3000000715256,,pt2_memorable_rating,1500799,US_Cities_List/nat_natchez.png,,50,,,2,,,,,,,,,,,,,,,
null,,confidence_buffer,1500910,confidence_buffer,,null,,,,,,,,,,,,,,,,,,
3834.399999976158,,recognition_phase,1504748,US_Cities_List/nat_natchez.png,,51,,,,,,new,1,0.8571428571428571,,,,,,,,,,
null,,confidence_buffer,1504864,confidence_buffer,,null,,,,,,,,,,,,,,,,,,
null,,thebreak,1505379,break,,null,,,,,,,,,,,,,,,,,,
2664.5,,pt2_realistic_rating,1508047,Fictional_Cities_List/img_manmade_50.png,,53,Fictional_Cities_List/img_manmade_50.png,MM,5,,,,,,,,,,,,,,,
null,,confidence_buffer,1508153,confidence_buffer,,null,,,,,,,,,,,,,,,,,,
1794.1000000238419,,pt2_unique_rating,1509952,Fictional_Cities_List/img_manmade_50.png,,52,,,4,,,,,,,,,,,,,,,
null,,confidence_buffer,1510064,confidence_buffer,,null,,,,,,,,,,,,,,,,,,
3120.399999976158,,pt2_memorable_rating,1513187,Fictional_Cities_List/img_manmade_50.png,,51,,,3,,,,,,,,,,,,,,,
null,,confidence_buffer,1513295,confidence_buffer,,null,,,,,,,,,,,,,,,,,,
4500.100000023842,,recognition_phase,1517798,Fictional_Cities_List/img_manmade_50.png,,51,,,,,,new,0,0.8421052631578947,,,,,,,,,,
null,,confidence_buffer,1517903,confidence_buffer,,null,,,,,,,,,,,,,,,,,,
null,,thebreak,1518410,break,,null,,,,,,,,,,,,,,,,,,
4761.399999976158,,pt2_realistic_rating,1523173,US_Cities_List/nat_barharbor.png,,52,US_Cities_List/nat_barharbor.png,NAT,4,,,,,,,,,,,,,,,
null,,confidence_buffer,1523284,confidence_buffer,,null,,,,,,,,,,,,,,,,,,
4024.100000023842,,pt2_unique_rating,1527312,US_Cities_List/nat_barharbor.png,,53,,,5,,,,,,,,,,,,,,,
null,,confidence_buffer,1527422,confidence_buffer,,null,,,,,,,,,,,,,,,,,,
1622.8999999761581,,pt2_memorable_rating,1529048,US_Cities_List/nat_barharbor.png,,51,,,3,,,,,,,,,,,,,,,
null,,confidence_buffer,1529153,confidence_buffer,,null,,,,,,,,,,,,,,,,,,
2354.7999999523163,,recognition_phase,1531510,US_Cities_List/nat_barharbor.png,,51,,,,,,new,1,0.8448275862068966,,,,,,,,,,
null,,confidence_buffer,1531614,confidence_buffer,,null,,,,,,,,,,,,,,,,,,
null,,thebreak,1532129,break,,null,,,,,,,,,,,,,,,,,,
3950.600000023842,,pt2_realistic_rating,1536083,Fictional_Cities_List/img_manmade_38.png,,52,Fictional_Cities_List/img_manmade_38.png,MM,4,,,,,,,,,,,,,,,
null,,confidence_buffer,1536189,confidence_buffer,,null,,,,,,,,,,,,,,,,,,
4711.599999904633,,pt2_unique_rating,1540907,Fictional_Cities_List/img_manmade_38.png,,51,,,3,,,,,,,,,,,,,,,
null,,confidence_buffer,1541019,confidence_buffer,,null,,,,,,,,,,,,,,,,,,
942.3000000715256,,pt2_memorable_rating,1541962,Fictional_Cities_List/img_manmade_38.png,,50,,,2,,,,,,,,,,,,,,,
null,,confidence_buffer,1542067,confidence_buffer,,null,,,,,,,,,,,,,,,,,,
6021.200000047684,,recognition_phase,1548090,Fictional_Cities_List/img_manmade_38.png,,52,,,,,,new,1,0.847457627118644,,,,,,,,,,
null,,confidence_buffer,1548201,confidence_buffer,,null,,,,,,,,,,,,,,,,,,
null,,thebreak,1548705,break,,null,,,,,,,,,,,,,,,,,,
4109.200000047684,,pt2_realistic_rating,1552817,Fictional_Cities_List/img_manmade_22.png,,50,Fictional_Cities_List/img_manmade_22.png,MM,2,,,,,,,,,,,,,,,
null,,confidence_buffer,1552923,confidence_buffer,,null,,,,,,,,,,,,,,,,,,
2341.0999999046326,,pt2_unique_rating,1555268,Fictional_Cities_List/img_manmade_22.png,,52,,,4,,,,,,,,,,,,,,,
null,,confidence_buffer,1555376,confidence_buffer,,null,,,,,,,,,,,,,,,,,,
1447.3999999761581,,pt2_memorable_rating,1556825,Fictional_Cities_List/img_manmade_22.png,,49,,,1,,,,,,,,,,,,,,,
null,,confidence_buffer,1556936,confidence_buffer,,null,,,,,,,,,,,,,,,,,,
2246.5999999046326,,recognition_phase,1559186,Fictional_Cities_List/img_manmade_22.png,,52,,,,,,new,1,0.85,,,,,,,,,,
null,,confidence_buffer,1559291,confidence_buffer,,null,,,,,,,,,,,,,,,,,,
null,,thebreak,1559798,break,,null,,,,,,,,,,,,,,,,,,
,,survey,2025060,survey-questions,,,,,,,,,,,none,high,No, I wasn't doing anything during the study,I made sure I could get some pictures in my head by being fascinated by some of the pictures.,I considered how closely the images resembled something I have seen in real life. Maybe it reminded me of a common scene, or object. ,I thought about whether the image would likely stick in my mind after viewing.,I judged how different or original the image felt compared to typical visuals. ,I examined how closely the images resembled real life in terms of detailing and natural presentation. ,No, I haven't ,None
