rt,responses,trial_type,time_elapsed,stimulus,button_pressed,key_press,name_trial,city_type,rating,probe,probe_accuracy,response,correct,accuracy,problems,smooth,distraction,strategies,familiar,memorable,unique,realistic,similar,comments
6613.699999999255,{worker_id:67d84a00a97a34cb17030d71},id_enter,6632,,,,,,,,,,,,,,,,,,,,,
14316.29999999702,,fullscreen,20958,fullscreen,0,,,,,,,,,,,,,,,,,,,
4514.5,,intro_0,25502,instruct,,32,,,,,,,,,,,,,,,,,,
19259.699999999255,,intro_1,44764,instruct,,32,,,,,,,,,,,,,,,,,,
5695.300000000745,,intro_2,50460,instruct,,32,,,,,,,,,,,,,,,,,,
null,,instruct_dir_4,51962,instruct,,null,,,,,,,,,,,,,,,,,,
null,,thebreak,52463,break,,null,,,,,,,,,,,,,,,,,,
12472.300000000745,,familiar_rating,64938,Fictional_Cities_List/img_natural_36.png,,52,Fictional_Cities_List/img_natural_36.png,NAT,4,,,,,,,,,,,,,,,
null,,confidence_buffer,65041,confidence_buffer,,null,,,,,,,,,,,,,,,,,,
12235.5,,unique_rating,77278,Fictional_Cities_List/img_natural_36.png,,50,,,2,,,,,,,,,,,,,,,
null,,confidence_buffer,77379,confidence_buffer,,null,,,,,,,,,,,,,,,,,,
4937.39999999851,,memorable_rating,82318,Fictional_Cities_List/img_natural_36.png,,52,,,4,,,,,,,,,,,,,,,
null,,confidence_buffer,82420,confidence_buffer,,null,,,,,,,,,,,,,,,,,,
null,,thebreak,82922,break,,null,,,,,,,,,,,,,,,,,,
10388.900000002235,,familiar_rating,93312,US_Cities_List/nat_okoboji.png,,50,US_Cities_List/nat_okoboji.png,NAT,2,,,,,,,,,,,,,,,
null,,confidence_buffer,93414,confidence_buffer,,null,,,,,,,,,,,,,,,,,,
3607,,unique_rating,97023,US_Cities_List/nat_okoboji.png,,52,,,4,,,,,,,,,,,,,,,
null,,confidence_buffer,97125,confidence_buffer,,null,,,,,,,,,,,,,,,,,,
2641.800000000745,,memorable_rating,99768,US_Cities_List/nat_okoboji.png,,52,,,4,,,,,,,,,,,,,,,
null,,confidence_buffer,99870,confidence_buffer,,null,,,,,,,,,,,,,,,,,,
null,,thebreak,100371,break,,null,,,,,,,,,,,,,,,,,,
6251.099999997765,,familiar_rating,106624,US_Cities_List/mm_sitka.png,,51,US_Cities_List/mm_sitka.png,MM,3,,,,,,,,,,,,,,,
null,,confidence_buffer,106725,confidence_buffer,,null,,,,,,,,,,,,,,,,,,
3600.400000002235,,unique_rating,110327,US_Cities_List/mm_sitka.png,,51,,,3,,,,,,,,,,,,,,,
null,,confidence_buffer,110429,confidence_buffer,,null,,,,,,,,,,,,,,,,,,
3071.900000002235,,memorable_rating,113503,US_Cities_List/mm_sitka.png,,52,,,4,,,,,,,,,,,,,,,
null,,confidence_buffer,113605,confidence_buffer,,null,,,,,,,,,,,,,,,,,,
null,,thebreak,114107,break,,null,,,,,,,,,,,,,,,,,,
4328.79999999702,,familiar_rating,118437,Fictional_Cities_List/img_natural_39.png,,52,Fictional_Cities_List/img_natural_39.png,NAT,4,,,,,,,,,,,,,,,
null,,confidence_buffer,118539,confidence_buffer,,null,,,,,,,,,,,,,,,,,,
2443,,unique_rating,120984,Fictional_Cities_List/img_natural_39.png,,50,,,2,,,,,,,,,,,,,,,
null,,confidence_buffer,121085,confidence_buffer,,null,,,,,,,,,,,,,,,,,,
4679,,memorable_rating,125766,Fictional_Cities_List/img_natural_39.png,,52,,,4,,,,,,,,,,,,,,,
null,,confidence_buffer,125868,confidence_buffer,,null,,,,,,,,,,,,,,,,,,
null,,thebreak,126369,break,,null,,,,,,,,,,,,,,,,,,
8066.10000000149,,familiar_rating,134437,US_Cities_List/mm_carmel.png,,51,US_Cities_List/mm_carmel.png,MM,3,,,,,,,,,,,,,,,
null,,confidence_buffer,134539,confidence_buffer,,null,,,,,,,,,,,,,,,,,,
698,,unique_rating,135239,US_Cities_List/mm_carmel.png,,51,,,3,,,,,,,,,,,,,,,
null,,confidence_buffer,135352,confidence_buffer,,null,,,,,,,,,,,,,,,,,,
847.2999999970198,,memorable_rating,136201,US_Cities_List/mm_carmel.png,,52,,,4,,,,,,,,,,,,,,,
null,,confidence_buffer,136304,confidence_buffer,,null,,,,,,,,,,,,,,,,,,
null,,thebreak,136812,break,,null,,,,,,,,,,,,,,,,,,
7520.10000000149,,familiar_rating,144334,Fictional_Cities_List/img_natural_27.png,,50,Fictional_Cities_List/img_natural_27.png,NAT,2,,,,,,,,,,,,,,,
null,,confidence_buffer,144435,confidence_buffer,,null,,,,,,,,,,,,,,,,,,
2302.5,,unique_rating,146739,Fictional_Cities_List/img_natural_27.png,,52,,,4,,,,,,,,,,,,,,,
null,,confidence_buffer,146840,confidence_buffer,,null,,,,,,,,,,,,,,,,,,
3792.099999997765,,memorable_rating,150634,Fictional_Cities_List/img_natural_27.png,,52,,,4,,,,,,,,,,,,,,,
null,,confidence_buffer,150736,confidence_buffer,,null,,,,,,,,,,,,,,,,,,
null,,thebreak,151238,break,,null,,,,,,,,,,,,,,,,,,
2855.60000000149,,familiar_rating,154094,Fictional_Cities_List/img_manmade_27.png,,50,Fictional_Cities_List/img_manmade_27.png,MM,2,,,,,,,,,,,,,,,
null,,confidence_buffer,154198,confidence_buffer,,null,,,,,,,,,,,,,,,,,,
1946.8999999985099,,unique_rating,156147,Fictional_Cities_List/img_manmade_27.png,,51,,,3,,,,,,,,,,,,,,,
null,,confidence_buffer,156248,confidence_buffer,,null,,,,,,,,,,,,,,,,,,
576.5,,memorable_rating,156826,Fictional_Cities_List/img_manmade_27.png,,52,,,4,,,,,,,,,,,,,,,
null,,confidence_buffer,156928,confidence_buffer,,null,,,,,,,,,,,,,,,,,,
null,,thebreak,157429,break,,null,,,,,,,,,,,,,,,,,,
9221.099999997765,,familiar_rating,166652,US_Cities_List/nat_delawarecity.png,,51,US_Cities_List/nat_delawarecity.png,NAT,3,,,,,,,,,,,,,,,
null,,confidence_buffer,166754,confidence_buffer,,null,,,,,,,,,,,,,,,,,,
410.70000000298023,,probe_rating,167166,probe_rating,,51,,,,3,1,,,,,,,,,,,,,
null,,confidence_buffer,167268,confidence_buffer,,null,,,,,,,,,,,,,,,,,,
969.3000000007451,,unique_rating,168239,US_Cities_List/nat_delawarecity.png,,52,,,4,,,,,,,,,,,,,,,
null,,confidence_buffer,168342,confidence_buffer,,null,,,,,,,,,,,,,,,,,,
1779.300000000745,,memorable_rating,170122,US_Cities_List/nat_delawarecity.png,,52,,,4,,,,,,,,,,,,,,,
null,,confidence_buffer,170225,confidence_buffer,,null,,,,,,,,,,,,,,,,,,
null,,thebreak,170726,break,,null,,,,,,,,,,,,,,,,,,
11878.900000002235,,familiar_rating,182606,Fictional_Cities_List/img_manmade_48.png,,50,Fictional_Cities_List/img_manmade_48.png,MM,2,,,,,,,,,,,,,,,
null,,confidence_buffer,182709,confidence_buffer,,null,,,,,,,,,,,,,,,,,,
950.6000000014901,,unique_rating,183661,Fictional_Cities_List/img_manmade_48.png,,51,,,3,,,,,,,,,,,,,,,
null,,confidence_buffer,183763,confidence_buffer,,null,,,,,,,,,,,,,,,,,,
841.3000000007451,,memorable_rating,184606,Fictional_Cities_List/img_manmade_48.png,,52,,,4,,,,,,,,,,,,,,,
null,,confidence_buffer,184707,confidence_buffer,,null,,,,,,,,,,,,,,,,,,
null,,thebreak,185209,break,,null,,,,,,,,,,,,,,,,,,
2322.5,,familiar_rating,187533,Fictional_Cities_List/img_natural_50.png,,51,Fictional_Cities_List/img_natural_50.png,NAT,3,,,,,,,,,,,,,,,
null,,confidence_buffer,187635,confidence_buffer,,null,,,,,,,,,,,,,,,,,,
741.5,,unique_rating,188379,Fictional_Cities_List/img_natural_50.png,,52,,,4,,,,,,,,,,,,,,,
null,,confidence_buffer,188481,confidence_buffer,,null,,,,,,,,,,,,,,,,,,
1267.7999999970198,,memorable_rating,189750,Fictional_Cities_List/img_natural_50.png,,52,,,4,,,,,,,,,,,,,,,
null,,confidence_buffer,189852,confidence_buffer,,null,,,,,,,,,,,,,,,,,,
null,,thebreak,190354,break,,null,,,,,,,,,,,,,,,,,,
7135,,familiar_rating,197490,US_Cities_List/nat_peoria.png,,51,US_Cities_List/nat_peoria.png,NAT,3,,,,,,,,,,,,,,,
null,,confidence_buffer,197592,confidence_buffer,,null,,,,,,,,,,,,,,,,,,
1582.3999999985099,,unique_rating,199175,US_Cities_List/nat_peoria.png,,50,,,2,,,,,,,,,,,,,,,
null,,confidence_buffer,199277,confidence_buffer,,null,,,,,,,,,,,,,,,,,,
544.8000000007451,,memorable_rating,199823,US_Cities_List/nat_peoria.png,,52,,,4,,,,,,,,,,,,,,,
null,,confidence_buffer,199925,confidence_buffer,,null,,,,,,,,,,,,,,,,,,
null,,thebreak,200427,break,,null,,,,,,,,,,,,,,,,,,
2203,,familiar_rating,202632,US_Cities_List/mm_athens.png,,52,US_Cities_List/mm_athens.png,MM,4,,,,,,,,,,,,,,,
null,,confidence_buffer,202733,confidence_buffer,,null,,,,,,,,,,,,,,,,,,
2013.699999999255,,unique_rating,204748,US_Cities_List/mm_athens.png,,51,,,3,,,,,,,,,,,,,,,
null,,confidence_buffer,204851,confidence_buffer,,null,,,,,,,,,,,,,,,,,,
845.7000000029802,,memorable_rating,205698,US_Cities_List/mm_athens.png,,52,,,4,,,,,,,,,,,,,,,
null,,confidence_buffer,205800,confidence_buffer,,null,,,,,,,,,,,,,,,,,,
null,,thebreak,206301,break,,null,,,,,,,,,,,,,,,,,,
3630,,familiar_rating,209932,US_Cities_List/mm_bisbee.png,,50,US_Cities_List/mm_bisbee.png,MM,2,,,,,,,,,,,,,,,
null,,confidence_buffer,210035,confidence_buffer,,null,,,,,,,,,,,,,,,,,,
113,,probe_rating,210149,probe_rating,,50,,,,2,1,,,,,,,,,,,,,
null,,confidence_buffer,210251,confidence_buffer,,null,,,,,,,,,,,,,,,,,,
1041.5,,unique_rating,211294,US_Cities_List/mm_bisbee.png,,51,,,3,,,,,,,,,,,,,,,
null,,confidence_buffer,211395,confidence_buffer,,null,,,,,,,,,,,,,,,,,,
2451.699999999255,,memorable_rating,213848,US_Cities_List/mm_bisbee.png,,51,,,3,,,,,,,,,,,,,,,
null,,confidence_buffer,213951,confidence_buffer,,null,,,,,,,,,,,,,,,,,,
null,,thebreak,214452,break,,null,,,,,,,,,,,,,,,,,,
10461.5,,familiar_rating,224915,Fictional_Cities_List/img_natural_25.png,,50,Fictional_Cities_List/img_natural_25.png,NAT,2,,,,,,,,,,,,,,,
null,,confidence_buffer,225017,confidence_buffer,,null,,,,,,,,,,,,,,,,,,
1458.5999999977648,,unique_rating,226477,Fictional_Cities_List/img_natural_25.png,,51,,,3,,,,,,,,,,,,,,,
null,,confidence_buffer,226579,confidence_buffer,,null,,,,,,,,,,,,,,,,,,
2954.699999999255,,memorable_rating,229535,Fictional_Cities_List/img_natural_25.png,,51,,,3,,,,,,,,,,,,,,,
null,,confidence_buffer,229638,confidence_buffer,,null,,,,,,,,,,,,,,,,,,
null,,thebreak,230139,break,,null,,,,,,,,,,,,,,,,,,
9106.099999997765,,familiar_rating,239247,US_Cities_List/nat_abilene.png,,51,US_Cities_List/nat_abilene.png,NAT,3,,,,,,,,,,,,,,,
null,,confidence_buffer,239349,confidence_buffer,,null,,,,,,,,,,,,,,,,,,
1257.300000000745,,unique_rating,240607,US_Cities_List/nat_abilene.png,,51,,,3,,,,,,,,,,,,,,,
null,,confidence_buffer,240709,confidence_buffer,,null,,,,,,,,,,,,,,,,,,
1152.6000000014901,,memorable_rating,241863,US_Cities_List/nat_abilene.png,,52,,,4,,,,,,,,,,,,,,,
null,,confidence_buffer,241970,confidence_buffer,,null,,,,,,,,,,,,,,,,,,
null,,thebreak,242471,break,,null,,,,,,,,,,,,,,,,,,
3453.5,,familiar_rating,245926,Fictional_Cities_List/img_natural_49.png,,51,Fictional_Cities_List/img_natural_49.png,NAT,3,,,,,,,,,,,,,,,
null,,confidence_buffer,246028,confidence_buffer,,null,,,,,,,,,,,,,,,,,,
648.6999999992549,,unique_rating,246679,Fictional_Cities_List/img_natural_49.png,,51,,,3,,,,,,,,,,,,,,,
null,,confidence_buffer,246780,confidence_buffer,,null,,,,,,,,,,,,,,,,,,
842,,memorable_rating,247624,Fictional_Cities_List/img_natural_49.png,,52,,,4,,,,,,,,,,,,,,,
null,,confidence_buffer,247725,confidence_buffer,,null,,,,,,,,,,,,,,,,,,
null,,thebreak,248227,break,,null,,,,,,,,,,,,,,,,,,
7713.60000000149,,familiar_rating,255942,Fictional_Cities_List/img_natural_34.png,,52,Fictional_Cities_List/img_natural_34.png,NAT,4,,,,,,,,,,,,,,,
null,,confidence_buffer,256044,confidence_buffer,,null,,,,,,,,,,,,,,,,,,
1560.6000000014901,,unique_rating,257606,Fictional_Cities_List/img_natural_34.png,,51,,,3,,,,,,,,,,,,,,,
null,,confidence_buffer,257708,confidence_buffer,,null,,,,,,,,,,,,,,,,,,
523.5,,memorable_rating,258232,Fictional_Cities_List/img_natural_34.png,,52,,,4,,,,,,,,,,,,,,,
null,,confidence_buffer,258335,confidence_buffer,,null,,,,,,,,,,,,,,,,,,
null,,thebreak,258836,break,,null,,,,,,,,,,,,,,,,,,
5290,,familiar_rating,264127,US_Cities_List/nat_coeurdalene.png,,50,US_Cities_List/nat_coeurdalene.png,NAT,2,,,,,,,,,,,,,,,
null,,confidence_buffer,264229,confidence_buffer,,null,,,,,,,,,,,,,,,,,,
1019,,unique_rating,265249,US_Cities_List/nat_coeurdalene.png,,51,,,3,,,,,,,,,,,,,,,
null,,confidence_buffer,265351,confidence_buffer,,null,,,,,,,,,,,,,,,,,,
179.19999999925494,,memorable_rating,265531,US_Cities_List/nat_coeurdalene.png,,52,,,4,,,,,,,,,,,,,,,
null,,confidence_buffer,265633,confidence_buffer,,null,,,,,,,,,,,,,,,,,,
null,,thebreak,266134,break,,null,,,,,,,,,,,,,,,,,,
3661.900000002235,,familiar_rating,269797,Fictional_Cities_List/img_manmade_28.png,,52,Fictional_Cities_List/img_manmade_28.png,MM,4,,,,,,,,,,,,,,,
null,,confidence_buffer,269899,confidence_buffer,,null,,,,,,,,,,,,,,,,,,
145.5,,unique_rating,270046,Fictional_Cities_List/img_manmade_28.png,,52,,,4,,,,,,,,,,,,,,,
null,,confidence_buffer,270147,confidence_buffer,,null,,,,,,,,,,,,,,,,,,
544.9000000022352,,memorable_rating,270693,Fictional_Cities_List/img_manmade_28.png,,52,,,4,,,,,,,,,,,,,,,
null,,confidence_buffer,270796,confidence_buffer,,null,,,,,,,,,,,,,,,,,,
null,,thebreak,271297,break,,null,,,,,,,,,,,,,,,,,,
3805.10000000149,,familiar_rating,275104,US_Cities_List/nat_healdsburg.png,,50,US_Cities_List/nat_healdsburg.png,NAT,2,,,,,,,,,,,,,,,
null,,confidence_buffer,275206,confidence_buffer,,null,,,,,,,,,,,,,,,,,,
492.0999999977648,,probe_rating,275700,probe_rating,,50,,,,2,1,,,,,,,,,,,,,
null,,confidence_buffer,275801,confidence_buffer,,null,,,,,,,,,,,,,,,,,,
1513.5999999977648,,unique_rating,277316,US_Cities_List/nat_healdsburg.png,,51,,,3,,,,,,,,,,,,,,,
null,,confidence_buffer,277419,confidence_buffer,,null,,,,,,,,,,,,,,,,,,
914.3000000007451,,memorable_rating,278335,US_Cities_List/nat_healdsburg.png,,51,,,3,,,,,,,,,,,,,,,
null,,confidence_buffer,278437,confidence_buffer,,null,,,,,,,,,,,,,,,,,,
null,,thebreak,278938,break,,null,,,,,,,,,,,,,,,,,,
8283.60000000149,,familiar_rating,287223,US_Cities_List/mm_cornwall.png,,50,US_Cities_List/mm_cornwall.png,MM,2,,,,,,,,,,,,,,,
null,,confidence_buffer,287326,confidence_buffer,,null,,,,,,,,,,,,,,,,,,
1335.9000000022352,,unique_rating,288663,US_Cities_List/mm_cornwall.png,,50,,,2,,,,,,,,,,,,,,,
null,,confidence_buffer,288765,confidence_buffer,,null,,,,,,,,,,,,,,,,,,
1022.1999999992549,,memorable_rating,289788,US_Cities_List/mm_cornwall.png,,51,,,3,,,,,,,,,,,,,,,
null,,confidence_buffer,289891,confidence_buffer,,null,,,,,,,,,,,,,,,,,,
null,,thebreak,290393,break,,null,,,,,,,,,,,,,,,,,,
6697.5,,familiar_rating,297092,Fictional_Cities_List/img_natural_48.png,,51,Fictional_Cities_List/img_natural_48.png,NAT,3,,,,,,,,,,,,,,,
null,,confidence_buffer,297194,confidence_buffer,,null,,,,,,,,,,,,,,,,,,
1053.199999999255,,unique_rating,298248,Fictional_Cities_List/img_natural_48.png,,51,,,3,,,,,,,,,,,,,,,
null,,confidence_buffer,298350,confidence_buffer,,null,,,,,,,,,,,,,,,,,,
607.1000000014901,,memorable_rating,298959,Fictional_Cities_List/img_natural_48.png,,51,,,3,,,,,,,,,,,,,,,
null,,confidence_buffer,299060,confidence_buffer,,null,,,,,,,,,,,,,,,,,,
null,,thebreak,299562,break,,null,,,,,,,,,,,,,,,,,,
4761.199999999255,,familiar_rating,304325,US_Cities_List/mm_abilene.png,,52,US_Cities_List/mm_abilene.png,MM,4,,,,,,,,,,,,,,,
null,,confidence_buffer,304427,confidence_buffer,,null,,,,,,,,,,,,,,,,,,
303.80000000074506,,unique_rating,304732,US_Cities_List/mm_abilene.png,,52,,,4,,,,,,,,,,,,,,,
null,,confidence_buffer,304834,confidence_buffer,,null,,,,,,,,,,,,,,,,,,
286.19999999925494,,memorable_rating,305121,US_Cities_List/mm_abilene.png,,52,,,4,,,,,,,,,,,,,,,
null,,confidence_buffer,305224,confidence_buffer,,null,,,,,,,,,,,,,,,,,,
679.5,,probe_rating,305905,probe_rating,,52,,,,4,0,,,,,,,,,,,,,
null,,confidence_buffer,306009,confidence_buffer,,null,,,,,,,,,,,,,,,,,,
null,,thebreak,306511,break,,null,,,,,,,,,,,,,,,,,,
3942.699999999255,,familiar_rating,310455,Fictional_Cities_List/img_manmade_22.png,,52,Fictional_Cities_List/img_manmade_22.png,MM,4,,,,,,,,,,,,,,,
null,,confidence_buffer,310558,confidence_buffer,,null,,,,,,,,,,,,,,,,,,
528.4000000022352,,unique_rating,311088,Fictional_Cities_List/img_manmade_22.png,,52,,,4,,,,,,,,,,,,,,,
null,,confidence_buffer,311190,confidence_buffer,,null,,,,,,,,,,,,,,,,,,
737.5,,memorable_rating,311929,Fictional_Cities_List/img_manmade_22.png,,52,,,4,,,,,,,,,,,,,,,
null,,confidence_buffer,312031,confidence_buffer,,null,,,,,,,,,,,,,,,,,,
null,,thebreak,312532,break,,null,,,,,,,,,,,,,,,,,,
2014.300000000745,,familiar_rating,314547,US_Cities_List/nat_hotsprings.png,,50,US_Cities_List/nat_hotsprings.png,NAT,2,,,,,,,,,,,,,,,
null,,confidence_buffer,314650,confidence_buffer,,null,,,,,,,,,,,,,,,,,,
1997.5999999977648,,unique_rating,316649,US_Cities_List/nat_hotsprings.png,,51,,,3,,,,,,,,,,,,,,,
null,,confidence_buffer,316751,confidence_buffer,,null,,,,,,,,,,,,,,,,,,
2113.39999999851,,memorable_rating,318866,US_Cities_List/nat_hotsprings.png,,51,,,3,,,,,,,,,,,,,,,
null,,confidence_buffer,318968,confidence_buffer,,null,,,,,,,,,,,,,,,,,,
null,,thebreak,319470,break,,null,,,,,,,,,,,,,,,,,,
2427.800000000745,,familiar_rating,321899,US_Cities_List/mm_healdsburg.png,,51,US_Cities_List/mm_healdsburg.png,MM,3,,,,,,,,,,,,,,,
null,,confidence_buffer,322001,confidence_buffer,,null,,,,,,,,,,,,,,,,,,
1495.800000000745,,unique_rating,323498,US_Cities_List/mm_healdsburg.png,,51,,,3,,,,,,,,,,,,,,,
null,,confidence_buffer,323600,confidence_buffer,,null,,,,,,,,,,,,,,,,,,
864.8999999985099,,memorable_rating,324466,US_Cities_List/mm_healdsburg.png,,51,,,3,,,,,,,,,,,,,,,
null,,confidence_buffer,324568,confidence_buffer,,null,,,,,,,,,,,,,,,,,,
null,,thebreak,325071,break,,null,,,,,,,,,,,,,,,,,,
2601.199999999255,,familiar_rating,327674,Fictional_Cities_List/img_manmade_50.png,,50,Fictional_Cities_List/img_manmade_50.png,MM,2,,,,,,,,,,,,,,,
null,,confidence_buffer,327776,confidence_buffer,,null,,,,,,,,,,,,,,,,,,
2208.39999999851,,unique_rating,329985,Fictional_Cities_List/img_manmade_50.png,,51,,,3,,,,,,,,,,,,,,,
null,,confidence_buffer,330088,confidence_buffer,,null,,,,,,,,,,,,,,,,,,
1098.2999999970198,,memorable_rating,331187,Fictional_Cities_List/img_manmade_50.png,,51,,,3,,,,,,,,,,,,,,,
null,,confidence_buffer,331289,confidence_buffer,,null,,,,,,,,,,,,,,,,,,
null,,thebreak,331791,break,,null,,,,,,,,,,,,,,,,,,
23322.39999999851,,familiar_rating,355115,Fictional_Cities_List/img_manmade_39.png,,50,Fictional_Cities_List/img_manmade_39.png,MM,2,,,,,,,,,,,,,,,
null,,confidence_buffer,355218,confidence_buffer,,null,,,,,,,,,,,,,,,,,,
3022.10000000149,,unique_rating,358241,Fictional_Cities_List/img_manmade_39.png,,51,,,3,,,,,,,,,,,,,,,
null,,confidence_buffer,358343,confidence_buffer,,null,,,,,,,,,,,,,,,,,,
918.1000000014901,,memorable_rating,359263,Fictional_Cities_List/img_manmade_39.png,,51,,,3,,,,,,,,,,,,,,,
null,,confidence_buffer,359364,confidence_buffer,,null,,,,,,,,,,,,,,,,,,
null,,thebreak,359866,break,,null,,,,,,,,,,,,,,,,,,
3629.099999997765,,familiar_rating,363496,Fictional_Cities_List/img_manmade_10.png,,52,Fictional_Cities_List/img_manmade_10.png,MM,4,,,,,,,,,,,,,,,
null,,confidence_buffer,363598,confidence_buffer,,null,,,,,,,,,,,,,,,,,,
355.4000000022352,,unique_rating,363955,Fictional_Cities_List/img_manmade_10.png,,52,,,4,,,,,,,,,,,,,,,
null,,confidence_buffer,364057,confidence_buffer,,null,,,,,,,,,,,,,,,,,,
386.0999999977648,,memorable_rating,364445,Fictional_Cities_List/img_manmade_10.png,,52,,,4,,,,,,,,,,,,,,,
null,,confidence_buffer,364547,confidence_buffer,,null,,,,,,,,,,,,,,,,,,
null,,thebreak,365048,break,,null,,,,,,,,,,,,,,,,,,
2787.300000000745,,familiar_rating,367837,US_Cities_List/mm_peoria.png,,50,US_Cities_List/mm_peoria.png,MM,2,,,,,,,,,,,,,,,
null,,confidence_buffer,367939,confidence_buffer,,null,,,,,,,,,,,,,,,,,,
479.69999999925494,,unique_rating,368420,US_Cities_List/mm_peoria.png,,50,,,2,,,,,,,,,,,,,,,
null,,confidence_buffer,368522,confidence_buffer,,null,,,,,,,,,,,,,,,,,,
1012.3999999985099,,memorable_rating,369536,US_Cities_List/mm_peoria.png,,51,,,3,,,,,,,,,,,,,,,
null,,confidence_buffer,369640,confidence_buffer,,null,,,,,,,,,,,,,,,,,,
null,,thebreak,370142,break,,null,,,,,,,,,,,,,,,,,,
5936.39999999851,,intro_0,376080,instruct,,32,,,,,,,,,,,,,,,,,,
6906.699999999255,,intro_1,382987,instruct,,32,,,,,,,,,,,,,,,,,,
27723.20000000298,,intro_2,410712,instruct,,32,,,,,,,,,,,,,,,,,,
null,,instruct_dir_4,412213,instruct,,null,,,,,,,,,,,,,,,,,,
25892.5,,pt2_realistic_rating,438107,Fictional_Cities_List/img_natural_27.png,,50,Fictional_Cities_List/img_natural_27.png,NAT,2,,,,,,,,,,,,,,,
null,,confidence_buffer,438209,confidence_buffer,,null,,,,,,,,,,,,,,,,,,
6329.300000000745,,pt2_unique_rating,444540,Fictional_Cities_List/img_natural_27.png,,50,,,2,,,,,,,,,,,,,,,
null,,confidence_buffer,444643,confidence_buffer,,null,,,,,,,,,,,,,,,,,,
1224,,pt2_memorable_rating,445868,Fictional_Cities_List/img_natural_27.png,,51,,,3,,,,,,,,,,,,,,,
null,,confidence_buffer,445972,confidence_buffer,,null,,,,,,,,,,,,,,,,,,
4787.89999999851,,probe_rating,450762,probe_rating,,52,,,,4,1,,,,,,,,,,,,,
null,,confidence_buffer,450864,confidence_buffer,,null,,,,,,,,,,,,,,,,,,
5521.5,,recognition_phase,456387,Fictional_Cities_List/img_natural_27.png,,49,,,,,,old,1,1,,,,,,,,,,
null,,confidence_buffer,456490,confidence_buffer,,null,,,,,,,,,,,,,,,,,,
null,,thebreak,456992,break,,null,,,,,,,,,,,,,,,,,,
8173.099999997765,,pt2_realistic_rating,465167,Fictional_Cities_List/img_manmade_39.png,,51,Fictional_Cities_List/img_manmade_39.png,MM,3,,,,,,,,,,,,,,,
null,,confidence_buffer,465268,confidence_buffer,,null,,,,,,,,,,,,,,,,,,
3142,,pt2_unique_rating,468411,Fictional_Cities_List/img_manmade_39.png,,51,,,3,,,,,,,,,,,,,,,
null,,confidence_buffer,468513,confidence_buffer,,null,,,,,,,,,,,,,,,,,,
1856.5,,pt2_memorable_rating,470371,Fictional_Cities_List/img_manmade_39.png,,52,,,4,,,,,,,,,,,,,,,
null,,confidence_buffer,470473,confidence_buffer,,null,,,,,,,,,,,,,,,,,,
1673.3999999985099,,recognition_phase,472148,Fictional_Cities_List/img_manmade_39.png,,49,,,,,,old,1,1,,,,,,,,,,
null,,confidence_buffer,472250,confidence_buffer,,null,,,,,,,,,,,,,,,,,,
null,,thebreak,472751,break,,null,,,,,,,,,,,,,,,,,,
3725.300000000745,,pt2_realistic_rating,476478,Fictional_Cities_List/img_natural_49.png,,52,Fictional_Cities_List/img_natural_49.png,NAT,4,,,,,,,,,,,,,,,
null,,confidence_buffer,476579,confidence_buffer,,null,,,,,,,,,,,,,,,,,,
2401,,pt2_unique_rating,478982,Fictional_Cities_List/img_natural_49.png,,51,,,3,,,,,,,,,,,,,,,
null,,confidence_buffer,479084,confidence_buffer,,null,,,,,,,,,,,,,,,,,,
2413.900000002235,,pt2_memorable_rating,481499,Fictional_Cities_List/img_natural_49.png,,52,,,4,,,,,,,,,,,,,,,
null,,confidence_buffer,481602,confidence_buffer,,null,,,,,,,,,,,,,,,,,,
1848.5999999977648,,recognition_phase,483451,Fictional_Cities_List/img_natural_49.png,,49,,,,,,old,1,1,,,,,,,,,,
null,,confidence_buffer,483554,confidence_buffer,,null,,,,,,,,,,,,,,,,,,
null,,thebreak,484055,break,,null,,,,,,,,,,,,,,,,,,
4586.800000000745,,pt2_realistic_rating,488644,US_Cities_List/mm_coeurdalene.png,,52,US_Cities_List/mm_coeurdalene.png,MM,4,,,,,,,,,,,,,,,
null,,confidence_buffer,488746,confidence_buffer,,null,,,,,,,,,,,,,,,,,,
7934.5,,pt2_unique_rating,496682,US_Cities_List/mm_coeurdalene.png,,51,,,3,,,,,,,,,,,,,,,
null,,confidence_buffer,496783,confidence_buffer,,null,,,,,,,,,,,,,,,,,,
1743.199999999255,,pt2_memorable_rating,498528,US_Cities_List/mm_coeurdalene.png,,51,,,3,,,,,,,,,,,,,,,
null,,confidence_buffer,498631,confidence_buffer,,null,,,,,,,,,,,,,,,,,,
9186.800000000745,,recognition_phase,507819,US_Cities_List/mm_coeurdalene.png,,52,,,,,,new,1,1,,,,,,,,,,
null,,confidence_buffer,507922,confidence_buffer,,null,,,,,,,,,,,,,,,,,,
null,,thebreak,508424,break,,null,,,,,,,,,,,,,,,,,,
8343.5,,pt2_realistic_rating,516769,Fictional_Cities_List/img_manmade_34.png,,51,Fictional_Cities_List/img_manmade_34.png,MM,3,,,,,,,,,,,,,,,
null,,confidence_buffer,516871,confidence_buffer,,null,,,,,,,,,,,,,,,,,,
4020.10000000149,,pt2_unique_rating,520892,Fictional_Cities_List/img_manmade_34.png,,50,,,2,,,,,,,,,,,,,,,
null,,confidence_buffer,520995,confidence_buffer,,null,,,,,,,,,,,,,,,,,,
1675.1000000014901,,pt2_memorable_rating,522671,Fictional_Cities_List/img_manmade_34.png,,51,,,3,,,,,,,,,,,,,,,
null,,confidence_buffer,522772,confidence_buffer,,null,,,,,,,,,,,,,,,,,,
1805.3999999985099,,recognition_phase,524579,Fictional_Cities_List/img_manmade_34.png,,52,,,,,,new,1,1,,,,,,,,,,
null,,confidence_buffer,524681,confidence_buffer,,null,,,,,,,,,,,,,,,,,,
null,,thebreak,525184,break,,null,,,,,,,,,,,,,,,,,,
20101.10000000149,,pt2_realistic_rating,545286,US_Cities_List/nat_cornwall.png,,50,US_Cities_List/nat_cornwall.png,NAT,2,,,,,,,,,,,,,,,
null,,confidence_buffer,545389,confidence_buffer,,null,,,,,,,,,,,,,,,,,,
2896.5,,pt2_unique_rating,548287,US_Cities_List/nat_cornwall.png,,52,,,4,,,,,,,,,,,,,,,
null,,confidence_buffer,548388,confidence_buffer,,null,,,,,,,,,,,,,,,,,,
1468.4000000022352,,pt2_memorable_rating,549858,US_Cities_List/nat_cornwall.png,,52,,,4,,,,,,,,,,,,,,,
null,,confidence_buffer,549960,confidence_buffer,,null,,,,,,,,,,,,,,,,,,
4367.400000002235,,recognition_phase,554329,US_Cities_List/nat_cornwall.png,,52,,,,,,new,1,1,,,,,,,,,,
null,,confidence_buffer,554431,confidence_buffer,,null,,,,,,,,,,,,,,,,,,
null,,thebreak,554933,break,,null,,,,,,,,,,,,,,,,,,
10117.60000000149,,pt2_realistic_rating,565052,Fictional_Cities_List/img_manmade_36.png,,51,Fictional_Cities_List/img_manmade_36.png,MM,3,,,,,,,,,,,,,,,
null,,confidence_buffer,565154,confidence_buffer,,null,,,,,,,,,,,,,,,,,,
2225.10000000149,,pt2_unique_rating,567380,Fictional_Cities_List/img_manmade_36.png,,51,,,3,,,,,,,,,,,,,,,
null,,confidence_buffer,567482,confidence_buffer,,null,,,,,,,,,,,,,,,,,,
2005,,pt2_memorable_rating,569489,Fictional_Cities_List/img_manmade_36.png,,51,,,3,,,,,,,,,,,,,,,
null,,confidence_buffer,569590,confidence_buffer,,null,,,,,,,,,,,,,,,,,,
2436.2999999970198,,recognition_phase,572028,Fictional_Cities_List/img_manmade_36.png,,52,,,,,,new,1,1,,,,,,,,,,
null,,confidence_buffer,572130,confidence_buffer,,null,,,,,,,,,,,,,,,,,,
null,,thebreak,572632,break,,null,,,,,,,,,,,,,,,,,,
3726.900000002235,,pt2_realistic_rating,576360,Fictional_Cities_List/img_manmade_28.png,,52,Fictional_Cities_List/img_manmade_28.png,MM,4,,,,,,,,,,,,,,,
null,,confidence_buffer,576461,confidence_buffer,,null,,,,,,,,,,,,,,,,,,
763.5,,pt2_unique_rating,577226,Fictional_Cities_List/img_manmade_28.png,,52,,,4,,,,,,,,,,,,,,,
null,,confidence_buffer,577328,confidence_buffer,,null,,,,,,,,,,,,,,,,,,
706.5,,pt2_memorable_rating,578036,Fictional_Cities_List/img_manmade_28.png,,52,,,4,,,,,,,,,,,,,,,
null,,confidence_buffer,578137,confidence_buffer,,null,,,,,,,,,,,,,,,,,,
3976,,recognition_phase,582114,Fictional_Cities_List/img_manmade_28.png,,49,,,,,,old,1,1,,,,,,,,,,
null,,confidence_buffer,582217,confidence_buffer,,null,,,,,,,,,,,,,,,,,,
null,,thebreak,582718,break,,null,,,,,,,,,,,,,,,,,,
7780.800000000745,,pt2_realistic_rating,590501,US_Cities_List/mm_carmel.png,,52,US_Cities_List/mm_carmel.png,MM,4,,,,,,,,,,,,,,,
null,,confidence_buffer,590603,confidence_buffer,,null,,,,,,,,,,,,,,,,,,
2343,,pt2_unique_rating,592948,US_Cities_List/mm_carmel.png,,51,,,3,,,,,,,,,,,,,,,
null,,confidence_buffer,593050,confidence_buffer,,null,,,,,,,,,,,,,,,,,,
1803.800000000745,,pt2_memorable_rating,594855,US_Cities_List/mm_carmel.png,,52,,,4,,,,,,,,,,,,,,,
null,,confidence_buffer,594958,confidence_buffer,,null,,,,,,,,,,,,,,,,,,
1312.699999999255,,recognition_phase,596272,US_Cities_List/mm_carmel.png,,49,,,,,,old,1,1,,,,,,,,,,
null,,confidence_buffer,596374,confidence_buffer,,null,,,,,,,,,,,,,,,,,,
null,,thebreak,596877,break,,null,,,,,,,,,,,,,,,,,,
5068.400000002235,,pt2_realistic_rating,601947,Fictional_Cities_List/img_natural_36.png,,52,Fictional_Cities_List/img_natural_36.png,NAT,4,,,,,,,,,,,,,,,
null,,confidence_buffer,602049,confidence_buffer,,null,,,,,,,,,,,,,,,,,,
1334.0999999977648,,pt2_unique_rating,603384,Fictional_Cities_List/img_natural_36.png,,51,,,3,,,,,,,,,,,,,,,
null,,confidence_buffer,603486,confidence_buffer,,null,,,,,,,,,,,,,,,,,,
950.3000000007451,,pt2_memorable_rating,604438,Fictional_Cities_List/img_natural_36.png,,52,,,4,,,,,,,,,,,,,,,
null,,confidence_buffer,604540,confidence_buffer,,null,,,,,,,,,,,,,,,,,,
1292,,recognition_phase,605833,Fictional_Cities_List/img_natural_36.png,,49,,,,,,old,1,1,,,,,,,,,,
null,,confidence_buffer,605935,confidence_buffer,,null,,,,,,,,,,,,,,,,,,
null,,thebreak,606437,break,,null,,,,,,,,,,,,,,,,,,
3803.300000000745,,pt2_realistic_rating,610242,Fictional_Cities_List/img_manmade_03.png,,51,Fictional_Cities_List/img_manmade_03.png,MM,3,,,,,,,,,,,,,,,
null,,confidence_buffer,610343,confidence_buffer,,null,,,,,,,,,,,,,,,,,,
2250.60000000149,,pt2_unique_rating,612595,Fictional_Cities_List/img_manmade_03.png,,51,,,3,,,,,,,,,,,,,,,
null,,confidence_buffer,612697,confidence_buffer,,null,,,,,,,,,,,,,,,,,,
1331.199999999255,,pt2_memorable_rating,614030,Fictional_Cities_List/img_manmade_03.png,,52,,,4,,,,,,,,,,,,,,,
null,,confidence_buffer,614131,confidence_buffer,,null,,,,,,,,,,,,,,,,,,
5366.60000000149,,recognition_phase,619500,Fictional_Cities_List/img_manmade_03.png,,52,,,,,,new,1,1,,,,,,,,,,
null,,confidence_buffer,619603,confidence_buffer,,null,,,,,,,,,,,,,,,,,,
null,,thebreak,620105,break,,null,,,,,,,,,,,,,,,,,,
3866.5,,pt2_realistic_rating,623973,Fictional_Cities_List/img_natural_25.png,,50,Fictional_Cities_List/img_natural_25.png,NAT,2,,,,,,,,,,,,,,,
null,,confidence_buffer,624084,confidence_buffer,,null,,,,,,,,,,,,,,,,,,
2232.300000000745,,pt2_unique_rating,626318,Fictional_Cities_List/img_natural_25.png,,51,,,3,,,,,,,,,,,,,,,
null,,confidence_buffer,626420,confidence_buffer,,null,,,,,,,,,,,,,,,,,,
1791.6000000014901,,pt2_memorable_rating,628213,Fictional_Cities_List/img_natural_25.png,,51,,,3,,,,,,,,,,,,,,,
null,,confidence_buffer,628315,confidence_buffer,,null,,,,,,,,,,,,,,,,,,
2174,,recognition_phase,630490,Fictional_Cities_List/img_natural_25.png,,49,,,,,,old,1,1,,,,,,,,,,
null,,confidence_buffer,630592,confidence_buffer,,null,,,,,,,,,,,,,,,,,,
null,,thebreak,631093,break,,null,,,,,,,,,,,,,,,,,,
25983.39999999851,,pt2_realistic_rating,657078,US_Cities_List/mm_okoboji.png,,52,US_Cities_List/mm_okoboji.png,MM,4,,,,,,,,,,,,,,,
null,,confidence_buffer,657180,confidence_buffer,,null,,,,,,,,,,,,,,,,,,
1499,,pt2_unique_rating,658681,US_Cities_List/mm_okoboji.png,,51,,,3,,,,,,,,,,,,,,,
null,,confidence_buffer,658783,confidence_buffer,,null,,,,,,,,,,,,,,,,,,
998.5,,pt2_memorable_rating,659783,US_Cities_List/mm_okoboji.png,,52,,,4,,,,,,,,,,,,,,,
null,,confidence_buffer,659884,confidence_buffer,,null,,,,,,,,,,,,,,,,,,
1993.199999999255,,recognition_phase,661878,US_Cities_List/mm_okoboji.png,,52,,,,,,new,1,1,,,,,,,,,,
null,,confidence_buffer,661981,confidence_buffer,,null,,,,,,,,,,,,,,,,,,
null,,thebreak,662482,break,,null,,,,,,,,,,,,,,,,,,
3071.300000000745,,pt2_realistic_rating,665554,Fictional_Cities_List/img_manmade_01.png,,51,Fictional_Cities_List/img_manmade_01.png,MM,3,,,,,,,,,,,,,,,
null,,confidence_buffer,665657,confidence_buffer,,null,,,,,,,,,,,,,,,,,,
1460.2000000029802,,pt2_unique_rating,667119,Fictional_Cities_List/img_manmade_01.png,,51,,,3,,,,,,,,,,,,,,,
null,,confidence_buffer,667221,confidence_buffer,,null,,,,,,,,,,,,,,,,,,
934,,pt2_memorable_rating,668156,Fictional_Cities_List/img_manmade_01.png,,52,,,4,,,,,,,,,,,,,,,
null,,confidence_buffer,668259,confidence_buffer,,null,,,,,,,,,,,,,,,,,,
1493.6000000014901,,recognition_phase,669754,Fictional_Cities_List/img_manmade_01.png,,52,,,,,,new,1,1,,,,,,,,,,
null,,confidence_buffer,669860,confidence_buffer,,null,,,,,,,,,,,,,,,,,,
null,,thebreak,670362,break,,null,,,,,,,,,,,,,,,,,,
4447.89999999851,,pt2_realistic_rating,674812,Fictional_Cities_List/img_manmade_10.png,,52,Fictional_Cities_List/img_manmade_10.png,MM,4,,,,,,,,,,,,,,,
null,,confidence_buffer,674914,confidence_buffer,,null,,,,,,,,,,,,,,,,,,
976.1999999992549,,pt2_unique_rating,675892,Fictional_Cities_List/img_manmade_10.png,,51,,,3,,,,,,,,,,,,,,,
null,,confidence_buffer,675994,confidence_buffer,,null,,,,,,,,,,,,,,,,,,
508.19999999925494,,pt2_memorable_rating,676503,Fictional_Cities_List/img_manmade_10.png,,52,,,4,,,,,,,,,,,,,,,
null,,confidence_buffer,676605,confidence_buffer,,null,,,,,,,,,,,,,,,,,,
1165.800000000745,,recognition_phase,677772,Fictional_Cities_List/img_manmade_10.png,,49,,,,,,old,1,1,,,,,,,,,,
null,,confidence_buffer,677875,confidence_buffer,,null,,,,,,,,,,,,,,,,,,
null,,thebreak,678376,break,,null,,,,,,,,,,,,,,,,,,
2311.900000002235,,pt2_realistic_rating,680689,US_Cities_List/nat_abilene.png,,52,US_Cities_List/nat_abilene.png,NAT,4,,,,,,,,,,,,,,,
null,,confidence_buffer,680791,confidence_buffer,,null,,,,,,,,,,,,,,,,,,
1081,,pt2_unique_rating,681873,US_Cities_List/nat_abilene.png,,51,,,3,,,,,,,,,,,,,,,
null,,confidence_buffer,681986,confidence_buffer,,null,,,,,,,,,,,,,,,,,,
372.5999999977648,,pt2_memorable_rating,682360,US_Cities_List/nat_abilene.png,,52,,,4,,,,,,,,,,,,,,,
null,,confidence_buffer,682463,confidence_buffer,,null,,,,,,,,,,,,,,,,,,
935.5,,recognition_phase,683399,US_Cities_List/nat_abilene.png,,49,,,,,,old,1,1,,,,,,,,,,
null,,confidence_buffer,683501,confidence_buffer,,null,,,,,,,,,,,,,,,,,,
null,,thebreak,684002,break,,null,,,,,,,,,,,,,,,,,,
6046.800000000745,,pt2_realistic_rating,690050,US_Cities_List/nat_hotsprings.png,,50,US_Cities_List/nat_hotsprings.png,NAT,2,,,,,,,,,,,,,,,
null,,confidence_buffer,690152,confidence_buffer,,null,,,,,,,,,,,,,,,,,,
4458.199999999255,,pt2_unique_rating,694611,US_Cities_List/nat_hotsprings.png,,51,,,3,,,,,,,,,,,,,,,
null,,confidence_buffer,694713,confidence_buffer,,null,,,,,,,,,,,,,,,,,,
3283.39999999851,,probe_rating,697998,probe_rating,,50,,,,2,1,,,,,,,,,,,,,
null,,confidence_buffer,698101,confidence_buffer,,null,,,,,,,,,,,,,,,,,,
6704.599999997765,,pt2_memorable_rating,704806,US_Cities_List/nat_hotsprings.png,,52,,,4,,,,,,,,,,,,,,,
null,,confidence_buffer,704909,confidence_buffer,,null,,,,,,,,,,,,,,,,,,
1073.800000000745,,recognition_phase,705984,US_Cities_List/nat_hotsprings.png,,49,,,,,,old,1,1,,,,,,,,,,
null,,confidence_buffer,706087,confidence_buffer,,null,,,,,,,,,,,,,,,,,,
null,,thebreak,706588,break,,null,,,,,,,,,,,,,,,,,,
4291.099999997765,,pt2_realistic_rating,710880,Fictional_Cities_List/img_manmade_50.png,,51,Fictional_Cities_List/img_manmade_50.png,MM,3,,,,,,,,,,,,,,,
null,,confidence_buffer,710984,confidence_buffer,,null,,,,,,,,,,,,,,,,,,
910.7999999970198,,pt2_unique_rating,711896,Fictional_Cities_List/img_manmade_50.png,,51,,,3,,,,,,,,,,,,,,,
null,,confidence_buffer,711998,confidence_buffer,,null,,,,,,,,,,,,,,,,,,
2986.60000000149,,pt2_memorable_rating,714986,Fictional_Cities_List/img_manmade_50.png,,52,,,4,,,,,,,,,,,,,,,
null,,confidence_buffer,715088,confidence_buffer,,null,,,,,,,,,,,,,,,,,,
1141.1000000014901,,recognition_phase,716230,Fictional_Cities_List/img_manmade_50.png,,49,,,,,,old,1,1,,,,,,,,,,
null,,confidence_buffer,716332,confidence_buffer,,null,,,,,,,,,,,,,,,,,,
null,,thebreak,716833,break,,null,,,,,,,,,,,,,,,,,,
3268.699999999255,,pt2_realistic_rating,720103,US_Cities_List/mm_sitka.png,,51,US_Cities_List/mm_sitka.png,MM,3,,,,,,,,,,,,,,,
null,,confidence_buffer,720211,confidence_buffer,,null,,,,,,,,,,,,,,,,,,
1997.5999999977648,,pt2_unique_rating,722210,US_Cities_List/mm_sitka.png,,52,,,4,,,,,,,,,,,,,,,
null,,confidence_buffer,722311,confidence_buffer,,null,,,,,,,,,,,,,,,,,,
816.1000000014901,,pt2_memorable_rating,723129,US_Cities_List/mm_sitka.png,,52,,,4,,,,,,,,,,,,,,,
null,,confidence_buffer,723231,confidence_buffer,,null,,,,,,,,,,,,,,,,,,
2336.39999999851,,recognition_phase,725569,US_Cities_List/mm_sitka.png,,49,,,,,,old,1,1,,,,,,,,,,
null,,confidence_buffer,725671,confidence_buffer,,null,,,,,,,,,,,,,,,,,,
null,,thebreak,726173,break,,null,,,,,,,,,,,,,,,,,,
7168.199999999255,,pt2_realistic_rating,733342,Fictional_Cities_List/img_manmade_22.png,,52,Fictional_Cities_List/img_manmade_22.png,MM,4,,,,,,,,,,,,,,,
null,,confidence_buffer,733449,confidence_buffer,,null,,,,,,,,,,,,,,,,,,
1239.300000000745,,pt2_unique_rating,734690,Fictional_Cities_List/img_manmade_22.png,,51,,,3,,,,,,,,,,,,,,,
null,,confidence_buffer,734793,confidence_buffer,,null,,,,,,,,,,,,,,,,,,
869.7999999970198,,pt2_memorable_rating,735665,Fictional_Cities_List/img_manmade_22.png,,52,,,4,,,,,,,,,,,,,,,
null,,confidence_buffer,735767,confidence_buffer,,null,,,,,,,,,,,,,,,,,,
1084.800000000745,,recognition_phase,736853,Fictional_Cities_List/img_manmade_22.png,,49,,,,,,old,1,1,,,,,,,,,,
null,,confidence_buffer,736956,confidence_buffer,,null,,,,,,,,,,,,,,,,,,
null,,thebreak,737458,break,,null,,,,,,,,,,,,,,,,,,
4486.60000000149,,pt2_realistic_rating,741946,US_Cities_List/nat_healdsburg.png,,51,US_Cities_List/nat_healdsburg.png,NAT,3,,,,,,,,,,,,,,,
null,,confidence_buffer,742048,confidence_buffer,,null,,,,,,,,,,,,,,,,,,
1515.6000000014901,,pt2_unique_rating,743564,US_Cities_List/nat_healdsburg.png,,51,,,3,,,,,,,,,,,,,,,
null,,confidence_buffer,743667,confidence_buffer,,null,,,,,,,,,,,,,,,,,,
1025.199999999255,,pt2_memorable_rating,744694,US_Cities_List/nat_healdsburg.png,,52,,,4,,,,,,,,,,,,,,,
null,,confidence_buffer,744806,confidence_buffer,,null,,,,,,,,,,,,,,,,,,
1030.9000000022352,,recognition_phase,745838,US_Cities_List/nat_healdsburg.png,,49,,,,,,old,1,1,,,,,,,,,,
null,,confidence_buffer,745940,confidence_buffer,,null,,,,,,,,,,,,,,,,,,
null,,thebreak,746442,break,,null,,,,,,,,,,,,,,,,,,
7521,,pt2_realistic_rating,753964,Fictional_Cities_List/img_manmade_27.png,,50,Fictional_Cities_List/img_manmade_27.png,MM,2,,,,,,,,,,,,,,,
null,,confidence_buffer,754068,confidence_buffer,,null,,,,,,,,,,,,,,,,,,
5253.599999997765,,pt2_unique_rating,759322,Fictional_Cities_List/img_manmade_27.png,,51,,,3,,,,,,,,,,,,,,,
null,,confidence_buffer,759436,confidence_buffer,,null,,,,,,,,,,,,,,,,,,
1762.0999999977648,,pt2_memorable_rating,761199,Fictional_Cities_List/img_manmade_27.png,,51,,,3,,,,,,,,,,,,,,,
null,,confidence_buffer,761301,confidence_buffer,,null,,,,,,,,,,,,,,,,,,
1319.7999999970198,,recognition_phase,762623,Fictional_Cities_List/img_manmade_27.png,,49,,,,,,old,1,1,,,,,,,,,,
null,,confidence_buffer,762736,confidence_buffer,,null,,,,,,,,,,,,,,,,,,
null,,thebreak,763238,break,,null,,,,,,,,,,,,,,,,,,
2772.5,,pt2_realistic_rating,766012,US_Cities_List/nat_hilo.png,,51,US_Cities_List/nat_hilo.png,NAT,3,,,,,,,,,,,,,,,
null,,confidence_buffer,766116,confidence_buffer,,null,,,,,,,,,,,,,,,,,,
1029.9000000022352,,pt2_unique_rating,767147,US_Cities_List/nat_hilo.png,,51,,,3,,,,,,,,,,,,,,,
null,,confidence_buffer,767249,confidence_buffer,,null,,,,,,,,,,,,,,,,,,
1726.3999999985099,,pt2_memorable_rating,768977,US_Cities_List/nat_hilo.png,,52,,,4,,,,,,,,,,,,,,,
null,,confidence_buffer,769078,confidence_buffer,,null,,,,,,,,,,,,,,,,,,
1462.199999999255,,recognition_phase,770542,US_Cities_List/nat_hilo.png,,52,,,,,,new,1,1,,,,,,,,,,
null,,confidence_buffer,770644,confidence_buffer,,null,,,,,,,,,,,,,,,,,,
null,,thebreak,771145,break,,null,,,,,,,,,,,,,,,,,,
2364.5,,pt2_realistic_rating,773511,Fictional_Cities_List/img_natural_02.png,,50,Fictional_Cities_List/img_natural_02.png,NAT,2,,,,,,,,,,,,,,,
null,,confidence_buffer,773613,confidence_buffer,,null,,,,,,,,,,,,,,,,,,
1148.300000000745,,pt2_unique_rating,774763,Fictional_Cities_List/img_natural_02.png,,50,,,2,,,,,,,,,,,,,,,
null,,confidence_buffer,774873,confidence_buffer,,null,,,,,,,,,,,,,,,,,,
2184.300000000745,,pt2_memorable_rating,777059,Fictional_Cities_List/img_natural_02.png,,51,,,3,,,,,,,,,,,,,,,
null,,confidence_buffer,777160,confidence_buffer,,null,,,,,,,,,,,,,,,,,,
2075.699999999255,,recognition_phase,779237,Fictional_Cities_List/img_natural_02.png,,52,,,,,,new,1,1,,,,,,,,,,
null,,confidence_buffer,779340,confidence_buffer,,null,,,,,,,,,,,,,,,,,,
null,,thebreak,779842,break,,null,,,,,,,,,,,,,,,,,,
3651.699999999255,,pt2_realistic_rating,783495,Fictional_Cities_List/img_natural_01.png,,50,Fictional_Cities_List/img_natural_01.png,NAT,2,,,,,,,,,,,,,,,
null,,confidence_buffer,783603,confidence_buffer,,null,,,,,,,,,,,,,,,,,,
4714.099999997765,,pt2_unique_rating,788319,Fictional_Cities_List/img_natural_01.png,,52,,,4,,,,,,,,,,,,,,,
null,,confidence_buffer,788420,confidence_buffer,,null,,,,,,,,,,,,,,,,,,
1824.7999999970198,,pt2_memorable_rating,790246,Fictional_Cities_List/img_natural_01.png,,51,,,3,,,,,,,,,,,,,,,
null,,confidence_buffer,790348,confidence_buffer,,null,,,,,,,,,,,,,,,,,,
1908.699999999255,,recognition_phase,792258,Fictional_Cities_List/img_natural_01.png,,52,,,,,,new,1,1,,,,,,,,,,
null,,confidence_buffer,792360,confidence_buffer,,null,,,,,,,,,,,,,,,,,,
null,,thebreak,792861,break,,null,,,,,,,,,,,,,,,,,,
5106.89999999851,,pt2_realistic_rating,797969,Fictional_Cities_List/img_natural_28.png,,50,Fictional_Cities_List/img_natural_28.png,NAT,2,,,,,,,,,,,,,,,
null,,confidence_buffer,798071,confidence_buffer,,null,,,,,,,,,,,,,,,,,,
5564.5,,pt2_unique_rating,803637,Fictional_Cities_List/img_natural_28.png,,51,,,3,,,,,,,,,,,,,,,
null,,confidence_buffer,803740,confidence_buffer,,null,,,,,,,,,,,,,,,,,,
1623,,pt2_memorable_rating,805364,Fictional_Cities_List/img_natural_28.png,,51,,,3,,,,,,,,,,,,,,,
null,,confidence_buffer,805476,confidence_buffer,,null,,,,,,,,,,,,,,,,,,
1587.5,,recognition_phase,807065,Fictional_Cities_List/img_natural_28.png,,52,,,,,,new,1,1,,,,,,,,,,
null,,confidence_buffer,807168,confidence_buffer,,null,,,,,,,,,,,,,,,,,,
null,,thebreak,807669,break,,null,,,,,,,,,,,,,,,,,,
4445.800000000745,,pt2_realistic_rating,812116,US_Cities_List/mm_abilene.png,,51,US_Cities_List/mm_abilene.png,MM,3,,,,,,,,,,,,,,,
null,,confidence_buffer,812218,confidence_buffer,,null,,,,,,,,,,,,,,,,,,
1654.0999999977648,,pt2_unique_rating,813873,US_Cities_List/mm_abilene.png,,51,,,3,,,,,,,,,,,,,,,
null,,confidence_buffer,813985,confidence_buffer,,null,,,,,,,,,,,,,,,,,,
1933,,probe_rating,815919,probe_rating,,50,,,,2,1,,,,,,,,,,,,,
null,,confidence_buffer,816021,confidence_buffer,,null,,,,,,,,,,,,,,,,,,
2055.60000000149,,pt2_memorable_rating,818078,US_Cities_List/mm_abilene.png,,52,,,4,,,,,,,,,,,,,,,
null,,confidence_buffer,818179,confidence_buffer,,null,,,,,,,,,,,,,,,,,,
1128.4000000022352,,recognition_phase,819309,US_Cities_List/mm_abilene.png,,49,,,,,,old,1,1,,,,,,,,,,
null,,confidence_buffer,819411,confidence_buffer,,null,,,,,,,,,,,,,,,,,,
null,,thebreak,819912,break,,null,,,,,,,,,,,,,,,,,,
9068.60000000149,,pt2_realistic_rating,828982,Fictional_Cities_List/img_natural_10.png,,50,Fictional_Cities_List/img_natural_10.png,NAT,2,,,,,,,,,,,,,,,
null,,confidence_buffer,829084,confidence_buffer,,null,,,,,,,,,,,,,,,,,,
3347.7000000029802,,pt2_unique_rating,832433,Fictional_Cities_List/img_natural_10.png,,52,,,4,,,,,,,,,,,,,,,
null,,confidence_buffer,832537,confidence_buffer,,null,,,,,,,,,,,,,,,,,,
1391.6000000014901,,pt2_memorable_rating,833930,Fictional_Cities_List/img_natural_10.png,,51,,,3,,,,,,,,,,,,,,,
null,,confidence_buffer,834033,confidence_buffer,,null,,,,,,,,,,,,,,,,,,
1535.0999999977648,,recognition_phase,835569,Fictional_Cities_List/img_natural_10.png,,52,,,,,,new,1,1,,,,,,,,,,
null,,confidence_buffer,835672,confidence_buffer,,null,,,,,,,,,,,,,,,,,,
null,,thebreak,836173,break,,null,,,,,,,,,,,,,,,,,,
4151.400000002235,,pt2_realistic_rating,840326,Fictional_Cities_List/img_manmade_02.png,,52,Fictional_Cities_List/img_manmade_02.png,MM,4,,,,,,,,,,,,,,,
null,,confidence_buffer,840428,confidence_buffer,,null,,,,,,,,,,,,,,,,,,
8693,,pt2_unique_rating,849123,Fictional_Cities_List/img_manmade_02.png,,50,,,2,,,,,,,,,,,,,,,
null,,confidence_buffer,849226,confidence_buffer,,null,,,,,,,,,,,,,,,,,,
1518.199999999255,,pt2_memorable_rating,850746,Fictional_Cities_List/img_manmade_02.png,,52,,,4,,,,,,,,,,,,,,,
null,,confidence_buffer,850849,confidence_buffer,,null,,,,,,,,,,,,,,,,,,
1627.199999999255,,recognition_phase,852478,Fictional_Cities_List/img_manmade_02.png,,52,,,,,,new,1,1,,,,,,,,,,
null,,confidence_buffer,852580,confidence_buffer,,null,,,,,,,,,,,,,,,,,,
null,,thebreak,853081,break,,null,,,,,,,,,,,,,,,,,,
3996.5,,pt2_realistic_rating,857079,Fictional_Cities_List/img_natural_06.png,,51,Fictional_Cities_List/img_natural_06.png,NAT,3,,,,,,,,,,,,,,,
null,,confidence_buffer,857180,confidence_buffer,,null,,,,,,,,,,,,,,,,,,
2056.2999999970198,,pt2_unique_rating,859238,Fictional_Cities_List/img_natural_06.png,,51,,,3,,,,,,,,,,,,,,,
null,,confidence_buffer,859340,confidence_buffer,,null,,,,,,,,,,,,,,,,,,
1517,,pt2_memorable_rating,860858,Fictional_Cities_List/img_natural_06.png,,52,,,4,,,,,,,,,,,,,,,
null,,confidence_buffer,860960,confidence_buffer,,null,,,,,,,,,,,,,,,,,,
4740.39999999851,,recognition_phase,865702,Fictional_Cities_List/img_natural_06.png,,52,,,,,,new,1,1,,,,,,,,,,
null,,confidence_buffer,865803,confidence_buffer,,null,,,,,,,,,,,,,,,,,,
null,,thebreak,866304,break,,null,,,,,,,,,,,,,,,,,,
5885.20000000298,,pt2_realistic_rating,872191,US_Cities_List/nat_westpalmbeach.png,,51,US_Cities_List/nat_westpalmbeach.png,NAT,3,,,,,,,,,,,,,,,
null,,confidence_buffer,872294,confidence_buffer,,null,,,,,,,,,,,,,,,,,,
1455.1000000014901,,pt2_unique_rating,873751,US_Cities_List/nat_westpalmbeach.png,,51,,,3,,,,,,,,,,,,,,,
null,,confidence_buffer,873853,confidence_buffer,,null,,,,,,,,,,,,,,,,,,
1096.1000000014901,,pt2_memorable_rating,874951,US_Cities_List/nat_westpalmbeach.png,,52,,,4,,,,,,,,,,,,,,,
null,,confidence_buffer,875054,confidence_buffer,,null,,,,,,,,,,,,,,,,,,
1335.8999999985099,,recognition_phase,876391,US_Cities_List/nat_westpalmbeach.png,,52,,,,,,new,1,1,,,,,,,,,,
null,,confidence_buffer,876493,confidence_buffer,,null,,,,,,,,,,,,,,,,,,
null,,thebreak,876994,break,,null,,,,,,,,,,,,,,,,,,
6137.60000000149,,pt2_realistic_rating,883133,US_Cities_List/mm_hotsprings.png,,52,US_Cities_List/mm_hotsprings.png,MM,4,,,,,,,,,,,,,,,
null,,confidence_buffer,883235,confidence_buffer,,null,,,,,,,,,,,,,,,,,,
3827.39999999851,,pt2_unique_rating,887064,US_Cities_List/mm_hotsprings.png,,51,,,3,,,,,,,,,,,,,,,
null,,confidence_buffer,887166,confidence_buffer,,null,,,,,,,,,,,,,,,,,,
1622.3999999985099,,pt2_memorable_rating,888790,US_Cities_List/mm_hotsprings.png,,51,,,3,,,,,,,,,,,,,,,
null,,confidence_buffer,888891,confidence_buffer,,null,,,,,,,,,,,,,,,,,,
1327.5,,recognition_phase,890220,US_Cities_List/mm_hotsprings.png,,52,,,,,,new,1,1,,,,,,,,,,
null,,confidence_buffer,890322,confidence_buffer,,null,,,,,,,,,,,,,,,,,,
null,,thebreak,890824,break,,null,,,,,,,,,,,,,,,,,,
2595.199999999255,,pt2_realistic_rating,893420,US_Cities_List/mm_athens.png,,52,US_Cities_List/mm_athens.png,MM,4,,,,,,,,,,,,,,,
null,,confidence_buffer,893523,confidence_buffer,,null,,,,,,,,,,,,,,,,,,
2216.2000000029802,,pt2_unique_rating,895740,US_Cities_List/mm_athens.png,,50,,,2,,,,,,,,,,,,,,,
null,,confidence_buffer,895843,confidence_buffer,,null,,,,,,,,,,,,,,,,,,
1204.2000000029802,,pt2_memorable_rating,897049,US_Cities_List/mm_athens.png,,52,,,4,,,,,,,,,,,,,,,
null,,confidence_buffer,897151,confidence_buffer,,null,,,,,,,,,,,,,,,,,,
1002,,recognition_phase,898155,US_Cities_List/mm_athens.png,,49,,,,,,old,1,1,,,,,,,,,,
null,,confidence_buffer,898258,confidence_buffer,,null,,,,,,,,,,,,,,,,,,
null,,thebreak,898759,break,,null,,,,,,,,,,,,,,,,,,
5140.5,,pt2_realistic_rating,903901,US_Cities_List/nat_bisbee.png,,50,US_Cities_List/nat_bisbee.png,NAT,2,,,,,,,,,,,,,,,
null,,confidence_buffer,904003,confidence_buffer,,null,,,,,,,,,,,,,,,,,,
2645.5,,pt2_unique_rating,906650,US_Cities_List/nat_bisbee.png,,51,,,3,,,,,,,,,,,,,,,
null,,confidence_buffer,906752,confidence_buffer,,null,,,,,,,,,,,,,,,,,,
2243.39999999851,,pt2_memorable_rating,908997,US_Cities_List/nat_bisbee.png,,51,,,3,,,,,,,,,,,,,,,
null,,confidence_buffer,909099,confidence_buffer,,null,,,,,,,,,,,,,,,,,,
1829.0999999977648,,recognition_phase,910930,US_Cities_List/nat_bisbee.png,,52,,,,,,new,1,1,,,,,,,,,,
null,,confidence_buffer,911032,confidence_buffer,,null,,,,,,,,,,,,,,,,,,
null,,thebreak,911533,break,,null,,,,,,,,,,,,,,,,,,
3208.7999999970198,,pt2_realistic_rating,914743,US_Cities_List/nat_athens.png,,52,US_Cities_List/nat_athens.png,NAT,4,,,,,,,,,,,,,,,
null,,confidence_buffer,914846,confidence_buffer,,null,,,,,,,,,,,,,,,,,,
2183.89999999851,,pt2_unique_rating,917031,US_Cities_List/nat_athens.png,,51,,,3,,,,,,,,,,,,,,,
null,,confidence_buffer,917134,confidence_buffer,,null,,,,,,,,,,,,,,,,,,
3170.5,,pt2_memorable_rating,920306,US_Cities_List/nat_athens.png,,52,,,4,,,,,,,,,,,,,,,
null,,confidence_buffer,920409,confidence_buffer,,null,,,,,,,,,,,,,,,,,,
1246,,recognition_phase,921657,US_Cities_List/nat_athens.png,,52,,,,,,new,1,1,,,,,,,,,,
null,,confidence_buffer,921760,confidence_buffer,,null,,,,,,,,,,,,,,,,,,
null,,thebreak,922261,break,,null,,,,,,,,,,,,,,,,,,
6502.5,,pt2_realistic_rating,928765,US_Cities_List/nat_sitka.png,,51,US_Cities_List/nat_sitka.png,NAT,3,,,,,,,,,,,,,,,
null,,confidence_buffer,928868,confidence_buffer,,null,,,,,,,,,,,,,,,,,,
1644.1000000014901,,pt2_unique_rating,930513,US_Cities_List/nat_sitka.png,,50,,,2,,,,,,,,,,,,,,,
null,,confidence_buffer,930618,confidence_buffer,,null,,,,,,,,,,,,,,,,,,
1273,,pt2_memorable_rating,931892,US_Cities_List/nat_sitka.png,,52,,,4,,,,,,,,,,,,,,,
null,,confidence_buffer,931995,confidence_buffer,,null,,,,,,,,,,,,,,,,,,
2228.60000000149,,recognition_phase,934226,US_Cities_List/nat_sitka.png,,52,,,,,,new,1,1,,,,,,,,,,
null,,confidence_buffer,934328,confidence_buffer,,null,,,,,,,,,,,,,,,,,,
null,,thebreak,934836,break,,null,,,,,,,,,,,,,,,,,,
2924.5,,pt2_realistic_rating,937763,Fictional_Cities_List/img_manmade_06.png,,52,Fictional_Cities_List/img_manmade_06.png,MM,4,,,,,,,,,,,,,,,
null,,confidence_buffer,937866,confidence_buffer,,null,,,,,,,,,,,,,,,,,,
1479,,pt2_unique_rating,939346,Fictional_Cities_List/img_manmade_06.png,,51,,,3,,,,,,,,,,,,,,,
null,,confidence_buffer,939448,confidence_buffer,,null,,,,,,,,,,,,,,,,,,
1081.6000000014901,,pt2_memorable_rating,940531,Fictional_Cities_List/img_manmade_06.png,,52,,,4,,,,,,,,,,,,,,,
null,,confidence_buffer,940632,confidence_buffer,,null,,,,,,,,,,,,,,,,,,
1033.0999999977648,,recognition_phase,941667,Fictional_Cities_List/img_manmade_06.png,,52,,,,,,new,1,1,,,,,,,,,,
null,,confidence_buffer,941769,confidence_buffer,,null,,,,,,,,,,,,,,,,,,
null,,thebreak,942271,break,,null,,,,,,,,,,,,,,,,,,
2941.900000002235,,pt2_realistic_rating,945214,Fictional_Cities_List/img_manmade_49.png,,51,Fictional_Cities_List/img_manmade_49.png,MM,3,,,,,,,,,,,,,,,
null,,confidence_buffer,945316,confidence_buffer,,null,,,,,,,,,,,,,,,,,,
1717.699999999255,,pt2_unique_rating,947035,Fictional_Cities_List/img_manmade_49.png,,50,,,2,,,,,,,,,,,,,,,
null,,confidence_buffer,947138,confidence_buffer,,null,,,,,,,,,,,,,,,,,,
1824.699999999255,,pt2_memorable_rating,948964,Fictional_Cities_List/img_manmade_49.png,,52,,,4,,,,,,,,,,,,,,,
null,,confidence_buffer,949066,confidence_buffer,,null,,,,,,,,,,,,,,,,,,
1365.0999999977648,,probe_rating,950432,probe_rating,,49,,,,1,1,,,,,,,,,,,,,
null,,confidence_buffer,950535,confidence_buffer,,null,,,,,,,,,,,,,,,,,,
1648.5,,recognition_phase,952185,Fictional_Cities_List/img_manmade_49.png,,52,,,,,,new,1,1,,,,,,,,,,
null,,confidence_buffer,952287,confidence_buffer,,null,,,,,,,,,,,,,,,,,,
null,,thebreak,952788,break,,null,,,,,,,,,,,,,,,,,,
6875.199999999255,,pt2_realistic_rating,959665,Fictional_Cities_List/img_manmade_48.png,,50,Fictional_Cities_List/img_manmade_48.png,MM,2,,,,,,,,,,,,,,,
null,,confidence_buffer,959767,confidence_buffer,,null,,,,,,,,,,,,,,,,,,
2025.6000000014901,,pt2_unique_rating,961794,Fictional_Cities_List/img_manmade_48.png,,51,,,3,,,,,,,,,,,,,,,
null,,confidence_buffer,961896,confidence_buffer,,null,,,,,,,,,,,,,,,,,,
1663.199999999255,,pt2_memorable_rating,963561,Fictional_Cities_List/img_manmade_48.png,,52,,,4,,,,,,,,,,,,,,,
null,,confidence_buffer,963663,confidence_buffer,,null,,,,,,,,,,,,,,,,,,
1563.699999999255,,recognition_phase,965228,Fictional_Cities_List/img_manmade_48.png,,49,,,,,,old,1,1,,,,,,,,,,
null,,confidence_buffer,965332,confidence_buffer,,null,,,,,,,,,,,,,,,,,,
null,,thebreak,965834,break,,null,,,,,,,,,,,,,,,,,,
3468.800000000745,,pt2_realistic_rating,969305,US_Cities_List/mm_hilo.png,,51,US_Cities_List/mm_hilo.png,MM,3,,,,,,,,,,,,,,,
null,,confidence_buffer,969407,confidence_buffer,,null,,,,,,,,,,,,,,,,,,
2173.39999999851,,pt2_unique_rating,971582,US_Cities_List/mm_hilo.png,,51,,,3,,,,,,,,,,,,,,,
null,,confidence_buffer,971683,confidence_buffer,,null,,,,,,,,,,,,,,,,,,
1273.1000000014901,,pt2_memorable_rating,972958,US_Cities_List/mm_hilo.png,,52,,,4,,,,,,,,,,,,,,,
null,,confidence_buffer,973060,confidence_buffer,,null,,,,,,,,,,,,,,,,,,
1700.5,,recognition_phase,974762,US_Cities_List/mm_hilo.png,,52,,,,,,new,1,1,,,,,,,,,,
null,,confidence_buffer,974863,confidence_buffer,,null,,,,,,,,,,,,,,,,,,
null,,thebreak,975365,break,,null,,,,,,,,,,,,,,,,,,
8414.300000000745,,pt2_realistic_rating,983780,US_Cities_List/mm_cornwall.png,,51,US_Cities_List/mm_cornwall.png,MM,3,,,,,,,,,,,,,,,
null,,confidence_buffer,983882,confidence_buffer,,null,,,,,,,,,,,,,,,,,,
399.8999999985099,,pt2_unique_rating,984284,US_Cities_List/mm_cornwall.png,,51,,,3,,,,,,,,,,,,,,,
null,,confidence_buffer,984386,confidence_buffer,,null,,,,,,,,,,,,,,,,,,
2346.7000000029802,,pt2_memorable_rating,986734,US_Cities_List/mm_cornwall.png,,52,,,4,,,,,,,,,,,,,,,
null,,confidence_buffer,986836,confidence_buffer,,null,,,,,,,,,,,,,,,,,,
2321,,recognition_phase,989158,US_Cities_List/mm_cornwall.png,,49,,,,,,old,1,1,,,,,,,,,,
null,,confidence_buffer,989260,confidence_buffer,,null,,,,,,,,,,,,,,,,,,
null,,thebreak,989762,break,,null,,,,,,,,,,,,,,,,,,
4704.70000000298,,pt2_realistic_rating,994468,US_Cities_List/mm_peoria.png,,51,US_Cities_List/mm_peoria.png,MM,3,,,,,,,,,,,,,,,
null,,confidence_buffer,994570,confidence_buffer,,null,,,,,,,,,,,,,,,,,,
1647.4000000022352,,probe_rating,996219,probe_rating,,49,,,,1,1,,,,,,,,,,,,,
null,,confidence_buffer,996321,confidence_buffer,,null,,,,,,,,,,,,,,,,,,
5307.89999999851,,pt2_unique_rating,1001631,US_Cities_List/mm_peoria.png,,51,,,3,,,,,,,,,,,,,,,
null,,confidence_buffer,1001732,confidence_buffer,,null,,,,,,,,,,,,,,,,,,
3881.39999999851,,pt2_memorable_rating,1005615,US_Cities_List/mm_peoria.png,,52,,,4,,,,,,,,,,,,,,,
null,,confidence_buffer,1005718,confidence_buffer,,null,,,,,,,,,,,,,,,,,,
954.3000000007451,,recognition_phase,1006674,US_Cities_List/mm_peoria.png,,49,,,,,,old,1,1,,,,,,,,,,
null,,confidence_buffer,1006776,confidence_buffer,,null,,,,,,,,,,,,,,,,,,
null,,thebreak,1007276,break,,null,,,,,,,,,,,,,,,,,,
3842.099999997765,,pt2_realistic_rating,1011120,US_Cities_List/mm_bisbee.png,,51,US_Cities_List/mm_bisbee.png,MM,3,,,,,,,,,,,,,,,
null,,confidence_buffer,1011222,confidence_buffer,,null,,,,,,,,,,,,,,,,,,
1982.699999999255,,pt2_unique_rating,1013206,US_Cities_List/mm_bisbee.png,,51,,,3,,,,,,,,,,,,,,,
null,,confidence_buffer,1013308,confidence_buffer,,null,,,,,,,,,,,,,,,,,,
3559.300000000745,,pt2_memorable_rating,1016869,US_Cities_List/mm_bisbee.png,,52,,,4,,,,,,,,,,,,,,,
null,,confidence_buffer,1016971,confidence_buffer,,null,,,,,,,,,,,,,,,,,,
1096.199999999255,,recognition_phase,1018069,US_Cities_List/mm_bisbee.png,,49,,,,,,old,1,1,,,,,,,,,,
null,,confidence_buffer,1018171,confidence_buffer,,null,,,,,,,,,,,,,,,,,,
null,,thebreak,1018672,break,,null,,,,,,,,,,,,,,,,,,
3282.5,,pt2_realistic_rating,1021956,US_Cities_List/nat_carmel.png,,52,US_Cities_List/nat_carmel.png,NAT,4,,,,,,,,,,,,,,,
null,,confidence_buffer,1022059,confidence_buffer,,null,,,,,,,,,,,,,,,,,,
1568,,pt2_unique_rating,1023628,US_Cities_List/nat_carmel.png,,50,,,2,,,,,,,,,,,,,,,
null,,confidence_buffer,1023730,confidence_buffer,,null,,,,,,,,,,,,,,,,,,
1492.5999999977648,,pt2_memorable_rating,1025224,US_Cities_List/nat_carmel.png,,52,,,4,,,,,,,,,,,,,,,
null,,confidence_buffer,1025326,confidence_buffer,,null,,,,,,,,,,,,,,,,,,
1682.3999999985099,,recognition_phase,1027011,US_Cities_List/nat_carmel.png,,52,,,,,,new,1,1,,,,,,,,,,
null,,confidence_buffer,1027112,confidence_buffer,,null,,,,,,,,,,,,,,,,,,
null,,thebreak,1027614,break,,null,,,,,,,,,,,,,,,,,,
2395.699999999255,,pt2_realistic_rating,1030011,Fictional_Cities_List/img_natural_34.png,,52,Fictional_Cities_List/img_natural_34.png,NAT,4,,,,,,,,,,,,,,,
null,,confidence_buffer,1030113,confidence_buffer,,null,,,,,,,,,,,,,,,,,,
4264.89999999851,,pt2_unique_rating,1034379,Fictional_Cities_List/img_natural_34.png,,50,,,2,,,,,,,,,,,,,,,
null,,confidence_buffer,1034481,confidence_buffer,,null,,,,,,,,,,,,,,,,,,
1558.699999999255,,pt2_memorable_rating,1036041,Fictional_Cities_List/img_natural_34.png,,52,,,4,,,,,,,,,,,,,,,
null,,confidence_buffer,1036143,confidence_buffer,,null,,,,,,,,,,,,,,,,,,
1258.5,,recognition_phase,1037403,Fictional_Cities_List/img_natural_34.png,,49,,,,,,old,1,1,,,,,,,,,,
null,,confidence_buffer,1037505,confidence_buffer,,null,,,,,,,,,,,,,,,,,,
null,,thebreak,1038008,break,,null,,,,,,,,,,,,,,,,,,
5698.10000000149,,pt2_realistic_rating,1043707,Fictional_Cities_List/img_manmade_25.png,,50,Fictional_Cities_List/img_manmade_25.png,MM,2,,,,,,,,,,,,,,,
null,,confidence_buffer,1043809,confidence_buffer,,null,,,,,,,,,,,,,,,,,,
1195.8999999985099,,pt2_unique_rating,1045007,Fictional_Cities_List/img_manmade_25.png,,51,,,3,,,,,,,,,,,,,,,
null,,confidence_buffer,1045108,confidence_buffer,,null,,,,,,,,,,,,,,,,,,
1111.5,,pt2_memorable_rating,1046221,Fictional_Cities_List/img_manmade_25.png,,52,,,4,,,,,,,,,,,,,,,
null,,confidence_buffer,1046324,confidence_buffer,,null,,,,,,,,,,,,,,,,,,
1018.3999999985099,,recognition_phase,1047344,Fictional_Cities_List/img_manmade_25.png,,52,,,,,,new,1,1,,,,,,,,,,
null,,confidence_buffer,1047446,confidence_buffer,,null,,,,,,,,,,,,,,,,,,
null,,thebreak,1047947,break,,null,,,,,,,,,,,,,,,,,,
3610.7999999970198,,pt2_realistic_rating,1051560,US_Cities_List/nat_boulder.png,,52,US_Cities_List/nat_boulder.png,NAT,4,,,,,,,,,,,,,,,
null,,confidence_buffer,1051662,confidence_buffer,,null,,,,,,,,,,,,,,,,,,
2104.2000000029802,,pt2_unique_rating,1053767,US_Cities_List/nat_boulder.png,,51,,,3,,,,,,,,,,,,,,,
null,,confidence_buffer,1053870,confidence_buffer,,null,,,,,,,,,,,,,,,,,,
1686.2000000029802,,pt2_memorable_rating,1055557,US_Cities_List/nat_boulder.png,,52,,,4,,,,,,,,,,,,,,,
null,,confidence_buffer,1055660,confidence_buffer,,null,,,,,,,,,,,,,,,,,,
1440.2999999970198,,probe_rating,1057102,probe_rating,,51,,,,3,1,,,,,,,,,,,,,
null,,confidence_buffer,1057203,confidence_buffer,,null,,,,,,,,,,,,,,,,,,
1509.3000000044703,,recognition_phase,1058714,US_Cities_List/nat_boulder.png,,52,,,,,,new,1,1,,,,,,,,,,
null,,confidence_buffer,1058816,confidence_buffer,,null,,,,,,,,,,,,,,,,,,
null,,thebreak,1059318,break,,null,,,,,,,,,,,,,,,,,,
12023.70000000298,,pt2_realistic_rating,1071343,Fictional_Cities_List/img_natural_50.png,,51,Fictional_Cities_List/img_natural_50.png,NAT,3,,,,,,,,,,,,,,,
null,,confidence_buffer,1071446,confidence_buffer,,null,,,,,,,,,,,,,,,,,,
1474.2999999970198,,probe_rating,1072922,probe_rating,,51,,,,3,1,,,,,,,,,,,,,
null,,confidence_buffer,1073024,confidence_buffer,,null,,,,,,,,,,,,,,,,,,
1896,,pt2_unique_rating,1074921,Fictional_Cities_List/img_natural_50.png,,51,,,3,,,,,,,,,,,,,,,
null,,confidence_buffer,1075033,confidence_buffer,,null,,,,,,,,,,,,,,,,,,
2340,,pt2_memorable_rating,1077374,Fictional_Cities_List/img_natural_50.png,,51,,,3,,,,,,,,,,,,,,,
null,,confidence_buffer,1077476,confidence_buffer,,null,,,,,,,,,,,,,,,,,,
1865.0999999940395,,recognition_phase,1079342,Fictional_Cities_List/img_natural_50.png,,49,,,,,,old,1,1,,,,,,,,,,
null,,confidence_buffer,1079444,confidence_buffer,,null,,,,,,,,,,,,,,,,,,
null,,thebreak,1079945,break,,null,,,,,,,,,,,,,,,,,,
3129.10000000149,,pt2_realistic_rating,1083075,US_Cities_List/nat_delawarecity.png,,52,US_Cities_List/nat_delawarecity.png,NAT,4,,,,,,,,,,,,,,,
null,,confidence_buffer,1083177,confidence_buffer,,null,,,,,,,,,,,,,,,,,,
4105.5,,pt2_unique_rating,1087284,US_Cities_List/nat_delawarecity.png,,50,,,2,,,,,,,,,,,,,,,
null,,confidence_buffer,1087386,confidence_buffer,,null,,,,,,,,,,,,,,,,,,
1030.2000000029802,,pt2_memorable_rating,1088418,US_Cities_List/nat_delawarecity.png,,52,,,4,,,,,,,,,,,,,,,
null,,confidence_buffer,1088520,confidence_buffer,,null,,,,,,,,,,,,,,,,,,
1452.7999999970198,,probe_rating,1089974,probe_rating,,50,,,,2,1,,,,,,,,,,,,,
null,,confidence_buffer,1090076,confidence_buffer,,null,,,,,,,,,,,,,,,,,,
2983.6999999955297,,recognition_phase,1093062,US_Cities_List/nat_delawarecity.png,,49,,,,,,old,1,1,,,,,,,,,,
null,,confidence_buffer,1093165,confidence_buffer,,null,,,,,,,,,,,,,,,,,,
null,,thebreak,1093667,break,,null,,,,,,,,,,,,,,,,,,
4760.89999999851,,pt2_realistic_rating,1098429,US_Cities_List/nat_coeurdalene.png,,52,US_Cities_List/nat_coeurdalene.png,NAT,4,,,,,,,,,,,,,,,
null,,confidence_buffer,1098532,confidence_buffer,,null,,,,,,,,,,,,,,,,,,
1495.6000000014901,,pt2_unique_rating,1100029,US_Cities_List/nat_coeurdalene.png,,51,,,3,,,,,,,,,,,,,,,
null,,confidence_buffer,1100130,confidence_buffer,,null,,,,,,,,,,,,,,,,,,
1373.5,,pt2_memorable_rating,1101505,US_Cities_List/nat_coeurdalene.png,,52,,,4,,,,,,,,,,,,,,,
null,,confidence_buffer,1101608,confidence_buffer,,null,,,,,,,,,,,,,,,,,,
1460.7999999970198,,recognition_phase,1103070,US_Cities_List/nat_coeurdalene.png,,49,,,,,,old,1,1,,,,,,,,,,
null,,confidence_buffer,1103171,confidence_buffer,,null,,,,,,,,,,,,,,,,,,
null,,thebreak,1103673,break,,null,,,,,,,,,,,,,,,,,,
6727.89999999851,,pt2_realistic_rating,1110402,US_Cities_List/nat_okoboji.png,,51,US_Cities_List/nat_okoboji.png,NAT,3,,,,,,,,,,,,,,,
null,,confidence_buffer,1110508,confidence_buffer,,null,,,,,,,,,,,,,,,,,,
1631.5,,pt2_unique_rating,1112141,US_Cities_List/nat_okoboji.png,,50,,,2,,,,,,,,,,,,,,,
null,,confidence_buffer,1112243,confidence_buffer,,null,,,,,,,,,,,,,,,,,,
1170.3000000044703,,pt2_memorable_rating,1113414,US_Cities_List/nat_okoboji.png,,52,,,4,,,,,,,,,,,,,,,
null,,confidence_buffer,1113517,confidence_buffer,,null,,,,,,,,,,,,,,,,,,
4101.89999999851,,recognition_phase,1117620,US_Cities_List/nat_okoboji.png,,49,,,,,,old,1,1,,,,,,,,,,
null,,confidence_buffer,1117722,confidence_buffer,,null,,,,,,,,,,,,,,,,,,
null,,thebreak,1118223,break,,null,,,,,,,,,,,,,,,,,,
11447.79999999702,,pt2_realistic_rating,1129672,Fictional_Cities_List/img_natural_48.png,,51,Fictional_Cities_List/img_natural_48.png,NAT,3,,,,,,,,,,,,,,,
null,,confidence_buffer,1129781,confidence_buffer,,null,,,,,,,,,,,,,,,,,,
2192.60000000149,,pt2_unique_rating,1131975,Fictional_Cities_List/img_natural_48.png,,51,,,3,,,,,,,,,,,,,,,
null,,confidence_buffer,1132078,confidence_buffer,,null,,,,,,,,,,,,,,,,,,
920,,pt2_memorable_rating,1132999,Fictional_Cities_List/img_natural_48.png,,51,,,3,,,,,,,,,,,,,,,
null,,confidence_buffer,1133100,confidence_buffer,,null,,,,,,,,,,,,,,,,,,
3941.2999999970198,,recognition_phase,1137043,Fictional_Cities_List/img_natural_48.png,,52,,,,,,new,0,0.9807692307692307,,,,,,,,,,
null,,confidence_buffer,1137145,confidence_buffer,,null,,,,,,,,,,,,,,,,,,
null,,thebreak,1137647,break,,null,,,,,,,,,,,,,,,,,,
11948.70000000298,,pt2_realistic_rating,1149597,Fictional_Cities_List/img_natural_39.png,,52,Fictional_Cities_List/img_natural_39.png,NAT,4,,,,,,,,,,,,,,,
null,,confidence_buffer,1149700,confidence_buffer,,null,,,,,,,,,,,,,,,,,,
1582.2000000029802,,probe_rating,1151283,probe_rating,,50,,,,2,1,,,,,,,,,,,,,
null,,confidence_buffer,1151385,confidence_buffer,,null,,,,,,,,,,,,,,,,,,
4196.70000000298,,pt2_unique_rating,1155583,Fictional_Cities_List/img_natural_39.png,,50,,,2,,,,,,,,,,,,,,,
null,,confidence_buffer,1155685,confidence_buffer,,null,,,,,,,,,,,,,,,,,,
1154.5,,pt2_memorable_rating,1156841,Fictional_Cities_List/img_natural_39.png,,52,,,4,,,,,,,,,,,,,,,
null,,confidence_buffer,1156943,confidence_buffer,,null,,,,,,,,,,,,,,,,,,
924.3999999985099,,recognition_phase,1157869,Fictional_Cities_List/img_natural_39.png,,49,,,,,,old,1,0.9811320754716981,,,,,,,,,,
null,,confidence_buffer,1157971,confidence_buffer,,null,,,,,,,,,,,,,,,,,,
null,,thebreak,1158473,break,,null,,,,,,,,,,,,,,,,,,
5835.30000000447,,pt2_realistic_rating,1164310,US_Cities_List/mm_delawarecity.png,,52,US_Cities_List/mm_delawarecity.png,MM,4,,,,,,,,,,,,,,,
null,,confidence_buffer,1164413,confidence_buffer,,null,,,,,,,,,,,,,,,,,,
1625.6000000014901,,pt2_unique_rating,1166041,US_Cities_List/mm_delawarecity.png,,50,,,2,,,,,,,,,,,,,,,
null,,confidence_buffer,1166142,confidence_buffer,,null,,,,,,,,,,,,,,,,,,
1238,,probe_rating,1167382,probe_rating,,49,,,,1,1,,,,,,,,,,,,,
null,,confidence_buffer,1167484,confidence_buffer,,null,,,,,,,,,,,,,,,,,,
2207.8000000044703,,pt2_memorable_rating,1169694,US_Cities_List/mm_delawarecity.png,,52,,,4,,,,,,,,,,,,,,,
null,,confidence_buffer,1169796,confidence_buffer,,null,,,,,,,,,,,,,,,,,,
1081.7999999970198,,recognition_phase,1170879,US_Cities_List/mm_delawarecity.png,,52,,,,,,new,1,0.9814814814814815,,,,,,,,,,
null,,confidence_buffer,1170981,confidence_buffer,,null,,,,,,,,,,,,,,,,,,
null,,thebreak,1171482,break,,null,,,,,,,,,,,,,,,,,,
6983.70000000298,,pt2_realistic_rating,1178468,Fictional_Cities_List/img_natural_03.png,,51,Fictional_Cities_List/img_natural_03.png,NAT,3,,,,,,,,,,,,,,,
null,,confidence_buffer,1178570,confidence_buffer,,null,,,,,,,,,,,,,,,,,,
3883.5,,pt2_unique_rating,1182455,Fictional_Cities_List/img_natural_03.png,,52,,,4,,,,,,,,,,,,,,,
null,,confidence_buffer,1182559,confidence_buffer,,null,,,,,,,,,,,,,,,,,,
2347,,pt2_memorable_rating,1184907,Fictional_Cities_List/img_natural_03.png,,52,,,4,,,,,,,,,,,,,,,
null,,confidence_buffer,1185009,confidence_buffer,,null,,,,,,,,,,,,,,,,,,
1357.8000000044703,,recognition_phase,1186368,Fictional_Cities_List/img_natural_03.png,,52,,,,,,new,1,0.9818181818181818,,,,,,,,,,
null,,confidence_buffer,1186472,confidence_buffer,,null,,,,,,,,,,,,,,,,,,
null,,thebreak,1186974,break,,null,,,,,,,,,,,,,,,,,,
3151.5,,pt2_realistic_rating,1190127,Fictional_Cities_List/img_natural_22.png,,50,Fictional_Cities_List/img_natural_22.png,NAT,2,,,,,,,,,,,,,,,
null,,confidence_buffer,1190229,confidence_buffer,,null,,,,,,,,,,,,,,,,,,
4357.39999999851,,pt2_unique_rating,1194587,Fictional_Cities_List/img_natural_22.png,,50,,,2,,,,,,,,,,,,,,,
null,,confidence_buffer,1194689,confidence_buffer,,null,,,,,,,,,,,,,,,,,,
1299.9000000059605,,pt2_memorable_rating,1195990,Fictional_Cities_List/img_natural_22.png,,52,,,4,,,,,,,,,,,,,,,
null,,confidence_buffer,1196093,confidence_buffer,,null,,,,,,,,,,,,,,,,,,
1279.6000000014901,,recognition_phase,1197375,Fictional_Cities_List/img_natural_22.png,,52,,,,,,new,1,0.9821428571428571,,,,,,,,,,
null,,confidence_buffer,1197477,confidence_buffer,,null,,,,,,,,,,,,,,,,,,
null,,thebreak,1197979,break,,null,,,,,,,,,,,,,,,,,,
3231,,pt2_realistic_rating,1201211,US_Cities_List/mm_healdsburg.png,,51,US_Cities_List/mm_healdsburg.png,MM,3,,,,,,,,,,,,,,,
null,,confidence_buffer,1201313,confidence_buffer,,null,,,,,,,,,,,,,,,,,,
1663.1999999955297,,pt2_unique_rating,1202977,US_Cities_List/mm_healdsburg.png,,51,,,3,,,,,,,,,,,,,,,
null,,confidence_buffer,1203079,confidence_buffer,,null,,,,,,,,,,,,,,,,,,
1486.6000000014901,,pt2_memorable_rating,1204567,US_Cities_List/mm_healdsburg.png,,52,,,4,,,,,,,,,,,,,,,
null,,confidence_buffer,1204669,confidence_buffer,,null,,,,,,,,,,,,,,,,,,
1069.8999999985099,,recognition_phase,1205741,US_Cities_List/mm_healdsburg.png,,49,,,,,,old,1,0.9824561403508771,,,,,,,,,,
null,,confidence_buffer,1205842,confidence_buffer,,null,,,,,,,,,,,,,,,,,,
null,,thebreak,1206344,break,,null,,,,,,,,,,,,,,,,,,
5035.79999999702,,pt2_realistic_rating,1211381,US_Cities_List/mm_westpalmbeach.png,,52,US_Cities_List/mm_westpalmbeach.png,MM,4,,,,,,,,,,,,,,,
null,,confidence_buffer,1211484,confidence_buffer,,null,,,,,,,,,,,,,,,,,,
1963.3999999985099,,pt2_unique_rating,1213448,US_Cities_List/mm_westpalmbeach.png,,50,,,2,,,,,,,,,,,,,,,
null,,confidence_buffer,1213551,confidence_buffer,,null,,,,,,,,,,,,,,,,,,
1487.5,,pt2_memorable_rating,1215039,US_Cities_List/mm_westpalmbeach.png,,52,,,4,,,,,,,,,,,,,,,
null,,confidence_buffer,1215141,confidence_buffer,,null,,,,,,,,,,,,,,,,,,
2188.2000000029802,,recognition_phase,1217330,US_Cities_List/mm_westpalmbeach.png,,52,,,,,,new,1,0.9827586206896551,,,,,,,,,,
null,,confidence_buffer,1217432,confidence_buffer,,null,,,,,,,,,,,,,,,,,,
null,,thebreak,1217934,break,,null,,,,,,,,,,,,,,,,,,
6800.5,,pt2_realistic_rating,1224736,US_Cities_List/mm_boulder.png,,51,US_Cities_List/mm_boulder.png,MM,3,,,,,,,,,,,,,,,
null,,confidence_buffer,1224838,confidence_buffer,,null,,,,,,,,,,,,,,,,,,
1234.7000000029802,,pt2_unique_rating,1226074,US_Cities_List/mm_boulder.png,,51,,,3,,,,,,,,,,,,,,,
null,,confidence_buffer,1226176,confidence_buffer,,null,,,,,,,,,,,,,,,,,,
1343,,pt2_memorable_rating,1227520,US_Cities_List/mm_boulder.png,,52,,,4,,,,,,,,,,,,,,,
null,,confidence_buffer,1227623,confidence_buffer,,null,,,,,,,,,,,,,,,,,,
1139.7000000029802,,recognition_phase,1228764,US_Cities_List/mm_boulder.png,,52,,,,,,new,1,0.9830508474576272,,,,,,,,,,
null,,confidence_buffer,1228865,confidence_buffer,,null,,,,,,,,,,,,,,,,,,
null,,thebreak,1229368,break,,null,,,,,,,,,,,,,,,,,,
6626.79999999702,,pt2_realistic_rating,1235996,US_Cities_List/nat_peoria.png,,52,US_Cities_List/nat_peoria.png,NAT,4,,,,,,,,,,,,,,,
null,,confidence_buffer,1236098,confidence_buffer,,null,,,,,,,,,,,,,,,,,,
5413.10000000149,,pt2_unique_rating,1241513,US_Cities_List/nat_peoria.png,,50,,,2,,,,,,,,,,,,,,,
null,,confidence_buffer,1241615,confidence_buffer,,null,,,,,,,,,,,,,,,,,,
1324.9000000059605,,pt2_memorable_rating,1242941,US_Cities_List/nat_peoria.png,,52,,,4,,,,,,,,,,,,,,,
null,,confidence_buffer,1243044,confidence_buffer,,null,,,,,,,,,,,,,,,,,,
1162.1999999955297,,recognition_phase,1244208,US_Cities_List/nat_peoria.png,,49,,,,,,old,1,0.9833333333333333,,,,,,,,,,
null,,confidence_buffer,1244309,confidence_buffer,,null,,,,,,,,,,,,,,,,,,
null,,thebreak,1244811,break,,null,,,,,,,,,,,,,,,,,,
,,survey,1608467,survey-questions,,,,,,,,,,,none,high,NO.,I took time to memorize before going to the next image.,For the familiar, I have seen them somewhere else like in books and other places.,The color and how attractive they are helped me to memorize.,I have never seen them.,They appear real to me.,No.,The study was good and I enjoyed it.
