rt,responses,trial_type,time_elapsed,stimulus,button_pressed,key_press,name_trial,city_type,rating,probe,probe_accuracy,response,correct,accuracy,problems,smooth,distraction,strategies,familiar,memorable,unique,realistic,similar,comments
94787.39999999851,{worker_id:67eda1b5c2b6765fa73470f0},id_enter,94801,,,,,,,,,,,,,,,,,,,,,
61255.5,,fullscreen,156066,fullscreen,0,,,,,,,,,,,,,,,,,,,
22656.5,,intro_0,178726,instruct,,32,,,,,,,,,,,,,,,,,,
40445.40000000596,,intro_1,219179,instruct,,32,,,,,,,,,,,,,,,,,,
24797.19999999553,,intro_2,243977,instruct,,32,,,,,,,,,,,,,,,,,,
null,,instruct_dir_4,245489,instruct,,null,,,,,,,,,,,,,,,,,,
null,,thebreak,245991,break,,null,,,,,,,,,,,,,,,,,,
34105.19999999553,,familiar_rating,280097,US_Cities_List/mm_shreveport.png,,52,US_Cities_List/mm_shreveport.png,MM,4,,,,,,,,,,,,,,,
null,,confidence_buffer,280199,confidence_buffer,,null,,,,,,,,,,,,,,,,,,
10568,,unique_rating,290768,US_Cities_List/mm_shreveport.png,,52,,,4,,,,,,,,,,,,,,,
null,,confidence_buffer,290870,confidence_buffer,,null,,,,,,,,,,,,,,,,,,
5970.79999999702,,memorable_rating,296842,US_Cities_List/mm_shreveport.png,,52,,,4,,,,,,,,,,,,,,,
null,,confidence_buffer,296944,confidence_buffer,,null,,,,,,,,,,,,,,,,,,
null,,thebreak,297445,break,,null,,,,,,,,,,,,,,,,,,
9544.89999999851,,familiar_rating,306992,US_Cities_List/nat_bisbee.png,,53,US_Cities_List/nat_bisbee.png,NAT,5,,,,,,,,,,,,,,,
null,,confidence_buffer,307094,confidence_buffer,,null,,,,,,,,,,,,,,,,,,
7805.80000000447,,unique_rating,314901,US_Cities_List/nat_bisbee.png,,51,,,3,,,,,,,,,,,,,,,
null,,confidence_buffer,315002,confidence_buffer,,null,,,,,,,,,,,,,,,,,,
9395.70000000298,,memorable_rating,324399,US_Cities_List/nat_bisbee.png,,52,,,4,,,,,,,,,,,,,,,
null,,confidence_buffer,324501,confidence_buffer,,null,,,,,,,,,,,,,,,,,,
null,,thebreak,325004,break,,null,,,,,,,,,,,,,,,,,,
10931.80000000447,,familiar_rating,335936,US_Cities_List/mm_natchez.png,,49,US_Cities_List/mm_natchez.png,MM,1,,,,,,,,,,,,,,,
null,,confidence_buffer,336039,confidence_buffer,,null,,,,,,,,,,,,,,,,,,
6723.39999999851,,unique_rating,342763,US_Cities_List/mm_natchez.png,,50,,,2,,,,,,,,,,,,,,,
null,,confidence_buffer,342866,confidence_buffer,,null,,,,,,,,,,,,,,,,,,
5910.70000000298,,memorable_rating,348778,US_Cities_List/mm_natchez.png,,51,,,3,,,,,,,,,,,,,,,
null,,confidence_buffer,348880,confidence_buffer,,null,,,,,,,,,,,,,,,,,,
null,,thebreak,349381,break,,null,,,,,,,,,,,,,,,,,,
6444.39999999851,,familiar_rating,355826,US_Cities_List/mm_hotsprings.png,,51,US_Cities_List/mm_hotsprings.png,MM,3,,,,,,,,,,,,,,,
null,,confidence_buffer,355928,confidence_buffer,,null,,,,,,,,,,,,,,,,,,
16362.20000000298,,probe_rating,372291,probe_rating,,50,,,,2,1,,,,,,,,,,,,,
null,,confidence_buffer,372393,confidence_buffer,,null,,,,,,,,,,,,,,,,,,
5227.5,,unique_rating,377622,US_Cities_List/mm_hotsprings.png,,51,,,3,,,,,,,,,,,,,,,
null,,confidence_buffer,377725,confidence_buffer,,null,,,,,,,,,,,,,,,,,,
12366,,memorable_rating,390092,US_Cities_List/mm_hotsprings.png,,50,,,2,,,,,,,,,,,,,,,
null,,confidence_buffer,390193,confidence_buffer,,null,,,,,,,,,,,,,,,,,,
null,,thebreak,390695,break,,null,,,,,,,,,,,,,,,,,,
6354,,familiar_rating,397050,Fictional_Cities_List/img_manmade_06.png,,53,Fictional_Cities_List/img_manmade_06.png,MM,5,,,,,,,,,,,,,,,
null,,confidence_buffer,397152,confidence_buffer,,null,,,,,,,,,,,,,,,,,,
4063.4000000059605,,unique_rating,401217,Fictional_Cities_List/img_manmade_06.png,,52,,,4,,,,,,,,,,,,,,,
null,,confidence_buffer,401319,confidence_buffer,,null,,,,,,,,,,,,,,,,,,
7226.19999999553,,probe_rating,408546,probe_rating,,53,,,,5,1,,,,,,,,,,,,,
null,,confidence_buffer,408649,confidence_buffer,,null,,,,,,,,,,,,,,,,,,
8391.10000000149,,memorable_rating,417041,Fictional_Cities_List/img_manmade_06.png,,52,,,4,,,,,,,,,,,,,,,
null,,confidence_buffer,417143,confidence_buffer,,null,,,,,,,,,,,,,,,,,,
null,,thebreak,417644,break,,null,,,,,,,,,,,,,,,,,,
9515.69999999553,,familiar_rating,427161,US_Cities_List/nat_gatlinburg.png,,50,US_Cities_List/nat_gatlinburg.png,NAT,2,,,,,,,,,,,,,,,
null,,confidence_buffer,427262,confidence_buffer,,null,,,,,,,,,,,,,,,,,,
7085.79999999702,,unique_rating,434349,US_Cities_List/nat_gatlinburg.png,,51,,,3,,,,,,,,,,,,,,,
null,,confidence_buffer,434451,confidence_buffer,,null,,,,,,,,,,,,,,,,,,
7880.20000000298,,memorable_rating,442332,US_Cities_List/nat_gatlinburg.png,,49,,,1,,,,,,,,,,,,,,,
null,,confidence_buffer,442434,confidence_buffer,,null,,,,,,,,,,,,,,,,,,
null,,thebreak,442935,break,,null,,,,,,,,,,,,,,,,,,
6252.60000000149,,familiar_rating,449189,Fictional_Cities_List/img_natural_06.png,,49,Fictional_Cities_List/img_natural_06.png,NAT,1,,,,,,,,,,,,,,,
null,,confidence_buffer,449290,confidence_buffer,,null,,,,,,,,,,,,,,,,,,
10802.39999999851,,unique_rating,460094,Fictional_Cities_List/img_natural_06.png,,50,,,2,,,,,,,,,,,,,,,
null,,confidence_buffer,460196,confidence_buffer,,null,,,,,,,,,,,,,,,,,,
6042,,memorable_rating,466239,Fictional_Cities_List/img_natural_06.png,,49,,,1,,,,,,,,,,,,,,,
null,,confidence_buffer,466341,confidence_buffer,,null,,,,,,,,,,,,,,,,,,
null,,thebreak,466843,break,,null,,,,,,,,,,,,,,,,,,
7488.5,,familiar_rating,474332,US_Cities_List/mm_watkinsglen.png,,53,US_Cities_List/mm_watkinsglen.png,MM,5,,,,,,,,,,,,,,,
null,,confidence_buffer,474434,confidence_buffer,,null,,,,,,,,,,,,,,,,,,
5670.80000000447,,unique_rating,480106,US_Cities_List/mm_watkinsglen.png,,52,,,4,,,,,,,,,,,,,,,
null,,confidence_buffer,480207,confidence_buffer,,null,,,,,,,,,,,,,,,,,,
7067.0999999940395,,memorable_rating,487276,US_Cities_List/mm_watkinsglen.png,,51,,,3,,,,,,,,,,,,,,,
null,,confidence_buffer,487377,confidence_buffer,,null,,,,,,,,,,,,,,,,,,
null,,thebreak,487878,break,,null,,,,,,,,,,,,,,,,,,
4416.10000000149,,familiar_rating,492295,Fictional_Cities_List/img_manmade_18.png,,53,Fictional_Cities_List/img_manmade_18.png,MM,5,,,,,,,,,,,,,,,
null,,confidence_buffer,492397,confidence_buffer,,null,,,,,,,,,,,,,,,,,,
3722.60000000149,,unique_rating,496121,Fictional_Cities_List/img_manmade_18.png,,52,,,4,,,,,,,,,,,,,,,
null,,confidence_buffer,496223,confidence_buffer,,null,,,,,,,,,,,,,,,,,,
5862.70000000298,,memorable_rating,502087,Fictional_Cities_List/img_manmade_18.png,,51,,,3,,,,,,,,,,,,,,,
null,,confidence_buffer,502189,confidence_buffer,,null,,,,,,,,,,,,,,,,,,
5580,,probe_rating,507770,probe_rating,,52,,,,4,1,,,,,,,,,,,,,
null,,confidence_buffer,507872,confidence_buffer,,null,,,,,,,,,,,,,,,,,,
null,,thebreak,508382,break,,null,,,,,,,,,,,,,,,,,,
6737.10000000149,,familiar_rating,515120,Fictional_Cities_List/img_manmade_49.png,,53,Fictional_Cities_List/img_manmade_49.png,MM,5,,,,,,,,,,,,,,,
null,,confidence_buffer,515222,confidence_buffer,,null,,,,,,,,,,,,,,,,,,
4064.8000000044703,,unique_rating,519287,Fictional_Cities_List/img_manmade_49.png,,52,,,4,,,,,,,,,,,,,,,
null,,confidence_buffer,519389,confidence_buffer,,null,,,,,,,,,,,,,,,,,,
5500.79999999702,,memorable_rating,524891,Fictional_Cities_List/img_manmade_49.png,,51,,,3,,,,,,,,,,,,,,,
null,,confidence_buffer,524993,confidence_buffer,,null,,,,,,,,,,,,,,,,,,
3743.39999999851,,probe_rating,528738,probe_rating,,52,,,,4,1,,,,,,,,,,,,,
null,,confidence_buffer,528839,confidence_buffer,,null,,,,,,,,,,,,,,,,,,
null,,thebreak,529340,break,,null,,,,,,,,,,,,,,,,,,
7350.5,,familiar_rating,536692,Fictional_Cities_List/img_natural_01.png,,52,Fictional_Cities_List/img_natural_01.png,NAT,4,,,,,,,,,,,,,,,
null,,confidence_buffer,536793,confidence_buffer,,null,,,,,,,,,,,,,,,,,,
8626.70000000298,,unique_rating,545421,Fictional_Cities_List/img_natural_01.png,,53,,,5,,,,,,,,,,,,,,,
null,,confidence_buffer,545522,confidence_buffer,,null,,,,,,,,,,,,,,,,,,
4035.5,,memorable_rating,549559,Fictional_Cities_List/img_natural_01.png,,53,,,5,,,,,,,,,,,,,,,
null,,confidence_buffer,549660,confidence_buffer,,null,,,,,,,,,,,,,,,,,,
null,,thebreak,550162,break,,null,,,,,,,,,,,,,,,,,,
6508.10000000149,,familiar_rating,556671,Fictional_Cities_List/img_natural_02.png,,51,Fictional_Cities_List/img_natural_02.png,NAT,3,,,,,,,,,,,,,,,
null,,confidence_buffer,556773,confidence_buffer,,null,,,,,,,,,,,,,,,,,,
5238.80000000447,,unique_rating,562014,Fictional_Cities_List/img_natural_02.png,,52,,,4,,,,,,,,,,,,,,,
null,,confidence_buffer,562115,confidence_buffer,,null,,,,,,,,,,,,,,,,,,
5902.70000000298,,memorable_rating,568019,Fictional_Cities_List/img_natural_02.png,,50,,,2,,,,,,,,,,,,,,,
null,,confidence_buffer,568120,confidence_buffer,,null,,,,,,,,,,,,,,,,,,
null,,thebreak,568621,break,,null,,,,,,,,,,,,,,,,,,
6868.29999999702,,familiar_rating,575491,Fictional_Cities_List/img_manmade_21.png,,52,Fictional_Cities_List/img_manmade_21.png,MM,4,,,,,,,,,,,,,,,
null,,confidence_buffer,575593,confidence_buffer,,null,,,,,,,,,,,,,,,,,,
3682.7000000029802,,unique_rating,579277,Fictional_Cities_List/img_manmade_21.png,,51,,,3,,,,,,,,,,,,,,,
null,,confidence_buffer,579378,confidence_buffer,,null,,,,,,,,,,,,,,,,,,
7440.39999999851,,memorable_rating,586819,Fictional_Cities_List/img_manmade_21.png,,52,,,4,,,,,,,,,,,,,,,
null,,confidence_buffer,586923,confidence_buffer,,null,,,,,,,,,,,,,,,,,,
null,,thebreak,587425,break,,null,,,,,,,,,,,,,,,,,,
5519.5,,familiar_rating,592946,US_Cities_List/nat_delawarecity.png,,53,US_Cities_List/nat_delawarecity.png,NAT,5,,,,,,,,,,,,,,,
null,,confidence_buffer,593048,confidence_buffer,,null,,,,,,,,,,,,,,,,,,
1965.3999999985099,,unique_rating,595015,US_Cities_List/nat_delawarecity.png,,52,,,4,,,,,,,,,,,,,,,
null,,confidence_buffer,595116,confidence_buffer,,null,,,,,,,,,,,,,,,,,,
2750.10000000149,,memorable_rating,597867,US_Cities_List/nat_delawarecity.png,,51,,,3,,,,,,,,,,,,,,,
null,,confidence_buffer,597978,confidence_buffer,,null,,,,,,,,,,,,,,,,,,
null,,thebreak,598479,break,,null,,,,,,,,,,,,,,,,,,
4991.5999999940395,,familiar_rating,603472,Fictional_Cities_List/img_natural_05.png,,53,Fictional_Cities_List/img_natural_05.png,NAT,5,,,,,,,,,,,,,,,
null,,confidence_buffer,603574,confidence_buffer,,null,,,,,,,,,,,,,,,,,,
2919.39999999851,,unique_rating,606495,Fictional_Cities_List/img_natural_05.png,,51,,,3,,,,,,,,,,,,,,,
null,,confidence_buffer,606597,confidence_buffer,,null,,,,,,,,,,,,,,,,,,
3271.89999999851,,memorable_rating,609870,Fictional_Cities_List/img_natural_05.png,,52,,,4,,,,,,,,,,,,,,,
null,,confidence_buffer,609973,confidence_buffer,,null,,,,,,,,,,,,,,,,,,
null,,thebreak,610474,break,,null,,,,,,,,,,,,,,,,,,
8343.5,,familiar_rating,618819,US_Cities_List/nat_abilene.png,,52,US_Cities_List/nat_abilene.png,NAT,4,,,,,,,,,,,,,,,
null,,confidence_buffer,618921,confidence_buffer,,null,,,,,,,,,,,,,,,,,,
3693.39999999851,,unique_rating,622615,US_Cities_List/nat_abilene.png,,50,,,2,,,,,,,,,,,,,,,
null,,confidence_buffer,622716,confidence_buffer,,null,,,,,,,,,,,,,,,,,,
5984.20000000298,,memorable_rating,628702,US_Cities_List/nat_abilene.png,,51,,,3,,,,,,,,,,,,,,,
null,,confidence_buffer,628804,confidence_buffer,,null,,,,,,,,,,,,,,,,,,
null,,thebreak,629305,break,,null,,,,,,,,,,,,,,,,,,
5672.30000000447,,familiar_rating,634979,US_Cities_List/nat_duck.png,,53,US_Cities_List/nat_duck.png,NAT,5,,,,,,,,,,,,,,,
null,,confidence_buffer,635081,confidence_buffer,,null,,,,,,,,,,,,,,,,,,
5943.89999999851,,unique_rating,641026,US_Cities_List/nat_duck.png,,51,,,3,,,,,,,,,,,,,,,
null,,confidence_buffer,641128,confidence_buffer,,null,,,,,,,,,,,,,,,,,,
4035.3000000044703,,memorable_rating,645165,US_Cities_List/nat_duck.png,,52,,,4,,,,,,,,,,,,,,,
null,,confidence_buffer,645272,confidence_buffer,,null,,,,,,,,,,,,,,,,,,
null,,thebreak,645773,break,,null,,,,,,,,,,,,,,,,,,
6361.19999999553,,familiar_rating,652136,Fictional_Cities_List/img_natural_49.png,,53,Fictional_Cities_List/img_natural_49.png,NAT,5,,,,,,,,,,,,,,,
null,,confidence_buffer,652237,confidence_buffer,,null,,,,,,,,,,,,,,,,,,
2578.8000000044703,,unique_rating,654817,Fictional_Cities_List/img_natural_49.png,,52,,,4,,,,,,,,,,,,,,,
null,,confidence_buffer,654919,confidence_buffer,,null,,,,,,,,,,,,,,,,,,
3483.89999999851,,memorable_rating,658404,Fictional_Cities_List/img_natural_49.png,,51,,,3,,,,,,,,,,,,,,,
null,,confidence_buffer,658507,confidence_buffer,,null,,,,,,,,,,,,,,,,,,
null,,thebreak,659008,break,,null,,,,,,,,,,,,,,,,,,
3723.2999999970198,,familiar_rating,662733,US_Cities_List/mm_athens.png,,52,US_Cities_List/mm_athens.png,MM,4,,,,,,,,,,,,,,,
null,,confidence_buffer,662834,confidence_buffer,,null,,,,,,,,,,,,,,,,,,
3563.3000000044703,,unique_rating,666399,US_Cities_List/mm_athens.png,,51,,,3,,,,,,,,,,,,,,,
null,,confidence_buffer,666501,confidence_buffer,,null,,,,,,,,,,,,,,,,,,
5019.39999999851,,memorable_rating,671521,US_Cities_List/mm_athens.png,,49,,,1,,,,,,,,,,,,,,,
null,,confidence_buffer,671622,confidence_buffer,,null,,,,,,,,,,,,,,,,,,
null,,thebreak,672123,break,,null,,,,,,,,,,,,,,,,,,
3726.1999999955297,,familiar_rating,675851,US_Cities_List/mm_yukon.png,,50,US_Cities_List/mm_yukon.png,MM,2,,,,,,,,,,,,,,,
null,,confidence_buffer,675953,confidence_buffer,,null,,,,,,,,,,,,,,,,,,
4838.0999999940395,,unique_rating,680792,US_Cities_List/mm_yukon.png,,51,,,3,,,,,,,,,,,,,,,
null,,confidence_buffer,680894,confidence_buffer,,null,,,,,,,,,,,,,,,,,,
3101.10000000149,,memorable_rating,683996,US_Cities_List/mm_yukon.png,,52,,,4,,,,,,,,,,,,,,,
null,,confidence_buffer,684112,confidence_buffer,,null,,,,,,,,,,,,,,,,,,
3296.5,,probe_rating,687410,probe_rating,,50,,,,2,1,,,,,,,,,,,,,
null,,confidence_buffer,687512,confidence_buffer,,null,,,,,,,,,,,,,,,,,,
null,,thebreak,688013,break,,null,,,,,,,,,,,,,,,,,,
12296.19999999553,,familiar_rating,700310,US_Cities_List/nat_boulder.png,,52,US_Cities_List/nat_boulder.png,NAT,4,,,,,,,,,,,,,,,
null,,confidence_buffer,700411,confidence_buffer,,null,,,,,,,,,,,,,,,,,,
5292,,unique_rating,705705,US_Cities_List/nat_boulder.png,,51,,,3,,,,,,,,,,,,,,,
null,,confidence_buffer,705811,confidence_buffer,,null,,,,,,,,,,,,,,,,,,
2043.2000000029802,,memorable_rating,707855,US_Cities_List/nat_boulder.png,,50,,,2,,,,,,,,,,,,,,,
null,,confidence_buffer,707956,confidence_buffer,,null,,,,,,,,,,,,,,,,,,
null,,thebreak,708458,break,,null,,,,,,,,,,,,,,,,,,
6770.70000000298,,familiar_rating,715230,Fictional_Cities_List/img_manmade_25.png,,49,Fictional_Cities_List/img_manmade_25.png,MM,1,,,,,,,,,,,,,,,
null,,confidence_buffer,715331,confidence_buffer,,null,,,,,,,,,,,,,,,,,,
5895.10000000149,,unique_rating,721228,Fictional_Cities_List/img_manmade_25.png,,49,,,1,,,,,,,,,,,,,,,
null,,confidence_buffer,721330,confidence_buffer,,null,,,,,,,,,,,,,,,,,,
4940.69999999553,,memorable_rating,726272,Fictional_Cities_List/img_manmade_25.png,,49,,,1,,,,,,,,,,,,,,,
null,,confidence_buffer,726374,confidence_buffer,,null,,,,,,,,,,,,,,,,,,
null,,thebreak,726875,break,,null,,,,,,,,,,,,,,,,,,
5272.39999999851,,familiar_rating,732149,Fictional_Cities_List/img_natural_03.png,,51,Fictional_Cities_List/img_natural_03.png,NAT,3,,,,,,,,,,,,,,,
null,,confidence_buffer,732250,confidence_buffer,,null,,,,,,,,,,,,,,,,,,
3624.7000000029802,,unique_rating,735876,Fictional_Cities_List/img_natural_03.png,,50,,,2,,,,,,,,,,,,,,,
null,,confidence_buffer,735978,confidence_buffer,,null,,,,,,,,,,,,,,,,,,
5804,,memorable_rating,741783,Fictional_Cities_List/img_natural_03.png,,49,,,1,,,,,,,,,,,,,,,
null,,confidence_buffer,741885,confidence_buffer,,null,,,,,,,,,,,,,,,,,,
null,,thebreak,742387,break,,null,,,,,,,,,,,,,,,,,,
3684.2999999970198,,familiar_rating,746073,Fictional_Cities_List/img_natural_36.png,,52,Fictional_Cities_List/img_natural_36.png,NAT,4,,,,,,,,,,,,,,,
null,,confidence_buffer,746174,confidence_buffer,,null,,,,,,,,,,,,,,,,,,
6257.29999999702,,unique_rating,752433,Fictional_Cities_List/img_natural_36.png,,53,,,5,,,,,,,,,,,,,,,
null,,confidence_buffer,752534,confidence_buffer,,null,,,,,,,,,,,,,,,,,,
3884.89999999851,,memorable_rating,756420,Fictional_Cities_List/img_natural_36.png,,52,,,4,,,,,,,,,,,,,,,
null,,confidence_buffer,756522,confidence_buffer,,null,,,,,,,,,,,,,,,,,,
null,,thebreak,757032,break,,null,,,,,,,,,,,,,,,,,,
5284.69999999553,,familiar_rating,762318,US_Cities_List/mm_cleveland.png,,53,US_Cities_List/mm_cleveland.png,MM,5,,,,,,,,,,,,,,,
null,,confidence_buffer,762426,confidence_buffer,,null,,,,,,,,,,,,,,,,,,
3827.7999999970198,,unique_rating,766255,US_Cities_List/mm_cleveland.png,,52,,,4,,,,,,,,,,,,,,,
null,,confidence_buffer,766357,confidence_buffer,,null,,,,,,,,,,,,,,,,,,
3452.5,,memorable_rating,769811,US_Cities_List/mm_cleveland.png,,51,,,3,,,,,,,,,,,,,,,
null,,confidence_buffer,769912,confidence_buffer,,null,,,,,,,,,,,,,,,,,,
null,,thebreak,770413,break,,null,,,,,,,,,,,,,,,,,,
3325.39999999851,,familiar_rating,773739,Fictional_Cities_List/img_natural_24.png,,49,Fictional_Cities_List/img_natural_24.png,NAT,1,,,,,,,,,,,,,,,
null,,confidence_buffer,773841,confidence_buffer,,null,,,,,,,,,,,,,,,,,,
5000,,unique_rating,778843,Fictional_Cities_List/img_natural_24.png,,50,,,2,,,,,,,,,,,,,,,
null,,confidence_buffer,778944,confidence_buffer,,null,,,,,,,,,,,,,,,,,,
3101.7999999970198,,memorable_rating,782047,Fictional_Cities_List/img_natural_24.png,,49,,,1,,,,,,,,,,,,,,,
null,,confidence_buffer,782150,confidence_buffer,,null,,,,,,,,,,,,,,,,,,
null,,thebreak,782652,break,,null,,,,,,,,,,,,,,,,,,
2951,,familiar_rating,785604,Fictional_Cities_List/img_manmade_34.png,,53,Fictional_Cities_List/img_manmade_34.png,MM,5,,,,,,,,,,,,,,,
null,,confidence_buffer,785706,confidence_buffer,,null,,,,,,,,,,,,,,,,,,
1886.0999999940395,,unique_rating,787593,Fictional_Cities_List/img_manmade_34.png,,52,,,4,,,,,,,,,,,,,,,
null,,confidence_buffer,787695,confidence_buffer,,null,,,,,,,,,,,,,,,,,,
4176.60000000149,,memorable_rating,791873,Fictional_Cities_List/img_manmade_34.png,,51,,,3,,,,,,,,,,,,,,,
null,,confidence_buffer,791975,confidence_buffer,,null,,,,,,,,,,,,,,,,,,
null,,thebreak,792477,break,,null,,,,,,,,,,,,,,,,,,
3935.89999999851,,familiar_rating,796414,Fictional_Cities_List/img_manmade_08.png,,52,Fictional_Cities_List/img_manmade_08.png,MM,4,,,,,,,,,,,,,,,
null,,confidence_buffer,796517,confidence_buffer,,null,,,,,,,,,,,,,,,,,,
7699.60000000149,,unique_rating,804218,Fictional_Cities_List/img_manmade_08.png,,53,,,5,,,,,,,,,,,,,,,
null,,confidence_buffer,804320,confidence_buffer,,null,,,,,,,,,,,,,,,,,,
4370.89999999851,,memorable_rating,808692,Fictional_Cities_List/img_manmade_08.png,,52,,,4,,,,,,,,,,,,,,,
null,,confidence_buffer,808795,confidence_buffer,,null,,,,,,,,,,,,,,,,,,
null,,thebreak,809297,break,,null,,,,,,,,,,,,,,,,,,
4265.79999999702,,familiar_rating,813564,US_Cities_List/mm_coeurdalene.png,,52,US_Cities_List/mm_coeurdalene.png,MM,4,,,,,,,,,,,,,,,
null,,confidence_buffer,813665,confidence_buffer,,null,,,,,,,,,,,,,,,,,,
2469.5,,unique_rating,816136,US_Cities_List/mm_coeurdalene.png,,53,,,5,,,,,,,,,,,,,,,
null,,confidence_buffer,816238,confidence_buffer,,null,,,,,,,,,,,,,,,,,,
5483.30000000447,,memorable_rating,821722,US_Cities_List/mm_coeurdalene.png,,52,,,4,,,,,,,,,,,,,,,
null,,confidence_buffer,821823,confidence_buffer,,null,,,,,,,,,,,,,,,,,,
null,,thebreak,822324,break,,null,,,,,,,,,,,,,,,,,,
3425.39999999851,,familiar_rating,825751,US_Cities_List/nat_newport.png,,52,US_Cities_List/nat_newport.png,NAT,4,,,,,,,,,,,,,,,
null,,confidence_buffer,825853,confidence_buffer,,null,,,,,,,,,,,,,,,,,,
3795,,unique_rating,829649,US_Cities_List/nat_newport.png,,51,,,3,,,,,,,,,,,,,,,
null,,confidence_buffer,829751,confidence_buffer,,null,,,,,,,,,,,,,,,,,,
5953.5999999940395,,memorable_rating,835706,US_Cities_List/nat_newport.png,,52,,,4,,,,,,,,,,,,,,,
null,,confidence_buffer,835808,confidence_buffer,,null,,,,,,,,,,,,,,,,,,
null,,thebreak,836310,break,,null,,,,,,,,,,,,,,,,,,
13107.90000000596,,intro_0,849419,instruct,,32,,,,,,,,,,,,,,,,,,
25946.60000000149,,intro_1,875366,instruct,,32,,,,,,,,,,,,,,,,,,
57945.89999999851,,intro_2,933313,instruct,,32,,,,,,,,,,,,,,,,,,
null,,instruct_dir_4,934814,instruct,,null,,,,,,,,,,,,,,,,,,
25966.79999999702,,pt2_realistic_rating,960782,US_Cities_List/mm_cleveland.png,,53,US_Cities_List/mm_cleveland.png,MM,5,,,,,,,,,,,,,,,
null,,confidence_buffer,960884,confidence_buffer,,null,,,,,,,,,,,,,,,,,,
6920.5,,probe_rating,967806,probe_rating,,53,,,,5,1,,,,,,,,,,,,,
null,,confidence_buffer,967908,confidence_buffer,,null,,,,,,,,,,,,,,,,,,
7634.39999999851,,pt2_unique_rating,975543,US_Cities_List/mm_cleveland.png,,52,,,4,,,,,,,,,,,,,,,
null,,confidence_buffer,975645,confidence_buffer,,null,,,,,,,,,,,,,,,,,,
6389,,pt2_memorable_rating,982035,US_Cities_List/mm_cleveland.png,,52,,,4,,,,,,,,,,,,,,,
null,,confidence_buffer,982136,confidence_buffer,,null,,,,,,,,,,,,,,,,,,
16618.09999999404,,recognition_phase,998756,US_Cities_List/mm_cleveland.png,,49,,,,,,old,1,1,,,,,,,,,,
null,,confidence_buffer,998858,confidence_buffer,,null,,,,,,,,,,,,,,,,,,
null,,thebreak,999360,break,,null,,,,,,,,,,,,,,,,,,
18505.60000000149,,pt2_realistic_rating,1017867,Fictional_Cities_List/img_manmade_18.png,,52,Fictional_Cities_List/img_manmade_18.png,MM,4,,,,,,,,,,,,,,,
null,,confidence_buffer,1017972,confidence_buffer,,null,,,,,,,,,,,,,,,,,,
8231.89999999851,,pt2_unique_rating,1026205,Fictional_Cities_List/img_manmade_18.png,,53,,,5,,,,,,,,,,,,,,,
null,,confidence_buffer,1026309,confidence_buffer,,null,,,,,,,,,,,,,,,,,,
4818.5,,pt2_memorable_rating,1031129,Fictional_Cities_List/img_manmade_18.png,,52,,,4,,,,,,,,,,,,,,,
null,,confidence_buffer,1031230,confidence_buffer,,null,,,,,,,,,,,,,,,,,,
7817.39999999851,,recognition_phase,1039048,Fictional_Cities_List/img_manmade_18.png,,49,,,,,,old,1,1,,,,,,,,,,
null,,confidence_buffer,1039150,confidence_buffer,,null,,,,,,,,,,,,,,,,,,
null,,thebreak,1039658,break,,null,,,,,,,,,,,,,,,,,,
16766.60000000149,,pt2_realistic_rating,1056425,Fictional_Cities_List/img_natural_03.png,,49,Fictional_Cities_List/img_natural_03.png,NAT,1,,,,,,,,,,,,,,,
null,,confidence_buffer,1056528,confidence_buffer,,null,,,,,,,,,,,,,,,,,,
8913.29999999702,,pt2_unique_rating,1065442,Fictional_Cities_List/img_natural_03.png,,50,,,2,,,,,,,,,,,,,,,
null,,confidence_buffer,1065543,confidence_buffer,,null,,,,,,,,,,,,,,,,,,
7447.20000000298,,pt2_memorable_rating,1072992,Fictional_Cities_List/img_natural_03.png,,51,,,3,,,,,,,,,,,,,,,
null,,confidence_buffer,1073094,confidence_buffer,,null,,,,,,,,,,,,,,,,,,
3213.0999999940395,,probe_rating,1076309,probe_rating,,51,,,,3,1,,,,,,,,,,,,,
null,,confidence_buffer,1076411,confidence_buffer,,null,,,,,,,,,,,,,,,,,,
4451.60000000149,,recognition_phase,1080863,Fictional_Cities_List/img_natural_03.png,,49,,,,,,old,1,1,,,,,,,,,,
null,,confidence_buffer,1080965,confidence_buffer,,null,,,,,,,,,,,,,,,,,,
null,,thebreak,1081467,break,,null,,,,,,,,,,,,,,,,,,
14244.09999999404,,pt2_realistic_rating,1095713,Fictional_Cities_List/img_manmade_03.png,,51,Fictional_Cities_List/img_manmade_03.png,MM,3,,,,,,,,,,,,,,,
null,,confidence_buffer,1095814,confidence_buffer,,null,,,,,,,,,,,,,,,,,,
5487,,pt2_unique_rating,1101303,Fictional_Cities_List/img_manmade_03.png,,50,,,2,,,,,,,,,,,,,,,
null,,confidence_buffer,1101405,confidence_buffer,,null,,,,,,,,,,,,,,,,,,
4884.20000000298,,pt2_memorable_rating,1106290,Fictional_Cities_List/img_manmade_03.png,,49,,,1,,,,,,,,,,,,,,,
null,,confidence_buffer,1106392,confidence_buffer,,null,,,,,,,,,,,,,,,,,,
2551.10000000149,,probe_rating,1108944,probe_rating,,50,,,,2,1,,,,,,,,,,,,,
null,,confidence_buffer,1109055,confidence_buffer,,null,,,,,,,,,,,,,,,,,,
16305,,recognition_phase,1125361,Fictional_Cities_List/img_manmade_03.png,,52,,,,,,new,1,1,,,,,,,,,,
null,,confidence_buffer,1125463,confidence_buffer,,null,,,,,,,,,,,,,,,,,,
null,,thebreak,1125964,break,,null,,,,,,,,,,,,,,,,,,
9651.69999999553,,pt2_realistic_rating,1135617,Fictional_Cities_List/img_natural_08.png,,50,Fictional_Cities_List/img_natural_08.png,NAT,2,,,,,,,,,,,,,,,
null,,confidence_buffer,1135719,confidence_buffer,,null,,,,,,,,,,,,,,,,,,
6976,,pt2_unique_rating,1142697,Fictional_Cities_List/img_natural_08.png,,51,,,3,,,,,,,,,,,,,,,
null,,confidence_buffer,1142798,confidence_buffer,,null,,,,,,,,,,,,,,,,,,
5579.19999999553,,pt2_memorable_rating,1148378,Fictional_Cities_List/img_natural_08.png,,49,,,1,,,,,,,,,,,,,,,
null,,confidence_buffer,1148480,confidence_buffer,,null,,,,,,,,,,,,,,,,,,
6062,,recognition_phase,1154543,Fictional_Cities_List/img_natural_08.png,,52,,,,,,new,1,1,,,,,,,,,,
null,,confidence_buffer,1154645,confidence_buffer,,null,,,,,,,,,,,,,,,,,,
null,,thebreak,1155146,break,,null,,,,,,,,,,,,,,,,,,
11776,,pt2_realistic_rating,1166924,US_Cities_List/mm_coeurdalene.png,,53,US_Cities_List/mm_coeurdalene.png,MM,5,,,,,,,,,,,,,,,
null,,confidence_buffer,1167026,confidence_buffer,,null,,,,,,,,,,,,,,,,,,
5707.10000000149,,pt2_unique_rating,1172734,US_Cities_List/mm_coeurdalene.png,,52,,,4,,,,,,,,,,,,,,,
null,,confidence_buffer,1172837,confidence_buffer,,null,,,,,,,,,,,,,,,,,,
7677.9000000059605,,pt2_memorable_rating,1180516,US_Cities_List/mm_coeurdalene.png,,53,,,5,,,,,,,,,,,,,,,
null,,confidence_buffer,1180619,confidence_buffer,,null,,,,,,,,,,,,,,,,,,
7477.89999999851,,recognition_phase,1188098,US_Cities_List/mm_coeurdalene.png,,49,,,,,,old,1,1,,,,,,,,,,
null,,confidence_buffer,1188200,confidence_buffer,,null,,,,,,,,,,,,,,,,,,
null,,thebreak,1188710,break,,null,,,,,,,,,,,,,,,,,,
13634.5,,pt2_realistic_rating,1202346,US_Cities_List/mm_healdsburg.png,,51,US_Cities_List/mm_healdsburg.png,MM,3,,,,,,,,,,,,,,,
null,,confidence_buffer,1202448,confidence_buffer,,null,,,,,,,,,,,,,,,,,,
5788.5,,pt2_unique_rating,1208238,US_Cities_List/mm_healdsburg.png,,51,,,3,,,,,,,,,,,,,,,
null,,confidence_buffer,1208340,confidence_buffer,,null,,,,,,,,,,,,,,,,,,
2701.89999999851,,pt2_memorable_rating,1211043,US_Cities_List/mm_healdsburg.png,,50,,,2,,,,,,,,,,,,,,,
null,,confidence_buffer,1211146,confidence_buffer,,null,,,,,,,,,,,,,,,,,,
4350.19999999553,,recognition_phase,1215498,US_Cities_List/mm_healdsburg.png,,52,,,,,,new,1,1,,,,,,,,,,
null,,confidence_buffer,1215601,confidence_buffer,,null,,,,,,,,,,,,,,,,,,
null,,thebreak,1216102,break,,null,,,,,,,,,,,,,,,,,,
8445.5,,pt2_realistic_rating,1224549,US_Cities_List/nat_healdsburg.png,,52,US_Cities_List/nat_healdsburg.png,NAT,4,,,,,,,,,,,,,,,
null,,confidence_buffer,1224650,confidence_buffer,,null,,,,,,,,,,,,,,,,,,
2481.7000000029802,,pt2_unique_rating,1227133,US_Cities_List/nat_healdsburg.png,,51,,,3,,,,,,,,,,,,,,,
null,,confidence_buffer,1227235,confidence_buffer,,null,,,,,,,,,,,,,,,,,,
6293,,pt2_memorable_rating,1233529,US_Cities_List/nat_healdsburg.png,,52,,,4,,,,,,,,,,,,,,,
null,,confidence_buffer,1233631,confidence_buffer,,null,,,,,,,,,,,,,,,,,,
4341.80000000447,,recognition_phase,1237974,US_Cities_List/nat_healdsburg.png,,49,,,,,,old,0,0.875,,,,,,,,,,
null,,confidence_buffer,1238077,confidence_buffer,,null,,,,,,,,,,,,,,,,,,
null,,thebreak,1238578,break,,null,,,,,,,,,,,,,,,,,,
9038.5,,pt2_realistic_rating,1247618,US_Cities_List/nat_gardnerville.png,,51,US_Cities_List/nat_gardnerville.png,NAT,3,,,,,,,,,,,,,,,
null,,confidence_buffer,1247721,confidence_buffer,,null,,,,,,,,,,,,,,,,,,
2198.2000000029802,,pt2_unique_rating,1249921,US_Cities_List/nat_gardnerville.png,,52,,,4,,,,,,,,,,,,,,,
null,,confidence_buffer,1250024,confidence_buffer,,null,,,,,,,,,,,,,,,,,,
5256,,pt2_memorable_rating,1255281,US_Cities_List/nat_gardnerville.png,,50,,,2,,,,,,,,,,,,,,,
null,,confidence_buffer,1255383,confidence_buffer,,null,,,,,,,,,,,,,,,,,,
3115.2999999970198,,recognition_phase,1258500,US_Cities_List/nat_gardnerville.png,,49,,,,,,old,0,0.7777777777777778,,,,,,,,,,
null,,confidence_buffer,1258602,confidence_buffer,,null,,,,,,,,,,,,,,,,,,
null,,thebreak,1259112,break,,null,,,,,,,,,,,,,,,,,,
8369.60000000149,,pt2_realistic_rating,1267482,Fictional_Cities_List/img_natural_25.png,,49,Fictional_Cities_List/img_natural_25.png,NAT,1,,,,,,,,,,,,,,,
null,,confidence_buffer,1267584,confidence_buffer,,null,,,,,,,,,,,,,,,,,,
3870.60000000149,,pt2_unique_rating,1271455,Fictional_Cities_List/img_natural_25.png,,50,,,2,,,,,,,,,,,,,,,
null,,confidence_buffer,1271557,confidence_buffer,,null,,,,,,,,,,,,,,,,,,
2120.0999999940395,,pt2_memorable_rating,1273679,Fictional_Cities_List/img_natural_25.png,,49,,,1,,,,,,,,,,,,,,,
null,,confidence_buffer,1273781,confidence_buffer,,null,,,,,,,,,,,,,,,,,,
3155.7999999970198,,recognition_phase,1276938,Fictional_Cities_List/img_natural_25.png,,52,,,,,,new,1,0.8,,,,,,,,,,
null,,confidence_buffer,1277041,confidence_buffer,,null,,,,,,,,,,,,,,,,,,
null,,thebreak,1277543,break,,null,,,,,,,,,,,,,,,,,,
6939.5,,pt2_realistic_rating,1284483,US_Cities_List/nat_abilene.png,,52,US_Cities_List/nat_abilene.png,NAT,4,,,,,,,,,,,,,,,
null,,confidence_buffer,1284584,confidence_buffer,,null,,,,,,,,,,,,,,,,,,
3408.9000000059605,,pt2_unique_rating,1287995,US_Cities_List/nat_abilene.png,,53,,,5,,,,,,,,,,,,,,,
null,,confidence_buffer,1288096,confidence_buffer,,null,,,,,,,,,,,,,,,,,,
3830.89999999851,,pt2_memorable_rating,1291928,US_Cities_List/nat_abilene.png,,51,,,3,,,,,,,,,,,,,,,
null,,confidence_buffer,1292030,confidence_buffer,,null,,,,,,,,,,,,,,,,,,
4615.29999999702,,recognition_phase,1296647,US_Cities_List/nat_abilene.png,,49,,,,,,old,1,0.8181818181818182,,,,,,,,,,
null,,confidence_buffer,1296749,confidence_buffer,,null,,,,,,,,,,,,,,,,,,
null,,thebreak,1297251,break,,null,,,,,,,,,,,,,,,,,,
5812.80000000447,,pt2_realistic_rating,1303065,US_Cities_List/mm_hotsprings.png,,52,US_Cities_List/mm_hotsprings.png,MM,4,,,,,,,,,,,,,,,
null,,confidence_buffer,1303167,confidence_buffer,,null,,,,,,,,,,,,,,,,,,
4494.0999999940395,,pt2_unique_rating,1307662,US_Cities_List/mm_hotsprings.png,,51,,,3,,,,,,,,,,,,,,,
null,,confidence_buffer,1307763,confidence_buffer,,null,,,,,,,,,,,,,,,,,,
4655.60000000149,,pt2_memorable_rating,1312420,US_Cities_List/mm_hotsprings.png,,53,,,5,,,,,,,,,,,,,,,
null,,confidence_buffer,1312521,confidence_buffer,,null,,,,,,,,,,,,,,,,,,
4645.10000000149,,recognition_phase,1317168,US_Cities_List/mm_hotsprings.png,,49,,,,,,old,1,0.8333333333333334,,,,,,,,,,
null,,confidence_buffer,1317270,confidence_buffer,,null,,,,,,,,,,,,,,,,,,
null,,thebreak,1317771,break,,null,,,,,,,,,,,,,,,,,,
5743,,pt2_realistic_rating,1323515,US_Cities_List/nat_cody.png,,52,US_Cities_List/nat_cody.png,NAT,4,,,,,,,,,,,,,,,
null,,confidence_buffer,1323617,confidence_buffer,,null,,,,,,,,,,,,,,,,,,
2492.2000000029802,,pt2_unique_rating,1326110,US_Cities_List/nat_cody.png,,51,,,3,,,,,,,,,,,,,,,
null,,confidence_buffer,1326212,confidence_buffer,,null,,,,,,,,,,,,,,,,,,
7463.10000000149,,pt2_memorable_rating,1333677,US_Cities_List/nat_cody.png,,52,,,4,,,,,,,,,,,,,,,
null,,confidence_buffer,1333779,confidence_buffer,,null,,,,,,,,,,,,,,,,,,
2169.5,,recognition_phase,1335950,US_Cities_List/nat_cody.png,,49,,,,,,old,0,0.7692307692307693,,,,,,,,,,
null,,confidence_buffer,1336052,confidence_buffer,,null,,,,,,,,,,,,,,,,,,
null,,thebreak,1336553,break,,null,,,,,,,,,,,,,,,,,,
3721,,pt2_realistic_rating,1340275,Fictional_Cities_List/img_manmade_15.png,,49,Fictional_Cities_List/img_manmade_15.png,MM,1,,,,,,,,,,,,,,,
null,,confidence_buffer,1340377,confidence_buffer,,null,,,,,,,,,,,,,,,,,,
3578.4000000059605,,probe_rating,1343957,probe_rating,,49,,,,1,1,,,,,,,,,,,,,
null,,confidence_buffer,1344059,confidence_buffer,,null,,,,,,,,,,,,,,,,,,
3497.7999999970198,,pt2_unique_rating,1347558,Fictional_Cities_List/img_manmade_15.png,,50,,,2,,,,,,,,,,,,,,,
null,,confidence_buffer,1347660,confidence_buffer,,null,,,,,,,,,,,,,,,,,,
2552,,pt2_memorable_rating,1350213,Fictional_Cities_List/img_manmade_15.png,,49,,,1,,,,,,,,,,,,,,,
null,,confidence_buffer,1350315,confidence_buffer,,null,,,,,,,,,,,,,,,,,,
3236.10000000149,,recognition_phase,1353552,Fictional_Cities_List/img_manmade_15.png,,52,,,,,,new,1,0.7857142857142857,,,,,,,,,,
null,,confidence_buffer,1353654,confidence_buffer,,null,,,,,,,,,,,,,,,,,,
null,,thebreak,1354156,break,,null,,,,,,,,,,,,,,,,,,
5177.80000000447,,pt2_realistic_rating,1359335,US_Cities_List/nat_berkeleysprings.png,,50,US_Cities_List/nat_berkeleysprings.png,NAT,2,,,,,,,,,,,,,,,
null,,confidence_buffer,1359438,confidence_buffer,,null,,,,,,,,,,,,,,,,,,
4633.29999999702,,pt2_unique_rating,1364072,US_Cities_List/nat_berkeleysprings.png,,51,,,3,,,,,,,,,,,,,,,
null,,confidence_buffer,1364174,confidence_buffer,,null,,,,,,,,,,,,,,,,,,
4341.39999999851,,pt2_memorable_rating,1368517,US_Cities_List/nat_berkeleysprings.png,,49,,,1,,,,,,,,,,,,,,,
null,,confidence_buffer,1368618,confidence_buffer,,null,,,,,,,,,,,,,,,,,,
3548.2000000029802,,recognition_phase,1372168,US_Cities_List/nat_berkeleysprings.png,,52,,,,,,new,1,0.8,,,,,,,,,,
null,,confidence_buffer,1372270,confidence_buffer,,null,,,,,,,,,,,,,,,,,,
null,,thebreak,1372772,break,,null,,,,,,,,,,,,,,,,,,
5982.5,,pt2_realistic_rating,1378756,US_Cities_List/mm_abilene.png,,52,US_Cities_List/mm_abilene.png,MM,4,,,,,,,,,,,,,,,
null,,confidence_buffer,1378857,confidence_buffer,,null,,,,,,,,,,,,,,,,,,
6234,,pt2_unique_rating,1385092,US_Cities_List/mm_abilene.png,,53,,,5,,,,,,,,,,,,,,,
null,,confidence_buffer,1385194,confidence_buffer,,null,,,,,,,,,,,,,,,,,,
1908.2000000029802,,pt2_memorable_rating,1387104,US_Cities_List/mm_abilene.png,,51,,,3,,,,,,,,,,,,,,,
null,,confidence_buffer,1387205,confidence_buffer,,null,,,,,,,,,,,,,,,,,,
5951.5,,recognition_phase,1393158,US_Cities_List/mm_abilene.png,,52,,,,,,new,1,0.8125,,,,,,,,,,
null,,confidence_buffer,1393259,confidence_buffer,,null,,,,,,,,,,,,,,,,,,
null,,thebreak,1393761,break,,null,,,,,,,,,,,,,,,,,,
7381.70000000298,,pt2_realistic_rating,1401143,US_Cities_List/mm_huntsville.png,,50,US_Cities_List/mm_huntsville.png,MM,2,,,,,,,,,,,,,,,
null,,confidence_buffer,1401245,confidence_buffer,,null,,,,,,,,,,,,,,,,,,
3135.2000000029802,,pt2_unique_rating,1404381,US_Cities_List/mm_huntsville.png,,49,,,1,,,,,,,,,,,,,,,
null,,confidence_buffer,1404483,confidence_buffer,,null,,,,,,,,,,,,,,,,,,
1938.8000000044703,,pt2_memorable_rating,1406423,US_Cities_List/mm_huntsville.png,,51,,,3,,,,,,,,,,,,,,,
null,,confidence_buffer,1406526,confidence_buffer,,null,,,,,,,,,,,,,,,,,,
2752.7999999970198,,recognition_phase,1409280,US_Cities_List/mm_huntsville.png,,52,,,,,,new,1,0.8235294117647058,,,,,,,,,,
null,,confidence_buffer,1409382,confidence_buffer,,null,,,,,,,,,,,,,,,,,,
null,,thebreak,1409883,break,,null,,,,,,,,,,,,,,,,,,
9754.60000000149,,pt2_realistic_rating,1419638,Fictional_Cities_List/img_natural_05.png,,50,Fictional_Cities_List/img_natural_05.png,NAT,2,,,,,,,,,,,,,,,
null,,confidence_buffer,1419741,confidence_buffer,,null,,,,,,,,,,,,,,,,,,
1264.6000000014901,,pt2_unique_rating,1421006,Fictional_Cities_List/img_natural_05.png,,49,,,1,,,,,,,,,,,,,,,
null,,confidence_buffer,1421108,confidence_buffer,,null,,,,,,,,,,,,,,,,,,
1344.8999999985099,,pt2_memorable_rating,1422454,Fictional_Cities_List/img_natural_05.png,,51,,,3,,,,,,,,,,,,,,,
null,,confidence_buffer,1422556,confidence_buffer,,null,,,,,,,,,,,,,,,,,,
2973.8000000044703,,recognition_phase,1425531,Fictional_Cities_List/img_natural_05.png,,52,,,,,,new,0,0.7777777777777778,,,,,,,,,,
null,,confidence_buffer,1425633,confidence_buffer,,null,,,,,,,,,,,,,,,,,,
null,,thebreak,1426133,break,,null,,,,,,,,,,,,,,,,,,
5350.39999999851,,pt2_realistic_rating,1431485,Fictional_Cities_List/img_manmade_25.png,,51,Fictional_Cities_List/img_manmade_25.png,MM,3,,,,,,,,,,,,,,,
null,,confidence_buffer,1431587,confidence_buffer,,null,,,,,,,,,,,,,,,,,,
1012.8999999985099,,pt2_unique_rating,1432601,Fictional_Cities_List/img_manmade_25.png,,52,,,4,,,,,,,,,,,,,,,
null,,confidence_buffer,1432702,confidence_buffer,,null,,,,,,,,,,,,,,,,,,
2974.8000000044703,,pt2_memorable_rating,1435677,Fictional_Cities_List/img_manmade_25.png,,50,,,2,,,,,,,,,,,,,,,
null,,confidence_buffer,1435779,confidence_buffer,,null,,,,,,,,,,,,,,,,,,
2834.3000000044703,,recognition_phase,1438614,Fictional_Cities_List/img_manmade_25.png,,49,,,,,,old,1,0.7894736842105263,,,,,,,,,,
null,,confidence_buffer,1438716,confidence_buffer,,null,,,,,,,,,,,,,,,,,,
null,,thebreak,1439217,break,,null,,,,,,,,,,,,,,,,,,
9773.69999999553,,pt2_realistic_rating,1448992,US_Cities_List/mm_sisters.png,,52,US_Cities_List/mm_sisters.png,MM,4,,,,,,,,,,,,,,,
null,,confidence_buffer,1449094,confidence_buffer,,null,,,,,,,,,,,,,,,,,,
1696.2999999970198,,pt2_unique_rating,1450791,US_Cities_List/mm_sisters.png,,53,,,5,,,,,,,,,,,,,,,
null,,confidence_buffer,1450892,confidence_buffer,,null,,,,,,,,,,,,,,,,,,
3186,,pt2_memorable_rating,1454080,US_Cities_List/mm_sisters.png,,51,,,3,,,,,,,,,,,,,,,
null,,confidence_buffer,1454181,confidence_buffer,,null,,,,,,,,,,,,,,,,,,
3034,,recognition_phase,1457217,US_Cities_List/mm_sisters.png,,52,,,,,,new,1,0.8,,,,,,,,,,
null,,confidence_buffer,1457319,confidence_buffer,,null,,,,,,,,,,,,,,,,,,
null,,thebreak,1457820,break,,null,,,,,,,,,,,,,,,,,,
3207.5,,pt2_realistic_rating,1461029,Fictional_Cities_List/img_natural_24.png,,50,Fictional_Cities_List/img_natural_24.png,NAT,2,,,,,,,,,,,,,,,
null,,confidence_buffer,1461131,confidence_buffer,,null,,,,,,,,,,,,,,,,,,
3466.10000000149,,probe_rating,1464598,probe_rating,,53,,,,5,1,,,,,,,,,,,,,
null,,confidence_buffer,1464700,confidence_buffer,,null,,,,,,,,,,,,,,,,,,
4533,,pt2_unique_rating,1469234,Fictional_Cities_List/img_natural_24.png,,51,,,3,,,,,,,,,,,,,,,
null,,confidence_buffer,1469336,confidence_buffer,,null,,,,,,,,,,,,,,,,,,
3124.60000000149,,pt2_memorable_rating,1472462,Fictional_Cities_List/img_natural_24.png,,50,,,2,,,,,,,,,,,,,,,
null,,confidence_buffer,1472564,confidence_buffer,,null,,,,,,,,,,,,,,,,,,
5356.89999999851,,recognition_phase,1477922,Fictional_Cities_List/img_natural_24.png,,52,,,,,,new,0,0.7619047619047619,,,,,,,,,,
null,,confidence_buffer,1478023,confidence_buffer,,null,,,,,,,,,,,,,,,,,,
null,,thebreak,1478525,break,,null,,,,,,,,,,,,,,,,,,
3156.60000000149,,pt2_realistic_rating,1481682,Fictional_Cities_List/img_natural_27.png,,49,Fictional_Cities_List/img_natural_27.png,NAT,1,,,,,,,,,,,,,,,
null,,confidence_buffer,1481783,confidence_buffer,,null,,,,,,,,,,,,,,,,,,
1295.5,,pt2_unique_rating,1483080,Fictional_Cities_List/img_natural_27.png,,50,,,2,,,,,,,,,,,,,,,
null,,confidence_buffer,1483182,confidence_buffer,,null,,,,,,,,,,,,,,,,,,
4160.60000000149,,pt2_memorable_rating,1487344,Fictional_Cities_List/img_natural_27.png,,51,,,3,,,,,,,,,,,,,,,
null,,confidence_buffer,1487445,confidence_buffer,,null,,,,,,,,,,,,,,,,,,
3145.60000000149,,probe_rating,1490592,probe_rating,,53,,,,5,1,,,,,,,,,,,,,
null,,confidence_buffer,1490694,confidence_buffer,,null,,,,,,,,,,,,,,,,,,
4905.4000000059605,,recognition_phase,1495600,Fictional_Cities_List/img_natural_27.png,,52,,,,,,new,1,0.7727272727272727,,,,,,,,,,
null,,confidence_buffer,1495701,confidence_buffer,,null,,,,,,,,,,,,,,,,,,
null,,thebreak,1496203,break,,null,,,,,,,,,,,,,,,,,,
9099.70000000298,,pt2_realistic_rating,1505304,Fictional_Cities_List/img_natural_34.png,,50,Fictional_Cities_List/img_natural_34.png,NAT,2,,,,,,,,,,,,,,,
null,,confidence_buffer,1505406,confidence_buffer,,null,,,,,,,,,,,,,,,,,,
1003.8999999985099,,pt2_unique_rating,1506411,Fictional_Cities_List/img_natural_34.png,,49,,,1,,,,,,,,,,,,,,,
null,,confidence_buffer,1506513,confidence_buffer,,null,,,,,,,,,,,,,,,,,,
1696.2000000029802,,pt2_memorable_rating,1508210,Fictional_Cities_List/img_natural_34.png,,51,,,3,,,,,,,,,,,,,,,
null,,confidence_buffer,1508312,confidence_buffer,,null,,,,,,,,,,,,,,,,,,
3266.39999999851,,recognition_phase,1511580,Fictional_Cities_List/img_natural_34.png,,52,,,,,,new,1,0.782608695652174,,,,,,,,,,
null,,confidence_buffer,1511681,confidence_buffer,,null,,,,,,,,,,,,,,,,,,
null,,thebreak,1512184,break,,null,,,,,,,,,,,,,,,,,,
5197.29999999702,,pt2_realistic_rating,1517382,US_Cities_List/mm_watkinsglen.png,,52,US_Cities_List/mm_watkinsglen.png,MM,4,,,,,,,,,,,,,,,
null,,confidence_buffer,1517484,confidence_buffer,,null,,,,,,,,,,,,,,,,,,
1093.7000000029802,,pt2_unique_rating,1518579,US_Cities_List/mm_watkinsglen.png,,53,,,5,,,,,,,,,,,,,,,
null,,confidence_buffer,1518681,confidence_buffer,,null,,,,,,,,,,,,,,,,,,
3144.89999999851,,pt2_memorable_rating,1521827,US_Cities_List/mm_watkinsglen.png,,51,,,3,,,,,,,,,,,,,,,
null,,confidence_buffer,1521929,confidence_buffer,,null,,,,,,,,,,,,,,,,,,
2994.60000000149,,recognition_phase,1524925,US_Cities_List/mm_watkinsglen.png,,49,,,,,,old,1,0.7916666666666666,,,,,,,,,,
null,,confidence_buffer,1525026,confidence_buffer,,null,,,,,,,,,,,,,,,,,,
null,,thebreak,1525528,break,,null,,,,,,,,,,,,,,,,,,
4635.39999999851,,pt2_realistic_rating,1530164,Fictional_Cities_List/img_natural_21.png,,50,Fictional_Cities_List/img_natural_21.png,NAT,2,,,,,,,,,,,,,,,
null,,confidence_buffer,1530271,confidence_buffer,,null,,,,,,,,,,,,,,,,,,
4286.39999999851,,pt2_unique_rating,1534558,Fictional_Cities_List/img_natural_21.png,,51,,,3,,,,,,,,,,,,,,,
null,,confidence_buffer,1534660,confidence_buffer,,null,,,,,,,,,,,,,,,,,,
3305.2000000029802,,pt2_memorable_rating,1537967,Fictional_Cities_List/img_natural_21.png,,50,,,2,,,,,,,,,,,,,,,
null,,confidence_buffer,1538068,confidence_buffer,,null,,,,,,,,,,,,,,,,,,
3687.8000000044703,,recognition_phase,1541757,Fictional_Cities_List/img_natural_21.png,,52,,,,,,new,1,0.8,,,,,,,,,,
null,,confidence_buffer,1541859,confidence_buffer,,null,,,,,,,,,,,,,,,,,,
null,,thebreak,1542361,break,,null,,,,,,,,,,,,,,,,,,
6435,,pt2_realistic_rating,1548797,Fictional_Cities_List/img_manmade_21.png,,49,Fictional_Cities_List/img_manmade_21.png,MM,1,,,,,,,,,,,,,,,
null,,confidence_buffer,1548898,confidence_buffer,,null,,,,,,,,,,,,,,,,,,
1415.2999999970198,,pt2_unique_rating,1550315,Fictional_Cities_List/img_manmade_21.png,,50,,,2,,,,,,,,,,,,,,,
null,,confidence_buffer,1550416,confidence_buffer,,null,,,,,,,,,,,,,,,,,,
3426.3000000044703,,pt2_memorable_rating,1553844,Fictional_Cities_List/img_manmade_21.png,,49,,,1,,,,,,,,,,,,,,,
null,,confidence_buffer,1553946,confidence_buffer,,null,,,,,,,,,,,,,,,,,,
2349.39999999851,,recognition_phase,1556297,Fictional_Cities_List/img_manmade_21.png,,49,,,,,,old,1,0.8076923076923077,,,,,,,,,,
null,,confidence_buffer,1556398,confidence_buffer,,null,,,,,,,,,,,,,,,,,,
null,,thebreak,1556900,break,,null,,,,,,,,,,,,,,,,,,
4403.60000000149,,pt2_realistic_rating,1561305,Fictional_Cities_List/img_manmade_01.png,,51,Fictional_Cities_List/img_manmade_01.png,MM,3,,,,,,,,,,,,,,,
null,,confidence_buffer,1561406,confidence_buffer,,null,,,,,,,,,,,,,,,,,,
2370.89999999851,,pt2_unique_rating,1563778,Fictional_Cities_List/img_manmade_01.png,,50,,,2,,,,,,,,,,,,,,,
null,,confidence_buffer,1563880,confidence_buffer,,null,,,,,,,,,,,,,,,,,,
9249.29999999702,,pt2_memorable_rating,1573131,Fictional_Cities_List/img_manmade_01.png,,52,,,4,,,,,,,,,,,,,,,
null,,confidence_buffer,1573234,confidence_buffer,,null,,,,,,,,,,,,,,,,,,
3646.10000000149,,recognition_phase,1576881,Fictional_Cities_List/img_manmade_01.png,,52,,,,,,new,1,0.8148148148148148,,,,,,,,,,
null,,confidence_buffer,1576985,confidence_buffer,,null,,,,,,,,,,,,,,,,,,
null,,thebreak,1577487,break,,null,,,,,,,,,,,,,,,,,,
5156,,pt2_realistic_rating,1582645,Fictional_Cities_List/img_manmade_24.png,,52,Fictional_Cities_List/img_manmade_24.png,MM,4,,,,,,,,,,,,,,,
null,,confidence_buffer,1582748,confidence_buffer,,null,,,,,,,,,,,,,,,,,,
1676.6000000014901,,pt2_unique_rating,1584425,Fictional_Cities_List/img_manmade_24.png,,53,,,5,,,,,,,,,,,,,,,
null,,confidence_buffer,1584528,confidence_buffer,,null,,,,,,,,,,,,,,,,,,
3155.3000000044703,,pt2_memorable_rating,1587684,Fictional_Cities_List/img_manmade_24.png,,51,,,3,,,,,,,,,,,,,,,
null,,confidence_buffer,1587801,confidence_buffer,,null,,,,,,,,,,,,,,,,,,
3584.2000000029802,,recognition_phase,1591386,Fictional_Cities_List/img_manmade_24.png,,52,,,,,,new,1,0.8214285714285714,,,,,,,,,,
null,,confidence_buffer,1591488,confidence_buffer,,null,,,,,,,,,,,,,,,,,,
null,,thebreak,1591991,break,,null,,,,,,,,,,,,,,,,,,
9072.5,,pt2_realistic_rating,1601065,Fictional_Cities_List/img_manmade_36.png,,52,Fictional_Cities_List/img_manmade_36.png,MM,4,,,,,,,,,,,,,,,
null,,confidence_buffer,1601166,confidence_buffer,,null,,,,,,,,,,,,,,,,,,
882.6000000014901,,pt2_unique_rating,1602050,Fictional_Cities_List/img_manmade_36.png,,51,,,3,,,,,,,,,,,,,,,
null,,confidence_buffer,1602153,confidence_buffer,,null,,,,,,,,,,,,,,,,,,
1385,,pt2_memorable_rating,1603539,Fictional_Cities_List/img_manmade_36.png,,53,,,5,,,,,,,,,,,,,,,
null,,confidence_buffer,1603641,confidence_buffer,,null,,,,,,,,,,,,,,,,,,
3941.5999999940395,,recognition_phase,1607584,Fictional_Cities_List/img_manmade_36.png,,52,,,,,,new,1,0.8275862068965517,,,,,,,,,,
null,,confidence_buffer,1607686,confidence_buffer,,null,,,,,,,,,,,,,,,,,,
null,,thebreak,1608187,break,,null,,,,,,,,,,,,,,,,,,
4849.5,,pt2_realistic_rating,1613038,Fictional_Cities_List/img_manmade_27.png,,49,Fictional_Cities_List/img_manmade_27.png,MM,1,,,,,,,,,,,,,,,
null,,confidence_buffer,1613140,confidence_buffer,,null,,,,,,,,,,,,,,,,,,
1928.6000000014901,,pt2_unique_rating,1615070,Fictional_Cities_List/img_manmade_27.png,,50,,,2,,,,,,,,,,,,,,,
null,,confidence_buffer,1615172,confidence_buffer,,null,,,,,,,,,,,,,,,,,,
1325.3999999985099,,pt2_memorable_rating,1616499,Fictional_Cities_List/img_manmade_27.png,,51,,,3,,,,,,,,,,,,,,,
null,,confidence_buffer,1616600,confidence_buffer,,null,,,,,,,,,,,,,,,,,,
3811.5,,recognition_phase,1620413,Fictional_Cities_List/img_manmade_27.png,,52,,,,,,new,1,0.8333333333333334,,,,,,,,,,
null,,confidence_buffer,1620515,confidence_buffer,,null,,,,,,,,,,,,,,,,,,
null,,thebreak,1621016,break,,null,,,,,,,,,,,,,,,,,,
10553.80000000447,,pt2_realistic_rating,1631571,Fictional_Cities_List/img_manmade_02.png,,51,Fictional_Cities_List/img_manmade_02.png,MM,3,,,,,,,,,,,,,,,
null,,confidence_buffer,1631672,confidence_buffer,,null,,,,,,,,,,,,,,,,,,
2060.2999999970198,,pt2_unique_rating,1633734,Fictional_Cities_List/img_manmade_02.png,,50,,,2,,,,,,,,,,,,,,,
null,,confidence_buffer,1633836,confidence_buffer,,null,,,,,,,,,,,,,,,,,,
3740,,pt2_memorable_rating,1637577,Fictional_Cities_List/img_manmade_02.png,,51,,,3,,,,,,,,,,,,,,,
null,,confidence_buffer,1637678,confidence_buffer,,null,,,,,,,,,,,,,,,,,,
3760.5,,recognition_phase,1641440,Fictional_Cities_List/img_manmade_02.png,,52,,,,,,new,1,0.8387096774193549,,,,,,,,,,
null,,confidence_buffer,1641542,confidence_buffer,,null,,,,,,,,,,,,,,,,,,
null,,thebreak,1642048,break,,null,,,,,,,,,,,,,,,,,,
8022.5999999940395,,pt2_realistic_rating,1650072,US_Cities_List/mm_yukon.png,,52,US_Cities_List/mm_yukon.png,MM,4,,,,,,,,,,,,,,,
null,,confidence_buffer,1650174,confidence_buffer,,null,,,,,,,,,,,,,,,,,,
1526.6000000014901,,pt2_unique_rating,1651702,US_Cities_List/mm_yukon.png,,51,,,3,,,,,,,,,,,,,,,
null,,confidence_buffer,1651803,confidence_buffer,,null,,,,,,,,,,,,,,,,,,
2985.6999999955297,,pt2_memorable_rating,1654790,US_Cities_List/mm_yukon.png,,52,,,4,,,,,,,,,,,,,,,
null,,confidence_buffer,1654893,confidence_buffer,,null,,,,,,,,,,,,,,,,,,
3709,,recognition_phase,1658603,US_Cities_List/mm_yukon.png,,49,,,,,,old,1,0.84375,,,,,,,,,,
null,,confidence_buffer,1658705,confidence_buffer,,null,,,,,,,,,,,,,,,,,,
null,,thebreak,1659207,break,,null,,,,,,,,,,,,,,,,,,
6398.30000000447,,pt2_realistic_rating,1665606,US_Cities_List/nat_gatlinburg.png,,51,US_Cities_List/nat_gatlinburg.png,NAT,3,,,,,,,,,,,,,,,
null,,confidence_buffer,1665708,confidence_buffer,,null,,,,,,,,,,,,,,,,,,
962.8999999985099,,pt2_unique_rating,1666672,US_Cities_List/nat_gatlinburg.png,,52,,,4,,,,,,,,,,,,,,,
null,,confidence_buffer,1666774,confidence_buffer,,null,,,,,,,,,,,,,,,,,,
1899.1000000014901,,pt2_memorable_rating,1668674,US_Cities_List/nat_gatlinburg.png,,50,,,2,,,,,,,,,,,,,,,
null,,confidence_buffer,1668775,confidence_buffer,,null,,,,,,,,,,,,,,,,,,
2372.5999999940395,,recognition_phase,1671149,US_Cities_List/nat_gatlinburg.png,,49,,,,,,old,1,0.8484848484848485,,,,,,,,,,
null,,confidence_buffer,1671252,confidence_buffer,,null,,,,,,,,,,,,,,,,,,
null,,thebreak,1671754,break,,null,,,,,,,,,,,,,,,,,,
3417.89999999851,,pt2_realistic_rating,1675173,Fictional_Cities_List/img_natural_02.png,,51,Fictional_Cities_List/img_natural_02.png,NAT,3,,,,,,,,,,,,,,,
null,,confidence_buffer,1675274,confidence_buffer,,null,,,,,,,,,,,,,,,,,,
1829.3999999985099,,pt2_unique_rating,1677105,Fictional_Cities_List/img_natural_02.png,,52,,,4,,,,,,,,,,,,,,,
null,,confidence_buffer,1677206,confidence_buffer,,null,,,,,,,,,,,,,,,,,,
1355.5,,pt2_memorable_rating,1678563,Fictional_Cities_List/img_natural_02.png,,50,,,2,,,,,,,,,,,,,,,
null,,confidence_buffer,1678664,confidence_buffer,,null,,,,,,,,,,,,,,,,,,
2341.6999999955297,,recognition_phase,1681007,Fictional_Cities_List/img_natural_02.png,,49,,,,,,old,1,0.8529411764705882,,,,,,,,,,
null,,confidence_buffer,1681109,confidence_buffer,,null,,,,,,,,,,,,,,,,,,
null,,thebreak,1681610,break,,null,,,,,,,,,,,,,,,,,,
3529.89999999851,,pt2_realistic_rating,1685141,US_Cities_List/nat_boulder.png,,52,US_Cities_List/nat_boulder.png,NAT,4,,,,,,,,,,,,,,,
null,,confidence_buffer,1685243,confidence_buffer,,null,,,,,,,,,,,,,,,,,,
3277.1999999955297,,pt2_unique_rating,1688522,US_Cities_List/nat_boulder.png,,53,,,5,,,,,,,,,,,,,,,
null,,confidence_buffer,1688624,confidence_buffer,,null,,,,,,,,,,,,,,,,,,
841.7999999970198,,pt2_memorable_rating,1689467,US_Cities_List/nat_boulder.png,,51,,,3,,,,,,,,,,,,,,,
null,,confidence_buffer,1689569,confidence_buffer,,null,,,,,,,,,,,,,,,,,,
2431,,probe_rating,1692002,probe_rating,,49,,,,1,1,,,,,,,,,,,,,
null,,confidence_buffer,1692104,confidence_buffer,,null,,,,,,,,,,,,,,,,,,
4936.69999999553,,recognition_phase,1697042,US_Cities_List/nat_boulder.png,,49,,,,,,old,1,0.8571428571428571,,,,,,,,,,
null,,confidence_buffer,1697143,confidence_buffer,,null,,,,,,,,,,,,,,,,,,
null,,thebreak,1697644,break,,null,,,,,,,,,,,,,,,,,,
4427,,pt2_realistic_rating,1702073,Fictional_Cities_List/img_manmade_08.png,,51,Fictional_Cities_List/img_manmade_08.png,MM,3,,,,,,,,,,,,,,,
null,,confidence_buffer,1702174,confidence_buffer,,null,,,,,,,,,,,,,,,,,,
1798.1999999955297,,pt2_unique_rating,1703974,Fictional_Cities_List/img_manmade_08.png,,50,,,2,,,,,,,,,,,,,,,
null,,confidence_buffer,1704077,confidence_buffer,,null,,,,,,,,,,,,,,,,,,
1334.1000000014901,,pt2_memorable_rating,1705412,Fictional_Cities_List/img_manmade_08.png,,52,,,4,,,,,,,,,,,,,,,
null,,confidence_buffer,1705515,confidence_buffer,,null,,,,,,,,,,,,,,,,,,
5942.10000000149,,recognition_phase,1711458,Fictional_Cities_List/img_manmade_08.png,,52,,,,,,new,0,0.8333333333333334,,,,,,,,,,
null,,confidence_buffer,1711560,confidence_buffer,,null,,,,,,,,,,,,,,,,,,
null,,thebreak,1712061,break,,null,,,,,,,,,,,,,,,,,,
9485.39999999851,,pt2_realistic_rating,1721548,Fictional_Cities_List/img_manmade_49.png,,52,Fictional_Cities_List/img_manmade_49.png,MM,4,,,,,,,,,,,,,,,
null,,confidence_buffer,1721650,confidence_buffer,,null,,,,,,,,,,,,,,,,,,
2592.2000000029802,,probe_rating,1724244,probe_rating,,49,,,,1,1,,,,,,,,,,,,,
null,,confidence_buffer,1724346,confidence_buffer,,null,,,,,,,,,,,,,,,,,,
2381.60000000149,,pt2_unique_rating,1726728,Fictional_Cities_List/img_manmade_49.png,,51,,,3,,,,,,,,,,,,,,,
null,,confidence_buffer,1726830,confidence_buffer,,null,,,,,,,,,,,,,,,,,,
1375.6999999955297,,pt2_memorable_rating,1728207,Fictional_Cities_List/img_manmade_49.png,,52,,,4,,,,,,,,,,,,,,,
null,,confidence_buffer,1728308,confidence_buffer,,null,,,,,,,,,,,,,,,,,,
4032.39999999851,,recognition_phase,1732342,Fictional_Cities_List/img_manmade_49.png,,52,,,,,,new,0,0.8108108108108109,,,,,,,,,,
null,,confidence_buffer,1732444,confidence_buffer,,null,,,,,,,,,,,,,,,,,,
null,,thebreak,1732945,break,,null,,,,,,,,,,,,,,,,,,
11075.59999999404,,pt2_realistic_rating,1744022,Fictional_Cities_List/img_natural_18.png,,50,Fictional_Cities_List/img_natural_18.png,NAT,2,,,,,,,,,,,,,,,
null,,confidence_buffer,1744123,confidence_buffer,,null,,,,,,,,,,,,,,,,,,
2321.5,,pt2_unique_rating,1746446,Fictional_Cities_List/img_natural_18.png,,51,,,3,,,,,,,,,,,,,,,
null,,confidence_buffer,1746548,confidence_buffer,,null,,,,,,,,,,,,,,,,,,
1727.3999999985099,,pt2_memorable_rating,1748277,Fictional_Cities_List/img_natural_18.png,,49,,,1,,,,,,,,,,,,,,,
null,,confidence_buffer,1748379,confidence_buffer,,null,,,,,,,,,,,,,,,,,,
3246.8000000044703,,recognition_phase,1751627,Fictional_Cities_List/img_natural_18.png,,52,,,,,,new,1,0.8157894736842105,,,,,,,,,,
null,,confidence_buffer,1751728,confidence_buffer,,null,,,,,,,,,,,,,,,,,,
null,,thebreak,1752229,break,,null,,,,,,,,,,,,,,,,,,
4749.20000000298,,pt2_realistic_rating,1756979,US_Cities_List/nat_duck.png,,52,US_Cities_List/nat_duck.png,NAT,4,,,,,,,,,,,,,,,
null,,confidence_buffer,1757081,confidence_buffer,,null,,,,,,,,,,,,,,,,,,
1535.8999999985099,,pt2_unique_rating,1758619,US_Cities_List/nat_duck.png,,51,,,3,,,,,,,,,,,,,,,
null,,confidence_buffer,1758721,confidence_buffer,,null,,,,,,,,,,,,,,,,,,
3135.60000000149,,probe_rating,1761858,probe_rating,,51,,,,3,1,,,,,,,,,,,,,
null,,confidence_buffer,1761960,confidence_buffer,,null,,,,,,,,,,,,,,,,,,
5862.30000000447,,pt2_memorable_rating,1767823,US_Cities_List/nat_duck.png,,52,,,4,,,,,,,,,,,,,,,
null,,confidence_buffer,1767925,confidence_buffer,,null,,,,,,,,,,,,,,,,,,
2371.10000000149,,recognition_phase,1770298,US_Cities_List/nat_duck.png,,49,,,,,,old,1,0.8205128205128205,,,,,,,,,,
null,,confidence_buffer,1770400,confidence_buffer,,null,,,,,,,,,,,,,,,,,,
null,,thebreak,1770902,break,,null,,,,,,,,,,,,,,,,,,
3861.5,,pt2_realistic_rating,1774764,Fictional_Cities_List/img_natural_49.png,,52,Fictional_Cities_List/img_natural_49.png,NAT,4,,,,,,,,,,,,,,,
null,,confidence_buffer,1774867,confidence_buffer,,null,,,,,,,,,,,,,,,,,,
2089.39999999851,,pt2_unique_rating,1776958,Fictional_Cities_List/img_natural_49.png,,51,,,3,,,,,,,,,,,,,,,
null,,confidence_buffer,1777060,confidence_buffer,,null,,,,,,,,,,,,,,,,,,
3458.5,,pt2_memorable_rating,1780520,Fictional_Cities_List/img_natural_49.png,,53,,,5,,,,,,,,,,,,,,,
null,,confidence_buffer,1780621,confidence_buffer,,null,,,,,,,,,,,,,,,,,,
4685.39999999851,,recognition_phase,1785308,Fictional_Cities_List/img_natural_49.png,,52,,,,,,new,0,0.8,,,,,,,,,,
null,,confidence_buffer,1785410,confidence_buffer,,null,,,,,,,,,,,,,,,,,,
null,,thebreak,1785912,break,,null,,,,,,,,,,,,,,,,,,
6336.30000000447,,pt2_realistic_rating,1792249,US_Cities_List/mm_natchez.png,,50,US_Cities_List/mm_natchez.png,MM,2,,,,,,,,,,,,,,,
null,,confidence_buffer,1792352,confidence_buffer,,null,,,,,,,,,,,,,,,,,,
2662.10000000149,,probe_rating,1795015,probe_rating,,50,,,,2,1,,,,,,,,,,,,,
null,,confidence_buffer,1795117,confidence_buffer,,null,,,,,,,,,,,,,,,,,,
1607.6999999955297,,pt2_unique_rating,1796726,US_Cities_List/mm_natchez.png,,51,,,3,,,,,,,,,,,,,,,
null,,confidence_buffer,1796828,confidence_buffer,,null,,,,,,,,,,,,,,,,,,
1124.2000000029802,,pt2_memorable_rating,1797953,US_Cities_List/mm_natchez.png,,49,,,1,,,,,,,,,,,,,,,
null,,confidence_buffer,1798055,confidence_buffer,,null,,,,,,,,,,,,,,,,,,
1918.3999999985099,,recognition_phase,1799975,US_Cities_List/mm_natchez.png,,49,,,,,,old,1,0.8048780487804879,,,,,,,,,,
null,,confidence_buffer,1800080,confidence_buffer,,null,,,,,,,,,,,,,,,,,,
null,,thebreak,1800581,break,,null,,,,,,,,,,,,,,,,,,
4019.7999999970198,,pt2_realistic_rating,1804602,US_Cities_List/mm_newhope.png,,52,US_Cities_List/mm_newhope.png,MM,4,,,,,,,,,,,,,,,
null,,confidence_buffer,1804704,confidence_buffer,,null,,,,,,,,,,,,,,,,,,
2653.60000000149,,probe_rating,1807359,probe_rating,,51,,,,3,1,,,,,,,,,,,,,
null,,confidence_buffer,1807462,confidence_buffer,,null,,,,,,,,,,,,,,,,,,
6373.89999999851,,pt2_unique_rating,1813837,US_Cities_List/mm_newhope.png,,52,,,4,,,,,,,,,,,,,,,
null,,confidence_buffer,1813939,confidence_buffer,,null,,,,,,,,,,,,,,,,,,
1979.8999999985099,,pt2_memorable_rating,1815920,US_Cities_List/mm_newhope.png,,53,,,5,,,,,,,,,,,,,,,
null,,confidence_buffer,1816022,confidence_buffer,,null,,,,,,,,,,,,,,,,,,
5350,,recognition_phase,1821373,US_Cities_List/mm_newhope.png,,52,,,,,,new,1,0.8095238095238095,,,,,,,,,,
null,,confidence_buffer,1821475,confidence_buffer,,null,,,,,,,,,,,,,,,,,,
null,,thebreak,1821976,break,,null,,,,,,,,,,,,,,,,,,
2946.5,,pt2_realistic_rating,1824924,US_Cities_List/mm_albuquerque.png,,52,US_Cities_List/mm_albuquerque.png,MM,4,,,,,,,,,,,,,,,
null,,confidence_buffer,1825026,confidence_buffer,,null,,,,,,,,,,,,,,,,,,
984.1999999955297,,pt2_unique_rating,1826011,US_Cities_List/mm_albuquerque.png,,51,,,3,,,,,,,,,,,,,,,
null,,confidence_buffer,1826113,confidence_buffer,,null,,,,,,,,,,,,,,,,,,
2653.5,,pt2_memorable_rating,1828768,US_Cities_List/mm_albuquerque.png,,52,,,4,,,,,,,,,,,,,,,
null,,confidence_buffer,1828870,confidence_buffer,,null,,,,,,,,,,,,,,,,,,
2402.10000000149,,recognition_phase,1831274,US_Cities_List/mm_albuquerque.png,,52,,,,,,new,1,0.813953488372093,,,,,,,,,,
null,,confidence_buffer,1831381,confidence_buffer,,null,,,,,,,,,,,,,,,,,,
null,,thebreak,1831883,break,,null,,,,,,,,,,,,,,,,,,
4963.39999999851,,pt2_realistic_rating,1836848,Fictional_Cities_List/img_natural_01.png,,52,Fictional_Cities_List/img_natural_01.png,NAT,4,,,,,,,,,,,,,,,
null,,confidence_buffer,1836950,confidence_buffer,,null,,,,,,,,,,,,,,,,,,
1416,,pt2_unique_rating,1838367,Fictional_Cities_List/img_natural_01.png,,53,,,5,,,,,,,,,,,,,,,
null,,confidence_buffer,1838469,confidence_buffer,,null,,,,,,,,,,,,,,,,,,
2421.5,,pt2_memorable_rating,1840892,Fictional_Cities_List/img_natural_01.png,,51,,,3,,,,,,,,,,,,,,,
null,,confidence_buffer,1840994,confidence_buffer,,null,,,,,,,,,,,,,,,,,,
3720.1999999955297,,recognition_phase,1844715,Fictional_Cities_List/img_natural_01.png,,49,,,,,,old,1,0.8181818181818182,,,,,,,,,,
null,,confidence_buffer,1844817,confidence_buffer,,null,,,,,,,,,,,,,,,,,,
null,,thebreak,1845319,break,,null,,,,,,,,,,,,,,,,,,
8340.79999999702,,pt2_realistic_rating,1853661,Fictional_Cities_List/img_manmade_05.png,,50,Fictional_Cities_List/img_manmade_05.png,MM,2,,,,,,,,,,,,,,,
null,,confidence_buffer,1853763,confidence_buffer,,null,,,,,,,,,,,,,,,,,,
821.7999999970198,,pt2_unique_rating,1854586,Fictional_Cities_List/img_manmade_05.png,,49,,,1,,,,,,,,,,,,,,,
null,,confidence_buffer,1854688,confidence_buffer,,null,,,,,,,,,,,,,,,,,,
1135.2000000029802,,pt2_memorable_rating,1855824,Fictional_Cities_List/img_manmade_05.png,,51,,,3,,,,,,,,,,,,,,,
null,,confidence_buffer,1855927,confidence_buffer,,null,,,,,,,,,,,,,,,,,,
2693.60000000149,,recognition_phase,1858621,Fictional_Cities_List/img_manmade_05.png,,52,,,,,,new,1,0.8222222222222222,,,,,,,,,,
null,,confidence_buffer,1858723,confidence_buffer,,null,,,,,,,,,,,,,,,,,,
null,,thebreak,1859225,break,,null,,,,,,,,,,,,,,,,,,
4878.9000000059605,,pt2_realistic_rating,1864105,US_Cities_List/nat_albuquerque.png,,52,US_Cities_List/nat_albuquerque.png,NAT,4,,,,,,,,,,,,,,,
null,,confidence_buffer,1864217,confidence_buffer,,null,,,,,,,,,,,,,,,,,,
852,,pt2_unique_rating,1865071,US_Cities_List/nat_albuquerque.png,,53,,,5,,,,,,,,,,,,,,,
null,,confidence_buffer,1865172,confidence_buffer,,null,,,,,,,,,,,,,,,,,,
1598.5,,pt2_memorable_rating,1866772,US_Cities_List/nat_albuquerque.png,,51,,,3,,,,,,,,,,,,,,,
null,,confidence_buffer,1866874,confidence_buffer,,null,,,,,,,,,,,,,,,,,,
3196.2999999970198,,recognition_phase,1870072,US_Cities_List/nat_albuquerque.png,,52,,,,,,new,1,0.8260869565217391,,,,,,,,,,
null,,confidence_buffer,1870174,confidence_buffer,,null,,,,,,,,,,,,,,,,,,
null,,thebreak,1870675,break,,null,,,,,,,,,,,,,,,,,,
3430.60000000149,,pt2_realistic_rating,1874107,Fictional_Cities_List/img_manmade_06.png,,52,Fictional_Cities_List/img_manmade_06.png,MM,4,,,,,,,,,,,,,,,
null,,confidence_buffer,1874209,confidence_buffer,,null,,,,,,,,,,,,,,,,,,
1326,,pt2_unique_rating,1875536,Fictional_Cities_List/img_manmade_06.png,,53,,,5,,,,,,,,,,,,,,,
null,,confidence_buffer,1875646,confidence_buffer,,null,,,,,,,,,,,,,,,,,,
984.7000000029802,,pt2_memorable_rating,1876632,Fictional_Cities_List/img_manmade_06.png,,51,,,3,,,,,,,,,,,,,,,
null,,confidence_buffer,1876734,confidence_buffer,,null,,,,,,,,,,,,,,,,,,
2876,,recognition_phase,1879611,Fictional_Cities_List/img_manmade_06.png,,49,,,,,,old,1,0.8297872340425532,,,,,,,,,,
null,,confidence_buffer,1879714,confidence_buffer,,null,,,,,,,,,,,,,,,,,,
null,,thebreak,1880216,break,,null,,,,,,,,,,,,,,,,,,
3519,,pt2_realistic_rating,1883736,Fictional_Cities_List/img_natural_06.png,,50,Fictional_Cities_List/img_natural_06.png,NAT,2,,,,,,,,,,,,,,,
null,,confidence_buffer,1883837,confidence_buffer,,null,,,,,,,,,,,,,,,,,,
1014.1999999955297,,pt2_unique_rating,1884853,Fictional_Cities_List/img_natural_06.png,,49,,,1,,,,,,,,,,,,,,,
null,,confidence_buffer,1884954,confidence_buffer,,null,,,,,,,,,,,,,,,,,,
1235.5,,pt2_memorable_rating,1886191,Fictional_Cities_List/img_natural_06.png,,51,,,3,,,,,,,,,,,,,,,
null,,confidence_buffer,1886292,confidence_buffer,,null,,,,,,,,,,,,,,,,,,
2734.8000000044703,,probe_rating,1889028,probe_rating,,52,,,,4,1,,,,,,,,,,,,,
null,,confidence_buffer,1889131,confidence_buffer,,null,,,,,,,,,,,,,,,,,,
2009.2999999970198,,recognition_phase,1891141,Fictional_Cities_List/img_natural_06.png,,49,,,,,,old,1,0.8333333333333334,,,,,,,,,,
null,,confidence_buffer,1891244,confidence_buffer,,null,,,,,,,,,,,,,,,,,,
null,,thebreak,1891745,break,,null,,,,,,,,,,,,,,,,,,
4264.60000000149,,pt2_realistic_rating,1896011,US_Cities_List/nat_delawarecity.png,,52,US_Cities_List/nat_delawarecity.png,NAT,4,,,,,,,,,,,,,,,
null,,confidence_buffer,1896113,confidence_buffer,,null,,,,,,,,,,,,,,,,,,
2814.3000000044703,,probe_rating,1898929,probe_rating,,52,,,,4,1,,,,,,,,,,,,,
null,,confidence_buffer,1899031,confidence_buffer,,null,,,,,,,,,,,,,,,,,,
4706.60000000149,,pt2_unique_rating,1903739,US_Cities_List/nat_delawarecity.png,,53,,,5,,,,,,,,,,,,,,,
null,,confidence_buffer,1903840,confidence_buffer,,null,,,,,,,,,,,,,,,,,,
923.2999999970198,,pt2_memorable_rating,1904765,US_Cities_List/nat_delawarecity.png,,52,,,4,,,,,,,,,,,,,,,
null,,confidence_buffer,1904875,confidence_buffer,,null,,,,,,,,,,,,,,,,,,
2112.7000000029802,,recognition_phase,1906989,US_Cities_List/nat_delawarecity.png,,49,,,,,,old,1,0.8367346938775511,,,,,,,,,,
null,,confidence_buffer,1907090,confidence_buffer,,null,,,,,,,,,,,,,,,,,,
null,,thebreak,1907592,break,,null,,,,,,,,,,,,,,,,,,
7979.70000000298,,pt2_realistic_rating,1915573,US_Cities_List/nat_cleveland.png,,52,US_Cities_List/nat_cleveland.png,NAT,4,,,,,,,,,,,,,,,
null,,confidence_buffer,1915675,confidence_buffer,,null,,,,,,,,,,,,,,,,,,
1355.2000000029802,,pt2_unique_rating,1917031,US_Cities_List/nat_cleveland.png,,53,,,5,,,,,,,,,,,,,,,
null,,confidence_buffer,1917133,confidence_buffer,,null,,,,,,,,,,,,,,,,,,
1174.6000000014901,,pt2_memorable_rating,1918309,US_Cities_List/nat_cleveland.png,,51,,,3,,,,,,,,,,,,,,,
null,,confidence_buffer,1918411,confidence_buffer,,null,,,,,,,,,,,,,,,,,,
68.39999999850988,,recognition_phase,1918480,US_Cities_List/nat_cleveland.png,,51,,,,,,new,1,0.84,,,,,,,,,,
null,,confidence_buffer,1918582,confidence_buffer,,null,,,,,,,,,,,,,,,,,,
null,,thebreak,1919083,break,,null,,,,,,,,,,,,,,,,,,
8773.90000000596,,pt2_realistic_rating,1927858,Fictional_Cities_List/img_manmade_34.png,,52,Fictional_Cities_List/img_manmade_34.png,MM,4,,,,,,,,,,,,,,,
null,,confidence_buffer,1927959,confidence_buffer,,null,,,,,,,,,,,,,,,,,,
1899,,pt2_unique_rating,1929860,Fictional_Cities_List/img_manmade_34.png,,53,,,5,,,,,,,,,,,,,,,
null,,confidence_buffer,1929961,confidence_buffer,,null,,,,,,,,,,,,,,,,,,
2866.2000000029802,,pt2_memorable_rating,1932828,Fictional_Cities_List/img_manmade_34.png,,51,,,3,,,,,,,,,,,,,,,
null,,confidence_buffer,1932931,confidence_buffer,,null,,,,,,,,,,,,,,,,,,
2430.9000000059605,,recognition_phase,1935363,Fictional_Cities_List/img_manmade_34.png,,49,,,,,,old,1,0.8431372549019608,,,,,,,,,,
null,,confidence_buffer,1935471,confidence_buffer,,null,,,,,,,,,,,,,,,,,,
null,,thebreak,1935972,break,,null,,,,,,,,,,,,,,,,,,
5004.39999999851,,pt2_realistic_rating,1940978,US_Cities_List/mm_athens.png,,52,US_Cities_List/mm_athens.png,MM,4,,,,,,,,,,,,,,,
null,,confidence_buffer,1941080,confidence_buffer,,null,,,,,,,,,,,,,,,,,,
2935.2999999970198,,pt2_unique_rating,1944017,US_Cities_List/mm_athens.png,,53,,,5,,,,,,,,,,,,,,,
null,,confidence_buffer,1944118,confidence_buffer,,null,,,,,,,,,,,,,,,,,,
4122.5999999940395,,pt2_memorable_rating,1948242,US_Cities_List/mm_athens.png,,52,,,4,,,,,,,,,,,,,,,
null,,confidence_buffer,1948344,confidence_buffer,,null,,,,,,,,,,,,,,,,,,
1667.7000000029802,,recognition_phase,1950013,US_Cities_List/mm_athens.png,,49,,,,,,old,1,0.8461538461538461,,,,,,,,,,
null,,confidence_buffer,1950115,confidence_buffer,,null,,,,,,,,,,,,,,,,,,
null,,thebreak,1950616,break,,null,,,,,,,,,,,,,,,,,,
3783.10000000149,,pt2_realistic_rating,1954400,Fictional_Cities_List/img_natural_15.png,,49,Fictional_Cities_List/img_natural_15.png,NAT,1,,,,,,,,,,,,,,,
null,,confidence_buffer,1954502,confidence_buffer,,null,,,,,,,,,,,,,,,,,,
2361.8000000044703,,probe_rating,1956865,probe_rating,,50,,,,2,1,,,,,,,,,,,,,
null,,confidence_buffer,1956967,confidence_buffer,,null,,,,,,,,,,,,,,,,,,
1325.8999999985099,,pt2_unique_rating,1958294,Fictional_Cities_List/img_natural_15.png,,51,,,3,,,,,,,,,,,,,,,
null,,confidence_buffer,1958400,confidence_buffer,,null,,,,,,,,,,,,,,,,,,
2719.5,,pt2_memorable_rating,1961122,Fictional_Cities_List/img_natural_15.png,,50,,,2,,,,,,,,,,,,,,,
null,,confidence_buffer,1961224,confidence_buffer,,null,,,,,,,,,,,,,,,,,,
3206.39999999851,,recognition_phase,1964431,Fictional_Cities_List/img_natural_15.png,,52,,,,,,new,1,0.8490566037735849,,,,,,,,,,
null,,confidence_buffer,1964533,confidence_buffer,,null,,,,,,,,,,,,,,,,,,
null,,thebreak,1965036,break,,null,,,,,,,,,,,,,,,,,,
5381.30000000447,,pt2_realistic_rating,1970418,US_Cities_List/nat_barnard.png,,50,US_Cities_List/nat_barnard.png,NAT,2,,,,,,,,,,,,,,,
null,,confidence_buffer,1970520,confidence_buffer,,null,,,,,,,,,,,,,,,,,,
4022.39999999851,,pt2_unique_rating,1974544,US_Cities_List/nat_barnard.png,,51,,,3,,,,,,,,,,,,,,,
null,,confidence_buffer,1974646,confidence_buffer,,null,,,,,,,,,,,,,,,,,,
1305.6999999955297,,pt2_memorable_rating,1975953,US_Cities_List/nat_barnard.png,,50,,,2,,,,,,,,,,,,,,,
null,,confidence_buffer,1976054,confidence_buffer,,null,,,,,,,,,,,,,,,,,,
2604.1999999955297,,recognition_phase,1978660,US_Cities_List/nat_barnard.png,,52,,,,,,new,1,0.8518518518518519,,,,,,,,,,
null,,confidence_buffer,1978762,confidence_buffer,,null,,,,,,,,,,,,,,,,,,
null,,thebreak,1979264,break,,null,,,,,,,,,,,,,,,,,,
10232.10000000149,,pt2_realistic_rating,1989498,Fictional_Cities_List/img_natural_36.png,,52,Fictional_Cities_List/img_natural_36.png,NAT,4,,,,,,,,,,,,,,,
null,,confidence_buffer,1989600,confidence_buffer,,null,,,,,,,,,,,,,,,,,,
2270.6999999955297,,pt2_unique_rating,1991872,Fictional_Cities_List/img_natural_36.png,,53,,,5,,,,,,,,,,,,,,,
null,,confidence_buffer,1991974,confidence_buffer,,null,,,,,,,,,,,,,,,,,,
2824.39999999851,,pt2_memorable_rating,1994800,Fictional_Cities_List/img_natural_36.png,,52,,,4,,,,,,,,,,,,,,,
null,,confidence_buffer,1994902,confidence_buffer,,null,,,,,,,,,,,,,,,,,,
4575.89999999851,,recognition_phase,1999479,Fictional_Cities_List/img_natural_36.png,,52,,,,,,new,0,0.8363636363636363,,,,,,,,,,
null,,confidence_buffer,1999581,confidence_buffer,,null,,,,,,,,,,,,,,,,,,
null,,thebreak,2000083,break,,null,,,,,,,,,,,,,,,,,,
4757,,pt2_realistic_rating,2004842,US_Cities_List/mm_custer.png,,52,US_Cities_List/mm_custer.png,MM,4,,,,,,,,,,,,,,,
null,,confidence_buffer,2004944,confidence_buffer,,null,,,,,,,,,,,,,,,,,,
2814.2999999970198,,pt2_unique_rating,2007760,US_Cities_List/mm_custer.png,,51,,,3,,,,,,,,,,,,,,,
null,,confidence_buffer,2007861,confidence_buffer,,null,,,,,,,,,,,,,,,,,,
3177.60000000149,,pt2_memorable_rating,2011040,US_Cities_List/mm_custer.png,,52,,,4,,,,,,,,,,,,,,,
null,,confidence_buffer,2011142,confidence_buffer,,null,,,,,,,,,,,,,,,,,,
2603.3000000044703,,recognition_phase,2013747,US_Cities_List/mm_custer.png,,52,,,,,,new,1,0.8392857142857143,,,,,,,,,,
null,,confidence_buffer,2013849,confidence_buffer,,null,,,,,,,,,,,,,,,,,,
null,,thebreak,2014351,break,,null,,,,,,,,,,,,,,,,,,
6035.10000000149,,pt2_realistic_rating,2020388,US_Cities_List/nat_newport.png,,52,US_Cities_List/nat_newport.png,NAT,4,,,,,,,,,,,,,,,
null,,confidence_buffer,2020490,confidence_buffer,,null,,,,,,,,,,,,,,,,,,
2965,,pt2_unique_rating,2023456,US_Cities_List/nat_newport.png,,53,,,5,,,,,,,,,,,,,,,
null,,confidence_buffer,2023558,confidence_buffer,,null,,,,,,,,,,,,,,,,,,
7946.60000000149,,pt2_memorable_rating,2031506,US_Cities_List/nat_newport.png,,52,,,4,,,,,,,,,,,,,,,
null,,confidence_buffer,2031608,confidence_buffer,,null,,,,,,,,,,,,,,,,,,
3478.10000000149,,recognition_phase,2035088,US_Cities_List/nat_newport.png,,49,,,,,,old,1,0.8421052631578947,,,,,,,,,,
null,,confidence_buffer,2035190,confidence_buffer,,null,,,,,,,,,,,,,,,,,,
null,,thebreak,2035691,break,,null,,,,,,,,,,,,,,,,,,
6317.89999999851,,pt2_realistic_rating,2042010,US_Cities_List/mm_shreveport.png,,53,US_Cities_List/mm_shreveport.png,MM,5,,,,,,,,,,,,,,,
null,,confidence_buffer,2042112,confidence_buffer,,null,,,,,,,,,,,,,,,,,,
1878.6999999955297,,pt2_unique_rating,2043992,US_Cities_List/mm_shreveport.png,,52,,,4,,,,,,,,,,,,,,,
null,,confidence_buffer,2044093,confidence_buffer,,null,,,,,,,,,,,,,,,,,,
3589.89999999851,,pt2_memorable_rating,2047684,US_Cities_List/mm_shreveport.png,,53,,,5,,,,,,,,,,,,,,,
null,,confidence_buffer,2047786,confidence_buffer,,null,,,,,,,,,,,,,,,,,,
1979.8999999985099,,recognition_phase,2049767,US_Cities_List/mm_shreveport.png,,49,,,,,,old,1,0.8448275862068966,,,,,,,,,,
null,,confidence_buffer,2049869,confidence_buffer,,null,,,,,,,,,,,,,,,,,,
null,,thebreak,2050370,break,,null,,,,,,,,,,,,,,,,,,
10441.80000000447,,pt2_realistic_rating,2060813,US_Cities_List/nat_cornwall.png,,52,US_Cities_List/nat_cornwall.png,NAT,4,,,,,,,,,,,,,,,
null,,confidence_buffer,2060916,confidence_buffer,,null,,,,,,,,,,,,,,,,,,
3146.3000000044703,,pt2_unique_rating,2064063,US_Cities_List/nat_cornwall.png,,51,,,3,,,,,,,,,,,,,,,
null,,confidence_buffer,2064165,confidence_buffer,,null,,,,,,,,,,,,,,,,,,
1638,,pt2_memorable_rating,2065804,US_Cities_List/nat_cornwall.png,,52,,,4,,,,,,,,,,,,,,,
null,,confidence_buffer,2065906,confidence_buffer,,null,,,,,,,,,,,,,,,,,,
2794.7000000029802,,recognition_phase,2068702,US_Cities_List/nat_cornwall.png,,52,,,,,,new,1,0.847457627118644,,,,,,,,,,
null,,confidence_buffer,2068804,confidence_buffer,,null,,,,,,,,,,,,,,,,,,
null,,thebreak,2069306,break,,null,,,,,,,,,,,,,,,,,,
11458.39999999851,,pt2_realistic_rating,2080766,US_Cities_List/nat_bisbee.png,,52,US_Cities_List/nat_bisbee.png,NAT,4,,,,,,,,,,,,,,,
null,,confidence_buffer,2080867,confidence_buffer,,null,,,,,,,,,,,,,,,,,,
2392.7000000029802,,pt2_unique_rating,2083261,US_Cities_List/nat_bisbee.png,,53,,,5,,,,,,,,,,,,,,,
null,,confidence_buffer,2083363,confidence_buffer,,null,,,,,,,,,,,,,,,,,,
4544.60000000149,,pt2_memorable_rating,2087909,US_Cities_List/nat_bisbee.png,,52,,,4,,,,,,,,,,,,,,,
null,,confidence_buffer,2088011,confidence_buffer,,null,,,,,,,,,,,,,,,,,,
2241.2999999970198,,recognition_phase,2090254,US_Cities_List/nat_bisbee.png,,49,,,,,,old,1,0.85,,,,,,,,,,
null,,confidence_buffer,2090358,confidence_buffer,,null,,,,,,,,,,,,,,,,,,
null,,thebreak,2090860,break,,null,,,,,,,,,,,,,,,,,,
,,survey,2525535,survey-questions,,,,,,,,,,,none,high,No I concentrated,By understanding ,I am familiar with,All i had to remember,The ones i have never come accros,The ones that don't seem to be just pictures,No I have never participated,The task was just okay
