rt,responses,trial_type,time_elapsed,stimulus,button_pressed,key_press,name_trial,city_type,rating,probe,probe_accuracy,response,correct,accuracy,problems,smooth,distraction,strategies,familiar,memorable,unique,realistic,similar,comments
59667.10000002384,{worker_id:67e23f61d6642c6710f62686},id_enter,59672,,,,,,,,,,,,,,,,,,,,,
6765.099999904633,,fullscreen,66447,fullscreen,0,,,,,,,,,,,,,,,,,,,
27865.100000023842,,intro_0,94316,instruct,,32,,,,,,,,,,,,,,,,,,
39331.799999952316,,intro_1,133650,instruct,,32,,,,,,,,,,,,,,,,,,
17659,,intro_2,151310,instruct,,32,,,,,,,,,,,,,,,,,,
null,,instruct_dir_4,152813,instruct,,null,,,,,,,,,,,,,,,,,,
null,,thebreak,153315,break,,null,,,,,,,,,,,,,,,,,,
30124.200000047684,,familiar_rating,183441,Fictional_Cities_List/img_natural_06.png,,50,Fictional_Cities_List/img_natural_06.png,NAT,2,,,,,,,,,,,,,,,
null,,confidence_buffer,183544,confidence_buffer,,null,,,,,,,,,,,,,,,,,,
10714.100000023842,,probe_rating,194261,probe_rating,,53,,,,5,1,,,,,,,,,,,,,
null,,confidence_buffer,194363,confidence_buffer,,null,,,,,,,,,,,,,,,,,,
7281.400000095367,,unique_rating,201647,Fictional_Cities_List/img_natural_06.png,,52,,,4,,,,,,,,,,,,,,,
null,,confidence_buffer,201749,confidence_buffer,,null,,,,,,,,,,,,,,,,,,
3494.600000023842,,memorable_rating,205246,Fictional_Cities_List/img_natural_06.png,,53,,,5,,,,,,,,,,,,,,,
null,,confidence_buffer,205349,confidence_buffer,,null,,,,,,,,,,,,,,,,,,
null,,thebreak,205862,break,,null,,,,,,,,,,,,,,,,,,
8182.299999952316,,familiar_rating,214046,Fictional_Cities_List/img_manmade_29.png,,51,Fictional_Cities_List/img_manmade_29.png,MM,3,,,,,,,,,,,,,,,
null,,confidence_buffer,214148,confidence_buffer,,null,,,,,,,,,,,,,,,,,,
2442.5,,unique_rating,216593,Fictional_Cities_List/img_manmade_29.png,,52,,,4,,,,,,,,,,,,,,,
null,,confidence_buffer,216696,confidence_buffer,,null,,,,,,,,,,,,,,,,,,
2233.100000023842,,memorable_rating,218931,Fictional_Cities_List/img_manmade_29.png,,52,,,4,,,,,,,,,,,,,,,
null,,confidence_buffer,219033,confidence_buffer,,null,,,,,,,,,,,,,,,,,,
null,,thebreak,219535,break,,null,,,,,,,,,,,,,,,,,,
5160,,familiar_rating,224697,Fictional_Cities_List/img_manmade_47.png,,51,Fictional_Cities_List/img_manmade_47.png,MM,3,,,,,,,,,,,,,,,
null,,confidence_buffer,224799,confidence_buffer,,null,,,,,,,,,,,,,,,,,,
8350.099999904633,,unique_rating,233151,Fictional_Cities_List/img_manmade_47.png,,53,,,5,,,,,,,,,,,,,,,
null,,confidence_buffer,233253,confidence_buffer,,null,,,,,,,,,,,,,,,,,,
2377.100000023842,,probe_rating,235632,probe_rating,,53,,,,5,1,,,,,,,,,,,,,
null,,confidence_buffer,235734,confidence_buffer,,null,,,,,,,,,,,,,,,,,,
3079.899999976158,,memorable_rating,238816,Fictional_Cities_List/img_manmade_47.png,,53,,,5,,,,,,,,,,,,,,,
null,,confidence_buffer,238918,confidence_buffer,,null,,,,,,,,,,,,,,,,,,
null,,thebreak,239420,break,,null,,,,,,,,,,,,,,,,,,
3325.899999976158,,familiar_rating,242748,Fictional_Cities_List/img_natural_02.png,,49,Fictional_Cities_List/img_natural_02.png,NAT,1,,,,,,,,,,,,,,,
null,,confidence_buffer,242851,confidence_buffer,,null,,,,,,,,,,,,,,,,,,
2420.5999999046326,,unique_rating,245274,Fictional_Cities_List/img_natural_02.png,,53,,,5,,,,,,,,,,,,,,,
null,,confidence_buffer,245376,confidence_buffer,,null,,,,,,,,,,,,,,,,,,
1813,,memorable_rating,247191,Fictional_Cities_List/img_natural_02.png,,53,,,5,,,,,,,,,,,,,,,
null,,confidence_buffer,247294,confidence_buffer,,null,,,,,,,,,,,,,,,,,,
null,,thebreak,247797,break,,null,,,,,,,,,,,,,,,,,,
2127.7000000476837,,familiar_rating,249927,US_Cities_List/nat_abilene.png,,50,US_Cities_List/nat_abilene.png,NAT,2,,,,,,,,,,,,,,,
null,,confidence_buffer,250028,confidence_buffer,,null,,,,,,,,,,,,,,,,,,
2121.2999999523163,,probe_rating,252151,probe_rating,,52,,,,4,1,,,,,,,,,,,,,
null,,confidence_buffer,252255,confidence_buffer,,null,,,,,,,,,,,,,,,,,,
3162,,unique_rating,255419,US_Cities_List/nat_abilene.png,,52,,,4,,,,,,,,,,,,,,,
null,,confidence_buffer,255521,confidence_buffer,,null,,,,,,,,,,,,,,,,,,
1356,,memorable_rating,256878,US_Cities_List/nat_abilene.png,,52,,,4,,,,,,,,,,,,,,,
null,,confidence_buffer,256980,confidence_buffer,,null,,,,,,,,,,,,,,,,,,
null,,thebreak,257483,break,,null,,,,,,,,,,,,,,,,,,
4025.8000000715256,,familiar_rating,261511,US_Cities_List/mm_carmel.png,,51,US_Cities_List/mm_carmel.png,MM,3,,,,,,,,,,,,,,,
null,,confidence_buffer,261614,confidence_buffer,,null,,,,,,,,,,,,,,,,,,
6675.399999976158,,unique_rating,268292,US_Cities_List/mm_carmel.png,,51,,,3,,,,,,,,,,,,,,,
null,,confidence_buffer,268395,confidence_buffer,,null,,,,,,,,,,,,,,,,,,
3222.0999999046326,,memorable_rating,271619,US_Cities_List/mm_carmel.png,,52,,,4,,,,,,,,,,,,,,,
null,,confidence_buffer,271721,confidence_buffer,,null,,,,,,,,,,,,,,,,,,
null,,thebreak,272223,break,,null,,,,,,,,,,,,,,,,,,
5940.899999976158,,familiar_rating,278166,Fictional_Cities_List/img_manmade_43.png,,49,Fictional_Cities_List/img_manmade_43.png,MM,1,,,,,,,,,,,,,,,
null,,confidence_buffer,278269,confidence_buffer,,null,,,,,,,,,,,,,,,,,,
2086.1999999284744,,unique_rating,280357,Fictional_Cities_List/img_manmade_43.png,,53,,,5,,,,,,,,,,,,,,,
null,,confidence_buffer,280460,confidence_buffer,,null,,,,,,,,,,,,,,,,,,
788.1999999284744,,memorable_rating,281250,Fictional_Cities_List/img_manmade_43.png,,53,,,5,,,,,,,,,,,,,,,
null,,confidence_buffer,281352,confidence_buffer,,null,,,,,,,,,,,,,,,,,,
null,,thebreak,281854,break,,null,,,,,,,,,,,,,,,,,,
2696.5,,familiar_rating,284552,Fictional_Cities_List/img_natural_21.png,,50,Fictional_Cities_List/img_natural_21.png,NAT,2,,,,,,,,,,,,,,,
null,,confidence_buffer,284654,confidence_buffer,,null,,,,,,,,,,,,,,,,,,
4619.200000047684,,unique_rating,289275,Fictional_Cities_List/img_natural_21.png,,53,,,5,,,,,,,,,,,,,,,
null,,confidence_buffer,289381,confidence_buffer,,null,,,,,,,,,,,,,,,,,,
1698.2999999523163,,memorable_rating,291081,Fictional_Cities_List/img_natural_21.png,,53,,,5,,,,,,,,,,,,,,,
null,,confidence_buffer,291183,confidence_buffer,,null,,,,,,,,,,,,,,,,,,
null,,thebreak,291685,break,,null,,,,,,,,,,,,,,,,,,
6563.600000023842,,familiar_rating,298250,US_Cities_List/nat_bisbee.png,,51,US_Cities_List/nat_bisbee.png,NAT,3,,,,,,,,,,,,,,,
null,,confidence_buffer,298353,confidence_buffer,,null,,,,,,,,,,,,,,,,,,
3838.100000023842,,probe_rating,302193,probe_rating,,53,,,,5,1,,,,,,,,,,,,,
null,,confidence_buffer,302295,confidence_buffer,,null,,,,,,,,,,,,,,,,,,
4893.399999976158,,unique_rating,307190,US_Cities_List/nat_bisbee.png,,53,,,5,,,,,,,,,,,,,,,
null,,confidence_buffer,307293,confidence_buffer,,null,,,,,,,,,,,,,,,,,,
763.7999999523163,,memorable_rating,308058,US_Cities_List/nat_bisbee.png,,53,,,5,,,,,,,,,,,,,,,
null,,confidence_buffer,308161,confidence_buffer,,null,,,,,,,,,,,,,,,,,,
null,,thebreak,308662,break,,null,,,,,,,,,,,,,,,,,,
9546.200000047684,,familiar_rating,318210,Fictional_Cities_List/img_manmade_06.png,,49,Fictional_Cities_List/img_manmade_06.png,MM,1,,,,,,,,,,,,,,,
null,,confidence_buffer,318312,confidence_buffer,,null,,,,,,,,,,,,,,,,,,
2667.7000000476837,,unique_rating,320982,Fictional_Cities_List/img_manmade_06.png,,52,,,4,,,,,,,,,,,,,,,
null,,confidence_buffer,321084,confidence_buffer,,null,,,,,,,,,,,,,,,,,,
1611.6000000238419,,memorable_rating,322698,Fictional_Cities_List/img_manmade_06.png,,52,,,4,,,,,,,,,,,,,,,
null,,confidence_buffer,322800,confidence_buffer,,null,,,,,,,,,,,,,,,,,,
null,,thebreak,323302,break,,null,,,,,,,,,,,,,,,,,,
2756.100000023842,,familiar_rating,326060,US_Cities_List/nat_healdsburg.png,,52,US_Cities_List/nat_healdsburg.png,NAT,4,,,,,,,,,,,,,,,
null,,confidence_buffer,326162,confidence_buffer,,null,,,,,,,,,,,,,,,,,,
1572.1000000238419,,probe_rating,327736,probe_rating,,51,,,,3,1,,,,,,,,,,,,,
null,,confidence_buffer,327839,confidence_buffer,,null,,,,,,,,,,,,,,,,,,
3341.5,,unique_rating,331183,US_Cities_List/nat_healdsburg.png,,51,,,3,,,,,,,,,,,,,,,
null,,confidence_buffer,331285,confidence_buffer,,null,,,,,,,,,,,,,,,,,,
2538.2000000476837,,memorable_rating,333825,US_Cities_List/nat_healdsburg.png,,53,,,5,,,,,,,,,,,,,,,
null,,confidence_buffer,333926,confidence_buffer,,null,,,,,,,,,,,,,,,,,,
null,,thebreak,334438,break,,null,,,,,,,,,,,,,,,,,,
2014.1000000238419,,familiar_rating,336454,US_Cities_List/mm_abilene.png,,49,US_Cities_List/mm_abilene.png,MM,1,,,,,,,,,,,,,,,
null,,confidence_buffer,336556,confidence_buffer,,null,,,,,,,,,,,,,,,,,,
2070.6999999284744,,unique_rating,338628,US_Cities_List/mm_abilene.png,,53,,,5,,,,,,,,,,,,,,,
null,,confidence_buffer,338732,confidence_buffer,,null,,,,,,,,,,,,,,,,,,
733.3999999761581,,memorable_rating,339468,US_Cities_List/mm_abilene.png,,53,,,5,,,,,,,,,,,,,,,
null,,confidence_buffer,339569,confidence_buffer,,null,,,,,,,,,,,,,,,,,,
null,,thebreak,340071,break,,null,,,,,,,,,,,,,,,,,,
4283.899999976158,,familiar_rating,344356,US_Cities_List/mm_healdsburg.png,,51,US_Cities_List/mm_healdsburg.png,MM,3,,,,,,,,,,,,,,,
null,,confidence_buffer,344459,confidence_buffer,,null,,,,,,,,,,,,,,,,,,
1483.1999999284744,,unique_rating,345944,US_Cities_List/mm_healdsburg.png,,52,,,4,,,,,,,,,,,,,,,
null,,confidence_buffer,346047,confidence_buffer,,null,,,,,,,,,,,,,,,,,,
1448.8999999761581,,memorable_rating,347498,US_Cities_List/mm_healdsburg.png,,52,,,4,,,,,,,,,,,,,,,
null,,confidence_buffer,347600,confidence_buffer,,null,,,,,,,,,,,,,,,,,,
null,,thebreak,348102,break,,null,,,,,,,,,,,,,,,,,,
5226.800000071526,,familiar_rating,353331,US_Cities_List/mm_peoria.png,,49,US_Cities_List/mm_peoria.png,MM,1,,,,,,,,,,,,,,,
null,,confidence_buffer,353433,confidence_buffer,,null,,,,,,,,,,,,,,,,,,
1996.3999999761581,,probe_rating,355431,probe_rating,,52,,,,4,1,,,,,,,,,,,,,
null,,confidence_buffer,355533,confidence_buffer,,null,,,,,,,,,,,,,,,,,,
2603.399999976158,,unique_rating,358138,US_Cities_List/mm_peoria.png,,53,,,5,,,,,,,,,,,,,,,
null,,confidence_buffer,358241,confidence_buffer,,null,,,,,,,,,,,,,,,,,,
691.6000000238419,,memorable_rating,358934,US_Cities_List/mm_peoria.png,,53,,,5,,,,,,,,,,,,,,,
null,,confidence_buffer,359037,confidence_buffer,,null,,,,,,,,,,,,,,,,,,
null,,thebreak,359540,break,,null,,,,,,,,,,,,,,,,,,
4778.800000071526,,familiar_rating,364321,Fictional_Cities_List/img_natural_29.png,,49,Fictional_Cities_List/img_natural_29.png,NAT,1,,,,,,,,,,,,,,,
null,,confidence_buffer,364423,confidence_buffer,,null,,,,,,,,,,,,,,,,,,
2157.2999999523163,,unique_rating,366582,Fictional_Cities_List/img_natural_29.png,,53,,,5,,,,,,,,,,,,,,,
null,,confidence_buffer,366685,confidence_buffer,,null,,,,,,,,,,,,,,,,,,
2830.600000023842,,memorable_rating,369517,Fictional_Cities_List/img_natural_29.png,,52,,,4,,,,,,,,,,,,,,,
null,,confidence_buffer,369619,confidence_buffer,,null,,,,,,,,,,,,,,,,,,
null,,thebreak,370121,break,,null,,,,,,,,,,,,,,,,,,
6835.399999976158,,familiar_rating,376958,US_Cities_List/mm_sitka.png,,49,US_Cities_List/mm_sitka.png,MM,1,,,,,,,,,,,,,,,
null,,confidence_buffer,377060,confidence_buffer,,null,,,,,,,,,,,,,,,,,,
7731.100000023842,,unique_rating,384793,US_Cities_List/mm_sitka.png,,51,,,3,,,,,,,,,,,,,,,
null,,confidence_buffer,384895,confidence_buffer,,null,,,,,,,,,,,,,,,,,,
1684.6000000238419,,memorable_rating,386581,US_Cities_List/mm_sitka.png,,51,,,3,,,,,,,,,,,,,,,
null,,confidence_buffer,386683,confidence_buffer,,null,,,,,,,,,,,,,,,,,,
null,,thebreak,387185,break,,null,,,,,,,,,,,,,,,,,,
9413.699999928474,,familiar_rating,396600,US_Cities_List/mm_okoboji.png,,49,US_Cities_List/mm_okoboji.png,MM,1,,,,,,,,,,,,,,,
null,,confidence_buffer,396704,confidence_buffer,,null,,,,,,,,,,,,,,,,,,
5947.5,,unique_rating,402653,US_Cities_List/mm_okoboji.png,,53,,,5,,,,,,,,,,,,,,,
null,,confidence_buffer,402755,confidence_buffer,,null,,,,,,,,,,,,,,,,,,
926.3999999761581,,memorable_rating,403683,US_Cities_List/mm_okoboji.png,,52,,,4,,,,,,,,,,,,,,,
null,,confidence_buffer,403785,confidence_buffer,,null,,,,,,,,,,,,,,,,,,
null,,thebreak,404286,break,,null,,,,,,,,,,,,,,,,,,
1855.5,,familiar_rating,406143,Fictional_Cities_List/img_natural_22.png,,49,Fictional_Cities_List/img_natural_22.png,NAT,1,,,,,,,,,,,,,,,
null,,confidence_buffer,406245,confidence_buffer,,null,,,,,,,,,,,,,,,,,,
3292.600000023842,,unique_rating,409539,Fictional_Cities_List/img_natural_22.png,,53,,,5,,,,,,,,,,,,,,,
null,,confidence_buffer,409642,confidence_buffer,,null,,,,,,,,,,,,,,,,,,
572.1000000238419,,memorable_rating,410216,Fictional_Cities_List/img_natural_22.png,,52,,,4,,,,,,,,,,,,,,,
null,,confidence_buffer,410318,confidence_buffer,,null,,,,,,,,,,,,,,,,,,
null,,thebreak,410826,break,,null,,,,,,,,,,,,,,,,,,
3029.399999976158,,familiar_rating,413857,Fictional_Cities_List/img_natural_27.png,,49,Fictional_Cities_List/img_natural_27.png,NAT,1,,,,,,,,,,,,,,,
null,,confidence_buffer,413960,confidence_buffer,,null,,,,,,,,,,,,,,,,,,
3356.100000023842,,unique_rating,417318,Fictional_Cities_List/img_natural_27.png,,53,,,5,,,,,,,,,,,,,,,
null,,confidence_buffer,417429,confidence_buffer,,null,,,,,,,,,,,,,,,,,,
970.3999999761581,,memorable_rating,418402,Fictional_Cities_List/img_natural_27.png,,52,,,4,,,,,,,,,,,,,,,
null,,confidence_buffer,418504,confidence_buffer,,null,,,,,,,,,,,,,,,,,,
null,,thebreak,419005,break,,null,,,,,,,,,,,,,,,,,,
2294.7999999523163,,familiar_rating,421301,US_Cities_List/nat_athens.png,,51,US_Cities_List/nat_athens.png,NAT,3,,,,,,,,,,,,,,,
null,,confidence_buffer,421403,confidence_buffer,,null,,,,,,,,,,,,,,,,,,
2596.5,,unique_rating,424001,US_Cities_List/nat_athens.png,,51,,,3,,,,,,,,,,,,,,,
null,,confidence_buffer,424104,confidence_buffer,,null,,,,,,,,,,,,,,,,,,
1064.3999999761581,,memorable_rating,425171,US_Cities_List/nat_athens.png,,52,,,4,,,,,,,,,,,,,,,
null,,confidence_buffer,425272,confidence_buffer,,null,,,,,,,,,,,,,,,,,,
null,,thebreak,425774,break,,null,,,,,,,,,,,,,,,,,,
3317.4000000953674,,familiar_rating,429093,Fictional_Cities_List/img_natural_35.png,,50,Fictional_Cities_List/img_natural_35.png,NAT,2,,,,,,,,,,,,,,,
null,,confidence_buffer,429195,confidence_buffer,,null,,,,,,,,,,,,,,,,,,
1354,,unique_rating,430551,Fictional_Cities_List/img_natural_35.png,,53,,,5,,,,,,,,,,,,,,,
null,,confidence_buffer,430653,confidence_buffer,,null,,,,,,,,,,,,,,,,,,
3982.1999999284744,,memorable_rating,434637,Fictional_Cities_List/img_natural_35.png,,53,,,5,,,,,,,,,,,,,,,
null,,confidence_buffer,434740,confidence_buffer,,null,,,,,,,,,,,,,,,,,,
null,,thebreak,435242,break,,null,,,,,,,,,,,,,,,,,,
3926,,familiar_rating,439170,Fictional_Cities_List/img_manmade_25.png,,50,Fictional_Cities_List/img_manmade_25.png,MM,2,,,,,,,,,,,,,,,
null,,confidence_buffer,439272,confidence_buffer,,null,,,,,,,,,,,,,,,,,,
3032.2999999523163,,unique_rating,442306,Fictional_Cities_List/img_manmade_25.png,,52,,,4,,,,,,,,,,,,,,,
null,,confidence_buffer,442408,confidence_buffer,,null,,,,,,,,,,,,,,,,,,
660.1999999284744,,memorable_rating,443070,Fictional_Cities_List/img_manmade_25.png,,52,,,4,,,,,,,,,,,,,,,
null,,confidence_buffer,443173,confidence_buffer,,null,,,,,,,,,,,,,,,,,,
null,,thebreak,443676,break,,null,,,,,,,,,,,,,,,,,,
12446.5,,familiar_rating,456124,US_Cities_List/mm_westpalmbeach.png,,50,US_Cities_List/mm_westpalmbeach.png,MM,2,,,,,,,,,,,,,,,
null,,confidence_buffer,456226,confidence_buffer,,null,,,,,,,,,,,,,,,,,,
1499.1999999284744,,unique_rating,457727,US_Cities_List/mm_westpalmbeach.png,,52,,,4,,,,,,,,,,,,,,,
null,,confidence_buffer,457830,confidence_buffer,,null,,,,,,,,,,,,,,,,,,
1415.2000000476837,,memorable_rating,459247,US_Cities_List/mm_westpalmbeach.png,,53,,,5,,,,,,,,,,,,,,,
null,,confidence_buffer,459349,confidence_buffer,,null,,,,,,,,,,,,,,,,,,
null,,thebreak,459852,break,,null,,,,,,,,,,,,,,,,,,
1937.3999999761581,,familiar_rating,461791,US_Cities_List/mm_cornwall.png,,50,US_Cities_List/mm_cornwall.png,MM,2,,,,,,,,,,,,,,,
null,,confidence_buffer,461893,confidence_buffer,,null,,,,,,,,,,,,,,,,,,
3244,,unique_rating,465139,US_Cities_List/mm_cornwall.png,,51,,,3,,,,,,,,,,,,,,,
null,,confidence_buffer,465242,confidence_buffer,,null,,,,,,,,,,,,,,,,,,
3118,,memorable_rating,468361,US_Cities_List/mm_cornwall.png,,52,,,4,,,,,,,,,,,,,,,
null,,confidence_buffer,468464,confidence_buffer,,null,,,,,,,,,,,,,,,,,,
null,,thebreak,468967,break,,null,,,,,,,,,,,,,,,,,,
6223.799999952316,,familiar_rating,475193,Fictional_Cities_List/img_manmade_12.png,,52,Fictional_Cities_List/img_manmade_12.png,MM,4,,,,,,,,,,,,,,,
null,,confidence_buffer,475296,confidence_buffer,,null,,,,,,,,,,,,,,,,,,
4138,,unique_rating,479436,Fictional_Cities_List/img_manmade_12.png,,52,,,4,,,,,,,,,,,,,,,
null,,confidence_buffer,479538,confidence_buffer,,null,,,,,,,,,,,,,,,,,,
673.7999999523163,,memorable_rating,480214,Fictional_Cities_List/img_manmade_12.png,,51,,,3,,,,,,,,,,,,,,,
null,,confidence_buffer,480317,confidence_buffer,,null,,,,,,,,,,,,,,,,,,
null,,thebreak,480819,break,,null,,,,,,,,,,,,,,,,,,
1912.8000000715256,,familiar_rating,482734,Fictional_Cities_List/img_manmade_27.png,,50,Fictional_Cities_List/img_manmade_27.png,MM,2,,,,,,,,,,,,,,,
null,,confidence_buffer,482835,confidence_buffer,,null,,,,,,,,,,,,,,,,,,
1328.7000000476837,,unique_rating,484166,Fictional_Cities_List/img_manmade_27.png,,51,,,3,,,,,,,,,,,,,,,
null,,confidence_buffer,484269,confidence_buffer,,null,,,,,,,,,,,,,,,,,,
783.9000000953674,,memorable_rating,485055,Fictional_Cities_List/img_manmade_27.png,,52,,,4,,,,,,,,,,,,,,,
null,,confidence_buffer,485157,confidence_buffer,,null,,,,,,,,,,,,,,,,,,
null,,thebreak,485659,break,,null,,,,,,,,,,,,,,,,,,
3215.6999999284744,,familiar_rating,488876,US_Cities_List/nat_hotsprings.png,,49,US_Cities_List/nat_hotsprings.png,NAT,1,,,,,,,,,,,,,,,
null,,confidence_buffer,488979,confidence_buffer,,null,,,,,,,,,,,,,,,,,,
3434.399999976158,,probe_rating,492415,probe_rating,,53,,,,5,1,,,,,,,,,,,,,
null,,confidence_buffer,492518,confidence_buffer,,null,,,,,,,,,,,,,,,,,,
2488.6999999284744,,unique_rating,495008,US_Cities_List/nat_hotsprings.png,,52,,,4,,,,,,,,,,,,,,,
null,,confidence_buffer,495110,confidence_buffer,,null,,,,,,,,,,,,,,,,,,
2205.100000023842,,memorable_rating,497317,US_Cities_List/nat_hotsprings.png,,53,,,5,,,,,,,,,,,,,,,
null,,confidence_buffer,497419,confidence_buffer,,null,,,,,,,,,,,,,,,,,,
null,,thebreak,497920,break,,null,,,,,,,,,,,,,,,,,,
2078.600000023842,,familiar_rating,500000,Fictional_Cities_List/img_natural_50.png,,49,Fictional_Cities_List/img_natural_50.png,NAT,1,,,,,,,,,,,,,,,
null,,confidence_buffer,500102,confidence_buffer,,null,,,,,,,,,,,,,,,,,,
1478.2999999523163,,unique_rating,501582,Fictional_Cities_List/img_natural_50.png,,51,,,3,,,,,,,,,,,,,,,
null,,confidence_buffer,501685,confidence_buffer,,null,,,,,,,,,,,,,,,,,,
1929.7999999523163,,memorable_rating,503616,Fictional_Cities_List/img_natural_50.png,,52,,,4,,,,,,,,,,,,,,,
null,,confidence_buffer,503718,confidence_buffer,,null,,,,,,,,,,,,,,,,,,
null,,thebreak,504221,break,,null,,,,,,,,,,,,,,,,,,
3304.1999999284744,,familiar_rating,507527,US_Cities_List/nat_peoria.png,,51,US_Cities_List/nat_peoria.png,NAT,3,,,,,,,,,,,,,,,
null,,confidence_buffer,507629,confidence_buffer,,null,,,,,,,,,,,,,,,,,,
1380.2000000476837,,unique_rating,509011,US_Cities_List/nat_peoria.png,,52,,,4,,,,,,,,,,,,,,,
null,,confidence_buffer,509114,confidence_buffer,,null,,,,,,,,,,,,,,,,,,
814,,memorable_rating,509930,US_Cities_List/nat_peoria.png,,52,,,4,,,,,,,,,,,,,,,
null,,confidence_buffer,510032,confidence_buffer,,null,,,,,,,,,,,,,,,,,,
null,,thebreak,510549,break,,null,,,,,,,,,,,,,,,,,,
1798.7000000476837,,familiar_rating,512349,US_Cities_List/nat_delawarecity.png,,49,US_Cities_List/nat_delawarecity.png,NAT,1,,,,,,,,,,,,,,,
null,,confidence_buffer,512451,confidence_buffer,,null,,,,,,,,,,,,,,,,,,
2275,,unique_rating,514728,US_Cities_List/nat_delawarecity.png,,50,,,2,,,,,,,,,,,,,,,
null,,confidence_buffer,514830,confidence_buffer,,null,,,,,,,,,,,,,,,,,,
1593.1999999284744,,probe_rating,516425,probe_rating,,53,,,,5,1,,,,,,,,,,,,,
null,,confidence_buffer,516538,confidence_buffer,,null,,,,,,,,,,,,,,,,,,
1277.5999999046326,,memorable_rating,517817,US_Cities_List/nat_delawarecity.png,,51,,,3,,,,,,,,,,,,,,,
null,,confidence_buffer,517919,confidence_buffer,,null,,,,,,,,,,,,,,,,,,
null,,thebreak,518421,break,,null,,,,,,,,,,,,,,,,,,
6115.600000023842,,intro_0,524538,instruct,,32,,,,,,,,,,,,,,,,,,
26620.200000047684,,intro_1,551159,instruct,,32,,,,,,,,,,,,,,,,,,
11737.199999928474,,intro_2,562898,instruct,,32,,,,,,,,,,,,,,,,,,
null,,instruct_dir_4,564401,instruct,,null,,,,,,,,,,,,,,,,,,
3170.399999976158,,pt2_realistic_rating,567573,Fictional_Cities_List/img_manmade_12.png,,52,Fictional_Cities_List/img_manmade_12.png,MM,4,,,,,,,,,,,,,,,
null,,confidence_buffer,567675,confidence_buffer,,null,,,,,,,,,,,,,,,,,,
5676.799999952316,,pt2_unique_rating,573354,Fictional_Cities_List/img_manmade_12.png,,52,,,4,,,,,,,,,,,,,,,
null,,confidence_buffer,573457,confidence_buffer,,null,,,,,,,,,,,,,,,,,,
2833.100000023842,,pt2_memorable_rating,576292,Fictional_Cities_List/img_manmade_12.png,,53,,,5,,,,,,,,,,,,,,,
null,,confidence_buffer,576394,confidence_buffer,,null,,,,,,,,,,,,,,,,,,
4616.299999952316,,recognition_phase,581013,Fictional_Cities_List/img_manmade_12.png,,49,,,,,,old,1,1,,,,,,,,,,
null,,confidence_buffer,581116,confidence_buffer,,null,,,,,,,,,,,,,,,,,,
null,,thebreak,581619,break,,null,,,,,,,,,,,,,,,,,,
3176.2000000476837,,pt2_realistic_rating,584797,US_Cities_List/mm_sitka.png,,50,US_Cities_List/mm_sitka.png,MM,2,,,,,,,,,,,,,,,
null,,confidence_buffer,584900,confidence_buffer,,null,,,,,,,,,,,,,,,,,,
1910.0999999046326,,pt2_unique_rating,586812,US_Cities_List/mm_sitka.png,,50,,,2,,,,,,,,,,,,,,,
null,,confidence_buffer,586914,confidence_buffer,,null,,,,,,,,,,,,,,,,,,
961.5,,pt2_memorable_rating,587878,US_Cities_List/mm_sitka.png,,51,,,3,,,,,,,,,,,,,,,
null,,confidence_buffer,587980,confidence_buffer,,null,,,,,,,,,,,,,,,,,,
3212.8000000715256,,recognition_phase,591195,US_Cities_List/mm_sitka.png,,49,,,,,,old,1,1,,,,,,,,,,
null,,confidence_buffer,591298,confidence_buffer,,null,,,,,,,,,,,,,,,,,,
null,,thebreak,591800,break,,null,,,,,,,,,,,,,,,,,,
8590.600000023842,,pt2_realistic_rating,600393,Fictional_Cities_List/img_natural_02.png,,49,Fictional_Cities_List/img_natural_02.png,NAT,1,,,,,,,,,,,,,,,
null,,confidence_buffer,600495,confidence_buffer,,null,,,,,,,,,,,,,,,,,,
4067.7999999523163,,pt2_unique_rating,604565,Fictional_Cities_List/img_natural_02.png,,52,,,4,,,,,,,,,,,,,,,
null,,confidence_buffer,604667,confidence_buffer,,null,,,,,,,,,,,,,,,,,,
2368.100000023842,,pt2_memorable_rating,607037,Fictional_Cities_List/img_natural_02.png,,52,,,4,,,,,,,,,,,,,,,
null,,confidence_buffer,607138,confidence_buffer,,null,,,,,,,,,,,,,,,,,,
2384.2000000476837,,recognition_phase,609524,Fictional_Cities_List/img_natural_02.png,,49,,,,,,old,1,1,,,,,,,,,,
null,,confidence_buffer,609627,confidence_buffer,,null,,,,,,,,,,,,,,,,,,
null,,thebreak,610129,break,,null,,,,,,,,,,,,,,,,,,
3554.7999999523163,,pt2_realistic_rating,613685,US_Cities_List/nat_peoria.png,,50,US_Cities_List/nat_peoria.png,NAT,2,,,,,,,,,,,,,,,
null,,confidence_buffer,613789,confidence_buffer,,null,,,,,,,,,,,,,,,,,,
1958.5,,pt2_unique_rating,615750,US_Cities_List/nat_peoria.png,,52,,,4,,,,,,,,,,,,,,,
null,,confidence_buffer,615853,confidence_buffer,,null,,,,,,,,,,,,,,,,,,
926.8999999761581,,pt2_memorable_rating,616782,US_Cities_List/nat_peoria.png,,52,,,4,,,,,,,,,,,,,,,
null,,confidence_buffer,616885,confidence_buffer,,null,,,,,,,,,,,,,,,,,,
1415.3000000715256,,recognition_phase,618302,US_Cities_List/nat_peoria.png,,49,,,,,,old,1,1,,,,,,,,,,
null,,confidence_buffer,618406,confidence_buffer,,null,,,,,,,,,,,,,,,,,,
null,,thebreak,618908,break,,null,,,,,,,,,,,,,,,,,,
6320.799999952316,,pt2_realistic_rating,625230,Fictional_Cities_List/img_manmade_42.png,,51,Fictional_Cities_List/img_manmade_42.png,MM,3,,,,,,,,,,,,,,,
null,,confidence_buffer,625333,confidence_buffer,,null,,,,,,,,,,,,,,,,,,
1810.8999999761581,,pt2_unique_rating,627146,Fictional_Cities_List/img_manmade_42.png,,52,,,4,,,,,,,,,,,,,,,
null,,confidence_buffer,627249,confidence_buffer,,null,,,,,,,,,,,,,,,,,,
5154.700000047684,,pt2_memorable_rating,632406,Fictional_Cities_List/img_manmade_42.png,,53,,,5,,,,,,,,,,,,,,,
null,,confidence_buffer,632508,confidence_buffer,,null,,,,,,,,,,,,,,,,,,
2280.8000000715256,,recognition_phase,634791,Fictional_Cities_List/img_manmade_42.png,,52,,,,,,new,1,1,,,,,,,,,,
null,,confidence_buffer,634893,confidence_buffer,,null,,,,,,,,,,,,,,,,,,
null,,thebreak,635396,break,,null,,,,,,,,,,,,,,,,,,
3766.8000000715256,,pt2_realistic_rating,639165,Fictional_Cities_List/img_manmade_25.png,,50,Fictional_Cities_List/img_manmade_25.png,MM,2,,,,,,,,,,,,,,,
null,,confidence_buffer,639267,confidence_buffer,,null,,,,,,,,,,,,,,,,,,
784.1999999284744,,pt2_unique_rating,640053,Fictional_Cities_List/img_manmade_25.png,,51,,,3,,,,,,,,,,,,,,,
null,,confidence_buffer,640155,confidence_buffer,,null,,,,,,,,,,,,,,,,,,
1834.5,,probe_rating,641991,probe_rating,,49,,,,1,1,,,,,,,,,,,,,
null,,confidence_buffer,642094,confidence_buffer,,null,,,,,,,,,,,,,,,,,,
1025.5,,pt2_memorable_rating,643122,Fictional_Cities_List/img_manmade_25.png,,50,,,2,,,,,,,,,,,,,,,
null,,confidence_buffer,643224,confidence_buffer,,null,,,,,,,,,,,,,,,,,,
2078.2999999523163,,recognition_phase,645305,Fictional_Cities_List/img_manmade_25.png,,49,,,,,,old,1,1,,,,,,,,,,
null,,confidence_buffer,645406,confidence_buffer,,null,,,,,,,,,,,,,,,,,,
null,,thebreak,645909,break,,null,,,,,,,,,,,,,,,,,,
3690.399999976158,,pt2_realistic_rating,649601,US_Cities_List/mm_coeurdalene.png,,50,US_Cities_List/mm_coeurdalene.png,MM,2,,,,,,,,,,,,,,,
null,,confidence_buffer,649703,confidence_buffer,,null,,,,,,,,,,,,,,,,,,
868.7999999523163,,pt2_unique_rating,650574,US_Cities_List/mm_coeurdalene.png,,51,,,3,,,,,,,,,,,,,,,
null,,confidence_buffer,650676,confidence_buffer,,null,,,,,,,,,,,,,,,,,,
745,,pt2_memorable_rating,651423,US_Cities_List/mm_coeurdalene.png,,52,,,4,,,,,,,,,,,,,,,
null,,confidence_buffer,651525,confidence_buffer,,null,,,,,,,,,,,,,,,,,,
2325,,recognition_phase,653852,US_Cities_List/mm_coeurdalene.png,,52,,,,,,new,1,1,,,,,,,,,,
null,,confidence_buffer,653955,confidence_buffer,,null,,,,,,,,,,,,,,,,,,
null,,thebreak,654457,break,,null,,,,,,,,,,,,,,,,,,
6135.300000071526,,pt2_realistic_rating,660594,US_Cities_List/mm_bisbee.png,,50,US_Cities_List/mm_bisbee.png,MM,2,,,,,,,,,,,,,,,
null,,confidence_buffer,660696,confidence_buffer,,null,,,,,,,,,,,,,,,,,,
1849.7000000476837,,probe_rating,662547,probe_rating,,53,,,,5,1,,,,,,,,,,,,,
null,,confidence_buffer,662650,confidence_buffer,,null,,,,,,,,,,,,,,,,,,
2891.7999999523163,,pt2_unique_rating,665543,US_Cities_List/mm_bisbee.png,,52,,,4,,,,,,,,,,,,,,,
null,,confidence_buffer,665646,confidence_buffer,,null,,,,,,,,,,,,,,,,,,
24802.200000047684,,pt2_memorable_rating,690451,US_Cities_List/mm_bisbee.png,,52,,,4,,,,,,,,,,,,,,,
null,,confidence_buffer,690554,confidence_buffer,,null,,,,,,,,,,,,,,,,,,
11709.600000023842,,recognition_phase,702266,US_Cities_List/mm_bisbee.png,,51,,,,,,new,1,1,,,,,,,,,,
null,,confidence_buffer,702369,confidence_buffer,,null,,,,,,,,,,,,,,,,,,
null,,thebreak,702872,break,,null,,,,,,,,,,,,,,,,,,
3040.2000000476837,,pt2_realistic_rating,705914,US_Cities_List/nat_cornwall.png,,50,US_Cities_List/nat_cornwall.png,NAT,2,,,,,,,,,,,,,,,
null,,confidence_buffer,706017,confidence_buffer,,null,,,,,,,,,,,,,,,,,,
1460.5999999046326,,pt2_unique_rating,707479,US_Cities_List/nat_cornwall.png,,50,,,2,,,,,,,,,,,,,,,
null,,confidence_buffer,707581,confidence_buffer,,null,,,,,,,,,,,,,,,,,,
1125.7000000476837,,pt2_memorable_rating,708709,US_Cities_List/nat_cornwall.png,,52,,,4,,,,,,,,,,,,,,,
null,,confidence_buffer,708810,confidence_buffer,,null,,,,,,,,,,,,,,,,,,
3993.1999999284744,,recognition_phase,712805,US_Cities_List/nat_cornwall.png,,52,,,,,,new,1,1,,,,,,,,,,
null,,confidence_buffer,712916,confidence_buffer,,null,,,,,,,,,,,,,,,,,,
null,,thebreak,713428,break,,null,,,,,,,,,,,,,,,,,,
2660.9000000953674,,pt2_realistic_rating,716091,Fictional_Cities_List/img_natural_12.png,,49,Fictional_Cities_List/img_natural_12.png,NAT,1,,,,,,,,,,,,,,,
null,,confidence_buffer,716194,confidence_buffer,,null,,,,,,,,,,,,,,,,,,
1829.7000000476837,,pt2_unique_rating,718026,Fictional_Cities_List/img_natural_12.png,,52,,,4,,,,,,,,,,,,,,,
null,,confidence_buffer,718129,confidence_buffer,,null,,,,,,,,,,,,,,,,,,
2038.1999999284744,,pt2_memorable_rating,720169,Fictional_Cities_List/img_natural_12.png,,51,,,3,,,,,,,,,,,,,,,
null,,confidence_buffer,720271,confidence_buffer,,null,,,,,,,,,,,,,,,,,,
3117.399999976158,,recognition_phase,723391,Fictional_Cities_List/img_natural_12.png,,52,,,,,,new,1,1,,,,,,,,,,
null,,confidence_buffer,723493,confidence_buffer,,null,,,,,,,,,,,,,,,,,,
null,,thebreak,723995,break,,null,,,,,,,,,,,,,,,,,,
2216.399999976158,,pt2_realistic_rating,726213,US_Cities_List/nat_bisbee.png,,50,US_Cities_List/nat_bisbee.png,NAT,2,,,,,,,,,,,,,,,
null,,confidence_buffer,726315,confidence_buffer,,null,,,,,,,,,,,,,,,,,,
1732.8999999761581,,pt2_unique_rating,728049,US_Cities_List/nat_bisbee.png,,51,,,3,,,,,,,,,,,,,,,
null,,confidence_buffer,728152,confidence_buffer,,null,,,,,,,,,,,,,,,,,,
630.6999999284744,,pt2_memorable_rating,728784,US_Cities_List/nat_bisbee.png,,51,,,3,,,,,,,,,,,,,,,
null,,confidence_buffer,728889,confidence_buffer,,null,,,,,,,,,,,,,,,,,,
1777.1999999284744,,recognition_phase,730668,US_Cities_List/nat_bisbee.png,,50,,,,,,old,1,1,,,,,,,,,,
null,,confidence_buffer,730770,confidence_buffer,,null,,,,,,,,,,,,,,,,,,
null,,thebreak,731272,break,,null,,,,,,,,,,,,,,,,,,
1264.5,,pt2_realistic_rating,732538,Fictional_Cities_List/img_natural_14.png,,50,Fictional_Cities_List/img_natural_14.png,NAT,2,,,,,,,,,,,,,,,
null,,confidence_buffer,732642,confidence_buffer,,null,,,,,,,,,,,,,,,,,,
1725.0999999046326,,pt2_unique_rating,734369,Fictional_Cities_List/img_natural_14.png,,51,,,3,,,,,,,,,,,,,,,
null,,confidence_buffer,734472,confidence_buffer,,null,,,,,,,,,,,,,,,,,,
711.5,,pt2_memorable_rating,735186,Fictional_Cities_List/img_natural_14.png,,52,,,4,,,,,,,,,,,,,,,
null,,confidence_buffer,735288,confidence_buffer,,null,,,,,,,,,,,,,,,,,,
2287.5,,recognition_phase,737578,Fictional_Cities_List/img_natural_14.png,,52,,,,,,new,1,1,,,,,,,,,,
null,,confidence_buffer,737680,confidence_buffer,,null,,,,,,,,,,,,,,,,,,
null,,thebreak,738183,break,,null,,,,,,,,,,,,,,,,,,
2862.2000000476837,,pt2_realistic_rating,741047,US_Cities_List/mm_abilene.png,,49,US_Cities_List/mm_abilene.png,MM,1,,,,,,,,,,,,,,,
null,,confidence_buffer,741149,confidence_buffer,,null,,,,,,,,,,,,,,,,,,
571.6000000238419,,pt2_unique_rating,741723,US_Cities_List/mm_abilene.png,,51,,,3,,,,,,,,,,,,,,,
null,,confidence_buffer,741825,confidence_buffer,,null,,,,,,,,,,,,,,,,,,
664.3999999761581,,pt2_memorable_rating,742491,US_Cities_List/mm_abilene.png,,52,,,4,,,,,,,,,,,,,,,
null,,confidence_buffer,742594,confidence_buffer,,null,,,,,,,,,,,,,,,,,,
3600.7999999523163,,recognition_phase,746197,US_Cities_List/mm_abilene.png,,49,,,,,,old,1,1,,,,,,,,,,
null,,confidence_buffer,746299,confidence_buffer,,null,,,,,,,,,,,,,,,,,,
null,,thebreak,746804,break,,null,,,,,,,,,,,,,,,,,,
3327.600000023842,,pt2_realistic_rating,750133,Fictional_Cities_List/img_manmade_43.png,,49,Fictional_Cities_List/img_manmade_43.png,MM,1,,,,,,,,,,,,,,,
null,,confidence_buffer,750237,confidence_buffer,,null,,,,,,,,,,,,,,,,,,
902.1000000238419,,pt2_unique_rating,751141,Fictional_Cities_List/img_manmade_43.png,,50,,,2,,,,,,,,,,,,,,,
null,,confidence_buffer,751242,confidence_buffer,,null,,,,,,,,,,,,,,,,,,
2845.5,,pt2_memorable_rating,754089,Fictional_Cities_List/img_manmade_43.png,,51,,,3,,,,,,,,,,,,,,,
null,,confidence_buffer,754191,confidence_buffer,,null,,,,,,,,,,,,,,,,,,
1525.5999999046326,,probe_rating,755719,probe_rating,,51,,,,3,1,,,,,,,,,,,,,
null,,confidence_buffer,755821,confidence_buffer,,null,,,,,,,,,,,,,,,,,,
2329,,recognition_phase,758152,Fictional_Cities_List/img_manmade_43.png,,49,,,,,,old,1,1,,,,,,,,,,
null,,confidence_buffer,758254,confidence_buffer,,null,,,,,,,,,,,,,,,,,,
null,,thebreak,758756,break,,null,,,,,,,,,,,,,,,,,,
2469.399999976158,,pt2_realistic_rating,761227,Fictional_Cities_List/img_manmade_02.png,,51,Fictional_Cities_List/img_manmade_02.png,MM,3,,,,,,,,,,,,,,,
null,,confidence_buffer,761329,confidence_buffer,,null,,,,,,,,,,,,,,,,,,
2919.399999976158,,pt2_unique_rating,764250,Fictional_Cities_List/img_manmade_02.png,,52,,,4,,,,,,,,,,,,,,,
null,,confidence_buffer,764352,confidence_buffer,,null,,,,,,,,,,,,,,,,,,
1941.1999999284744,,pt2_memorable_rating,766295,Fictional_Cities_List/img_manmade_02.png,,52,,,4,,,,,,,,,,,,,,,
null,,confidence_buffer,766398,confidence_buffer,,null,,,,,,,,,,,,,,,,,,
3022.899999976158,,recognition_phase,769423,Fictional_Cities_List/img_manmade_02.png,,51,,,,,,new,1,1,,,,,,,,,,
null,,confidence_buffer,769526,confidence_buffer,,null,,,,,,,,,,,,,,,,,,
null,,thebreak,770028,break,,null,,,,,,,,,,,,,,,,,,
5149.300000071526,,pt2_realistic_rating,775179,US_Cities_List/nat_athens.png,,51,US_Cities_List/nat_athens.png,NAT,3,,,,,,,,,,,,,,,
null,,confidence_buffer,775281,confidence_buffer,,null,,,,,,,,,,,,,,,,,,
1255.8999999761581,,pt2_unique_rating,776539,US_Cities_List/nat_athens.png,,52,,,4,,,,,,,,,,,,,,,
null,,confidence_buffer,776642,confidence_buffer,,null,,,,,,,,,,,,,,,,,,
1183.4000000953674,,pt2_memorable_rating,777828,US_Cities_List/nat_athens.png,,51,,,3,,,,,,,,,,,,,,,
null,,confidence_buffer,777930,confidence_buffer,,null,,,,,,,,,,,,,,,,,,
2200.899999976158,,recognition_phase,780133,US_Cities_List/nat_athens.png,,49,,,,,,old,1,1,,,,,,,,,,
null,,confidence_buffer,780235,confidence_buffer,,null,,,,,,,,,,,,,,,,,,
null,,thebreak,780736,break,,null,,,,,,,,,,,,,,,,,,
5736.699999928474,,pt2_realistic_rating,786474,US_Cities_List/nat_okoboji.png,,49,US_Cities_List/nat_okoboji.png,NAT,1,,,,,,,,,,,,,,,
null,,confidence_buffer,786576,confidence_buffer,,null,,,,,,,,,,,,,,,,,,
641.1000000238419,,pt2_unique_rating,787219,US_Cities_List/nat_okoboji.png,,50,,,2,,,,,,,,,,,,,,,
null,,confidence_buffer,787321,confidence_buffer,,null,,,,,,,,,,,,,,,,,,
447.7000000476837,,pt2_memorable_rating,787771,US_Cities_List/nat_okoboji.png,,51,,,3,,,,,,,,,,,,,,,
null,,confidence_buffer,787873,confidence_buffer,,null,,,,,,,,,,,,,,,,,,
2261.600000023842,,recognition_phase,790137,US_Cities_List/nat_okoboji.png,,52,,,,,,new,1,1,,,,,,,,,,
null,,confidence_buffer,790239,confidence_buffer,,null,,,,,,,,,,,,,,,,,,
null,,thebreak,790740,break,,null,,,,,,,,,,,,,,,,,,
2849.2000000476837,,pt2_realistic_rating,793591,US_Cities_List/nat_hotsprings.png,,50,US_Cities_List/nat_hotsprings.png,NAT,2,,,,,,,,,,,,,,,
null,,confidence_buffer,793693,confidence_buffer,,null,,,,,,,,,,,,,,,,,,
1084.1999999284744,,pt2_unique_rating,794779,US_Cities_List/nat_hotsprings.png,,50,,,2,,,,,,,,,,,,,,,
null,,confidence_buffer,794882,confidence_buffer,,null,,,,,,,,,,,,,,,,,,
720.2999999523163,,pt2_memorable_rating,795604,US_Cities_List/nat_hotsprings.png,,51,,,3,,,,,,,,,,,,,,,
null,,confidence_buffer,795708,confidence_buffer,,null,,,,,,,,,,,,,,,,,,
1448.6999999284744,,recognition_phase,797158,US_Cities_List/nat_hotsprings.png,,52,,,,,,new,0,0.9444444444444444,,,,,,,,,,
null,,confidence_buffer,797260,confidence_buffer,,null,,,,,,,,,,,,,,,,,,
null,,thebreak,797763,break,,null,,,,,,,,,,,,,,,,,,
4013.7000000476837,,pt2_realistic_rating,801779,Fictional_Cities_List/img_manmade_27.png,,49,Fictional_Cities_List/img_manmade_27.png,MM,1,,,,,,,,,,,,,,,
null,,confidence_buffer,801881,confidence_buffer,,null,,,,,,,,,,,,,,,,,,
1576.6999999284744,,pt2_unique_rating,803460,Fictional_Cities_List/img_manmade_27.png,,51,,,3,,,,,,,,,,,,,,,
null,,confidence_buffer,803563,confidence_buffer,,null,,,,,,,,,,,,,,,,,,
962.7000000476837,,pt2_memorable_rating,804528,Fictional_Cities_List/img_manmade_27.png,,51,,,3,,,,,,,,,,,,,,,
null,,confidence_buffer,804630,confidence_buffer,,null,,,,,,,,,,,,,,,,,,
1938.5,,recognition_phase,806570,Fictional_Cities_List/img_manmade_27.png,,49,,,,,,old,1,0.9473684210526315,,,,,,,,,,
null,,confidence_buffer,806677,confidence_buffer,,null,,,,,,,,,,,,,,,,,,
null,,thebreak,807179,break,,null,,,,,,,,,,,,,,,,,,
3709,,pt2_realistic_rating,810890,Fictional_Cities_List/img_manmade_35.png,,49,Fictional_Cities_List/img_manmade_35.png,MM,1,,,,,,,,,,,,,,,
null,,confidence_buffer,810996,confidence_buffer,,null,,,,,,,,,,,,,,,,,,
667.7999999523163,,pt2_unique_rating,811666,Fictional_Cities_List/img_manmade_35.png,,51,,,3,,,,,,,,,,,,,,,
null,,confidence_buffer,811768,confidence_buffer,,null,,,,,,,,,,,,,,,,,,
1959.6999999284744,,probe_rating,813730,probe_rating,,52,,,,4,1,,,,,,,,,,,,,
null,,confidence_buffer,813832,confidence_buffer,,null,,,,,,,,,,,,,,,,,,
2109.1999999284744,,pt2_memorable_rating,815943,Fictional_Cities_List/img_manmade_35.png,,51,,,3,,,,,,,,,,,,,,,
null,,confidence_buffer,816045,confidence_buffer,,null,,,,,,,,,,,,,,,,,,
2870.5,,recognition_phase,818918,Fictional_Cities_List/img_manmade_35.png,,52,,,,,,new,1,0.95,,,,,,,,,,
null,,confidence_buffer,819019,confidence_buffer,,null,,,,,,,,,,,,,,,,,,
null,,thebreak,819522,break,,null,,,,,,,,,,,,,,,,,,
6078.899999976158,,pt2_realistic_rating,825602,US_Cities_List/mm_delawarecity.png,,51,US_Cities_List/mm_delawarecity.png,MM,3,,,,,,,,,,,,,,,
null,,confidence_buffer,825705,confidence_buffer,,null,,,,,,,,,,,,,,,,,,
3764.8000000715256,,pt2_unique_rating,829472,US_Cities_List/mm_delawarecity.png,,52,,,4,,,,,,,,,,,,,,,
null,,confidence_buffer,829573,confidence_buffer,,null,,,,,,,,,,,,,,,,,,
537,,pt2_memorable_rating,830112,US_Cities_List/mm_delawarecity.png,,51,,,3,,,,,,,,,,,,,,,
null,,confidence_buffer,830214,confidence_buffer,,null,,,,,,,,,,,,,,,,,,
5174.399999976158,,recognition_phase,835391,US_Cities_List/mm_delawarecity.png,,52,,,,,,new,1,0.9523809523809523,,,,,,,,,,
null,,confidence_buffer,835492,confidence_buffer,,null,,,,,,,,,,,,,,,,,,
null,,thebreak,835994,break,,null,,,,,,,,,,,,,,,,,,
2981.2999999523163,,pt2_realistic_rating,838977,Fictional_Cities_List/img_natural_27.png,,49,Fictional_Cities_List/img_natural_27.png,NAT,1,,,,,,,,,,,,,,,
null,,confidence_buffer,839079,confidence_buffer,,null,,,,,,,,,,,,,,,,,,
2463.399999976158,,pt2_unique_rating,841545,Fictional_Cities_List/img_natural_27.png,,53,,,5,,,,,,,,,,,,,,,
null,,confidence_buffer,841648,confidence_buffer,,null,,,,,,,,,,,,,,,,,,
1537.1999999284744,,probe_rating,843187,probe_rating,,50,,,,2,1,,,,,,,,,,,,,
null,,confidence_buffer,843290,confidence_buffer,,null,,,,,,,,,,,,,,,,,,
914.7000000476837,,pt2_memorable_rating,844207,Fictional_Cities_List/img_natural_27.png,,51,,,3,,,,,,,,,,,,,,,
null,,confidence_buffer,844309,confidence_buffer,,null,,,,,,,,,,,,,,,,,,
2029.5999999046326,,recognition_phase,846341,Fictional_Cities_List/img_natural_27.png,,49,,,,,,old,1,0.9545454545454546,,,,,,,,,,
null,,confidence_buffer,846444,confidence_buffer,,null,,,,,,,,,,,,,,,,,,
null,,thebreak,846957,break,,null,,,,,,,,,,,,,,,,,,
2853.100000023842,,pt2_realistic_rating,849812,Fictional_Cities_List/img_natural_47.png,,50,Fictional_Cities_List/img_natural_47.png,NAT,2,,,,,,,,,,,,,,,
null,,confidence_buffer,849915,confidence_buffer,,null,,,,,,,,,,,,,,,,,,
895.8999999761581,,pt2_unique_rating,850813,Fictional_Cities_List/img_natural_47.png,,50,,,2,,,,,,,,,,,,,,,
null,,confidence_buffer,850916,confidence_buffer,,null,,,,,,,,,,,,,,,,,,
939.7999999523163,,pt2_memorable_rating,851857,Fictional_Cities_List/img_natural_47.png,,52,,,4,,,,,,,,,,,,,,,
null,,confidence_buffer,851960,confidence_buffer,,null,,,,,,,,,,,,,,,,,,
1841.2999999523163,,recognition_phase,853803,Fictional_Cities_List/img_natural_47.png,,51,,,,,,new,1,0.9565217391304348,,,,,,,,,,
null,,confidence_buffer,853905,confidence_buffer,,null,,,,,,,,,,,,,,,,,,
null,,thebreak,854408,break,,null,,,,,,,,,,,,,,,,,,
2123,,pt2_realistic_rating,856533,Fictional_Cities_List/img_manmade_47.png,,51,Fictional_Cities_List/img_manmade_47.png,MM,3,,,,,,,,,,,,,,,
null,,confidence_buffer,856635,confidence_buffer,,null,,,,,,,,,,,,,,,,,,
940.1999999284744,,pt2_unique_rating,857577,Fictional_Cities_List/img_manmade_47.png,,51,,,3,,,,,,,,,,,,,,,
null,,confidence_buffer,857680,confidence_buffer,,null,,,,,,,,,,,,,,,,,,
1110.8999999761581,,pt2_memorable_rating,858793,Fictional_Cities_List/img_manmade_47.png,,52,,,4,,,,,,,,,,,,,,,
null,,confidence_buffer,858895,confidence_buffer,,null,,,,,,,,,,,,,,,,,,
2655.7999999523163,,recognition_phase,861552,Fictional_Cities_List/img_manmade_47.png,,49,,,,,,old,1,0.9583333333333334,,,,,,,,,,
null,,confidence_buffer,861655,confidence_buffer,,null,,,,,,,,,,,,,,,,,,
null,,thebreak,862157,break,,null,,,,,,,,,,,,,,,,,,
2466,,pt2_realistic_rating,864624,Fictional_Cities_List/img_natural_35.png,,51,Fictional_Cities_List/img_natural_35.png,NAT,3,,,,,,,,,,,,,,,
null,,confidence_buffer,864727,confidence_buffer,,null,,,,,,,,,,,,,,,,,,
2244,,pt2_unique_rating,866973,Fictional_Cities_List/img_natural_35.png,,51,,,3,,,,,,,,,,,,,,,
null,,confidence_buffer,867075,confidence_buffer,,null,,,,,,,,,,,,,,,,,,
1202.5,,pt2_memorable_rating,868279,Fictional_Cities_List/img_natural_35.png,,52,,,4,,,,,,,,,,,,,,,
null,,confidence_buffer,868382,confidence_buffer,,null,,,,,,,,,,,,,,,,,,
3487.7999999523163,,recognition_phase,871872,Fictional_Cities_List/img_natural_35.png,,51,,,,,,new,0,0.92,,,,,,,,,,
null,,confidence_buffer,871974,confidence_buffer,,null,,,,,,,,,,,,,,,,,,
null,,thebreak,872476,break,,null,,,,,,,,,,,,,,,,,,
31946.600000023842,,pt2_realistic_rating,904425,US_Cities_List/mm_cornwall.png,,50,US_Cities_List/mm_cornwall.png,MM,2,,,,,,,,,,,,,,,
null,,confidence_buffer,904528,confidence_buffer,,null,,,,,,,,,,,,,,,,,,
2084.100000023842,,pt2_unique_rating,906614,US_Cities_List/mm_cornwall.png,,52,,,4,,,,,,,,,,,,,,,
null,,confidence_buffer,906716,confidence_buffer,,null,,,,,,,,,,,,,,,,,,
838.8999999761581,,pt2_memorable_rating,907556,US_Cities_List/mm_cornwall.png,,51,,,3,,,,,,,,,,,,,,,
null,,confidence_buffer,907672,confidence_buffer,,null,,,,,,,,,,,,,,,,,,
2635.600000023842,,recognition_phase,910310,US_Cities_List/mm_cornwall.png,,51,,,,,,new,0,0.8846153846153846,,,,,,,,,,
null,,confidence_buffer,910413,confidence_buffer,,null,,,,,,,,,,,,,,,,,,
null,,thebreak,910915,break,,null,,,,,,,,,,,,,,,,,,
2766.600000023842,,pt2_realistic_rating,913683,US_Cities_List/nat_sitka.png,,51,US_Cities_List/nat_sitka.png,NAT,3,,,,,,,,,,,,,,,
null,,confidence_buffer,913786,confidence_buffer,,null,,,,,,,,,,,,,,,,,,
2664.899999976158,,pt2_unique_rating,916453,US_Cities_List/nat_sitka.png,,51,,,3,,,,,,,,,,,,,,,
null,,confidence_buffer,916556,confidence_buffer,,null,,,,,,,,,,,,,,,,,,
1475.6000000238419,,pt2_memorable_rating,918033,US_Cities_List/nat_sitka.png,,52,,,4,,,,,,,,,,,,,,,
null,,confidence_buffer,918135,confidence_buffer,,null,,,,,,,,,,,,,,,,,,
2051.399999976158,,recognition_phase,920189,US_Cities_List/nat_sitka.png,,52,,,,,,new,1,0.8888888888888888,,,,,,,,,,
null,,confidence_buffer,920290,confidence_buffer,,null,,,,,,,,,,,,,,,,,,
null,,thebreak,920791,break,,null,,,,,,,,,,,,,,,,,,
2385.5,,pt2_realistic_rating,923178,Fictional_Cities_List/img_natural_06.png,,49,Fictional_Cities_List/img_natural_06.png,NAT,1,,,,,,,,,,,,,,,
null,,confidence_buffer,923280,confidence_buffer,,null,,,,,,,,,,,,,,,,,,
1696.1999999284744,,pt2_unique_rating,924978,Fictional_Cities_List/img_natural_06.png,,52,,,4,,,,,,,,,,,,,,,
null,,confidence_buffer,925081,confidence_buffer,,null,,,,,,,,,,,,,,,,,,
1383.6000000238419,,pt2_memorable_rating,926466,Fictional_Cities_List/img_natural_06.png,,52,,,4,,,,,,,,,,,,,,,
null,,confidence_buffer,926568,confidence_buffer,,null,,,,,,,,,,,,,,,,,,
1157.2999999523163,,recognition_phase,927727,Fictional_Cities_List/img_natural_06.png,,49,,,,,,old,1,0.8928571428571429,,,,,,,,,,
null,,confidence_buffer,927829,confidence_buffer,,null,,,,,,,,,,,,,,,,,,
null,,thebreak,928332,break,,null,,,,,,,,,,,,,,,,,,
2834.7000000476837,,pt2_realistic_rating,931168,Fictional_Cities_List/img_natural_42.png,,50,Fictional_Cities_List/img_natural_42.png,NAT,2,,,,,,,,,,,,,,,
null,,confidence_buffer,931270,confidence_buffer,,null,,,,,,,,,,,,,,,,,,
1923.6999999284744,,pt2_unique_rating,933196,Fictional_Cities_List/img_natural_42.png,,51,,,3,,,,,,,,,,,,,,,
null,,confidence_buffer,933297,confidence_buffer,,null,,,,,,,,,,,,,,,,,,
997.2999999523163,,pt2_memorable_rating,934296,Fictional_Cities_List/img_natural_42.png,,51,,,3,,,,,,,,,,,,,,,
null,,confidence_buffer,934399,confidence_buffer,,null,,,,,,,,,,,,,,,,,,
1961.2999999523163,,recognition_phase,936363,Fictional_Cities_List/img_natural_42.png,,52,,,,,,new,1,0.896551724137931,,,,,,,,,,
null,,confidence_buffer,936464,confidence_buffer,,null,,,,,,,,,,,,,,,,,,
null,,thebreak,936967,break,,null,,,,,,,,,,,,,,,,,,
2454.899999976158,,pt2_realistic_rating,939424,US_Cities_List/nat_abilene.png,,50,US_Cities_List/nat_abilene.png,NAT,2,,,,,,,,,,,,,,,
null,,confidence_buffer,939526,confidence_buffer,,null,,,,,,,,,,,,,,,,,,
1168.3999999761581,,pt2_unique_rating,940697,US_Cities_List/nat_abilene.png,,51,,,3,,,,,,,,,,,,,,,
null,,confidence_buffer,940800,confidence_buffer,,null,,,,,,,,,,,,,,,,,,
402.5,,pt2_memorable_rating,941204,US_Cities_List/nat_abilene.png,,51,,,3,,,,,,,,,,,,,,,
null,,confidence_buffer,941306,confidence_buffer,,null,,,,,,,,,,,,,,,,,,
1144.8999999761581,,probe_rating,942453,probe_rating,,53,,,,5,1,,,,,,,,,,,,,
null,,confidence_buffer,942555,confidence_buffer,,null,,,,,,,,,,,,,,,,,,
4165.899999976158,,recognition_phase,946723,US_Cities_List/nat_abilene.png,,49,,,,,,old,1,0.9,,,,,,,,,,
null,,confidence_buffer,946825,confidence_buffer,,null,,,,,,,,,,,,,,,,,,
null,,thebreak,947327,break,,null,,,,,,,,,,,,,,,,,,
3068,,pt2_realistic_rating,950397,Fictional_Cities_List/img_manmade_21.png,,49,Fictional_Cities_List/img_manmade_21.png,MM,1,,,,,,,,,,,,,,,
null,,confidence_buffer,950499,confidence_buffer,,null,,,,,,,,,,,,,,,,,,
2098.7999999523163,,pt2_unique_rating,952600,Fictional_Cities_List/img_manmade_21.png,,51,,,3,,,,,,,,,,,,,,,
null,,confidence_buffer,952703,confidence_buffer,,null,,,,,,,,,,,,,,,,,,
2142.2999999523163,,pt2_memorable_rating,954847,Fictional_Cities_List/img_manmade_21.png,,51,,,3,,,,,,,,,,,,,,,
null,,confidence_buffer,954950,confidence_buffer,,null,,,,,,,,,,,,,,,,,,
1468.6000000238419,,recognition_phase,956420,Fictional_Cities_List/img_manmade_21.png,,50,,,,,,old,0,0.8709677419354839,,,,,,,,,,
null,,confidence_buffer,956522,confidence_buffer,,null,,,,,,,,,,,,,,,,,,
null,,thebreak,957035,break,,null,,,,,,,,,,,,,,,,,,
4314.200000047684,,pt2_realistic_rating,961351,Fictional_Cities_List/img_natural_25.png,,49,Fictional_Cities_List/img_natural_25.png,NAT,1,,,,,,,,,,,,,,,
null,,confidence_buffer,961453,confidence_buffer,,null,,,,,,,,,,,,,,,,,,
2842.399999976158,,pt2_unique_rating,964297,Fictional_Cities_List/img_natural_25.png,,52,,,4,,,,,,,,,,,,,,,
null,,confidence_buffer,964399,confidence_buffer,,null,,,,,,,,,,,,,,,,,,
2745.3000000715256,,pt2_memorable_rating,967146,Fictional_Cities_List/img_natural_25.png,,51,,,3,,,,,,,,,,,,,,,
null,,confidence_buffer,967248,confidence_buffer,,null,,,,,,,,,,,,,,,,,,
1561.7999999523163,,recognition_phase,968811,Fictional_Cities_List/img_natural_25.png,,52,,,,,,new,1,0.875,,,,,,,,,,
null,,confidence_buffer,968913,confidence_buffer,,null,,,,,,,,,,,,,,,,,,
null,,thebreak,969416,break,,null,,,,,,,,,,,,,,,,,,
1617,,pt2_realistic_rating,971035,US_Cities_List/nat_healdsburg.png,,50,US_Cities_List/nat_healdsburg.png,NAT,2,,,,,,,,,,,,,,,
null,,confidence_buffer,971137,confidence_buffer,,null,,,,,,,,,,,,,,,,,,
1216.5,,pt2_unique_rating,972355,US_Cities_List/nat_healdsburg.png,,51,,,3,,,,,,,,,,,,,,,
null,,confidence_buffer,972457,confidence_buffer,,null,,,,,,,,,,,,,,,,,,
579.7999999523163,,pt2_memorable_rating,973039,US_Cities_List/nat_healdsburg.png,,51,,,3,,,,,,,,,,,,,,,
null,,confidence_buffer,973141,confidence_buffer,,null,,,,,,,,,,,,,,,,,,
1366.1999999284744,,recognition_phase,974509,US_Cities_List/nat_healdsburg.png,,49,,,,,,old,1,0.8787878787878788,,,,,,,,,,
null,,confidence_buffer,974611,confidence_buffer,,null,,,,,,,,,,,,,,,,,,
null,,thebreak,975114,break,,null,,,,,,,,,,,,,,,,,,
459,,pt2_realistic_rating,975575,Fictional_Cities_List/img_natural_50.png,,51,Fictional_Cities_List/img_natural_50.png,NAT,3,,,,,,,,,,,,,,,
null,,confidence_buffer,975678,confidence_buffer,,null,,,,,,,,,,,,,,,,,,
1430.2999999523163,,pt2_unique_rating,977110,Fictional_Cities_List/img_natural_50.png,,51,,,3,,,,,,,,,,,,,,,
null,,confidence_buffer,977214,confidence_buffer,,null,,,,,,,,,,,,,,,,,,
1684.5,,pt2_memorable_rating,978901,Fictional_Cities_List/img_natural_50.png,,52,,,4,,,,,,,,,,,,,,,
null,,confidence_buffer,979002,confidence_buffer,,null,,,,,,,,,,,,,,,,,,
2581.399999976158,,recognition_phase,981586,Fictional_Cities_List/img_natural_50.png,,50,,,,,,old,1,0.8823529411764706,,,,,,,,,,
null,,confidence_buffer,981689,confidence_buffer,,null,,,,,,,,,,,,,,,,,,
null,,thebreak,982191,break,,null,,,,,,,,,,,,,,,,,,
1530.1000000238419,,pt2_realistic_rating,983723,Fictional_Cities_List/img_natural_19.png,,49,Fictional_Cities_List/img_natural_19.png,NAT,1,,,,,,,,,,,,,,,
null,,confidence_buffer,983825,confidence_buffer,,null,,,,,,,,,,,,,,,,,,
2094.2999999523163,,pt2_unique_rating,985921,Fictional_Cities_List/img_natural_19.png,,53,,,5,,,,,,,,,,,,,,,
null,,confidence_buffer,986023,confidence_buffer,,null,,,,,,,,,,,,,,,,,,
2570.600000023842,,pt2_memorable_rating,988596,Fictional_Cities_List/img_natural_19.png,,51,,,3,,,,,,,,,,,,,,,
null,,confidence_buffer,988697,confidence_buffer,,null,,,,,,,,,,,,,,,,,,
1851.6000000238419,,recognition_phase,990551,Fictional_Cities_List/img_natural_19.png,,52,,,,,,new,1,0.8857142857142857,,,,,,,,,,
null,,confidence_buffer,990654,confidence_buffer,,null,,,,,,,,,,,,,,,,,,
null,,thebreak,991157,break,,null,,,,,,,,,,,,,,,,,,
2641.3000000715256,,pt2_realistic_rating,993800,US_Cities_List/nat_delawarecity.png,,52,US_Cities_List/nat_delawarecity.png,NAT,4,,,,,,,,,,,,,,,
null,,confidence_buffer,993902,confidence_buffer,,null,,,,,,,,,,,,,,,,,,
1506.3999999761581,,probe_rating,995410,probe_rating,,51,,,,3,1,,,,,,,,,,,,,
null,,confidence_buffer,995512,confidence_buffer,,null,,,,,,,,,,,,,,,,,,
1887.7999999523163,,pt2_unique_rating,997401,US_Cities_List/nat_delawarecity.png,,50,,,2,,,,,,,,,,,,,,,
null,,confidence_buffer,997503,confidence_buffer,,null,,,,,,,,,,,,,,,,,,
3476.899999976158,,pt2_memorable_rating,1000982,US_Cities_List/nat_delawarecity.png,,51,,,3,,,,,,,,,,,,,,,
null,,confidence_buffer,1001084,confidence_buffer,,null,,,,,,,,,,,,,,,,,,
3766.5,,recognition_phase,1004853,US_Cities_List/nat_delawarecity.png,,50,,,,,,old,1,0.8888888888888888,,,,,,,,,,
null,,confidence_buffer,1004955,confidence_buffer,,null,,,,,,,,,,,,,,,,,,
null,,thebreak,1005458,break,,null,,,,,,,,,,,,,,,,,,
3814,,pt2_realistic_rating,1009274,US_Cities_List/mm_healdsburg.png,,51,US_Cities_List/mm_healdsburg.png,MM,3,,,,,,,,,,,,,,,
null,,confidence_buffer,1009377,confidence_buffer,,null,,,,,,,,,,,,,,,,,,
965.8999999761581,,pt2_unique_rating,1010344,US_Cities_List/mm_healdsburg.png,,51,,,3,,,,,,,,,,,,,,,
null,,confidence_buffer,1010447,confidence_buffer,,null,,,,,,,,,,,,,,,,,,
702.5999999046326,,pt2_memorable_rating,1011152,US_Cities_List/mm_healdsburg.png,,51,,,3,,,,,,,,,,,,,,,
null,,confidence_buffer,1011255,confidence_buffer,,null,,,,,,,,,,,,,,,,,,
6535.699999928474,,recognition_phase,1017793,US_Cities_List/mm_healdsburg.png,,49,,,,,,old,1,0.8918918918918919,,,,,,,,,,
null,,confidence_buffer,1017896,confidence_buffer,,null,,,,,,,,,,,,,,,,,,
null,,thebreak,1018399,break,,null,,,,,,,,,,,,,,,,,,
6594.199999928474,,pt2_realistic_rating,1024995,Fictional_Cities_List/img_natural_43.png,,51,Fictional_Cities_List/img_natural_43.png,NAT,3,,,,,,,,,,,,,,,
null,,confidence_buffer,1025098,confidence_buffer,,null,,,,,,,,,,,,,,,,,,
1173,,pt2_unique_rating,1026273,Fictional_Cities_List/img_natural_43.png,,51,,,3,,,,,,,,,,,,,,,
null,,confidence_buffer,1026375,confidence_buffer,,null,,,,,,,,,,,,,,,,,,
400.1999999284744,,pt2_memorable_rating,1026777,Fictional_Cities_List/img_natural_43.png,,52,,,4,,,,,,,,,,,,,,,
null,,confidence_buffer,1026893,confidence_buffer,,null,,,,,,,,,,,,,,,,,,
1513.8000000715256,,recognition_phase,1028409,Fictional_Cities_List/img_natural_43.png,,50,,,,,,old,0,0.868421052631579,,,,,,,,,,
null,,confidence_buffer,1028512,confidence_buffer,,null,,,,,,,,,,,,,,,,,,
null,,thebreak,1029021,break,,null,,,,,,,,,,,,,,,,,,
1072.5,,pt2_realistic_rating,1030095,Fictional_Cities_List/img_manmade_19.png,,51,Fictional_Cities_List/img_manmade_19.png,MM,3,,,,,,,,,,,,,,,
null,,confidence_buffer,1030197,confidence_buffer,,null,,,,,,,,,,,,,,,,,,
2318.899999976158,,pt2_unique_rating,1032518,Fictional_Cities_List/img_manmade_19.png,,52,,,4,,,,,,,,,,,,,,,
null,,confidence_buffer,1032620,confidence_buffer,,null,,,,,,,,,,,,,,,,,,
1900.6000000238419,,pt2_memorable_rating,1034522,Fictional_Cities_List/img_manmade_19.png,,51,,,3,,,,,,,,,,,,,,,
null,,confidence_buffer,1034625,confidence_buffer,,null,,,,,,,,,,,,,,,,,,
1407.2999999523163,,recognition_phase,1036035,Fictional_Cities_List/img_manmade_19.png,,52,,,,,,new,1,0.8717948717948718,,,,,,,,,,
null,,confidence_buffer,1036138,confidence_buffer,,null,,,,,,,,,,,,,,,,,,
null,,thebreak,1036640,break,,null,,,,,,,,,,,,,,,,,,
2434.600000023842,,pt2_realistic_rating,1039076,Fictional_Cities_List/img_manmade_14.png,,51,Fictional_Cities_List/img_manmade_14.png,MM,3,,,,,,,,,,,,,,,
null,,confidence_buffer,1039179,confidence_buffer,,null,,,,,,,,,,,,,,,,,,
1234.5,,pt2_unique_rating,1040415,Fictional_Cities_List/img_manmade_14.png,,52,,,4,,,,,,,,,,,,,,,
null,,confidence_buffer,1040517,confidence_buffer,,null,,,,,,,,,,,,,,,,,,
528.1999999284744,,pt2_memorable_rating,1041047,Fictional_Cities_List/img_manmade_14.png,,52,,,4,,,,,,,,,,,,,,,
null,,confidence_buffer,1041150,confidence_buffer,,null,,,,,,,,,,,,,,,,,,
1418.3999999761581,,recognition_phase,1042571,Fictional_Cities_List/img_manmade_14.png,,52,,,,,,new,1,0.875,,,,,,,,,,
null,,confidence_buffer,1042674,confidence_buffer,,null,,,,,,,,,,,,,,,,,,
null,,thebreak,1043177,break,,null,,,,,,,,,,,,,,,,,,
2598.1999999284744,,pt2_realistic_rating,1045777,US_Cities_List/nat_coeurdalene.png,,50,US_Cities_List/nat_coeurdalene.png,NAT,2,,,,,,,,,,,,,,,
null,,confidence_buffer,1045879,confidence_buffer,,null,,,,,,,,,,,,,,,,,,
3910.600000023842,,pt2_unique_rating,1049791,US_Cities_List/nat_coeurdalene.png,,50,,,2,,,,,,,,,,,,,,,
null,,confidence_buffer,1049893,confidence_buffer,,null,,,,,,,,,,,,,,,,,,
2327.399999976158,,pt2_memorable_rating,1052223,US_Cities_List/nat_coeurdalene.png,,53,,,5,,,,,,,,,,,,,,,
null,,confidence_buffer,1052324,confidence_buffer,,null,,,,,,,,,,,,,,,,,,
2611.2999999523163,,recognition_phase,1054937,US_Cities_List/nat_coeurdalene.png,,52,,,,,,new,1,0.8780487804878049,,,,,,,,,,
null,,confidence_buffer,1055039,confidence_buffer,,null,,,,,,,,,,,,,,,,,,
null,,thebreak,1055541,break,,null,,,,,,,,,,,,,,,,,,
3607.399999976158,,pt2_realistic_rating,1059150,US_Cities_List/nat_boulder.png,,51,US_Cities_List/nat_boulder.png,NAT,3,,,,,,,,,,,,,,,
null,,confidence_buffer,1059252,confidence_buffer,,null,,,,,,,,,,,,,,,,,,
1282.3999999761581,,pt2_unique_rating,1060537,US_Cities_List/nat_boulder.png,,50,,,2,,,,,,,,,,,,,,,
null,,confidence_buffer,1060640,confidence_buffer,,null,,,,,,,,,,,,,,,,,,
3570.600000023842,,pt2_memorable_rating,1064212,US_Cities_List/nat_boulder.png,,50,,,2,,,,,,,,,,,,,,,
null,,confidence_buffer,1064315,confidence_buffer,,null,,,,,,,,,,,,,,,,,,
3227.6999999284744,,recognition_phase,1067545,US_Cities_List/nat_boulder.png,,51,,,,,,new,1,0.8809523809523809,,,,,,,,,,
null,,confidence_buffer,1067647,confidence_buffer,,null,,,,,,,,,,,,,,,,,,
null,,thebreak,1068152,break,,null,,,,,,,,,,,,,,,,,,
6759.299999952316,,pt2_realistic_rating,1074913,US_Cities_List/mm_hilo.png,,52,US_Cities_List/mm_hilo.png,MM,4,,,,,,,,,,,,,,,
null,,confidence_buffer,1075016,confidence_buffer,,null,,,,,,,,,,,,,,,,,,
1497.0999999046326,,pt2_unique_rating,1076515,US_Cities_List/mm_hilo.png,,52,,,4,,,,,,,,,,,,,,,
null,,confidence_buffer,1076617,confidence_buffer,,null,,,,,,,,,,,,,,,,,,
3853.0999999046326,,pt2_memorable_rating,1080472,US_Cities_List/mm_hilo.png,,51,,,3,,,,,,,,,,,,,,,
null,,confidence_buffer,1080575,confidence_buffer,,null,,,,,,,,,,,,,,,,,,
6504.5,,recognition_phase,1087082,US_Cities_List/mm_hilo.png,,52,,,,,,new,1,0.8837209302325582,,,,,,,,,,
null,,confidence_buffer,1087184,confidence_buffer,,null,,,,,,,,,,,,,,,,,,
null,,thebreak,1087687,break,,null,,,,,,,,,,,,,,,,,,
1669,,pt2_realistic_rating,1089358,Fictional_Cities_List/img_natural_22.png,,49,Fictional_Cities_List/img_natural_22.png,NAT,1,,,,,,,,,,,,,,,
null,,confidence_buffer,1089460,confidence_buffer,,null,,,,,,,,,,,,,,,,,,
2065.9000000953674,,pt2_unique_rating,1091528,Fictional_Cities_List/img_natural_22.png,,52,,,4,,,,,,,,,,,,,,,
null,,confidence_buffer,1091630,confidence_buffer,,null,,,,,,,,,,,,,,,,,,
1277.2999999523163,,pt2_memorable_rating,1092910,Fictional_Cities_List/img_natural_22.png,,52,,,4,,,,,,,,,,,,,,,
null,,confidence_buffer,1093013,confidence_buffer,,null,,,,,,,,,,,,,,,,,,
1757.6999999284744,,recognition_phase,1094773,Fictional_Cities_List/img_natural_22.png,,49,,,,,,old,1,0.8863636363636364,,,,,,,,,,
null,,confidence_buffer,1094875,confidence_buffer,,null,,,,,,,,,,,,,,,,,,
null,,thebreak,1095378,break,,null,,,,,,,,,,,,,,,,,,
2991.0999999046326,,pt2_realistic_rating,1098371,US_Cities_List/mm_hotsprings.png,,52,US_Cities_List/mm_hotsprings.png,MM,4,,,,,,,,,,,,,,,
null,,confidence_buffer,1098473,confidence_buffer,,null,,,,,,,,,,,,,,,,,,
1571.8999999761581,,pt2_unique_rating,1100047,US_Cities_List/mm_hotsprings.png,,53,,,5,,,,,,,,,,,,,,,
null,,confidence_buffer,1100148,confidence_buffer,,null,,,,,,,,,,,,,,,,,,
1119.3000000715256,,pt2_memorable_rating,1101270,US_Cities_List/mm_hotsprings.png,,52,,,4,,,,,,,,,,,,,,,
null,,confidence_buffer,1101372,confidence_buffer,,null,,,,,,,,,,,,,,,,,,
6256.599999904633,,recognition_phase,1107631,US_Cities_List/mm_hotsprings.png,,52,,,,,,new,1,0.8888888888888888,,,,,,,,,,
null,,confidence_buffer,1107733,confidence_buffer,,null,,,,,,,,,,,,,,,,,,
null,,thebreak,1108234,break,,null,,,,,,,,,,,,,,,,,,
2823.7999999523163,,pt2_realistic_rating,1111060,US_Cities_List/mm_carmel.png,,49,US_Cities_List/mm_carmel.png,MM,1,,,,,,,,,,,,,,,
null,,confidence_buffer,1111161,confidence_buffer,,null,,,,,,,,,,,,,,,,,,
1642.2999999523163,,pt2_unique_rating,1112806,US_Cities_List/mm_carmel.png,,50,,,2,,,,,,,,,,,,,,,
null,,confidence_buffer,1112907,confidence_buffer,,null,,,,,,,,,,,,,,,,,,
934.3999999761581,,pt2_memorable_rating,1113844,US_Cities_List/mm_carmel.png,,50,,,2,,,,,,,,,,,,,,,
null,,confidence_buffer,1113946,confidence_buffer,,null,,,,,,,,,,,,,,,,,,
2884.1999999284744,,recognition_phase,1116832,US_Cities_List/mm_carmel.png,,49,,,,,,old,1,0.8913043478260869,,,,,,,,,,
null,,confidence_buffer,1116935,confidence_buffer,,null,,,,,,,,,,,,,,,,,,
null,,thebreak,1117438,break,,null,,,,,,,,,,,,,,,,,,
2191.899999976158,,pt2_realistic_rating,1119631,Fictional_Cities_List/img_natural_21.png,,51,Fictional_Cities_List/img_natural_21.png,NAT,3,,,,,,,,,,,,,,,
null,,confidence_buffer,1119735,confidence_buffer,,null,,,,,,,,,,,,,,,,,,
2393.2000000476837,,pt2_unique_rating,1122130,Fictional_Cities_List/img_natural_21.png,,53,,,5,,,,,,,,,,,,,,,
null,,confidence_buffer,1122232,confidence_buffer,,null,,,,,,,,,,,,,,,,,,
679.2999999523163,,pt2_memorable_rating,1122913,Fictional_Cities_List/img_natural_21.png,,53,,,5,,,,,,,,,,,,,,,
null,,confidence_buffer,1123015,confidence_buffer,,null,,,,,,,,,,,,,,,,,,
1886.7000000476837,,recognition_phase,1124904,Fictional_Cities_List/img_natural_21.png,,49,,,,,,old,1,0.8936170212765957,,,,,,,,,,
null,,confidence_buffer,1125006,confidence_buffer,,null,,,,,,,,,,,,,,,,,,
null,,thebreak,1125508,break,,null,,,,,,,,,,,,,,,,,,
4962.399999976158,,pt2_realistic_rating,1130472,US_Cities_List/nat_hilo.png,,50,US_Cities_List/nat_hilo.png,NAT,2,,,,,,,,,,,,,,,
null,,confidence_buffer,1130575,confidence_buffer,,null,,,,,,,,,,,,,,,,,,
3846.399999976158,,pt2_unique_rating,1134424,US_Cities_List/nat_hilo.png,,53,,,5,,,,,,,,,,,,,,,
null,,confidence_buffer,1134526,confidence_buffer,,null,,,,,,,,,,,,,,,,,,
1158.5999999046326,,pt2_memorable_rating,1135687,US_Cities_List/nat_hilo.png,,51,,,3,,,,,,,,,,,,,,,
null,,confidence_buffer,1135788,confidence_buffer,,null,,,,,,,,,,,,,,,,,,
2344.6999999284744,,recognition_phase,1138134,US_Cities_List/nat_hilo.png,,52,,,,,,new,1,0.8958333333333334,,,,,,,,,,
null,,confidence_buffer,1138238,confidence_buffer,,null,,,,,,,,,,,,,,,,,,
null,,thebreak,1138740,break,,null,,,,,,,,,,,,,,,,,,
32744.200000047684,,pt2_realistic_rating,1171486,US_Cities_List/mm_westpalmbeach.png,,50,US_Cities_List/mm_westpalmbeach.png,MM,2,,,,,,,,,,,,,,,
null,,confidence_buffer,1171590,confidence_buffer,,null,,,,,,,,,,,,,,,,,,
3159.5,,pt2_unique_rating,1174752,US_Cities_List/mm_westpalmbeach.png,,51,,,3,,,,,,,,,,,,,,,
null,,confidence_buffer,1174853,confidence_buffer,,null,,,,,,,,,,,,,,,,,,
18911,,pt2_memorable_rating,1193766,US_Cities_List/mm_westpalmbeach.png,,51,,,3,,,,,,,,,,,,,,,
null,,confidence_buffer,1193868,confidence_buffer,,null,,,,,,,,,,,,,,,,,,
1622.6999999284744,,recognition_phase,1195492,US_Cities_List/mm_westpalmbeach.png,,49,,,,,,old,1,0.8979591836734694,,,,,,,,,,
null,,confidence_buffer,1195596,confidence_buffer,,null,,,,,,,,,,,,,,,,,,
null,,thebreak,1196099,break,,null,,,,,,,,,,,,,,,,,,
2034.6999999284744,,pt2_realistic_rating,1198135,Fictional_Cities_List/img_manmade_50.png,,52,Fictional_Cities_List/img_manmade_50.png,MM,4,,,,,,,,,,,,,,,
null,,confidence_buffer,1198237,confidence_buffer,,null,,,,,,,,,,,,,,,,,,
691,,pt2_unique_rating,1198930,Fictional_Cities_List/img_manmade_50.png,,51,,,3,,,,,,,,,,,,,,,
null,,confidence_buffer,1199032,confidence_buffer,,null,,,,,,,,,,,,,,,,,,
533.3999999761581,,pt2_memorable_rating,1199567,Fictional_Cities_List/img_manmade_50.png,,51,,,3,,,,,,,,,,,,,,,
null,,confidence_buffer,1199684,confidence_buffer,,null,,,,,,,,,,,,,,,,,,
1275.7999999523163,,recognition_phase,1200962,Fictional_Cities_List/img_manmade_50.png,,52,,,,,,new,1,0.9,,,,,,,,,,
null,,confidence_buffer,1201064,confidence_buffer,,null,,,,,,,,,,,,,,,,,,
null,,thebreak,1201567,break,,null,,,,,,,,,,,,,,,,,,
2000.5,,pt2_realistic_rating,1203569,US_Cities_List/nat_carmel.png,,51,US_Cities_List/nat_carmel.png,NAT,3,,,,,,,,,,,,,,,
null,,confidence_buffer,1203672,confidence_buffer,,null,,,,,,,,,,,,,,,,,,
879.3000000715256,,pt2_unique_rating,1204553,US_Cities_List/nat_carmel.png,,51,,,3,,,,,,,,,,,,,,,
null,,confidence_buffer,1204655,confidence_buffer,,null,,,,,,,,,,,,,,,,,,
1042.0999999046326,,pt2_memorable_rating,1205699,US_Cities_List/nat_carmel.png,,51,,,3,,,,,,,,,,,,,,,
null,,confidence_buffer,1205803,confidence_buffer,,null,,,,,,,,,,,,,,,,,,
3020.3000000715256,,recognition_phase,1208825,US_Cities_List/nat_carmel.png,,52,,,,,,new,1,0.9019607843137255,,,,,,,,,,
null,,confidence_buffer,1208927,confidence_buffer,,null,,,,,,,,,,,,,,,,,,
null,,thebreak,1209430,break,,null,,,,,,,,,,,,,,,,,,
9176.899999976158,,pt2_realistic_rating,1218608,US_Cities_List/mm_peoria.png,,52,US_Cities_List/mm_peoria.png,MM,4,,,,,,,,,,,,,,,
null,,confidence_buffer,1218711,confidence_buffer,,null,,,,,,,,,,,,,,,,,,
1732,,pt2_unique_rating,1220445,US_Cities_List/mm_peoria.png,,52,,,4,,,,,,,,,,,,,,,
null,,confidence_buffer,1220547,confidence_buffer,,null,,,,,,,,,,,,,,,,,,
968.7000000476837,,pt2_memorable_rating,1221517,US_Cities_List/mm_peoria.png,,51,,,3,,,,,,,,,,,,,,,
null,,confidence_buffer,1221619,confidence_buffer,,null,,,,,,,,,,,,,,,,,,
1044.8999999761581,,recognition_phase,1222666,US_Cities_List/mm_peoria.png,,49,,,,,,old,1,0.9038461538461539,,,,,,,,,,
null,,confidence_buffer,1222768,confidence_buffer,,null,,,,,,,,,,,,,,,,,,
null,,thebreak,1223271,break,,null,,,,,,,,,,,,,,,,,,
4433.100000023842,,pt2_realistic_rating,1227706,Fictional_Cities_List/img_manmade_06.png,,51,Fictional_Cities_List/img_manmade_06.png,MM,3,,,,,,,,,,,,,,,
null,,confidence_buffer,1227809,confidence_buffer,,null,,,,,,,,,,,,,,,,,,
1290.5,,pt2_unique_rating,1229101,Fictional_Cities_List/img_manmade_06.png,,52,,,4,,,,,,,,,,,,,,,
null,,confidence_buffer,1229204,confidence_buffer,,null,,,,,,,,,,,,,,,,,,
1183.1000000238419,,probe_rating,1230389,probe_rating,,49,,,,1,1,,,,,,,,,,,,,
null,,confidence_buffer,1230491,confidence_buffer,,null,,,,,,,,,,,,,,,,,,
1415.6000000238419,,pt2_memorable_rating,1231909,Fictional_Cities_List/img_manmade_06.png,,50,,,2,,,,,,,,,,,,,,,
null,,confidence_buffer,1232011,confidence_buffer,,null,,,,,,,,,,,,,,,,,,
1889.5999999046326,,recognition_phase,1233902,Fictional_Cities_List/img_manmade_06.png,,52,,,,,,new,0,0.8867924528301887,,,,,,,,,,
null,,confidence_buffer,1234005,confidence_buffer,,null,,,,,,,,,,,,,,,,,,
null,,thebreak,1234508,break,,null,,,,,,,,,,,,,,,,,,
11836.700000047684,,pt2_realistic_rating,1246347,US_Cities_List/mm_athens.png,,50,US_Cities_List/mm_athens.png,MM,2,,,,,,,,,,,,,,,
null,,confidence_buffer,1246450,confidence_buffer,,null,,,,,,,,,,,,,,,,,,
1174.3000000715256,,pt2_unique_rating,1247626,US_Cities_List/mm_athens.png,,52,,,4,,,,,,,,,,,,,,,
null,,confidence_buffer,1247728,confidence_buffer,,null,,,,,,,,,,,,,,,,,,
570.3999999761581,,pt2_memorable_rating,1248300,US_Cities_List/mm_athens.png,,51,,,3,,,,,,,,,,,,,,,
null,,confidence_buffer,1248402,confidence_buffer,,null,,,,,,,,,,,,,,,,,,
1161,,recognition_phase,1249565,US_Cities_List/mm_athens.png,,52,,,,,,new,1,0.8888888888888888,,,,,,,,,,
null,,confidence_buffer,1249669,confidence_buffer,,null,,,,,,,,,,,,,,,,,,
null,,thebreak,1250172,break,,null,,,,,,,,,,,,,,,,,,
1924.8999999761581,,pt2_realistic_rating,1252099,US_Cities_List/mm_okoboji.png,,51,US_Cities_List/mm_okoboji.png,MM,3,,,,,,,,,,,,,,,
null,,confidence_buffer,1252202,confidence_buffer,,null,,,,,,,,,,,,,,,,,,
1278.6000000238419,,pt2_unique_rating,1253482,US_Cities_List/mm_okoboji.png,,51,,,3,,,,,,,,,,,,,,,
null,,confidence_buffer,1253584,confidence_buffer,,null,,,,,,,,,,,,,,,,,,
900.5,,pt2_memorable_rating,1254486,US_Cities_List/mm_okoboji.png,,50,,,2,,,,,,,,,,,,,,,
null,,confidence_buffer,1254588,confidence_buffer,,null,,,,,,,,,,,,,,,,,,
1195.0999999046326,,recognition_phase,1255785,US_Cities_List/mm_okoboji.png,,52,,,,,,new,0,0.8727272727272727,,,,,,,,,,
null,,confidence_buffer,1255888,confidence_buffer,,null,,,,,,,,,,,,,,,,,,
null,,thebreak,1256390,break,,null,,,,,,,,,,,,,,,,,,
1580.2999999523163,,pt2_realistic_rating,1257972,US_Cities_List/nat_westpalmbeach.png,,50,US_Cities_List/nat_westpalmbeach.png,NAT,2,,,,,,,,,,,,,,,
null,,confidence_buffer,1258075,confidence_buffer,,null,,,,,,,,,,,,,,,,,,
1397.3999999761581,,pt2_unique_rating,1259474,US_Cities_List/nat_westpalmbeach.png,,52,,,4,,,,,,,,,,,,,,,
null,,confidence_buffer,1259577,confidence_buffer,,null,,,,,,,,,,,,,,,,,,
836.1000000238419,,pt2_memorable_rating,1260415,US_Cities_List/nat_westpalmbeach.png,,51,,,3,,,,,,,,,,,,,,,
null,,confidence_buffer,1260518,confidence_buffer,,null,,,,,,,,,,,,,,,,,,
1645.2000000476837,,recognition_phase,1262166,US_Cities_List/nat_westpalmbeach.png,,51,,,,,,new,1,0.875,,,,,,,,,,
null,,confidence_buffer,1262267,confidence_buffer,,null,,,,,,,,,,,,,,,,,,
null,,thebreak,1262774,break,,null,,,,,,,,,,,,,,,,,,
3969,,pt2_realistic_rating,1266745,Fictional_Cities_List/img_natural_29.png,,49,Fictional_Cities_List/img_natural_29.png,NAT,1,,,,,,,,,,,,,,,
null,,confidence_buffer,1266848,confidence_buffer,,null,,,,,,,,,,,,,,,,,,
2231.2000000476837,,pt2_unique_rating,1269081,Fictional_Cities_List/img_natural_29.png,,53,,,5,,,,,,,,,,,,,,,
null,,confidence_buffer,1269183,confidence_buffer,,null,,,,,,,,,,,,,,,,,,
1379,,probe_rating,1270564,probe_rating,,52,,,,4,1,,,,,,,,,,,,,
null,,confidence_buffer,1270667,confidence_buffer,,null,,,,,,,,,,,,,,,,,,
1845.1999999284744,,pt2_memorable_rating,1272514,Fictional_Cities_List/img_natural_29.png,,52,,,4,,,,,,,,,,,,,,,
null,,confidence_buffer,1272617,confidence_buffer,,null,,,,,,,,,,,,,,,,,,
3121.899999976158,,recognition_phase,1275740,Fictional_Cities_List/img_natural_29.png,,52,,,,,,new,0,0.8596491228070176,,,,,,,,,,
null,,confidence_buffer,1275843,confidence_buffer,,null,,,,,,,,,,,,,,,,,,
null,,thebreak,1276346,break,,null,,,,,,,,,,,,,,,,,,
4752.100000023842,,pt2_realistic_rating,1281100,US_Cities_List/mm_boulder.png,,50,US_Cities_List/mm_boulder.png,MM,2,,,,,,,,,,,,,,,
null,,confidence_buffer,1281202,confidence_buffer,,null,,,,,,,,,,,,,,,,,,
3546.5,,pt2_unique_rating,1284750,US_Cities_List/mm_boulder.png,,53,,,5,,,,,,,,,,,,,,,
null,,confidence_buffer,1284852,confidence_buffer,,null,,,,,,,,,,,,,,,,,,
1299.8999999761581,,pt2_memorable_rating,1286154,US_Cities_List/mm_boulder.png,,53,,,5,,,,,,,,,,,,,,,
null,,confidence_buffer,1286256,confidence_buffer,,null,,,,,,,,,,,,,,,,,,
2828.7000000476837,,recognition_phase,1289087,US_Cities_List/mm_boulder.png,,52,,,,,,new,1,0.8620689655172413,,,,,,,,,,
null,,confidence_buffer,1289189,confidence_buffer,,null,,,,,,,,,,,,,,,,,,
null,,thebreak,1289692,break,,null,,,,,,,,,,,,,,,,,,
32473.300000071526,,pt2_realistic_rating,1322167,Fictional_Cities_List/img_manmade_29.png,,50,Fictional_Cities_List/img_manmade_29.png,MM,2,,,,,,,,,,,,,,,
null,,confidence_buffer,1322269,confidence_buffer,,null,,,,,,,,,,,,,,,,,,
1118,,pt2_unique_rating,1323389,Fictional_Cities_List/img_manmade_29.png,,51,,,3,,,,,,,,,,,,,,,
null,,confidence_buffer,1323491,confidence_buffer,,null,,,,,,,,,,,,,,,,,,
1182.1999999284744,,probe_rating,1324675,probe_rating,,49,,,,1,1,,,,,,,,,,,,,
null,,confidence_buffer,1324778,confidence_buffer,,null,,,,,,,,,,,,,,,,,,
3382.399999976158,,pt2_memorable_rating,1328162,Fictional_Cities_List/img_manmade_29.png,,50,,,2,,,,,,,,,,,,,,,
null,,confidence_buffer,1328264,confidence_buffer,,null,,,,,,,,,,,,,,,,,,
2296.6999999284744,,recognition_phase,1330562,Fictional_Cities_List/img_manmade_29.png,,49,,,,,,old,1,0.864406779661017,,,,,,,,,,
null,,confidence_buffer,1330665,confidence_buffer,,null,,,,,,,,,,,,,,,,,,
null,,thebreak,1331168,break,,null,,,,,,,,,,,,,,,,,,
2565.7999999523163,,pt2_realistic_rating,1333736,Fictional_Cities_List/img_manmade_22.png,,49,Fictional_Cities_List/img_manmade_22.png,MM,1,,,,,,,,,,,,,,,
null,,confidence_buffer,1333850,confidence_buffer,,null,,,,,,,,,,,,,,,,,,
1470.8999999761581,,pt2_unique_rating,1335323,Fictional_Cities_List/img_manmade_22.png,,53,,,5,,,,,,,,,,,,,,,
null,,confidence_buffer,1335425,confidence_buffer,,null,,,,,,,,,,,,,,,,,,
561,,pt2_memorable_rating,1335988,Fictional_Cities_List/img_manmade_22.png,,53,,,5,,,,,,,,,,,,,,,
null,,confidence_buffer,1336091,confidence_buffer,,null,,,,,,,,,,,,,,,,,,
1640.3999999761581,,recognition_phase,1337733,Fictional_Cities_List/img_manmade_22.png,,52,,,,,,new,1,0.8666666666666667,,,,,,,,,,
null,,confidence_buffer,1337835,confidence_buffer,,null,,,,,,,,,,,,,,,,,,
null,,thebreak,1338342,break,,null,,,,,,,,,,,,,,,,,,
,,survey,2122521,survey-questions,,,,,,,,,,,none,high,No.,I rated them according to my cognitive abilities.,If I have encountered such a photo or the location displayed.,How can someone feel after visiting the pictured places.,The theme of the pictured location.,Is the photo AI generated or camera captured.,No,
