rt,responses,trial_type,time_elapsed,stimulus,button_pressed,key_press,name_trial,city_type,rating,probe,probe_accuracy,response,correct,accuracy,problems,smooth,distraction,strategies,familiar,memorable,unique,realistic,similar,comments
24912.90000000596,{worker_id:67a90be1ed4a95e3c6ea5bf3},id_enter,24916,,,,,,,,,,,,,,,,,,,,,
2381.2000000029802,,fullscreen,27303,fullscreen,0,,,,,,,,,,,,,,,,,,,
1561.1000000014901,,intro_0,28867,instruct,,32,,,,,,,,,,,,,,,,,,
1598.3999999985099,,intro_1,30466,instruct,,32,,,,,,,,,,,,,,,,,,
905.2000000029802,,intro_2,31372,instruct,,32,,,,,,,,,,,,,,,,,,
null,,instruct_dir_4,32873,instruct,,null,,,,,,,,,,,,,,,,,,
null,,thebreak,33375,break,,null,,,,,,,,,,,,,,,,,,
4264.10000000149,,familiar_rating,37640,Fictional_Cities_List/img_manmade_19.png,,49,Fictional_Cities_List/img_manmade_19.png,MM,1,,,,,,,,,,,,,,,
null,,confidence_buffer,37743,confidence_buffer,,null,,,,,,,,,,,,,,,,,,
1335.8999999985099,,unique_rating,39080,Fictional_Cities_List/img_manmade_19.png,,53,,,5,,,,,,,,,,,,,,,
null,,confidence_buffer,39183,confidence_buffer,,null,,,,,,,,,,,,,,,,,,
334.5,,memorable_rating,39518,Fictional_Cities_List/img_manmade_19.png,,53,,,5,,,,,,,,,,,,,,,
null,,confidence_buffer,39620,confidence_buffer,,null,,,,,,,,,,,,,,,,,,
null,,thebreak,40123,break,,null,,,,,,,,,,,,,,,,,,
3006.89999999851,,familiar_rating,43131,US_Cities_List/mm_delawarecity.png,,50,US_Cities_List/mm_delawarecity.png,MM,2,,,,,,,,,,,,,,,
null,,confidence_buffer,43233,confidence_buffer,,null,,,,,,,,,,,,,,,,,,
903.1000000014901,,unique_rating,44137,US_Cities_List/mm_delawarecity.png,,52,,,4,,,,,,,,,,,,,,,
null,,confidence_buffer,44239,confidence_buffer,,null,,,,,,,,,,,,,,,,,,
433.70000000298023,,memorable_rating,44674,US_Cities_List/mm_delawarecity.png,,53,,,5,,,,,,,,,,,,,,,
null,,confidence_buffer,44776,confidence_buffer,,null,,,,,,,,,,,,,,,,,,
null,,thebreak,45290,break,,null,,,,,,,,,,,,,,,,,,
5153.20000000298,,familiar_rating,50444,Fictional_Cities_List/img_manmade_42.png,,49,Fictional_Cities_List/img_manmade_42.png,MM,1,,,,,,,,,,,,,,,
null,,confidence_buffer,50546,confidence_buffer,,null,,,,,,,,,,,,,,,,,,
565.1000000014901,,unique_rating,51112,Fictional_Cities_List/img_manmade_42.png,,53,,,5,,,,,,,,,,,,,,,
null,,confidence_buffer,51214,confidence_buffer,,null,,,,,,,,,,,,,,,,,,
581.1000000014901,,memorable_rating,51796,Fictional_Cities_List/img_manmade_42.png,,53,,,5,,,,,,,,,,,,,,,
null,,confidence_buffer,51898,confidence_buffer,,null,,,,,,,,,,,,,,,,,,
null,,thebreak,52399,break,,null,,,,,,,,,,,,,,,,,,
2403,,familiar_rating,54803,US_Cities_List/nat_delawarecity.png,,49,US_Cities_List/nat_delawarecity.png,NAT,1,,,,,,,,,,,,,,,
null,,confidence_buffer,54905,confidence_buffer,,null,,,,,,,,,,,,,,,,,,
1167.3999999985099,,unique_rating,56073,US_Cities_List/nat_delawarecity.png,,52,,,4,,,,,,,,,,,,,,,
null,,confidence_buffer,56176,confidence_buffer,,null,,,,,,,,,,,,,,,,,,
2373,,memorable_rating,58550,US_Cities_List/nat_delawarecity.png,,51,,,3,,,,,,,,,,,,,,,
null,,confidence_buffer,58651,confidence_buffer,,null,,,,,,,,,,,,,,,,,,
null,,thebreak,59152,break,,null,,,,,,,,,,,,,,,,,,
1787.7000000029802,,familiar_rating,60941,US_Cities_List/nat_carmel.png,,49,US_Cities_List/nat_carmel.png,NAT,1,,,,,,,,,,,,,,,
null,,confidence_buffer,61043,confidence_buffer,,null,,,,,,,,,,,,,,,,,,
1839,,unique_rating,62883,US_Cities_List/nat_carmel.png,,50,,,2,,,,,,,,,,,,,,,
null,,confidence_buffer,62985,confidence_buffer,,null,,,,,,,,,,,,,,,,,,
2078.2999999970198,,memorable_rating,65064,US_Cities_List/nat_carmel.png,,53,,,5,,,,,,,,,,,,,,,
null,,confidence_buffer,65166,confidence_buffer,,null,,,,,,,,,,,,,,,,,,
null,,thebreak,65667,break,,null,,,,,,,,,,,,,,,,,,
4123.80000000447,,familiar_rating,69792,US_Cities_List/mm_hilo.png,,49,US_Cities_List/mm_hilo.png,MM,1,,,,,,,,,,,,,,,
null,,confidence_buffer,69894,confidence_buffer,,null,,,,,,,,,,,,,,,,,,
1873,,unique_rating,71768,US_Cities_List/mm_hilo.png,,52,,,4,,,,,,,,,,,,,,,
null,,confidence_buffer,71871,confidence_buffer,,null,,,,,,,,,,,,,,,,,,
2090.5,,memorable_rating,73963,US_Cities_List/mm_hilo.png,,52,,,4,,,,,,,,,,,,,,,
null,,confidence_buffer,74065,confidence_buffer,,null,,,,,,,,,,,,,,,,,,
null,,thebreak,74566,break,,null,,,,,,,,,,,,,,,,,,
2797.0999999940395,,familiar_rating,77364,US_Cities_List/mm_okoboji.png,,49,US_Cities_List/mm_okoboji.png,MM,1,,,,,,,,,,,,,,,
null,,confidence_buffer,77466,confidence_buffer,,null,,,,,,,,,,,,,,,,,,
735.8999999985099,,unique_rating,78203,US_Cities_List/mm_okoboji.png,,53,,,5,,,,,,,,,,,,,,,
null,,confidence_buffer,78305,confidence_buffer,,null,,,,,,,,,,,,,,,,,,
814.6000000014901,,memorable_rating,79120,US_Cities_List/mm_okoboji.png,,53,,,5,,,,,,,,,,,,,,,
null,,confidence_buffer,79224,confidence_buffer,,null,,,,,,,,,,,,,,,,,,
null,,thebreak,79726,break,,null,,,,,,,,,,,,,,,,,,
3980.6999999955297,,familiar_rating,83708,Fictional_Cities_List/img_manmade_22.png,,50,Fictional_Cities_List/img_manmade_22.png,MM,2,,,,,,,,,,,,,,,
null,,confidence_buffer,83810,confidence_buffer,,null,,,,,,,,,,,,,,,,,,
4603.70000000298,,unique_rating,88415,Fictional_Cities_List/img_manmade_22.png,,53,,,5,,,,,,,,,,,,,,,
null,,confidence_buffer,88517,confidence_buffer,,null,,,,,,,,,,,,,,,,,,
1890.6999999955297,,probe_rating,90409,probe_rating,,51,,,,3,1,,,,,,,,,,,,,
null,,confidence_buffer,90511,confidence_buffer,,null,,,,,,,,,,,,,,,,,,
1387.7999999970198,,memorable_rating,91900,Fictional_Cities_List/img_manmade_22.png,,53,,,5,,,,,,,,,,,,,,,
null,,confidence_buffer,92004,confidence_buffer,,null,,,,,,,,,,,,,,,,,,
null,,thebreak,92505,break,,null,,,,,,,,,,,,,,,,,,
2823.89999999851,,familiar_rating,95331,Fictional_Cities_List/img_manmade_41.png,,52,Fictional_Cities_List/img_manmade_41.png,MM,4,,,,,,,,,,,,,,,
null,,confidence_buffer,95433,confidence_buffer,,null,,,,,,,,,,,,,,,,,,
910.5,,unique_rating,96345,Fictional_Cities_List/img_manmade_41.png,,51,,,3,,,,,,,,,,,,,,,
null,,confidence_buffer,96447,confidence_buffer,,null,,,,,,,,,,,,,,,,,,
745.1000000014901,,memorable_rating,97193,Fictional_Cities_List/img_manmade_41.png,,51,,,3,,,,,,,,,,,,,,,
null,,confidence_buffer,97294,confidence_buffer,,null,,,,,,,,,,,,,,,,,,
null,,thebreak,97795,break,,null,,,,,,,,,,,,,,,,,,
2096,,familiar_rating,99892,Fictional_Cities_List/img_natural_44.png,,50,Fictional_Cities_List/img_natural_44.png,NAT,2,,,,,,,,,,,,,,,
null,,confidence_buffer,99995,confidence_buffer,,null,,,,,,,,,,,,,,,,,,
1516.2999999970198,,unique_rating,101512,Fictional_Cities_List/img_natural_44.png,,52,,,4,,,,,,,,,,,,,,,
null,,confidence_buffer,101613,confidence_buffer,,null,,,,,,,,,,,,,,,,,,
1138.2000000029802,,memorable_rating,102753,Fictional_Cities_List/img_natural_44.png,,52,,,4,,,,,,,,,,,,,,,
null,,confidence_buffer,102855,confidence_buffer,,null,,,,,,,,,,,,,,,,,,
null,,thebreak,103357,break,,null,,,,,,,,,,,,,,,,,,
4290.69999999553,,familiar_rating,107649,Fictional_Cities_List/img_natural_39.png,,53,Fictional_Cities_List/img_natural_39.png,NAT,5,,,,,,,,,,,,,,,
null,,confidence_buffer,107751,confidence_buffer,,null,,,,,,,,,,,,,,,,,,
1195.3000000044703,,unique_rating,108947,Fictional_Cities_List/img_natural_39.png,,52,,,4,,,,,,,,,,,,,,,
null,,confidence_buffer,109049,confidence_buffer,,null,,,,,,,,,,,,,,,,,,
897.5,,memorable_rating,109947,Fictional_Cities_List/img_natural_39.png,,53,,,5,,,,,,,,,,,,,,,
null,,confidence_buffer,110048,confidence_buffer,,null,,,,,,,,,,,,,,,,,,
null,,thebreak,110565,break,,null,,,,,,,,,,,,,,,,,,
280.8999999985099,,familiar_rating,110847,Fictional_Cities_List/img_manmade_11.png,,51,Fictional_Cities_List/img_manmade_11.png,MM,3,,,,,,,,,,,,,,,
null,,confidence_buffer,110949,confidence_buffer,,null,,,,,,,,,,,,,,,,,,
2660.6999999955297,,unique_rating,113611,Fictional_Cities_List/img_manmade_11.png,,49,,,1,,,,,,,,,,,,,,,
null,,confidence_buffer,113712,confidence_buffer,,null,,,,,,,,,,,,,,,,,,
1968.7999999970198,,memorable_rating,115682,Fictional_Cities_List/img_manmade_11.png,,53,,,5,,,,,,,,,,,,,,,
null,,confidence_buffer,115784,confidence_buffer,,null,,,,,,,,,,,,,,,,,,
null,,thebreak,116286,break,,null,,,,,,,,,,,,,,,,,,
5040.39999999851,,familiar_rating,121327,US_Cities_List/mm_sitka.png,,50,US_Cities_List/mm_sitka.png,MM,2,,,,,,,,,,,,,,,
null,,confidence_buffer,121429,confidence_buffer,,null,,,,,,,,,,,,,,,,,,
590.7999999970198,,unique_rating,122021,US_Cities_List/mm_sitka.png,,51,,,3,,,,,,,,,,,,,,,
null,,confidence_buffer,122130,confidence_buffer,,null,,,,,,,,,,,,,,,,,,
712.8999999985099,,memorable_rating,122844,US_Cities_List/mm_sitka.png,,51,,,3,,,,,,,,,,,,,,,
null,,confidence_buffer,122946,confidence_buffer,,null,,,,,,,,,,,,,,,,,,
null,,thebreak,123447,break,,null,,,,,,,,,,,,,,,,,,
2905.39999999851,,familiar_rating,126354,US_Cities_List/mm_boulder.png,,53,US_Cities_List/mm_boulder.png,MM,5,,,,,,,,,,,,,,,
null,,confidence_buffer,126456,confidence_buffer,,null,,,,,,,,,,,,,,,,,,
2355.5,,unique_rating,128812,US_Cities_List/mm_boulder.png,,50,,,2,,,,,,,,,,,,,,,
null,,confidence_buffer,128914,confidence_buffer,,null,,,,,,,,,,,,,,,,,,
895.1000000014901,,memorable_rating,129811,US_Cities_List/mm_boulder.png,,53,,,5,,,,,,,,,,,,,,,
null,,confidence_buffer,129928,confidence_buffer,,null,,,,,,,,,,,,,,,,,,
null,,thebreak,130430,break,,null,,,,,,,,,,,,,,,,,,
3682,,familiar_rating,134113,Fictional_Cities_List/img_natural_19.png,,49,Fictional_Cities_List/img_natural_19.png,NAT,1,,,,,,,,,,,,,,,
null,,confidence_buffer,134214,confidence_buffer,,null,,,,,,,,,,,,,,,,,,
601.1000000014901,,unique_rating,134816,Fictional_Cities_List/img_natural_19.png,,53,,,5,,,,,,,,,,,,,,,
null,,confidence_buffer,134919,confidence_buffer,,null,,,,,,,,,,,,,,,,,,
886.2999999970198,,memorable_rating,135806,Fictional_Cities_List/img_natural_19.png,,53,,,5,,,,,,,,,,,,,,,
null,,confidence_buffer,135908,confidence_buffer,,null,,,,,,,,,,,,,,,,,,
null,,thebreak,136410,break,,null,,,,,,,,,,,,,,,,,,
2081.4000000059605,,familiar_rating,138492,US_Cities_List/mm_cornwall.png,,50,US_Cities_List/mm_cornwall.png,MM,2,,,,,,,,,,,,,,,
null,,confidence_buffer,138593,confidence_buffer,,null,,,,,,,,,,,,,,,,,,
1513,,unique_rating,140107,US_Cities_List/mm_cornwall.png,,51,,,3,,,,,,,,,,,,,,,
null,,confidence_buffer,140208,confidence_buffer,,null,,,,,,,,,,,,,,,,,,
1131,,memorable_rating,141340,US_Cities_List/mm_cornwall.png,,53,,,5,,,,,,,,,,,,,,,
null,,confidence_buffer,141443,confidence_buffer,,null,,,,,,,,,,,,,,,,,,
null,,thebreak,141944,break,,null,,,,,,,,,,,,,,,,,,
2462.60000000149,,familiar_rating,144407,Fictional_Cities_List/img_natural_40.png,,51,Fictional_Cities_List/img_natural_40.png,NAT,3,,,,,,,,,,,,,,,
null,,confidence_buffer,144508,confidence_buffer,,null,,,,,,,,,,,,,,,,,,
667.2999999970198,,unique_rating,145177,Fictional_Cities_List/img_natural_40.png,,53,,,5,,,,,,,,,,,,,,,
null,,confidence_buffer,145279,confidence_buffer,,null,,,,,,,,,,,,,,,,,,
717.7000000029802,,memorable_rating,145997,Fictional_Cities_List/img_natural_40.png,,53,,,5,,,,,,,,,,,,,,,
null,,confidence_buffer,146100,confidence_buffer,,null,,,,,,,,,,,,,,,,,,
null,,thebreak,146601,break,,null,,,,,,,,,,,,,,,,,,
1481,,familiar_rating,148083,US_Cities_List/nat_healdsburg.png,,49,US_Cities_List/nat_healdsburg.png,NAT,1,,,,,,,,,,,,,,,
null,,confidence_buffer,148186,confidence_buffer,,null,,,,,,,,,,,,,,,,,,
913.6000000014901,,unique_rating,149100,US_Cities_List/nat_healdsburg.png,,52,,,4,,,,,,,,,,,,,,,
null,,confidence_buffer,149204,confidence_buffer,,null,,,,,,,,,,,,,,,,,,
726.5,,memorable_rating,149931,US_Cities_List/nat_healdsburg.png,,53,,,5,,,,,,,,,,,,,,,
null,,confidence_buffer,150034,confidence_buffer,,null,,,,,,,,,,,,,,,,,,
null,,thebreak,150536,break,,null,,,,,,,,,,,,,,,,,,
2155.89999999851,,familiar_rating,152693,Fictional_Cities_List/img_natural_35.png,,52,Fictional_Cities_List/img_natural_35.png,NAT,4,,,,,,,,,,,,,,,
null,,confidence_buffer,152794,confidence_buffer,,null,,,,,,,,,,,,,,,,,,
2734.5,,unique_rating,155529,Fictional_Cities_List/img_natural_35.png,,53,,,5,,,,,,,,,,,,,,,
null,,confidence_buffer,155631,confidence_buffer,,null,,,,,,,,,,,,,,,,,,
1266.2000000029802,,memorable_rating,156898,Fictional_Cities_List/img_natural_35.png,,50,,,2,,,,,,,,,,,,,,,
null,,confidence_buffer,157000,confidence_buffer,,null,,,,,,,,,,,,,,,,,,
null,,thebreak,157501,break,,null,,,,,,,,,,,,,,,,,,
2291.60000000149,,familiar_rating,159794,US_Cities_List/nat_sitka.png,,52,US_Cities_List/nat_sitka.png,NAT,4,,,,,,,,,,,,,,,
null,,confidence_buffer,159896,confidence_buffer,,null,,,,,,,,,,,,,,,,,,
956.6999999955297,,unique_rating,160854,US_Cities_List/nat_sitka.png,,50,,,2,,,,,,,,,,,,,,,
null,,confidence_buffer,160956,confidence_buffer,,null,,,,,,,,,,,,,,,,,,
1158.6999999955297,,memorable_rating,162116,US_Cities_List/nat_sitka.png,,52,,,4,,,,,,,,,,,,,,,
null,,confidence_buffer,162218,confidence_buffer,,null,,,,,,,,,,,,,,,,,,
null,,thebreak,162719,break,,null,,,,,,,,,,,,,,,,,,
1733.5,,familiar_rating,164454,US_Cities_List/nat_hotsprings.png,,49,US_Cities_List/nat_hotsprings.png,NAT,1,,,,,,,,,,,,,,,
null,,confidence_buffer,164556,confidence_buffer,,null,,,,,,,,,,,,,,,,,,
886.7999999970198,,unique_rating,165443,US_Cities_List/nat_hotsprings.png,,50,,,2,,,,,,,,,,,,,,,
null,,confidence_buffer,165545,confidence_buffer,,null,,,,,,,,,,,,,,,,,,
1207.2999999970198,,memorable_rating,166753,US_Cities_List/nat_hotsprings.png,,52,,,4,,,,,,,,,,,,,,,
null,,confidence_buffer,166855,confidence_buffer,,null,,,,,,,,,,,,,,,,,,
1547.1999999955297,,probe_rating,168403,probe_rating,,51,,,,3,1,,,,,,,,,,,,,
null,,confidence_buffer,168505,confidence_buffer,,null,,,,,,,,,,,,,,,,,,
null,,thebreak,169007,break,,null,,,,,,,,,,,,,,,,,,
1333,,familiar_rating,170341,Fictional_Cities_List/img_manmade_44.png,,52,Fictional_Cities_List/img_manmade_44.png,MM,4,,,,,,,,,,,,,,,
null,,confidence_buffer,170443,confidence_buffer,,null,,,,,,,,,,,,,,,,,,
1876.8999999985099,,unique_rating,172321,Fictional_Cities_List/img_manmade_44.png,,50,,,2,,,,,,,,,,,,,,,
null,,confidence_buffer,172423,confidence_buffer,,null,,,,,,,,,,,,,,,,,,
993.2000000029802,,memorable_rating,173418,Fictional_Cities_List/img_manmade_44.png,,52,,,4,,,,,,,,,,,,,,,
null,,confidence_buffer,173519,confidence_buffer,,null,,,,,,,,,,,,,,,,,,
null,,thebreak,174020,break,,null,,,,,,,,,,,,,,,,,,
741,,familiar_rating,174762,US_Cities_List/mm_westpalmbeach.png,,51,US_Cities_List/mm_westpalmbeach.png,MM,3,,,,,,,,,,,,,,,
null,,confidence_buffer,174864,confidence_buffer,,null,,,,,,,,,,,,,,,,,,
1809.5999999940395,,unique_rating,176675,US_Cities_List/mm_westpalmbeach.png,,52,,,4,,,,,,,,,,,,,,,
null,,confidence_buffer,176777,confidence_buffer,,null,,,,,,,,,,,,,,,,,,
734.5,,memorable_rating,177513,US_Cities_List/mm_westpalmbeach.png,,52,,,4,,,,,,,,,,,,,,,
null,,confidence_buffer,177614,confidence_buffer,,null,,,,,,,,,,,,,,,,,,
null,,thebreak,178116,break,,null,,,,,,,,,,,,,,,,,,
862.8999999985099,,familiar_rating,178980,Fictional_Cities_List/img_natural_49.png,,50,Fictional_Cities_List/img_natural_49.png,NAT,2,,,,,,,,,,,,,,,
null,,confidence_buffer,179081,confidence_buffer,,null,,,,,,,,,,,,,,,,,,
1006.1999999955297,,unique_rating,180088,Fictional_Cities_List/img_natural_49.png,,52,,,4,,,,,,,,,,,,,,,
null,,confidence_buffer,180190,confidence_buffer,,null,,,,,,,,,,,,,,,,,,
652.8000000044703,,memorable_rating,180844,Fictional_Cities_List/img_natural_49.png,,51,,,3,,,,,,,,,,,,,,,
null,,confidence_buffer,180945,confidence_buffer,,null,,,,,,,,,,,,,,,,,,
null,,thebreak,181446,break,,null,,,,,,,,,,,,,,,,,,
1884.5,,familiar_rating,183332,Fictional_Cities_List/img_natural_22.png,,52,Fictional_Cities_List/img_natural_22.png,NAT,4,,,,,,,,,,,,,,,
null,,confidence_buffer,183434,confidence_buffer,,null,,,,,,,,,,,,,,,,,,
3179.89999999851,,unique_rating,186615,Fictional_Cities_List/img_natural_22.png,,53,,,5,,,,,,,,,,,,,,,
null,,confidence_buffer,186717,confidence_buffer,,null,,,,,,,,,,,,,,,,,,
722.1999999955297,,memorable_rating,187440,Fictional_Cities_List/img_natural_22.png,,53,,,5,,,,,,,,,,,,,,,
null,,confidence_buffer,187554,confidence_buffer,,null,,,,,,,,,,,,,,,,,,
null,,thebreak,188055,break,,null,,,,,,,,,,,,,,,,,,
1734.6999999955297,,familiar_rating,189791,US_Cities_List/nat_okoboji.png,,50,US_Cities_List/nat_okoboji.png,NAT,2,,,,,,,,,,,,,,,
null,,confidence_buffer,189894,confidence_buffer,,null,,,,,,,,,,,,,,,,,,
1425.2000000029802,,unique_rating,191320,US_Cities_List/nat_okoboji.png,,51,,,3,,,,,,,,,,,,,,,
null,,confidence_buffer,191423,confidence_buffer,,null,,,,,,,,,,,,,,,,,,
825.1999999955297,,memorable_rating,192249,US_Cities_List/nat_okoboji.png,,52,,,4,,,,,,,,,,,,,,,
null,,confidence_buffer,192351,confidence_buffer,,null,,,,,,,,,,,,,,,,,,
null,,thebreak,192853,break,,null,,,,,,,,,,,,,,,,,,
930.2000000029802,,familiar_rating,193784,US_Cities_List/nat_bisbee.png,,49,US_Cities_List/nat_bisbee.png,NAT,1,,,,,,,,,,,,,,,
null,,confidence_buffer,193886,confidence_buffer,,null,,,,,,,,,,,,,,,,,,
1693.1000000014901,,unique_rating,195580,US_Cities_List/nat_bisbee.png,,50,,,2,,,,,,,,,,,,,,,
null,,confidence_buffer,195681,confidence_buffer,,null,,,,,,,,,,,,,,,,,,
1612.7000000029802,,probe_rating,197295,probe_rating,,50,,,,2,1,,,,,,,,,,,,,
null,,confidence_buffer,197397,confidence_buffer,,null,,,,,,,,,,,,,,,,,,
1486.9000000059605,,memorable_rating,198884,US_Cities_List/nat_bisbee.png,,51,,,3,,,,,,,,,,,,,,,
null,,confidence_buffer,198986,confidence_buffer,,null,,,,,,,,,,,,,,,,,,
null,,thebreak,199488,break,,null,,,,,,,,,,,,,,,,,,
2421.39999999851,,familiar_rating,201910,Fictional_Cities_List/img_manmade_39.png,,51,Fictional_Cities_List/img_manmade_39.png,MM,3,,,,,,,,,,,,,,,
null,,confidence_buffer,202023,confidence_buffer,,null,,,,,,,,,,,,,,,,,,
1466.2000000029802,,unique_rating,203490,Fictional_Cities_List/img_manmade_39.png,,52,,,4,,,,,,,,,,,,,,,
null,,confidence_buffer,203593,confidence_buffer,,null,,,,,,,,,,,,,,,,,,
513,,memorable_rating,204107,Fictional_Cities_List/img_manmade_39.png,,53,,,5,,,,,,,,,,,,,,,
null,,confidence_buffer,204209,confidence_buffer,,null,,,,,,,,,,,,,,,,,,
null,,thebreak,204710,break,,null,,,,,,,,,,,,,,,,,,
1579.8000000044703,,familiar_rating,206291,US_Cities_List/mm_carmel.png,,51,US_Cities_List/mm_carmel.png,MM,3,,,,,,,,,,,,,,,
null,,confidence_buffer,206394,confidence_buffer,,null,,,,,,,,,,,,,,,,,,
1061.3999999985099,,unique_rating,207457,US_Cities_List/mm_carmel.png,,52,,,4,,,,,,,,,,,,,,,
null,,confidence_buffer,207559,confidence_buffer,,null,,,,,,,,,,,,,,,,,,
983.3000000044703,,memorable_rating,208543,US_Cities_List/mm_carmel.png,,50,,,2,,,,,,,,,,,,,,,
null,,confidence_buffer,208645,confidence_buffer,,null,,,,,,,,,,,,,,,,,,
null,,thebreak,209147,break,,null,,,,,,,,,,,,,,,,,,
2460.10000000149,,familiar_rating,211608,Fictional_Cities_List/img_natural_50.png,,52,Fictional_Cities_List/img_natural_50.png,NAT,4,,,,,,,,,,,,,,,
null,,confidence_buffer,211709,confidence_buffer,,null,,,,,,,,,,,,,,,,,,
2003.5,,unique_rating,213713,Fictional_Cities_List/img_natural_50.png,,51,,,3,,,,,,,,,,,,,,,
null,,confidence_buffer,213815,confidence_buffer,,null,,,,,,,,,,,,,,,,,,
1698.7999999970198,,memorable_rating,215515,Fictional_Cities_List/img_natural_50.png,,52,,,4,,,,,,,,,,,,,,,
null,,confidence_buffer,215616,confidence_buffer,,null,,,,,,,,,,,,,,,,,,
null,,thebreak,216118,break,,null,,,,,,,,,,,,,,,,,,
8010.5,,intro_0,224129,instruct,,32,,,,,,,,,,,,,,,,,,
2796.3000000044703,,intro_1,226926,instruct,,32,,,,,,,,,,,,,,,,,,
3295.7000000029802,,intro_2,230222,instruct,,32,,,,,,,,,,,,,,,,,,
null,,instruct_dir_4,231724,instruct,,null,,,,,,,,,,,,,,,,,,
2263.2000000029802,,pt2_realistic_rating,233989,Fictional_Cities_List/img_manmade_50.png,,49,Fictional_Cities_List/img_manmade_50.png,MM,1,,,,,,,,,,,,,,,
null,,confidence_buffer,234090,confidence_buffer,,null,,,,,,,,,,,,,,,,,,
11901.19999999553,,pt2_unique_rating,245992,Fictional_Cities_List/img_manmade_50.png,,51,,,3,,,,,,,,,,,,,,,
null,,confidence_buffer,246094,confidence_buffer,,null,,,,,,,,,,,,,,,,,,
2245.89999999851,,pt2_memorable_rating,248341,Fictional_Cities_List/img_manmade_50.png,,53,,,5,,,,,,,,,,,,,,,
null,,confidence_buffer,248444,confidence_buffer,,null,,,,,,,,,,,,,,,,,,
5878.5,,recognition_phase,254323,Fictional_Cities_List/img_manmade_50.png,,52,,,,,,new,1,1,,,,,,,,,,
null,,confidence_buffer,254425,confidence_buffer,,null,,,,,,,,,,,,,,,,,,
null,,thebreak,254926,break,,null,,,,,,,,,,,,,,,,,,
4818.5,,pt2_realistic_rating,259746,Fictional_Cities_List/img_manmade_42.png,,50,Fictional_Cities_List/img_manmade_42.png,MM,2,,,,,,,,,,,,,,,
null,,confidence_buffer,259848,confidence_buffer,,null,,,,,,,,,,,,,,,,,,
2776.39999999851,,pt2_unique_rating,262626,Fictional_Cities_List/img_manmade_42.png,,52,,,4,,,,,,,,,,,,,,,
null,,confidence_buffer,262728,confidence_buffer,,null,,,,,,,,,,,,,,,,,,
2247.9000000059605,,pt2_memorable_rating,264977,Fictional_Cities_List/img_manmade_42.png,,53,,,5,,,,,,,,,,,,,,,
null,,confidence_buffer,265079,confidence_buffer,,null,,,,,,,,,,,,,,,,,,
2268.10000000149,,recognition_phase,267348,Fictional_Cities_List/img_manmade_42.png,,49,,,,,,old,1,1,,,,,,,,,,
null,,confidence_buffer,267450,confidence_buffer,,null,,,,,,,,,,,,,,,,,,
null,,thebreak,267951,break,,null,,,,,,,,,,,,,,,,,,
6578.10000000149,,pt2_realistic_rating,274530,US_Cities_List/mm_athens.png,,51,US_Cities_List/mm_athens.png,MM,3,,,,,,,,,,,,,,,
null,,confidence_buffer,274633,confidence_buffer,,null,,,,,,,,,,,,,,,,,,
2536.7999999970198,,probe_rating,277172,probe_rating,,53,,,,5,1,,,,,,,,,,,,,
null,,confidence_buffer,277273,confidence_buffer,,null,,,,,,,,,,,,,,,,,,
2548.5,,pt2_unique_rating,279823,US_Cities_List/mm_athens.png,,51,,,3,,,,,,,,,,,,,,,
null,,confidence_buffer,279925,confidence_buffer,,null,,,,,,,,,,,,,,,,,,
9347.69999999553,,pt2_memorable_rating,289274,US_Cities_List/mm_athens.png,,53,,,5,,,,,,,,,,,,,,,
null,,confidence_buffer,289376,confidence_buffer,,null,,,,,,,,,,,,,,,,,,
6177.5,,recognition_phase,295555,US_Cities_List/mm_athens.png,,49,,,,,,old,0,0.6666666666666666,,,,,,,,,,
null,,confidence_buffer,295658,confidence_buffer,,null,,,,,,,,,,,,,,,,,,
null,,thebreak,296159,break,,null,,,,,,,,,,,,,,,,,,
5448.30000000447,,pt2_realistic_rating,301608,Fictional_Cities_List/img_manmade_44.png,,52,Fictional_Cities_List/img_manmade_44.png,MM,4,,,,,,,,,,,,,,,
null,,confidence_buffer,301710,confidence_buffer,,null,,,,,,,,,,,,,,,,,,
2394.39999999851,,probe_rating,304106,probe_rating,,51,,,,3,1,,,,,,,,,,,,,
null,,confidence_buffer,304207,confidence_buffer,,null,,,,,,,,,,,,,,,,,,
3110,,pt2_unique_rating,307318,Fictional_Cities_List/img_manmade_44.png,,52,,,4,,,,,,,,,,,,,,,
null,,confidence_buffer,307419,confidence_buffer,,null,,,,,,,,,,,,,,,,,,
2684.2000000029802,,pt2_memorable_rating,310104,Fictional_Cities_List/img_manmade_44.png,,52,,,4,,,,,,,,,,,,,,,
null,,confidence_buffer,310206,confidence_buffer,,null,,,,,,,,,,,,,,,,,,
3020.10000000149,,recognition_phase,313227,Fictional_Cities_List/img_manmade_44.png,,49,,,,,,old,1,0.75,,,,,,,,,,
null,,confidence_buffer,313329,confidence_buffer,,null,,,,,,,,,,,,,,,,,,
null,,thebreak,313830,break,,null,,,,,,,,,,,,,,,,,,
6428.79999999702,,pt2_realistic_rating,320260,US_Cities_List/nat_peoria.png,,53,US_Cities_List/nat_peoria.png,NAT,5,,,,,,,,,,,,,,,
null,,confidence_buffer,320363,confidence_buffer,,null,,,,,,,,,,,,,,,,,,
3644.3000000044703,,pt2_unique_rating,324008,US_Cities_List/nat_peoria.png,,53,,,5,,,,,,,,,,,,,,,
null,,confidence_buffer,324109,confidence_buffer,,null,,,,,,,,,,,,,,,,,,
1094.1999999955297,,pt2_memorable_rating,325205,US_Cities_List/nat_peoria.png,,53,,,5,,,,,,,,,,,,,,,
null,,confidence_buffer,325306,confidence_buffer,,null,,,,,,,,,,,,,,,,,,
3815.10000000149,,recognition_phase,329122,US_Cities_List/nat_peoria.png,,52,,,,,,new,1,0.8,,,,,,,,,,
null,,confidence_buffer,329224,confidence_buffer,,null,,,,,,,,,,,,,,,,,,
null,,thebreak,329726,break,,null,,,,,,,,,,,,,,,,,,
3832.2999999970198,,pt2_realistic_rating,333559,Fictional_Cities_List/img_natural_39.png,,53,Fictional_Cities_List/img_natural_39.png,NAT,5,,,,,,,,,,,,,,,
null,,confidence_buffer,333661,confidence_buffer,,null,,,,,,,,,,,,,,,,,,
3218.89999999851,,pt2_unique_rating,336881,Fictional_Cities_List/img_natural_39.png,,51,,,3,,,,,,,,,,,,,,,
null,,confidence_buffer,336984,confidence_buffer,,null,,,,,,,,,,,,,,,,,,
2125.2000000029802,,pt2_memorable_rating,339110,Fictional_Cities_List/img_natural_39.png,,53,,,5,,,,,,,,,,,,,,,
null,,confidence_buffer,339216,confidence_buffer,,null,,,,,,,,,,,,,,,,,,
1339.4000000059605,,recognition_phase,340557,Fictional_Cities_List/img_natural_39.png,,49,,,,,,old,1,0.8333333333333334,,,,,,,,,,
null,,confidence_buffer,340659,confidence_buffer,,null,,,,,,,,,,,,,,,,,,
null,,thebreak,341160,break,,null,,,,,,,,,,,,,,,,,,
9140.90000000596,,pt2_realistic_rating,350302,Fictional_Cities_List/img_manmade_01.png,,50,Fictional_Cities_List/img_manmade_01.png,MM,2,,,,,,,,,,,,,,,
null,,confidence_buffer,350404,confidence_buffer,,null,,,,,,,,,,,,,,,,,,
2483.6999999955297,,pt2_unique_rating,352888,Fictional_Cities_List/img_manmade_01.png,,51,,,3,,,,,,,,,,,,,,,
null,,confidence_buffer,352990,confidence_buffer,,null,,,,,,,,,,,,,,,,,,
2377.3000000044703,,pt2_memorable_rating,355368,Fictional_Cities_List/img_manmade_01.png,,53,,,5,,,,,,,,,,,,,,,
null,,confidence_buffer,355470,confidence_buffer,,null,,,,,,,,,,,,,,,,,,
4763.10000000149,,recognition_phase,360235,Fictional_Cities_List/img_manmade_01.png,,52,,,,,,new,1,0.8571428571428571,,,,,,,,,,
null,,confidence_buffer,360336,confidence_buffer,,null,,,,,,,,,,,,,,,,,,
null,,thebreak,360837,break,,null,,,,,,,,,,,,,,,,,,
5070.70000000298,,pt2_realistic_rating,365909,US_Cities_List/nat_carmel.png,,53,US_Cities_List/nat_carmel.png,NAT,5,,,,,,,,,,,,,,,
null,,confidence_buffer,366012,confidence_buffer,,null,,,,,,,,,,,,,,,,,,
2580.7000000029802,,pt2_unique_rating,368593,US_Cities_List/nat_carmel.png,,51,,,3,,,,,,,,,,,,,,,
null,,confidence_buffer,368695,confidence_buffer,,null,,,,,,,,,,,,,,,,,,
2797.1999999955297,,probe_rating,371493,probe_rating,,53,,,,5,1,,,,,,,,,,,,,
null,,confidence_buffer,371596,confidence_buffer,,null,,,,,,,,,,,,,,,,,,
1937.8999999985099,,pt2_memorable_rating,373536,US_Cities_List/nat_carmel.png,,52,,,4,,,,,,,,,,,,,,,
null,,confidence_buffer,373638,confidence_buffer,,null,,,,,,,,,,,,,,,,,,
1997.5,,recognition_phase,375636,US_Cities_List/nat_carmel.png,,49,,,,,,old,1,0.875,,,,,,,,,,
null,,confidence_buffer,375738,confidence_buffer,,null,,,,,,,,,,,,,,,,,,
null,,thebreak,376240,break,,null,,,,,,,,,,,,,,,,,,
8337.20000000298,,pt2_realistic_rating,384578,Fictional_Cities_List/img_natural_47.png,,49,Fictional_Cities_List/img_natural_47.png,NAT,1,,,,,,,,,,,,,,,
null,,confidence_buffer,384680,confidence_buffer,,null,,,,,,,,,,,,,,,,,,
1959.7000000029802,,pt2_unique_rating,386641,Fictional_Cities_List/img_natural_47.png,,50,,,2,,,,,,,,,,,,,,,
null,,confidence_buffer,386743,confidence_buffer,,null,,,,,,,,,,,,,,,,,,
1376.6999999955297,,pt2_memorable_rating,388121,Fictional_Cities_List/img_natural_47.png,,53,,,5,,,,,,,,,,,,,,,
null,,confidence_buffer,388223,confidence_buffer,,null,,,,,,,,,,,,,,,,,,
1130.1000000014901,,recognition_phase,389354,Fictional_Cities_List/img_natural_47.png,,49,,,,,,old,0,0.7777777777777778,,,,,,,,,,
null,,confidence_buffer,389456,confidence_buffer,,null,,,,,,,,,,,,,,,,,,
null,,thebreak,389957,break,,null,,,,,,,,,,,,,,,,,,
9060.60000000149,,pt2_realistic_rating,399019,Fictional_Cities_List/img_natural_50.png,,49,Fictional_Cities_List/img_natural_50.png,NAT,1,,,,,,,,,,,,,,,
null,,confidence_buffer,399121,confidence_buffer,,null,,,,,,,,,,,,,,,,,,
3128.7000000029802,,pt2_unique_rating,402251,Fictional_Cities_List/img_natural_50.png,,51,,,3,,,,,,,,,,,,,,,
null,,confidence_buffer,402360,confidence_buffer,,null,,,,,,,,,,,,,,,,,,
5159.29999999702,,pt2_memorable_rating,407521,Fictional_Cities_List/img_natural_50.png,,52,,,4,,,,,,,,,,,,,,,
null,,confidence_buffer,407623,confidence_buffer,,null,,,,,,,,,,,,,,,,,,
2000.6000000014901,,probe_rating,409625,probe_rating,,50,,,,2,1,,,,,,,,,,,,,
null,,confidence_buffer,409726,confidence_buffer,,null,,,,,,,,,,,,,,,,,,
3094,,recognition_phase,412821,Fictional_Cities_List/img_natural_50.png,,49,,,,,,old,1,0.8,,,,,,,,,,
null,,confidence_buffer,412923,confidence_buffer,,null,,,,,,,,,,,,,,,,,,
null,,thebreak,413425,break,,null,,,,,,,,,,,,,,,,,,
7750.5,,pt2_realistic_rating,421177,US_Cities_List/mm_bisbee.png,,49,US_Cities_List/mm_bisbee.png,MM,1,,,,,,,,,,,,,,,
null,,confidence_buffer,421278,confidence_buffer,,null,,,,,,,,,,,,,,,,,,
46242.59999999404,,pt2_unique_rating,467522,US_Cities_List/mm_bisbee.png,,51,,,3,,,,,,,,,,,,,,,
null,,confidence_buffer,467625,confidence_buffer,,null,,,,,,,,,,,,,,,,,,
2728.60000000149,,probe_rating,470354,probe_rating,,50,,,,2,1,,,,,,,,,,,,,
null,,confidence_buffer,470456,confidence_buffer,,null,,,,,,,,,,,,,,,,,,
3427.7999999970198,,pt2_memorable_rating,473885,US_Cities_List/mm_bisbee.png,,53,,,5,,,,,,,,,,,,,,,
null,,confidence_buffer,473988,confidence_buffer,,null,,,,,,,,,,,,,,,,,,
9258.19999999553,,recognition_phase,483247,US_Cities_List/mm_bisbee.png,,52,,,,,,new,1,0.8181818181818182,,,,,,,,,,
null,,confidence_buffer,483349,confidence_buffer,,null,,,,,,,,,,,,,,,,,,
null,,thebreak,483850,break,,null,,,,,,,,,,,,,,,,,,
8103.10000000149,,pt2_realistic_rating,491955,Fictional_Cities_List/img_manmade_22.png,,49,Fictional_Cities_List/img_manmade_22.png,MM,1,,,,,,,,,,,,,,,
null,,confidence_buffer,492057,confidence_buffer,,null,,,,,,,,,,,,,,,,,,
3382.10000000149,,pt2_unique_rating,495440,Fictional_Cities_List/img_manmade_22.png,,53,,,5,,,,,,,,,,,,,,,
null,,confidence_buffer,495548,confidence_buffer,,null,,,,,,,,,,,,,,,,,,
2816.1999999955297,,pt2_memorable_rating,498365,Fictional_Cities_List/img_manmade_22.png,,53,,,5,,,,,,,,,,,,,,,
null,,confidence_buffer,498467,confidence_buffer,,null,,,,,,,,,,,,,,,,,,
2076.89999999851,,recognition_phase,500545,Fictional_Cities_List/img_manmade_22.png,,49,,,,,,old,1,0.8333333333333334,,,,,,,,,,
null,,confidence_buffer,500648,confidence_buffer,,null,,,,,,,,,,,,,,,,,,
null,,thebreak,501163,break,,null,,,,,,,,,,,,,,,,,,
8966.79999999702,,pt2_realistic_rating,510131,Fictional_Cities_List/img_manmade_19.png,,52,Fictional_Cities_List/img_manmade_19.png,MM,4,,,,,,,,,,,,,,,
null,,confidence_buffer,510233,confidence_buffer,,null,,,,,,,,,,,,,,,,,,
1995.8999999985099,,probe_rating,512230,probe_rating,,53,,,,5,1,,,,,,,,,,,,,
null,,confidence_buffer,512338,confidence_buffer,,null,,,,,,,,,,,,,,,,,,
3663.2000000029802,,pt2_unique_rating,516002,Fictional_Cities_List/img_manmade_19.png,,50,,,2,,,,,,,,,,,,,,,
null,,confidence_buffer,516104,confidence_buffer,,null,,,,,,,,,,,,,,,,,,
1098.7999999970198,,pt2_memorable_rating,517204,Fictional_Cities_List/img_manmade_19.png,,53,,,5,,,,,,,,,,,,,,,
null,,confidence_buffer,517306,confidence_buffer,,null,,,,,,,,,,,,,,,,,,
3256.2000000029802,,recognition_phase,520563,Fictional_Cities_List/img_manmade_19.png,,51,,,,,,new,0,0.7692307692307693,,,,,,,,,,
null,,confidence_buffer,520665,confidence_buffer,,null,,,,,,,,,,,,,,,,,,
null,,thebreak,521166,break,,null,,,,,,,,,,,,,,,,,,
8253.89999999851,,pt2_realistic_rating,529422,US_Cities_List/nat_abilene.png,,52,US_Cities_List/nat_abilene.png,NAT,4,,,,,,,,,,,,,,,
null,,confidence_buffer,529524,confidence_buffer,,null,,,,,,,,,,,,,,,,,,
3400,,pt2_unique_rating,532925,US_Cities_List/nat_abilene.png,,53,,,5,,,,,,,,,,,,,,,
null,,confidence_buffer,533026,confidence_buffer,,null,,,,,,,,,,,,,,,,,,
1392.1000000014901,,pt2_memorable_rating,534419,US_Cities_List/nat_abilene.png,,53,,,5,,,,,,,,,,,,,,,
null,,confidence_buffer,534521,confidence_buffer,,null,,,,,,,,,,,,,,,,,,
3174.39999999851,,recognition_phase,537697,US_Cities_List/nat_abilene.png,,52,,,,,,new,1,0.7857142857142857,,,,,,,,,,
null,,confidence_buffer,537799,confidence_buffer,,null,,,,,,,,,,,,,,,,,,
null,,thebreak,538300,break,,null,,,,,,,,,,,,,,,,,,
5646.69999999553,,pt2_realistic_rating,543948,US_Cities_List/mm_okoboji.png,,52,US_Cities_List/mm_okoboji.png,MM,4,,,,,,,,,,,,,,,
null,,confidence_buffer,544050,confidence_buffer,,null,,,,,,,,,,,,,,,,,,
1277.1000000014901,,pt2_unique_rating,545328,US_Cities_List/mm_okoboji.png,,53,,,5,,,,,,,,,,,,,,,
null,,confidence_buffer,545429,confidence_buffer,,null,,,,,,,,,,,,,,,,,,
1357.7000000029802,,pt2_memorable_rating,546788,US_Cities_List/mm_okoboji.png,,53,,,5,,,,,,,,,,,,,,,
null,,confidence_buffer,546890,confidence_buffer,,null,,,,,,,,,,,,,,,,,,
2284.9000000059605,,recognition_phase,549176,US_Cities_List/mm_okoboji.png,,49,,,,,,old,1,0.8,,,,,,,,,,
null,,confidence_buffer,549278,confidence_buffer,,null,,,,,,,,,,,,,,,,,,
null,,thebreak,549780,break,,null,,,,,,,,,,,,,,,,,,
4923.79999999702,,pt2_realistic_rating,554705,Fictional_Cities_List/img_manmade_39.png,,53,Fictional_Cities_List/img_manmade_39.png,MM,5,,,,,,,,,,,,,,,
null,,confidence_buffer,554806,confidence_buffer,,null,,,,,,,,,,,,,,,,,,
2225.2000000029802,,pt2_unique_rating,557033,Fictional_Cities_List/img_manmade_39.png,,51,,,3,,,,,,,,,,,,,,,
null,,confidence_buffer,557135,confidence_buffer,,null,,,,,,,,,,,,,,,,,,
3476.60000000149,,pt2_memorable_rating,560612,Fictional_Cities_List/img_manmade_39.png,,53,,,5,,,,,,,,,,,,,,,
null,,confidence_buffer,560715,confidence_buffer,,null,,,,,,,,,,,,,,,,,,
2675.5,,recognition_phase,563391,Fictional_Cities_List/img_manmade_39.png,,49,,,,,,old,1,0.8125,,,,,,,,,,
null,,confidence_buffer,563493,confidence_buffer,,null,,,,,,,,,,,,,,,,,,
null,,thebreak,563994,break,,null,,,,,,,,,,,,,,,,,,
7443.4000000059605,,pt2_realistic_rating,571439,Fictional_Cities_List/img_manmade_25.png,,49,Fictional_Cities_List/img_manmade_25.png,MM,1,,,,,,,,,,,,,,,
null,,confidence_buffer,571540,confidence_buffer,,null,,,,,,,,,,,,,,,,,,
4476.29999999702,,pt2_unique_rating,576018,Fictional_Cities_List/img_manmade_25.png,,51,,,3,,,,,,,,,,,,,,,
null,,confidence_buffer,576119,confidence_buffer,,null,,,,,,,,,,,,,,,,,,
2211.7999999970198,,pt2_memorable_rating,578332,Fictional_Cities_List/img_manmade_25.png,,53,,,5,,,,,,,,,,,,,,,
null,,confidence_buffer,578434,confidence_buffer,,null,,,,,,,,,,,,,,,,,,
1676.5999999940395,,probe_rating,580112,probe_rating,,50,,,,2,1,,,,,,,,,,,,,
null,,confidence_buffer,580214,confidence_buffer,,null,,,,,,,,,,,,,,,,,,
18705.39999999851,,recognition_phase,598921,Fictional_Cities_List/img_manmade_25.png,,52,,,,,,new,1,0.8235294117647058,,,,,,,,,,
null,,confidence_buffer,599023,confidence_buffer,,null,,,,,,,,,,,,,,,,,,
null,,thebreak,599524,break,,null,,,,,,,,,,,,,,,,,,
4115,,pt2_realistic_rating,603640,US_Cities_List/mm_sitka.png,,53,US_Cities_List/mm_sitka.png,MM,5,,,,,,,,,,,,,,,
null,,confidence_buffer,603742,confidence_buffer,,null,,,,,,,,,,,,,,,,,,
1618.3999999985099,,pt2_unique_rating,605361,US_Cities_List/mm_sitka.png,,50,,,2,,,,,,,,,,,,,,,
null,,confidence_buffer,605464,confidence_buffer,,null,,,,,,,,,,,,,,,,,,
1250.5,,pt2_memorable_rating,606715,US_Cities_List/mm_sitka.png,,53,,,5,,,,,,,,,,,,,,,
null,,confidence_buffer,606816,confidence_buffer,,null,,,,,,,,,,,,,,,,,,
1487.6000000014901,,recognition_phase,608305,US_Cities_List/mm_sitka.png,,49,,,,,,old,1,0.8333333333333334,,,,,,,,,,
null,,confidence_buffer,608407,confidence_buffer,,null,,,,,,,,,,,,,,,,,,
null,,thebreak,608914,break,,null,,,,,,,,,,,,,,,,,,
3216.2000000029802,,pt2_realistic_rating,612131,US_Cities_List/nat_hotsprings.png,,53,US_Cities_List/nat_hotsprings.png,NAT,5,,,,,,,,,,,,,,,
null,,confidence_buffer,612234,confidence_buffer,,null,,,,,,,,,,,,,,,,,,
2584,,pt2_unique_rating,614819,US_Cities_List/nat_hotsprings.png,,50,,,2,,,,,,,,,,,,,,,
null,,confidence_buffer,614921,confidence_buffer,,null,,,,,,,,,,,,,,,,,,
1826.1000000014901,,pt2_memorable_rating,616748,US_Cities_List/nat_hotsprings.png,,52,,,4,,,,,,,,,,,,,,,
null,,confidence_buffer,616856,confidence_buffer,,null,,,,,,,,,,,,,,,,,,
4187.10000000149,,recognition_phase,621045,US_Cities_List/nat_hotsprings.png,,52,,,,,,new,0,0.7894736842105263,,,,,,,,,,
null,,confidence_buffer,621146,confidence_buffer,,null,,,,,,,,,,,,,,,,,,
null,,thebreak,621648,break,,null,,,,,,,,,,,,,,,,,,
5420.29999999702,,pt2_realistic_rating,627069,US_Cities_List/nat_bisbee.png,,49,US_Cities_List/nat_bisbee.png,NAT,1,,,,,,,,,,,,,,,
null,,confidence_buffer,627171,confidence_buffer,,null,,,,,,,,,,,,,,,,,,
4206.9000000059605,,probe_rating,631379,probe_rating,,49,,,,1,1,,,,,,,,,,,,,
null,,confidence_buffer,631481,confidence_buffer,,null,,,,,,,,,,,,,,,,,,
17000.10000000149,,pt2_unique_rating,648482,US_Cities_List/nat_bisbee.png,,51,,,3,,,,,,,,,,,,,,,
null,,confidence_buffer,648583,confidence_buffer,,null,,,,,,,,,,,,,,,,,,
2163.2000000029802,,pt2_memorable_rating,650747,US_Cities_List/nat_bisbee.png,,53,,,5,,,,,,,,,,,,,,,
null,,confidence_buffer,650849,confidence_buffer,,null,,,,,,,,,,,,,,,,,,
3246.60000000149,,recognition_phase,654096,US_Cities_List/nat_bisbee.png,,49,,,,,,old,1,0.8,,,,,,,,,,
null,,confidence_buffer,654198,confidence_buffer,,null,,,,,,,,,,,,,,,,,,
null,,thebreak,654700,break,,null,,,,,,,,,,,,,,,,,,
6926.30000000447,,pt2_realistic_rating,661627,US_Cities_List/mm_abilene.png,,53,US_Cities_List/mm_abilene.png,MM,5,,,,,,,,,,,,,,,
null,,confidence_buffer,661728,confidence_buffer,,null,,,,,,,,,,,,,,,,,,
843.7000000029802,,pt2_unique_rating,662573,US_Cities_List/mm_abilene.png,,50,,,2,,,,,,,,,,,,,,,
null,,confidence_buffer,662675,confidence_buffer,,null,,,,,,,,,,,,,,,,,,
1602.2999999970198,,pt2_memorable_rating,664278,US_Cities_List/mm_abilene.png,,52,,,4,,,,,,,,,,,,,,,
null,,confidence_buffer,664380,confidence_buffer,,null,,,,,,,,,,,,,,,,,,
2220.5,,recognition_phase,666602,US_Cities_List/mm_abilene.png,,52,,,,,,new,1,0.8095238095238095,,,,,,,,,,
null,,confidence_buffer,666703,confidence_buffer,,null,,,,,,,,,,,,,,,,,,
null,,thebreak,667204,break,,null,,,,,,,,,,,,,,,,,,
4416.39999999851,,pt2_realistic_rating,671622,US_Cities_List/mm_delawarecity.png,,53,US_Cities_List/mm_delawarecity.png,MM,5,,,,,,,,,,,,,,,
null,,confidence_buffer,671724,confidence_buffer,,null,,,,,,,,,,,,,,,,,,
1635.5,,pt2_unique_rating,673361,US_Cities_List/mm_delawarecity.png,,50,,,2,,,,,,,,,,,,,,,
null,,confidence_buffer,673463,confidence_buffer,,null,,,,,,,,,,,,,,,,,,
1543,,pt2_memorable_rating,675007,US_Cities_List/mm_delawarecity.png,,53,,,5,,,,,,,,,,,,,,,
null,,confidence_buffer,675109,confidence_buffer,,null,,,,,,,,,,,,,,,,,,
2932.7000000029802,,recognition_phase,678043,US_Cities_List/mm_delawarecity.png,,49,,,,,,old,1,0.8181818181818182,,,,,,,,,,
null,,confidence_buffer,678145,confidence_buffer,,null,,,,,,,,,,,,,,,,,,
null,,thebreak,678646,break,,null,,,,,,,,,,,,,,,,,,
6214.4000000059605,,pt2_realistic_rating,684862,Fictional_Cities_List/img_natural_41.png,,51,Fictional_Cities_List/img_natural_41.png,NAT,3,,,,,,,,,,,,,,,
null,,confidence_buffer,684965,confidence_buffer,,null,,,,,,,,,,,,,,,,,,
7152.70000000298,,pt2_unique_rating,692118,Fictional_Cities_List/img_natural_41.png,,52,,,4,,,,,,,,,,,,,,,
null,,confidence_buffer,692220,confidence_buffer,,null,,,,,,,,,,,,,,,,,,
1862.8000000044703,,pt2_memorable_rating,694084,Fictional_Cities_List/img_natural_41.png,,52,,,4,,,,,,,,,,,,,,,
null,,confidence_buffer,694185,confidence_buffer,,null,,,,,,,,,,,,,,,,,,
2988.9000000059605,,recognition_phase,697175,Fictional_Cities_List/img_natural_41.png,,52,,,,,,new,1,0.8260869565217391,,,,,,,,,,
null,,confidence_buffer,697277,confidence_buffer,,null,,,,,,,,,,,,,,,,,,
null,,thebreak,697779,break,,null,,,,,,,,,,,,,,,,,,
4204.70000000298,,pt2_realistic_rating,701984,US_Cities_List/nat_coeurdalene.png,,52,US_Cities_List/nat_coeurdalene.png,NAT,4,,,,,,,,,,,,,,,
null,,confidence_buffer,702087,confidence_buffer,,null,,,,,,,,,,,,,,,,,,
2439.7999999970198,,pt2_unique_rating,704528,US_Cities_List/nat_coeurdalene.png,,52,,,4,,,,,,,,,,,,,,,
null,,confidence_buffer,704630,confidence_buffer,,null,,,,,,,,,,,,,,,,,,
2291.8000000044703,,pt2_memorable_rating,706923,US_Cities_List/nat_coeurdalene.png,,52,,,4,,,,,,,,,,,,,,,
null,,confidence_buffer,707024,confidence_buffer,,null,,,,,,,,,,,,,,,,,,
3077.89999999851,,recognition_phase,710103,US_Cities_List/nat_coeurdalene.png,,52,,,,,,new,1,0.8333333333333334,,,,,,,,,,
null,,confidence_buffer,710206,confidence_buffer,,null,,,,,,,,,,,,,,,,,,
null,,thebreak,710708,break,,null,,,,,,,,,,,,,,,,,,
4516.29999999702,,pt2_realistic_rating,715226,US_Cities_List/nat_cornwall.png,,50,US_Cities_List/nat_cornwall.png,NAT,2,,,,,,,,,,,,,,,
null,,confidence_buffer,715328,confidence_buffer,,null,,,,,,,,,,,,,,,,,,
1889.5999999940395,,pt2_unique_rating,717218,US_Cities_List/nat_cornwall.png,,53,,,5,,,,,,,,,,,,,,,
null,,confidence_buffer,717320,confidence_buffer,,null,,,,,,,,,,,,,,,,,,
2224.5,,pt2_memorable_rating,719545,US_Cities_List/nat_cornwall.png,,53,,,5,,,,,,,,,,,,,,,
null,,confidence_buffer,719648,confidence_buffer,,null,,,,,,,,,,,,,,,,,,
2230.2000000029802,,recognition_phase,721879,US_Cities_List/nat_cornwall.png,,52,,,,,,new,1,0.84,,,,,,,,,,
null,,confidence_buffer,721981,confidence_buffer,,null,,,,,,,,,,,,,,,,,,
null,,thebreak,722483,break,,null,,,,,,,,,,,,,,,,,,
6201.20000000298,,pt2_realistic_rating,728685,US_Cities_List/mm_boulder.png,,51,US_Cities_List/mm_boulder.png,MM,3,,,,,,,,,,,,,,,
null,,confidence_buffer,728787,confidence_buffer,,null,,,,,,,,,,,,,,,,,,
2472.7999999970198,,pt2_unique_rating,731261,US_Cities_List/mm_boulder.png,,51,,,3,,,,,,,,,,,,,,,
null,,confidence_buffer,731365,confidence_buffer,,null,,,,,,,,,,,,,,,,,,
1368.7000000029802,,pt2_memorable_rating,732735,US_Cities_List/mm_boulder.png,,51,,,3,,,,,,,,,,,,,,,
null,,confidence_buffer,732837,confidence_buffer,,null,,,,,,,,,,,,,,,,,,
4232.5,,probe_rating,737070,probe_rating,,50,,,,2,1,,,,,,,,,,,,,
null,,confidence_buffer,737172,confidence_buffer,,null,,,,,,,,,,,,,,,,,,
4145.20000000298,,recognition_phase,741318,US_Cities_List/mm_boulder.png,,49,,,,,,old,1,0.8461538461538461,,,,,,,,,,
null,,confidence_buffer,741419,confidence_buffer,,null,,,,,,,,,,,,,,,,,,
null,,thebreak,741921,break,,null,,,,,,,,,,,,,,,,,,
3637.3000000044703,,pt2_realistic_rating,745560,US_Cities_List/nat_sitka.png,,52,US_Cities_List/nat_sitka.png,NAT,4,,,,,,,,,,,,,,,
null,,confidence_buffer,745666,confidence_buffer,,null,,,,,,,,,,,,,,,,,,
1007.1000000014901,,pt2_unique_rating,746674,US_Cities_List/nat_sitka.png,,53,,,5,,,,,,,,,,,,,,,
null,,confidence_buffer,746775,confidence_buffer,,null,,,,,,,,,,,,,,,,,,
980.2000000029802,,pt2_memorable_rating,747757,US_Cities_List/nat_sitka.png,,53,,,5,,,,,,,,,,,,,,,
null,,confidence_buffer,747858,confidence_buffer,,null,,,,,,,,,,,,,,,,,,
1693.5,,recognition_phase,749553,US_Cities_List/nat_sitka.png,,49,,,,,,old,1,0.8518518518518519,,,,,,,,,,
null,,confidence_buffer,749654,confidence_buffer,,null,,,,,,,,,,,,,,,,,,
null,,thebreak,750156,break,,null,,,,,,,,,,,,,,,,,,
4150.20000000298,,pt2_realistic_rating,754307,Fictional_Cities_List/img_manmade_11.png,,49,Fictional_Cities_List/img_manmade_11.png,MM,1,,,,,,,,,,,,,,,
null,,confidence_buffer,754409,confidence_buffer,,null,,,,,,,,,,,,,,,,,,
2333.39999999851,,pt2_unique_rating,756743,Fictional_Cities_List/img_manmade_11.png,,52,,,4,,,,,,,,,,,,,,,
null,,confidence_buffer,756846,confidence_buffer,,null,,,,,,,,,,,,,,,,,,
1029.6999999955297,,pt2_memorable_rating,757876,Fictional_Cities_List/img_manmade_11.png,,53,,,5,,,,,,,,,,,,,,,
null,,confidence_buffer,757978,confidence_buffer,,null,,,,,,,,,,,,,,,,,,
4522.20000000298,,recognition_phase,762501,Fictional_Cities_List/img_manmade_11.png,,52,,,,,,new,0,0.8214285714285714,,,,,,,,,,
null,,confidence_buffer,762602,confidence_buffer,,null,,,,,,,,,,,,,,,,,,
null,,thebreak,763104,break,,null,,,,,,,,,,,,,,,,,,
3958.89999999851,,pt2_realistic_rating,767064,US_Cities_List/mm_westpalmbeach.png,,50,US_Cities_List/mm_westpalmbeach.png,MM,2,,,,,,,,,,,,,,,
null,,confidence_buffer,767165,confidence_buffer,,null,,,,,,,,,,,,,,,,,,
2720.7000000029802,,pt2_unique_rating,769887,US_Cities_List/mm_westpalmbeach.png,,51,,,3,,,,,,,,,,,,,,,
null,,confidence_buffer,769988,confidence_buffer,,null,,,,,,,,,,,,,,,,,,
2097.8000000044703,,pt2_memorable_rating,772087,US_Cities_List/mm_westpalmbeach.png,,53,,,5,,,,,,,,,,,,,,,
null,,confidence_buffer,772189,confidence_buffer,,null,,,,,,,,,,,,,,,,,,
4281.60000000149,,recognition_phase,776472,US_Cities_List/mm_westpalmbeach.png,,52,,,,,,new,0,0.7931034482758621,,,,,,,,,,
null,,confidence_buffer,776574,confidence_buffer,,null,,,,,,,,,,,,,,,,,,
null,,thebreak,777075,break,,null,,,,,,,,,,,,,,,,,,
5958.10000000149,,pt2_realistic_rating,783035,Fictional_Cities_List/img_natural_11.png,,51,Fictional_Cities_List/img_natural_11.png,NAT,3,,,,,,,,,,,,,,,
null,,confidence_buffer,783138,confidence_buffer,,null,,,,,,,,,,,,,,,,,,
1363.7999999970198,,pt2_unique_rating,784503,Fictional_Cities_List/img_natural_11.png,,52,,,4,,,,,,,,,,,,,,,
null,,confidence_buffer,784605,confidence_buffer,,null,,,,,,,,,,,,,,,,,,
2305.89999999851,,probe_rating,786912,probe_rating,,50,,,,2,1,,,,,,,,,,,,,
null,,confidence_buffer,787014,confidence_buffer,,null,,,,,,,,,,,,,,,,,,
2493.4000000059605,,pt2_memorable_rating,789509,Fictional_Cities_List/img_natural_11.png,,52,,,4,,,,,,,,,,,,,,,
null,,confidence_buffer,789610,confidence_buffer,,null,,,,,,,,,,,,,,,,,,
2181.0999999940395,,recognition_phase,791793,Fictional_Cities_List/img_natural_11.png,,52,,,,,,new,1,0.8,,,,,,,,,,
null,,confidence_buffer,791895,confidence_buffer,,null,,,,,,,,,,,,,,,,,,
null,,thebreak,792397,break,,null,,,,,,,,,,,,,,,,,,
7650.89999999851,,pt2_realistic_rating,800049,Fictional_Cities_List/img_natural_01.png,,49,Fictional_Cities_List/img_natural_01.png,NAT,1,,,,,,,,,,,,,,,
null,,confidence_buffer,800151,confidence_buffer,,null,,,,,,,,,,,,,,,,,,
1832.2000000029802,,pt2_unique_rating,801984,Fictional_Cities_List/img_natural_01.png,,52,,,4,,,,,,,,,,,,,,,
null,,confidence_buffer,802085,confidence_buffer,,null,,,,,,,,,,,,,,,,,,
538.6000000014901,,pt2_memorable_rating,802625,Fictional_Cities_List/img_natural_01.png,,53,,,5,,,,,,,,,,,,,,,
null,,confidence_buffer,802727,confidence_buffer,,null,,,,,,,,,,,,,,,,,,
1881.3999999985099,,recognition_phase,804609,Fictional_Cities_List/img_natural_01.png,,49,,,,,,old,0,0.7741935483870968,,,,,,,,,,
null,,confidence_buffer,804711,confidence_buffer,,null,,,,,,,,,,,,,,,,,,
null,,thebreak,805213,break,,null,,,,,,,,,,,,,,,,,,
4416.19999999553,,pt2_realistic_rating,809630,US_Cities_List/nat_westpalmbeach.png,,52,US_Cities_List/nat_westpalmbeach.png,NAT,4,,,,,,,,,,,,,,,
null,,confidence_buffer,809733,confidence_buffer,,null,,,,,,,,,,,,,,,,,,
1598.6999999955297,,pt2_unique_rating,811332,US_Cities_List/nat_westpalmbeach.png,,53,,,5,,,,,,,,,,,,,,,
null,,confidence_buffer,811435,confidence_buffer,,null,,,,,,,,,,,,,,,,,,
1436.2000000029802,,pt2_memorable_rating,812872,US_Cities_List/nat_westpalmbeach.png,,53,,,5,,,,,,,,,,,,,,,
null,,confidence_buffer,812974,confidence_buffer,,null,,,,,,,,,,,,,,,,,,
1459.8999999985099,,recognition_phase,814435,US_Cities_List/nat_westpalmbeach.png,,52,,,,,,new,1,0.78125,,,,,,,,,,
null,,confidence_buffer,814538,confidence_buffer,,null,,,,,,,,,,,,,,,,,,
null,,thebreak,815039,break,,null,,,,,,,,,,,,,,,,,,
5826.5,,pt2_realistic_rating,820867,Fictional_Cities_List/img_natural_40.png,,51,Fictional_Cities_List/img_natural_40.png,NAT,3,,,,,,,,,,,,,,,
null,,confidence_buffer,820970,confidence_buffer,,null,,,,,,,,,,,,,,,,,,
3411.6999999955297,,pt2_unique_rating,824382,Fictional_Cities_List/img_natural_40.png,,52,,,4,,,,,,,,,,,,,,,
null,,confidence_buffer,824485,confidence_buffer,,null,,,,,,,,,,,,,,,,,,
1662.3999999985099,,pt2_memorable_rating,826148,Fictional_Cities_List/img_natural_40.png,,53,,,5,,,,,,,,,,,,,,,
null,,confidence_buffer,826250,confidence_buffer,,null,,,,,,,,,,,,,,,,,,
2133.10000000149,,recognition_phase,828384,Fictional_Cities_List/img_natural_40.png,,49,,,,,,old,1,0.7878787878787878,,,,,,,,,,
null,,confidence_buffer,828485,confidence_buffer,,null,,,,,,,,,,,,,,,,,,
null,,thebreak,828987,break,,null,,,,,,,,,,,,,,,,,,
6886.10000000149,,pt2_realistic_rating,835874,US_Cities_List/nat_boulder.png,,51,US_Cities_List/nat_boulder.png,NAT,3,,,,,,,,,,,,,,,
null,,confidence_buffer,835976,confidence_buffer,,null,,,,,,,,,,,,,,,,,,
1991.7999999970198,,pt2_unique_rating,837969,US_Cities_List/nat_boulder.png,,52,,,4,,,,,,,,,,,,,,,
null,,confidence_buffer,838070,confidence_buffer,,null,,,,,,,,,,,,,,,,,,
2059.89999999851,,pt2_memorable_rating,840131,US_Cities_List/nat_boulder.png,,52,,,4,,,,,,,,,,,,,,,
null,,confidence_buffer,840233,confidence_buffer,,null,,,,,,,,,,,,,,,,,,
24428.60000000149,,recognition_phase,864662,US_Cities_List/nat_boulder.png,,49,,,,,,old,0,0.7647058823529411,,,,,,,,,,
null,,confidence_buffer,864764,confidence_buffer,,null,,,,,,,,,,,,,,,,,,
null,,thebreak,865266,break,,null,,,,,,,,,,,,,,,,,,
3586.39999999851,,pt2_realistic_rating,868853,Fictional_Cities_List/img_manmade_35.png,,49,Fictional_Cities_List/img_manmade_35.png,MM,1,,,,,,,,,,,,,,,
null,,confidence_buffer,868955,confidence_buffer,,null,,,,,,,,,,,,,,,,,,
3262.60000000149,,pt2_unique_rating,872219,Fictional_Cities_List/img_manmade_35.png,,53,,,5,,,,,,,,,,,,,,,
null,,confidence_buffer,872331,confidence_buffer,,null,,,,,,,,,,,,,,,,,,
934.8999999985099,,pt2_memorable_rating,873267,Fictional_Cities_List/img_manmade_35.png,,53,,,5,,,,,,,,,,,,,,,
null,,confidence_buffer,873369,confidence_buffer,,null,,,,,,,,,,,,,,,,,,
1675.1000000014901,,recognition_phase,875045,Fictional_Cities_List/img_manmade_35.png,,52,,,,,,new,1,0.7714285714285715,,,,,,,,,,
null,,confidence_buffer,875147,confidence_buffer,,null,,,,,,,,,,,,,,,,,,
null,,thebreak,875649,break,,null,,,,,,,,,,,,,,,,,,
4373.30000000447,,pt2_realistic_rating,880024,Fictional_Cities_List/img_manmade_47.png,,50,Fictional_Cities_List/img_manmade_47.png,MM,2,,,,,,,,,,,,,,,
null,,confidence_buffer,880126,confidence_buffer,,null,,,,,,,,,,,,,,,,,,
2656,,pt2_unique_rating,882783,Fictional_Cities_List/img_manmade_47.png,,52,,,4,,,,,,,,,,,,,,,
null,,confidence_buffer,882884,confidence_buffer,,null,,,,,,,,,,,,,,,,,,
895.6999999955297,,pt2_memorable_rating,883781,Fictional_Cities_List/img_manmade_47.png,,53,,,5,,,,,,,,,,,,,,,
null,,confidence_buffer,883883,confidence_buffer,,null,,,,,,,,,,,,,,,,,,
566.7999999970198,,recognition_phase,884450,Fictional_Cities_List/img_manmade_47.png,,52,,,,,,new,1,0.7777777777777778,,,,,,,,,,
null,,confidence_buffer,884553,confidence_buffer,,null,,,,,,,,,,,,,,,,,,
null,,thebreak,885055,break,,null,,,,,,,,,,,,,,,,,,
4582.9000000059605,,pt2_realistic_rating,889638,US_Cities_List/nat_hilo.png,,51,US_Cities_List/nat_hilo.png,NAT,3,,,,,,,,,,,,,,,
null,,confidence_buffer,889740,confidence_buffer,,null,,,,,,,,,,,,,,,,,,
1572.0999999940395,,pt2_unique_rating,891313,US_Cities_List/nat_hilo.png,,52,,,4,,,,,,,,,,,,,,,
null,,confidence_buffer,891415,confidence_buffer,,null,,,,,,,,,,,,,,,,,,
1141.6000000014901,,pt2_memorable_rating,892557,US_Cities_List/nat_hilo.png,,52,,,4,,,,,,,,,,,,,,,
null,,confidence_buffer,892660,confidence_buffer,,null,,,,,,,,,,,,,,,,,,
2295,,recognition_phase,894956,US_Cities_List/nat_hilo.png,,49,,,,,,old,0,0.7567567567567568,,,,,,,,,,
null,,confidence_buffer,895058,confidence_buffer,,null,,,,,,,,,,,,,,,,,,
null,,thebreak,895560,break,,null,,,,,,,,,,,,,,,,,,
4162.69999999553,,pt2_realistic_rating,899724,US_Cities_List/mm_cornwall.png,,51,US_Cities_List/mm_cornwall.png,MM,3,,,,,,,,,,,,,,,
null,,confidence_buffer,899825,confidence_buffer,,null,,,,,,,,,,,,,,,,,,
2695.1999999955297,,pt2_unique_rating,902522,US_Cities_List/mm_cornwall.png,,51,,,3,,,,,,,,,,,,,,,
null,,confidence_buffer,902624,confidence_buffer,,null,,,,,,,,,,,,,,,,,,
1457.3999999985099,,pt2_memorable_rating,904082,US_Cities_List/mm_cornwall.png,,51,,,3,,,,,,,,,,,,,,,
null,,confidence_buffer,904184,confidence_buffer,,null,,,,,,,,,,,,,,,,,,
890.7999999970198,,recognition_phase,905077,US_Cities_List/mm_cornwall.png,,49,,,,,,old,1,0.7631578947368421,,,,,,,,,,
null,,confidence_buffer,905179,confidence_buffer,,null,,,,,,,,,,,,,,,,,,
null,,thebreak,905680,break,,null,,,,,,,,,,,,,,,,,,
4160.5999999940395,,pt2_realistic_rating,909842,US_Cities_List/mm_peoria.png,,52,US_Cities_List/mm_peoria.png,MM,4,,,,,,,,,,,,,,,
null,,confidence_buffer,909944,confidence_buffer,,null,,,,,,,,,,,,,,,,,,
2051.2999999970198,,pt2_unique_rating,911997,US_Cities_List/mm_peoria.png,,53,,,5,,,,,,,,,,,,,,,
null,,confidence_buffer,912098,confidence_buffer,,null,,,,,,,,,,,,,,,,,,
2249.5,,pt2_memorable_rating,914348,US_Cities_List/mm_peoria.png,,53,,,5,,,,,,,,,,,,,,,
null,,confidence_buffer,914450,confidence_buffer,,null,,,,,,,,,,,,,,,,,,
1672,,recognition_phase,916123,US_Cities_List/mm_peoria.png,,52,,,,,,new,1,0.7692307692307693,,,,,,,,,,
null,,confidence_buffer,916225,confidence_buffer,,null,,,,,,,,,,,,,,,,,,
null,,thebreak,916733,break,,null,,,,,,,,,,,,,,,,,,
3997.9000000059605,,pt2_realistic_rating,920731,Fictional_Cities_List/img_manmade_41.png,,53,Fictional_Cities_List/img_manmade_41.png,MM,5,,,,,,,,,,,,,,,
null,,confidence_buffer,920846,confidence_buffer,,null,,,,,,,,,,,,,,,,,,
1794,,pt2_unique_rating,922640,Fictional_Cities_List/img_manmade_41.png,,50,,,2,,,,,,,,,,,,,,,
null,,confidence_buffer,922742,confidence_buffer,,null,,,,,,,,,,,,,,,,,,
2170,,pt2_memorable_rating,924913,Fictional_Cities_List/img_manmade_41.png,,51,,,3,,,,,,,,,,,,,,,
null,,confidence_buffer,925015,confidence_buffer,,null,,,,,,,,,,,,,,,,,,
2389.2999999970198,,recognition_phase,927405,Fictional_Cities_List/img_manmade_41.png,,49,,,,,,old,1,0.775,,,,,,,,,,
null,,confidence_buffer,927506,confidence_buffer,,null,,,,,,,,,,,,,,,,,,
null,,thebreak,928008,break,,null,,,,,,,,,,,,,,,,,,
5958.5999999940395,,pt2_realistic_rating,933967,US_Cities_List/mm_carmel.png,,50,US_Cities_List/mm_carmel.png,MM,2,,,,,,,,,,,,,,,
null,,confidence_buffer,934070,confidence_buffer,,null,,,,,,,,,,,,,,,,,,
2598.7999999970198,,pt2_unique_rating,936670,US_Cities_List/mm_carmel.png,,51,,,3,,,,,,,,,,,,,,,
null,,confidence_buffer,936771,confidence_buffer,,null,,,,,,,,,,,,,,,,,,
1542.1999999955297,,pt2_memorable_rating,938315,US_Cities_List/mm_carmel.png,,51,,,3,,,,,,,,,,,,,,,
null,,confidence_buffer,938417,confidence_buffer,,null,,,,,,,,,,,,,,,,,,
4425.80000000447,,recognition_phase,942843,US_Cities_List/mm_carmel.png,,49,,,,,,old,1,0.7804878048780488,,,,,,,,,,
null,,confidence_buffer,942945,confidence_buffer,,null,,,,,,,,,,,,,,,,,,
null,,thebreak,943446,break,,null,,,,,,,,,,,,,,,,,,
3605.3000000044703,,pt2_realistic_rating,947052,US_Cities_List/nat_athens.png,,53,US_Cities_List/nat_athens.png,NAT,5,,,,,,,,,,,,,,,
null,,confidence_buffer,947154,confidence_buffer,,null,,,,,,,,,,,,,,,,,,
1549.9000000059605,,pt2_unique_rating,948705,US_Cities_List/nat_athens.png,,52,,,4,,,,,,,,,,,,,,,
null,,confidence_buffer,948806,confidence_buffer,,null,,,,,,,,,,,,,,,,,,
3104.8000000044703,,pt2_memorable_rating,951912,US_Cities_List/nat_athens.png,,53,,,5,,,,,,,,,,,,,,,
null,,confidence_buffer,952014,confidence_buffer,,null,,,,,,,,,,,,,,,,,,
1966.8999999985099,,recognition_phase,953982,US_Cities_List/nat_athens.png,,52,,,,,,new,1,0.7857142857142857,,,,,,,,,,
null,,confidence_buffer,954083,confidence_buffer,,null,,,,,,,,,,,,,,,,,,
null,,thebreak,954584,break,,null,,,,,,,,,,,,,,,,,,
5683.69999999553,,pt2_realistic_rating,960269,Fictional_Cities_List/img_natural_49.png,,51,Fictional_Cities_List/img_natural_49.png,NAT,3,,,,,,,,,,,,,,,
null,,confidence_buffer,960379,confidence_buffer,,null,,,,,,,,,,,,,,,,,,
1752.3000000044703,,pt2_unique_rating,962132,Fictional_Cities_List/img_natural_49.png,,52,,,4,,,,,,,,,,,,,,,
null,,confidence_buffer,962234,confidence_buffer,,null,,,,,,,,,,,,,,,,,,
1166,,pt2_memorable_rating,963401,Fictional_Cities_List/img_natural_49.png,,53,,,5,,,,,,,,,,,,,,,
null,,confidence_buffer,963503,confidence_buffer,,null,,,,,,,,,,,,,,,,,,
2857.5,,recognition_phase,966361,Fictional_Cities_List/img_natural_49.png,,52,,,,,,new,0,0.7674418604651163,,,,,,,,,,
null,,confidence_buffer,966463,confidence_buffer,,null,,,,,,,,,,,,,,,,,,
null,,thebreak,966964,break,,null,,,,,,,,,,,,,,,,,,
2457,,pt2_realistic_rating,969422,Fictional_Cities_List/img_natural_19.png,,49,Fictional_Cities_List/img_natural_19.png,NAT,1,,,,,,,,,,,,,,,
null,,confidence_buffer,969524,confidence_buffer,,null,,,,,,,,,,,,,,,,,,
2920.5,,probe_rating,972446,probe_rating,,50,,,,2,0,,,,,,,,,,,,,
null,,confidence_buffer,972547,confidence_buffer,,null,,,,,,,,,,,,,,,,,,
1797.2000000029802,,pt2_unique_rating,974345,Fictional_Cities_List/img_natural_19.png,,51,,,3,,,,,,,,,,,,,,,
null,,confidence_buffer,974447,confidence_buffer,,null,,,,,,,,,,,,,,,,,,
2453.6999999955297,,pt2_memorable_rating,976902,Fictional_Cities_List/img_natural_19.png,,52,,,4,,,,,,,,,,,,,,,
null,,confidence_buffer,977004,confidence_buffer,,null,,,,,,,,,,,,,,,,,,
2607,,recognition_phase,979612,Fictional_Cities_List/img_natural_19.png,,52,,,,,,new,0,0.75,,,,,,,,,,
null,,confidence_buffer,979714,confidence_buffer,,null,,,,,,,,,,,,,,,,,,
null,,thebreak,980216,break,,null,,,,,,,,,,,,,,,,,,
8947.80000000447,,pt2_realistic_rating,989164,US_Cities_List/mm_hilo.png,,49,US_Cities_List/mm_hilo.png,MM,1,,,,,,,,,,,,,,,
null,,confidence_buffer,989266,confidence_buffer,,null,,,,,,,,,,,,,,,,,,
3206.10000000149,,pt2_unique_rating,992473,US_Cities_List/mm_hilo.png,,51,,,3,,,,,,,,,,,,,,,
null,,confidence_buffer,992575,confidence_buffer,,null,,,,,,,,,,,,,,,,,,
4463.60000000149,,pt2_memorable_rating,997040,US_Cities_List/mm_hilo.png,,53,,,5,,,,,,,,,,,,,,,
null,,confidence_buffer,997157,confidence_buffer,,null,,,,,,,,,,,,,,,,,,
2216.60000000149,,recognition_phase,999375,US_Cities_List/mm_hilo.png,,52,,,,,,new,0,0.7333333333333333,,,,,,,,,,
null,,confidence_buffer,999478,confidence_buffer,,null,,,,,,,,,,,,,,,,,,
null,,thebreak,999979,break,,null,,,,,,,,,,,,,,,,,,
6442.60000000149,,pt2_realistic_rating,1006422,Fictional_Cities_List/img_natural_35.png,,52,Fictional_Cities_List/img_natural_35.png,NAT,4,,,,,,,,,,,,,,,
null,,confidence_buffer,1006525,confidence_buffer,,null,,,,,,,,,,,,,,,,,,
1887.9000000059605,,pt2_unique_rating,1008413,Fictional_Cities_List/img_natural_35.png,,53,,,5,,,,,,,,,,,,,,,
null,,confidence_buffer,1008515,confidence_buffer,,null,,,,,,,,,,,,,,,,,,
1070.5,,pt2_memorable_rating,1009587,Fictional_Cities_List/img_natural_35.png,,53,,,5,,,,,,,,,,,,,,,
null,,confidence_buffer,1009690,confidence_buffer,,null,,,,,,,,,,,,,,,,,,
2097.60000000149,,recognition_phase,1011788,Fictional_Cities_List/img_natural_35.png,,52,,,,,,new,0,0.717391304347826,,,,,,,,,,
null,,confidence_buffer,1011890,confidence_buffer,,null,,,,,,,,,,,,,,,,,,
null,,thebreak,1012392,break,,null,,,,,,,,,,,,,,,,,,
4922.4000000059605,,pt2_realistic_rating,1017315,US_Cities_List/nat_healdsburg.png,,53,US_Cities_List/nat_healdsburg.png,NAT,5,,,,,,,,,,,,,,,
null,,confidence_buffer,1017417,confidence_buffer,,null,,,,,,,,,,,,,,,,,,
2679.5999999940395,,pt2_unique_rating,1020098,US_Cities_List/nat_healdsburg.png,,51,,,3,,,,,,,,,,,,,,,
null,,confidence_buffer,1020200,confidence_buffer,,null,,,,,,,,,,,,,,,,,,
1882.7999999970198,,pt2_memorable_rating,1022084,US_Cities_List/nat_healdsburg.png,,53,,,5,,,,,,,,,,,,,,,
null,,confidence_buffer,1022185,confidence_buffer,,null,,,,,,,,,,,,,,,,,,
5070.89999999851,,recognition_phase,1027257,US_Cities_List/nat_healdsburg.png,,51,,,,,,new,0,0.7021276595744681,,,,,,,,,,
null,,confidence_buffer,1027359,confidence_buffer,,null,,,,,,,,,,,,,,,,,,
null,,thebreak,1027860,break,,null,,,,,,,,,,,,,,,,,,
6752.60000000149,,pt2_realistic_rating,1034614,Fictional_Cities_List/img_natural_44.png,,50,Fictional_Cities_List/img_natural_44.png,NAT,2,,,,,,,,,,,,,,,
null,,confidence_buffer,1034716,confidence_buffer,,null,,,,,,,,,,,,,,,,,,
748.5,,pt2_unique_rating,1035465,Fictional_Cities_List/img_natural_44.png,,51,,,3,,,,,,,,,,,,,,,
null,,confidence_buffer,1035567,confidence_buffer,,null,,,,,,,,,,,,,,,,,,
1393.7000000029802,,probe_rating,1036962,probe_rating,,50,,,,2,1,,,,,,,,,,,,,
null,,confidence_buffer,1037064,confidence_buffer,,null,,,,,,,,,,,,,,,,,,
2567.89999999851,,pt2_memorable_rating,1039633,Fictional_Cities_List/img_natural_44.png,,53,,,5,,,,,,,,,,,,,,,
null,,confidence_buffer,1039735,confidence_buffer,,null,,,,,,,,,,,,,,,,,,
2937.2999999970198,,recognition_phase,1042673,Fictional_Cities_List/img_natural_44.png,,50,,,,,,old,1,0.7083333333333334,,,,,,,,,,
null,,confidence_buffer,1042775,confidence_buffer,,null,,,,,,,,,,,,,,,,,,
null,,thebreak,1043278,break,,null,,,,,,,,,,,,,,,,,,
10463,,pt2_realistic_rating,1053742,US_Cities_List/nat_okoboji.png,,52,US_Cities_List/nat_okoboji.png,NAT,4,,,,,,,,,,,,,,,
null,,confidence_buffer,1053844,confidence_buffer,,null,,,,,,,,,,,,,,,,,,
1443.1000000014901,,pt2_unique_rating,1055288,US_Cities_List/nat_okoboji.png,,51,,,3,,,,,,,,,,,,,,,
null,,confidence_buffer,1055390,confidence_buffer,,null,,,,,,,,,,,,,,,,,,
1714.7999999970198,,pt2_memorable_rating,1057105,US_Cities_List/nat_okoboji.png,,53,,,5,,,,,,,,,,,,,,,
null,,confidence_buffer,1057207,confidence_buffer,,null,,,,,,,,,,,,,,,,,,
1649.8000000044703,,recognition_phase,1058858,US_Cities_List/nat_okoboji.png,,52,,,,,,new,0,0.6938775510204082,,,,,,,,,,
null,,confidence_buffer,1058960,confidence_buffer,,null,,,,,,,,,,,,,,,,,,
null,,thebreak,1059461,break,,null,,,,,,,,,,,,,,,,,,
5630.89999999851,,pt2_realistic_rating,1065093,US_Cities_List/mm_hotsprings.png,,53,US_Cities_List/mm_hotsprings.png,MM,5,,,,,,,,,,,,,,,
null,,confidence_buffer,1065196,confidence_buffer,,null,,,,,,,,,,,,,,,,,,
2017.8000000044703,,pt2_unique_rating,1067214,US_Cities_List/mm_hotsprings.png,,50,,,2,,,,,,,,,,,,,,,
null,,confidence_buffer,1067317,confidence_buffer,,null,,,,,,,,,,,,,,,,,,
2923.89999999851,,pt2_memorable_rating,1070242,US_Cities_List/mm_hotsprings.png,,53,,,5,,,,,,,,,,,,,,,
null,,confidence_buffer,1070344,confidence_buffer,,null,,,,,,,,,,,,,,,,,,
388.6000000014901,,recognition_phase,1070734,US_Cities_List/mm_hotsprings.png,,52,,,,,,new,1,0.7,,,,,,,,,,
null,,confidence_buffer,1070835,confidence_buffer,,null,,,,,,,,,,,,,,,,,,
null,,thebreak,1071343,break,,null,,,,,,,,,,,,,,,,,,
4107.89999999851,,pt2_realistic_rating,1075452,Fictional_Cities_List/img_natural_25.png,,49,Fictional_Cities_List/img_natural_25.png,NAT,1,,,,,,,,,,,,,,,
null,,confidence_buffer,1075553,confidence_buffer,,null,,,,,,,,,,,,,,,,,,
1872.7000000029802,,pt2_unique_rating,1077427,Fictional_Cities_List/img_natural_25.png,,50,,,2,,,,,,,,,,,,,,,
null,,confidence_buffer,1077529,confidence_buffer,,null,,,,,,,,,,,,,,,,,,
1852.2000000029802,,pt2_memorable_rating,1079382,Fictional_Cities_List/img_natural_25.png,,52,,,4,,,,,,,,,,,,,,,
null,,confidence_buffer,1079483,confidence_buffer,,null,,,,,,,,,,,,,,,,,,
2012.7000000029802,,recognition_phase,1081497,Fictional_Cities_List/img_natural_25.png,,52,,,,,,new,1,0.7058823529411765,,,,,,,,,,
null,,confidence_buffer,1081599,confidence_buffer,,null,,,,,,,,,,,,,,,,,,
null,,thebreak,1082100,break,,null,,,,,,,,,,,,,,,,,,
4352.60000000149,,pt2_realistic_rating,1086454,Fictional_Cities_List/img_manmade_40.png,,49,Fictional_Cities_List/img_manmade_40.png,MM,1,,,,,,,,,,,,,,,
null,,confidence_buffer,1086556,confidence_buffer,,null,,,,,,,,,,,,,,,,,,
1126.3000000044703,,pt2_unique_rating,1087683,Fictional_Cities_List/img_manmade_40.png,,50,,,2,,,,,,,,,,,,,,,
null,,confidence_buffer,1087785,confidence_buffer,,null,,,,,,,,,,,,,,,,,,
1899,,pt2_memorable_rating,1089685,Fictional_Cities_List/img_manmade_40.png,,53,,,5,,,,,,,,,,,,,,,
null,,confidence_buffer,1089788,confidence_buffer,,null,,,,,,,,,,,,,,,,,,
1987.9000000059605,,recognition_phase,1091777,Fictional_Cities_List/img_manmade_40.png,,52,,,,,,new,1,0.7115384615384616,,,,,,,,,,
null,,confidence_buffer,1091881,confidence_buffer,,null,,,,,,,,,,,,,,,,,,
null,,thebreak,1092383,break,,null,,,,,,,,,,,,,,,,,,
4980.39999999851,,pt2_realistic_rating,1097364,Fictional_Cities_List/img_natural_03.png,,49,Fictional_Cities_List/img_natural_03.png,NAT,1,,,,,,,,,,,,,,,
null,,confidence_buffer,1097467,confidence_buffer,,null,,,,,,,,,,,,,,,,,,
682.6000000014901,,pt2_unique_rating,1098151,Fictional_Cities_List/img_natural_03.png,,52,,,4,,,,,,,,,,,,,,,
null,,confidence_buffer,1098253,confidence_buffer,,null,,,,,,,,,,,,,,,,,,
2777.3000000044703,,probe_rating,1101031,probe_rating,,51,,,,3,1,,,,,,,,,,,,,
null,,confidence_buffer,1101134,confidence_buffer,,null,,,,,,,,,,,,,,,,,,
4174.60000000149,,pt2_memorable_rating,1105309,Fictional_Cities_List/img_natural_03.png,,52,,,4,,,,,,,,,,,,,,,
null,,confidence_buffer,1105411,confidence_buffer,,null,,,,,,,,,,,,,,,,,,
1610.2000000029802,,recognition_phase,1107023,Fictional_Cities_List/img_natural_03.png,,52,,,,,,new,1,0.7169811320754716,,,,,,,,,,
null,,confidence_buffer,1107125,confidence_buffer,,null,,,,,,,,,,,,,,,,,,
null,,thebreak,1107626,break,,null,,,,,,,,,,,,,,,,,,
2715.7999999970198,,pt2_realistic_rating,1110343,Fictional_Cities_List/img_manmade_49.png,,51,Fictional_Cities_List/img_manmade_49.png,MM,3,,,,,,,,,,,,,,,
null,,confidence_buffer,1110445,confidence_buffer,,null,,,,,,,,,,,,,,,,,,
1450.0999999940395,,pt2_unique_rating,1111896,Fictional_Cities_List/img_manmade_49.png,,50,,,2,,,,,,,,,,,,,,,
null,,confidence_buffer,1111998,confidence_buffer,,null,,,,,,,,,,,,,,,,,,
867.3000000044703,,pt2_memorable_rating,1112866,Fictional_Cities_List/img_manmade_49.png,,52,,,4,,,,,,,,,,,,,,,
null,,confidence_buffer,1112969,confidence_buffer,,null,,,,,,,,,,,,,,,,,,
1974.3000000044703,,recognition_phase,1114944,Fictional_Cities_List/img_manmade_49.png,,52,,,,,,new,1,0.7222222222222222,,,,,,,,,,
null,,confidence_buffer,1115046,confidence_buffer,,null,,,,,,,,,,,,,,,,,,
null,,thebreak,1115548,break,,null,,,,,,,,,,,,,,,,,,
4610.80000000447,,pt2_realistic_rating,1120160,Fictional_Cities_List/img_natural_22.png,,49,Fictional_Cities_List/img_natural_22.png,NAT,1,,,,,,,,,,,,,,,
null,,confidence_buffer,1120262,confidence_buffer,,null,,,,,,,,,,,,,,,,,,
1316.3999999985099,,pt2_unique_rating,1121580,Fictional_Cities_List/img_natural_22.png,,52,,,4,,,,,,,,,,,,,,,
null,,confidence_buffer,1121683,confidence_buffer,,null,,,,,,,,,,,,,,,,,,
1726.1000000014901,,pt2_memorable_rating,1123410,Fictional_Cities_List/img_natural_22.png,,53,,,5,,,,,,,,,,,,,,,
null,,confidence_buffer,1123511,confidence_buffer,,null,,,,,,,,,,,,,,,,,,
2128,,recognition_phase,1125640,Fictional_Cities_List/img_natural_22.png,,52,,,,,,new,0,0.7090909090909091,,,,,,,,,,
null,,confidence_buffer,1125743,confidence_buffer,,null,,,,,,,,,,,,,,,,,,
null,,thebreak,1126245,break,,null,,,,,,,,,,,,,,,,,,
3938.60000000149,,pt2_realistic_rating,1130184,US_Cities_List/nat_delawarecity.png,,53,US_Cities_List/nat_delawarecity.png,NAT,5,,,,,,,,,,,,,,,
null,,confidence_buffer,1130287,confidence_buffer,,null,,,,,,,,,,,,,,,,,,
1430.8999999985099,,pt2_unique_rating,1131719,US_Cities_List/nat_delawarecity.png,,52,,,4,,,,,,,,,,,,,,,
null,,confidence_buffer,1131830,confidence_buffer,,null,,,,,,,,,,,,,,,,,,
171.89999999850988,,pt2_memorable_rating,1132002,US_Cities_List/nat_delawarecity.png,,52,,,4,,,,,,,,,,,,,,,
null,,confidence_buffer,1132105,confidence_buffer,,null,,,,,,,,,,,,,,,,,,
0.7000000029802322,,recognition_phase,1132106,US_Cities_List/nat_delawarecity.png,,52,,,,,,new,0,0.6964285714285714,,,,,,,,,,
null,,confidence_buffer,1132208,confidence_buffer,,null,,,,,,,,,,,,,,,,,,
null,,thebreak,1132708,break,,null,,,,,,,,,,,,,,,,,,
5829.60000000149,,pt2_realistic_rating,1138539,US_Cities_List/mm_coeurdalene.png,,51,US_Cities_List/mm_coeurdalene.png,MM,3,,,,,,,,,,,,,,,
null,,confidence_buffer,1138641,confidence_buffer,,null,,,,,,,,,,,,,,,,,,
934.6999999955297,,pt2_unique_rating,1139577,US_Cities_List/mm_coeurdalene.png,,52,,,4,,,,,,,,,,,,,,,
null,,confidence_buffer,1139679,confidence_buffer,,null,,,,,,,,,,,,,,,,,,
1014.8999999985099,,pt2_memorable_rating,1140695,US_Cities_List/mm_coeurdalene.png,,53,,,5,,,,,,,,,,,,,,,
null,,confidence_buffer,1140798,confidence_buffer,,null,,,,,,,,,,,,,,,,,,
1418.5,,recognition_phase,1142217,US_Cities_List/mm_coeurdalene.png,,52,,,,,,new,1,0.7017543859649122,,,,,,,,,,
null,,confidence_buffer,1142319,confidence_buffer,,null,,,,,,,,,,,,,,,,,,
null,,thebreak,1142820,break,,null,,,,,,,,,,,,,,,,,,
3405.2000000029802,,pt2_realistic_rating,1146227,Fictional_Cities_List/img_natural_42.png,,50,Fictional_Cities_List/img_natural_42.png,NAT,2,,,,,,,,,,,,,,,
null,,confidence_buffer,1146328,confidence_buffer,,null,,,,,,,,,,,,,,,,,,
3257.10000000149,,pt2_unique_rating,1149587,Fictional_Cities_List/img_natural_42.png,,53,,,5,,,,,,,,,,,,,,,
null,,confidence_buffer,1149688,confidence_buffer,,null,,,,,,,,,,,,,,,,,,
1934.6000000014901,,pt2_memorable_rating,1151623,Fictional_Cities_List/img_natural_42.png,,53,,,5,,,,,,,,,,,,,,,
null,,confidence_buffer,1151726,confidence_buffer,,null,,,,,,,,,,,,,,,,,,
3218.2999999970198,,recognition_phase,1154946,Fictional_Cities_List/img_natural_42.png,,52,,,,,,new,1,0.7068965517241379,,,,,,,,,,
null,,confidence_buffer,1155049,confidence_buffer,,null,,,,,,,,,,,,,,,,,,
null,,thebreak,1155550,break,,null,,,,,,,,,,,,,,,,,,
3334.9000000059605,,pt2_realistic_rating,1158886,US_Cities_List/mm_healdsburg.png,,50,US_Cities_List/mm_healdsburg.png,MM,2,,,,,,,,,,,,,,,
null,,confidence_buffer,1158988,confidence_buffer,,null,,,,,,,,,,,,,,,,,,
1717.5,,pt2_unique_rating,1160707,US_Cities_List/mm_healdsburg.png,,51,,,3,,,,,,,,,,,,,,,
null,,confidence_buffer,1160809,confidence_buffer,,null,,,,,,,,,,,,,,,,,,
2321.89999999851,,pt2_memorable_rating,1163132,US_Cities_List/mm_healdsburg.png,,52,,,4,,,,,,,,,,,,,,,
null,,confidence_buffer,1163233,confidence_buffer,,null,,,,,,,,,,,,,,,,,,
1368.5999999940395,,recognition_phase,1164603,US_Cities_List/mm_healdsburg.png,,52,,,,,,new,1,0.711864406779661,,,,,,,,,,
null,,confidence_buffer,1164704,confidence_buffer,,null,,,,,,,,,,,,,,,,,,
null,,thebreak,1165206,break,,null,,,,,,,,,,,,,,,,,,
2836.7000000029802,,pt2_realistic_rating,1168043,Fictional_Cities_List/img_manmade_03.png,,49,Fictional_Cities_List/img_manmade_03.png,MM,1,,,,,,,,,,,,,,,
null,,confidence_buffer,1168146,confidence_buffer,,null,,,,,,,,,,,,,,,,,,
3178.2000000029802,,pt2_unique_rating,1171325,Fictional_Cities_List/img_manmade_03.png,,53,,,5,,,,,,,,,,,,,,,
null,,confidence_buffer,1171427,confidence_buffer,,null,,,,,,,,,,,,,,,,,,
1707.5,,pt2_memorable_rating,1173135,Fictional_Cities_List/img_manmade_03.png,,53,,,5,,,,,,,,,,,,,,,
null,,confidence_buffer,1173238,confidence_buffer,,null,,,,,,,,,,,,,,,,,,
2792.5,,probe_rating,1176031,probe_rating,,49,,,,1,1,,,,,,,,,,,,,
null,,confidence_buffer,1176133,confidence_buffer,,null,,,,,,,,,,,,,,,,,,
1927.1000000014901,,recognition_phase,1178061,Fictional_Cities_List/img_manmade_03.png,,52,,,,,,new,1,0.7166666666666667,,,,,,,,,,
null,,confidence_buffer,1178163,confidence_buffer,,null,,,,,,,,,,,,,,,,,,
null,,thebreak,1178664,break,,null,,,,,,,,,,,,,,,,,,
,,survey,1520975,survey-questions,,,,,,,,,,,none,high,no,attention and memory test,closer reference with images  i have seen in the past,the appealing effect of the image,the  features and lack of duplicity,the imaging details,no,no study was great
