rt,responses,trial_type,time_elapsed,stimulus,button_pressed,key_press,name_trial,city_type,rating,probe,probe_accuracy,response,correct,accuracy,problems,smooth,distraction,strategies,familiar,memorable,unique,realistic,similar,comments
7344.700000017881,{worker_id:681ffb1a94239097e643a6b8},id_enter,7348,,,,,,,,,,,,,,,,,,,,,
53187.80000001192,,fullscreen,60539,fullscreen,0,,,,,,,,,,,,,,,,,,,
34146.30000001192,,intro_0,94695,instruct,,32,,,,,,,,,,,,,,,,,,
21628.09999999404,,intro_1,116324,instruct,,32,,,,,,,,,,,,,,,,,,
43729,,intro_2,160054,instruct,,32,,,,,,,,,,,,,,,,,,
null,,instruct_dir_4,161558,instruct,,null,,,,,,,,,,,,,,,,,,
null,,thebreak,162060,break,,null,,,,,,,,,,,,,,,,,,
8231.59999999404,,familiar_rating,170292,Pine Hollow,,51,Pine Hollow,Fictional,3,,,,,,,,,,,,,,,
null,,confidence_buffer,170395,confidence_buffer,,null,,,,,,,,,,,,,,,,,,
161.5,,unique_rating,170557,Pine Hollow,,52,,,4,,,,,,,,,,,,,,,
null,,confidence_buffer,170659,confidence_buffer,,null,,,,,,,,,,,,,,,,,,
176.30000001192093,,memorable_rating,170836,Pine Hollow,,51,,,3,,,,,,,,,,,,,,,
null,,confidence_buffer,170937,confidence_buffer,,null,,,,,,,,,,,,,,,,,,
null,,thebreak,171439,break,,null,,,,,,,,,,,,,,,,,,
12639.5,,familiar_rating,184079,Alliance,,53,Alliance,US,5,,,,,,,,,,,,,,,
null,,confidence_buffer,184181,confidence_buffer,,null,,,,,,,,,,,,,,,,,,
3177.4000000059605,,unique_rating,187359,Alliance,,53,,,5,,,,,,,,,,,,,,,
null,,confidence_buffer,187461,confidence_buffer,,null,,,,,,,,,,,,,,,,,,
3853.9000000059605,,memorable_rating,191316,Alliance,,53,,,5,,,,,,,,,,,,,,,
null,,confidence_buffer,191417,confidence_buffer,,null,,,,,,,,,,,,,,,,,,
null,,thebreak,191919,break,,null,,,,,,,,,,,,,,,,,,
2414,,familiar_rating,194334,Ashford Hills,,52,Ashford Hills,Fictional,4,,,,,,,,,,,,,,,
null,,confidence_buffer,194435,confidence_buffer,,null,,,,,,,,,,,,,,,,,,
461.80000001192093,,unique_rating,194897,Ashford Hills,,52,,,4,,,,,,,,,,,,,,,
null,,confidence_buffer,194999,confidence_buffer,,null,,,,,,,,,,,,,,,,,,
3057.300000011921,,memorable_rating,198059,Ashford Hills,,52,,,4,,,,,,,,,,,,,,,
null,,confidence_buffer,198162,confidence_buffer,,null,,,,,,,,,,,,,,,,,,
null,,thebreak,198663,break,,null,,,,,,,,,,,,,,,,,,
3959.800000011921,,familiar_rating,202623,Leesburg,,51,Leesburg,US,3,,,,,,,,,,,,,,,
null,,confidence_buffer,202725,confidence_buffer,,null,,,,,,,,,,,,,,,,,,
343.59999999403954,,unique_rating,203070,Leesburg,,51,,,3,,,,,,,,,,,,,,,
null,,confidence_buffer,203171,confidence_buffer,,null,,,,,,,,,,,,,,,,,,
330.90000000596046,,memorable_rating,203506,Leesburg,,51,,,3,,,,,,,,,,,,,,,
null,,confidence_buffer,203607,confidence_buffer,,null,,,,,,,,,,,,,,,,,,
null,,thebreak,204109,break,,null,,,,,,,,,,,,,,,,,,
2450.5999999940395,,familiar_rating,206560,Healdsburg,,53,Healdsburg,US,5,,,,,,,,,,,,,,,
null,,confidence_buffer,206662,confidence_buffer,,null,,,,,,,,,,,,,,,,,,
361.7999999821186,,unique_rating,207024,Healdsburg,,53,,,5,,,,,,,,,,,,,,,
null,,confidence_buffer,207126,confidence_buffer,,null,,,,,,,,,,,,,,,,,,
1091.699999988079,,memorable_rating,208219,Healdsburg,,53,,,5,,,,,,,,,,,,,,,
null,,confidence_buffer,208320,confidence_buffer,,null,,,,,,,,,,,,,,,,,,
null,,thebreak,208822,break,,null,,,,,,,,,,,,,,,,,,
23466.19999998808,,familiar_rating,232289,Northbridge,,53,Northbridge,Fictional,5,,,,,,,,,,,,,,,
null,,confidence_buffer,232394,confidence_buffer,,null,,,,,,,,,,,,,,,,,,
2282.899999976158,,unique_rating,234678,Northbridge,,52,,,4,,,,,,,,,,,,,,,
null,,confidence_buffer,234780,confidence_buffer,,null,,,,,,,,,,,,,,,,,,
1887.6000000238419,,memorable_rating,236668,Northbridge,,53,,,5,,,,,,,,,,,,,,,
null,,confidence_buffer,236770,confidence_buffer,,null,,,,,,,,,,,,,,,,,,
null,,thebreak,237271,break,,null,,,,,,,,,,,,,,,,,,
1791.7999999821186,,familiar_rating,239064,Huntsville,,52,Huntsville,US,4,,,,,,,,,,,,,,,
null,,confidence_buffer,239166,confidence_buffer,,null,,,,,,,,,,,,,,,,,,
1823.4000000059605,,unique_rating,240990,Huntsville,,51,,,3,,,,,,,,,,,,,,,
null,,confidence_buffer,241091,confidence_buffer,,null,,,,,,,,,,,,,,,,,,
1532.7999999821186,,memorable_rating,242625,Huntsville,,52,,,4,,,,,,,,,,,,,,,
null,,confidence_buffer,242726,confidence_buffer,,null,,,,,,,,,,,,,,,,,,
null,,thebreak,243227,break,,null,,,,,,,,,,,,,,,,,,
1033.9000000059605,,familiar_rating,244262,Cody,,51,Cody,US,3,,,,,,,,,,,,,,,
null,,confidence_buffer,244363,confidence_buffer,,null,,,,,,,,,,,,,,,,,,
1143.800000011921,,unique_rating,245508,Cody,,52,,,4,,,,,,,,,,,,,,,
null,,confidence_buffer,245610,confidence_buffer,,null,,,,,,,,,,,,,,,,,,
1178.7000000178814,,memorable_rating,246790,Cody,,51,,,3,,,,,,,,,,,,,,,
null,,confidence_buffer,246892,confidence_buffer,,null,,,,,,,,,,,,,,,,,,
null,,thebreak,247393,break,,null,,,,,,,,,,,,,,,,,,
17077.30000001192,,familiar_rating,264471,Medora,,52,Medora,US,4,,,,,,,,,,,,,,,
null,,confidence_buffer,264574,confidence_buffer,,null,,,,,,,,,,,,,,,,,,
883.2999999821186,,unique_rating,265458,Medora,,51,,,3,,,,,,,,,,,,,,,
null,,confidence_buffer,265560,confidence_buffer,,null,,,,,,,,,,,,,,,,,,
984.2000000178814,,memorable_rating,266546,Medora,,50,,,2,,,,,,,,,,,,,,,
null,,confidence_buffer,266647,confidence_buffer,,null,,,,,,,,,,,,,,,,,,
null,,thebreak,267148,break,,null,,,,,,,,,,,,,,,,,,
742.0999999940395,,familiar_rating,267891,Sierra Hollow,,51,Sierra Hollow,Fictional,3,,,,,,,,,,,,,,,
null,,confidence_buffer,267993,confidence_buffer,,null,,,,,,,,,,,,,,,,,,
1044.4000000059605,,unique_rating,269038,Sierra Hollow,,51,,,3,,,,,,,,,,,,,,,
null,,confidence_buffer,269141,confidence_buffer,,null,,,,,,,,,,,,,,,,,,
826.5,,memorable_rating,269969,Sierra Hollow,,50,,,2,,,,,,,,,,,,,,,
null,,confidence_buffer,270070,confidence_buffer,,null,,,,,,,,,,,,,,,,,,
null,,thebreak,270571,break,,null,,,,,,,,,,,,,,,,,,
908.8000000119209,,familiar_rating,271481,Boulder,,52,Boulder,US,4,,,,,,,,,,,,,,,
null,,confidence_buffer,271582,confidence_buffer,,null,,,,,,,,,,,,,,,,,,
984.0999999940395,,unique_rating,272567,Boulder,,51,,,3,,,,,,,,,,,,,,,
null,,confidence_buffer,272677,confidence_buffer,,null,,,,,,,,,,,,,,,,,,
910.9000000059605,,memorable_rating,273589,Boulder,,50,,,2,,,,,,,,,,,,,,,
null,,confidence_buffer,273691,confidence_buffer,,null,,,,,,,,,,,,,,,,,,
null,,thebreak,274192,break,,null,,,,,,,,,,,,,,,,,,
502,,familiar_rating,274695,East Ladera,,50,East Ladera,Fictional,2,,,,,,,,,,,,,,,
null,,confidence_buffer,274796,confidence_buffer,,null,,,,,,,,,,,,,,,,,,
888.5999999940395,,unique_rating,275686,East Ladera,,51,,,3,,,,,,,,,,,,,,,
null,,confidence_buffer,275788,confidence_buffer,,null,,,,,,,,,,,,,,,,,,
889.9000000059605,,memorable_rating,276679,East Ladera,,52,,,4,,,,,,,,,,,,,,,
null,,confidence_buffer,276782,confidence_buffer,,null,,,,,,,,,,,,,,,,,,
null,,thebreak,277284,break,,null,,,,,,,,,,,,,,,,,,
1667.4000000059605,,familiar_rating,278952,Willowford,,50,Willowford,Fictional,2,,,,,,,,,,,,,,,
null,,confidence_buffer,279054,confidence_buffer,,null,,,,,,,,,,,,,,,,,,
3018.300000011921,,unique_rating,282073,Willowford,,51,,,3,,,,,,,,,,,,,,,
null,,confidence_buffer,282175,confidence_buffer,,null,,,,,,,,,,,,,,,,,,
1357.4000000059605,,memorable_rating,283533,Willowford,,52,,,4,,,,,,,,,,,,,,,
null,,confidence_buffer,283634,confidence_buffer,,null,,,,,,,,,,,,,,,,,,
null,,thebreak,284136,break,,null,,,,,,,,,,,,,,,,,,
3727,,familiar_rating,287864,Driftwood Bay,,50,Driftwood Bay,Fictional,2,,,,,,,,,,,,,,,
null,,confidence_buffer,287966,confidence_buffer,,null,,,,,,,,,,,,,,,,,,
1351.7000000178814,,unique_rating,289319,Driftwood Bay,,51,,,3,,,,,,,,,,,,,,,
null,,confidence_buffer,289420,confidence_buffer,,null,,,,,,,,,,,,,,,,,,
1062.5,,memorable_rating,290483,Driftwood Bay,,50,,,2,,,,,,,,,,,,,,,
null,,confidence_buffer,290585,confidence_buffer,,null,,,,,,,,,,,,,,,,,,
null,,thebreak,291087,break,,null,,,,,,,,,,,,,,,,,,
3292.7999999821186,,familiar_rating,294380,Golden Trace,,50,Golden Trace,Fictional,2,,,,,,,,,,,,,,,
null,,confidence_buffer,294487,confidence_buffer,,null,,,,,,,,,,,,,,,,,,
1328.7000000178814,,unique_rating,295816,Golden Trace,,51,,,3,,,,,,,,,,,,,,,
null,,confidence_buffer,295919,confidence_buffer,,null,,,,,,,,,,,,,,,,,,
977,,memorable_rating,296897,Golden Trace,,52,,,4,,,,,,,,,,,,,,,
null,,confidence_buffer,297006,confidence_buffer,,null,,,,,,,,,,,,,,,,,,
null,,thebreak,297508,break,,null,,,,,,,,,,,,,,,,,,
1166.6000000238419,,familiar_rating,298675,Bowling Green,,50,Bowling Green,US,2,,,,,,,,,,,,,,,
null,,confidence_buffer,298777,confidence_buffer,,null,,,,,,,,,,,,,,,,,,
1203.2999999821186,,unique_rating,299981,Bowling Green,,51,,,3,,,,,,,,,,,,,,,
null,,confidence_buffer,300082,confidence_buffer,,null,,,,,,,,,,,,,,,,,,
2432.5999999940395,,memorable_rating,302516,Bowling Green,,51,,,3,,,,,,,,,,,,,,,
null,,confidence_buffer,302617,confidence_buffer,,null,,,,,,,,,,,,,,,,,,
null,,thebreak,303119,break,,null,,,,,,,,,,,,,,,,,,
1165.4000000059605,,familiar_rating,304285,Ravenport,,51,Ravenport,Fictional,3,,,,,,,,,,,,,,,
null,,confidence_buffer,304387,confidence_buffer,,null,,,,,,,,,,,,,,,,,,
827.8000000119209,,unique_rating,305215,Ravenport,,52,,,4,,,,,,,,,,,,,,,
null,,confidence_buffer,305317,confidence_buffer,,null,,,,,,,,,,,,,,,,,,
913.7000000178814,,memorable_rating,306232,Ravenport,,50,,,2,,,,,,,,,,,,,,,
null,,confidence_buffer,306334,confidence_buffer,,null,,,,,,,,,,,,,,,,,,
null,,thebreak,306836,break,,null,,,,,,,,,,,,,,,,,,
1017,,familiar_rating,307854,Coeur d'Alene,,52,Coeur d'Alene,US,4,,,,,,,,,,,,,,,
null,,confidence_buffer,307957,confidence_buffer,,null,,,,,,,,,,,,,,,,,,
939,,unique_rating,308896,Coeur d'Alene,,52,,,4,,,,,,,,,,,,,,,
null,,confidence_buffer,309000,confidence_buffer,,null,,,,,,,,,,,,,,,,,,
778.4000000059605,,memorable_rating,309779,Coeur d'Alene,,50,,,2,,,,,,,,,,,,,,,
null,,confidence_buffer,309881,confidence_buffer,,null,,,,,,,,,,,,,,,,,,
null,,thebreak,310382,break,,null,,,,,,,,,,,,,,,,,,
5513.5999999940395,,familiar_rating,315897,Delaware City,,50,Delaware City,US,2,,,,,,,,,,,,,,,
null,,confidence_buffer,316006,confidence_buffer,,null,,,,,,,,,,,,,,,,,,
1258.7999999821186,,unique_rating,317265,Delaware City,,50,,,2,,,,,,,,,,,,,,,
null,,confidence_buffer,317367,confidence_buffer,,null,,,,,,,,,,,,,,,,,,
4586.100000023842,,memorable_rating,321954,Delaware City,,51,,,3,,,,,,,,,,,,,,,
null,,confidence_buffer,322055,confidence_buffer,,null,,,,,,,,,,,,,,,,,,
null,,thebreak,322557,break,,null,,,,,,,,,,,,,,,,,,
869.5,,familiar_rating,323427,Manistee,,50,Manistee,US,2,,,,,,,,,,,,,,,
null,,confidence_buffer,323528,confidence_buffer,,null,,,,,,,,,,,,,,,,,,
666.1999999880791,,unique_rating,324195,Manistee,,51,,,3,,,,,,,,,,,,,,,
null,,confidence_buffer,324298,confidence_buffer,,null,,,,,,,,,,,,,,,,,,
555.9000000059605,,memorable_rating,324855,Manistee,,52,,,4,,,,,,,,,,,,,,,
null,,confidence_buffer,324957,confidence_buffer,,null,,,,,,,,,,,,,,,,,,
null,,thebreak,325458,break,,null,,,,,,,,,,,,,,,,,,
1012.5,,familiar_rating,326471,Granton Ridge,,50,Granton Ridge,Fictional,2,,,,,,,,,,,,,,,
null,,confidence_buffer,326573,confidence_buffer,,null,,,,,,,,,,,,,,,,,,
1062.300000011921,,unique_rating,327636,Granton Ridge,,52,,,4,,,,,,,,,,,,,,,
null,,confidence_buffer,327739,confidence_buffer,,null,,,,,,,,,,,,,,,,,,
814.6000000238419,,memorable_rating,328554,Granton Ridge,,50,,,2,,,,,,,,,,,,,,,
null,,confidence_buffer,328656,confidence_buffer,,null,,,,,,,,,,,,,,,,,,
null,,thebreak,329158,break,,null,,,,,,,,,,,,,,,,,,
654.9000000059605,,familiar_rating,329813,Westridge,,50,Westridge,Fictional,2,,,,,,,,,,,,,,,
null,,confidence_buffer,329916,confidence_buffer,,null,,,,,,,,,,,,,,,,,,
618.0999999940395,,unique_rating,330534,Westridge,,52,,,4,,,,,,,,,,,,,,,
null,,confidence_buffer,330636,confidence_buffer,,null,,,,,,,,,,,,,,,,,,
872.1999999880791,,memorable_rating,331509,Westridge,,50,,,2,,,,,,,,,,,,,,,
null,,confidence_buffer,331611,confidence_buffer,,null,,,,,,,,,,,,,,,,,,
null,,thebreak,332112,break,,null,,,,,,,,,,,,,,,,,,
956.4000000059605,,familiar_rating,333069,Newport,,50,Newport,US,2,,,,,,,,,,,,,,,
null,,confidence_buffer,333171,confidence_buffer,,null,,,,,,,,,,,,,,,,,,
847.7000000178814,,unique_rating,334019,Newport,,52,,,4,,,,,,,,,,,,,,,
null,,confidence_buffer,334121,confidence_buffer,,null,,,,,,,,,,,,,,,,,,
529.1000000238419,,memorable_rating,334650,Newport,,50,,,2,,,,,,,,,,,,,,,
null,,confidence_buffer,334752,confidence_buffer,,null,,,,,,,,,,,,,,,,,,
null,,thebreak,335262,break,,null,,,,,,,,,,,,,,,,,,
596,,familiar_rating,335859,Solara Glen,,52,Solara Glen,Fictional,4,,,,,,,,,,,,,,,
null,,confidence_buffer,335962,confidence_buffer,,null,,,,,,,,,,,,,,,,,,
556.3000000119209,,unique_rating,336519,Solara Glen,,50,,,2,,,,,,,,,,,,,,,
null,,confidence_buffer,336620,confidence_buffer,,null,,,,,,,,,,,,,,,,,,
766.9000000059605,,memorable_rating,337388,Solara Glen,,51,,,3,,,,,,,,,,,,,,,
null,,confidence_buffer,337489,confidence_buffer,,null,,,,,,,,,,,,,,,,,,
null,,thebreak,337990,break,,null,,,,,,,,,,,,,,,,,,
777.5,,familiar_rating,338769,Elmsbury,,51,Elmsbury,Fictional,3,,,,,,,,,,,,,,,
null,,confidence_buffer,338870,confidence_buffer,,null,,,,,,,,,,,,,,,,,,
608.9000000059605,,unique_rating,339480,Elmsbury,,50,,,2,,,,,,,,,,,,,,,
null,,confidence_buffer,339582,confidence_buffer,,null,,,,,,,,,,,,,,,,,,
1022.5,,memorable_rating,340605,Elmsbury,,51,,,3,,,,,,,,,,,,,,,
null,,confidence_buffer,340706,confidence_buffer,,null,,,,,,,,,,,,,,,,,,
null,,thebreak,341208,break,,null,,,,,,,,,,,,,,,,,,
612.7000000178814,,familiar_rating,341822,Tamarisk Hills,,52,Tamarisk Hills,Fictional,4,,,,,,,,,,,,,,,
null,,confidence_buffer,341924,confidence_buffer,,null,,,,,,,,,,,,,,,,,,
1128,,unique_rating,343053,Tamarisk Hills,,51,,,3,,,,,,,,,,,,,,,
null,,confidence_buffer,343154,confidence_buffer,,null,,,,,,,,,,,,,,,,,,
1080.1000000238419,,memorable_rating,344235,Tamarisk Hills,,50,,,2,,,,,,,,,,,,,,,
null,,confidence_buffer,344337,confidence_buffer,,null,,,,,,,,,,,,,,,,,,
null,,thebreak,344838,break,,null,,,,,,,,,,,,,,,,,,
735.4000000059605,,familiar_rating,345574,Sisters,,51,Sisters,US,3,,,,,,,,,,,,,,,
null,,confidence_buffer,345676,confidence_buffer,,null,,,,,,,,,,,,,,,,,,
709.0999999940395,,unique_rating,346386,Sisters,,52,,,4,,,,,,,,,,,,,,,
null,,confidence_buffer,346487,confidence_buffer,,null,,,,,,,,,,,,,,,,,,
1504,,memorable_rating,347992,Sisters,,51,,,3,,,,,,,,,,,,,,,
null,,confidence_buffer,348093,confidence_buffer,,null,,,,,,,,,,,,,,,,,,
null,,thebreak,348594,break,,null,,,,,,,,,,,,,,,,,,
652.0999999940395,,familiar_rating,349247,Briarfield,,50,Briarfield,Fictional,2,,,,,,,,,,,,,,,
null,,confidence_buffer,349349,confidence_buffer,,null,,,,,,,,,,,,,,,,,,
610.2999999821186,,unique_rating,349960,Briarfield,,51,,,3,,,,,,,,,,,,,,,
null,,confidence_buffer,350062,confidence_buffer,,null,,,,,,,,,,,,,,,,,,
723.9000000059605,,memorable_rating,350787,Briarfield,,52,,,4,,,,,,,,,,,,,,,
null,,confidence_buffer,350900,confidence_buffer,,null,,,,,,,,,,,,,,,,,,
5594.300000011921,,probe_rating,356495,probe_rating,,51,,,,3,1,,,,,,,,,,,,,
null,,confidence_buffer,356600,confidence_buffer,,null,,,,,,,,,,,,,,,,,,
null,,thebreak,357102,break,,null,,,,,,,,,,,,,,,,,,
1589.5999999940395,,familiar_rating,358692,Custer,,50,Custer,US,2,,,,,,,,,,,,,,,
null,,confidence_buffer,358793,confidence_buffer,,null,,,,,,,,,,,,,,,,,,
681.5,,unique_rating,359476,Custer,,51,,,3,,,,,,,,,,,,,,,
null,,confidence_buffer,359588,confidence_buffer,,null,,,,,,,,,,,,,,,,,,
443.5,,memorable_rating,360033,Custer,,52,,,4,,,,,,,,,,,,,,,
null,,confidence_buffer,360135,confidence_buffer,,null,,,,,,,,,,,,,,,,,,
null,,thebreak,360636,break,,null,,,,,,,,,,,,,,,,,,
671.5,,familiar_rating,361309,Yukon,,50,Yukon,US,2,,,,,,,,,,,,,,,
null,,confidence_buffer,361411,confidence_buffer,,null,,,,,,,,,,,,,,,,,,
617.5,,unique_rating,362029,Yukon,,51,,,3,,,,,,,,,,,,,,,
null,,confidence_buffer,362146,confidence_buffer,,null,,,,,,,,,,,,,,,,,,
1172.0999999940395,,memorable_rating,363319,Yukon,,52,,,4,,,,,,,,,,,,,,,
null,,confidence_buffer,363421,confidence_buffer,,null,,,,,,,,,,,,,,,,,,
null,,thebreak,363923,break,,null,,,,,,,,,,,,,,,,,,
21380.20000001788,,intro_0,385304,instruct,,32,,,,,,,,,,,,,,,,,,
12449.800000011921,,intro_1,397754,instruct,,32,,,,,,,,,,,,,,,,,,
6644,,intro_2,404399,instruct,,32,,,,,,,,,,,,,,,,,,
null,,instruct_dir_4,405900,instruct,,null,,,,,,,,,,,,,,,,,,
18930.70000001788,,realistic_rating,424831,Northbridge,,49,Northbridge,Fictional,1,,,,,,,,,,,,,,,
null,,confidence_buffer,424935,confidence_buffer,,null,,,,,,,,,,,,,,,,,,
1659.9000000059605,,pt2_unique_rating,426596,Northbridge,,49,,,1,,,,,,,,,,,,,,,
null,,confidence_buffer,426698,confidence_buffer,,null,,,,,,,,,,,,,,,,,,
1043.199999988079,,pt2_memorable_rating,427742,Northbridge,,50,,,2,,,,,,,,,,,,,,,
null,,confidence_buffer,427843,confidence_buffer,,null,,,,,,,,,,,,,,,,,,
3064.4000000059605,,recognition_phase,430909,Northbridge,,49,,,,,,old,1,1,,,,,,,,,,
null,,confidence_buffer,431010,confidence_buffer,,null,,,,,,,,,,,,,,,,,,
null,,thebreak,431511,break,,null,,,,,,,,,,,,,,,,,,
8855.90000000596,,realistic_rating,440368,Gardnerville,,53,Gardnerville,US,5,,,,,,,,,,,,,,,
null,,confidence_buffer,440470,confidence_buffer,,null,,,,,,,,,,,,,,,,,,
894,,pt2_unique_rating,441364,Gardnerville,,51,,,3,,,,,,,,,,,,,,,
null,,confidence_buffer,441466,confidence_buffer,,null,,,,,,,,,,,,,,,,,,
476.59999999403954,,pt2_memorable_rating,441943,Gardnerville,,52,,,4,,,,,,,,,,,,,,,
null,,confidence_buffer,442044,confidence_buffer,,null,,,,,,,,,,,,,,,,,,
352.5,,recognition_phase,442398,Gardnerville,,50,,,,,,old,0,0.5,,,,,,,,,,
null,,confidence_buffer,442506,confidence_buffer,,null,,,,,,,,,,,,,,,,,,
null,,thebreak,443008,break,,null,,,,,,,,,,,,,,,,,,
1088.4000000059605,,realistic_rating,444097,Summershade,,49,Summershade,Fictional,1,,,,,,,,,,,,,,,
null,,confidence_buffer,444202,confidence_buffer,,null,,,,,,,,,,,,,,,,,,
576.3000000119209,,pt2_unique_rating,444779,Summershade,,50,,,2,,,,,,,,,,,,,,,
null,,confidence_buffer,444881,confidence_buffer,,null,,,,,,,,,,,,,,,,,,
1076.6000000238419,,pt2_memorable_rating,445958,Summershade,,52,,,4,,,,,,,,,,,,,,,
null,,confidence_buffer,446060,confidence_buffer,,null,,,,,,,,,,,,,,,,,,
1280.800000011921,,recognition_phase,447342,Summershade,,49,,,,,,old,0,0.3333333333333333,,,,,,,,,,
null,,confidence_buffer,447443,confidence_buffer,,null,,,,,,,,,,,,,,,,,,
null,,thebreak,447945,break,,null,,,,,,,,,,,,,,,,,,
2123.699999988079,,realistic_rating,450070,Livingston,,50,Livingston,US,2,,,,,,,,,,,,,,,
null,,confidence_buffer,450172,confidence_buffer,,null,,,,,,,,,,,,,,,,,,
619.6999999880791,,pt2_unique_rating,450792,Livingston,,51,,,3,,,,,,,,,,,,,,,
null,,confidence_buffer,450894,confidence_buffer,,null,,,,,,,,,,,,,,,,,,
663,,pt2_memorable_rating,451558,Livingston,,49,,,1,,,,,,,,,,,,,,,
null,,confidence_buffer,451664,confidence_buffer,,null,,,,,,,,,,,,,,,,,,
1583.7000000178814,,recognition_phase,453249,Livingston,,50,,,,,,old,0,0.25,,,,,,,,,,
null,,confidence_buffer,453350,confidence_buffer,,null,,,,,,,,,,,,,,,,,,
null,,thebreak,453851,break,,null,,,,,,,,,,,,,,,,,,
14070.59999999404,,realistic_rating,467924,Montelake,,49,Montelake,Fictional,1,,,,,,,,,,,,,,,
null,,confidence_buffer,468029,confidence_buffer,,null,,,,,,,,,,,,,,,,,,
565.7999999821186,,pt2_unique_rating,468598,Montelake,,50,,,2,,,,,,,,,,,,,,,
null,,confidence_buffer,468701,confidence_buffer,,null,,,,,,,,,,,,,,,,,,
608.7000000178814,,pt2_memorable_rating,469311,Montelake,,51,,,3,,,,,,,,,,,,,,,
null,,confidence_buffer,469414,confidence_buffer,,null,,,,,,,,,,,,,,,,,,
754.6999999880791,,recognition_phase,470169,Montelake,,51,,,,,,new,1,0.4,,,,,,,,,,
null,,confidence_buffer,470271,confidence_buffer,,null,,,,,,,,,,,,,,,,,,
null,,thebreak,470773,break,,null,,,,,,,,,,,,,,,,,,
423.80000001192093,,realistic_rating,471198,Delaware City,,50,Delaware City,US,2,,,,,,,,,,,,,,,
null,,confidence_buffer,471306,confidence_buffer,,null,,,,,,,,,,,,,,,,,,
487.2999999821186,,pt2_unique_rating,471794,Delaware City,,49,,,1,,,,,,,,,,,,,,,
null,,confidence_buffer,471895,confidence_buffer,,null,,,,,,,,,,,,,,,,,,
501.89999997615814,,pt2_memorable_rating,472398,Delaware City,,51,,,3,,,,,,,,,,,,,,,
null,,confidence_buffer,472499,confidence_buffer,,null,,,,,,,,,,,,,,,,,,
601.0999999940395,,recognition_phase,473101,Delaware City,,52,,,,,,new,0,0.3333333333333333,,,,,,,,,,
null,,confidence_buffer,473202,confidence_buffer,,null,,,,,,,,,,,,,,,,,,
null,,thebreak,473704,break,,null,,,,,,,,,,,,,,,,,,
67.09999999403954,,realistic_rating,473772,Watkins Glen,,49,Watkins Glen,US,1,,,,,,,,,,,,,,,
null,,confidence_buffer,473874,confidence_buffer,,null,,,,,,,,,,,,,,,,,,
572.8000000119209,,pt2_unique_rating,474447,Watkins Glen,,50,,,2,,,,,,,,,,,,,,,
null,,confidence_buffer,474562,confidence_buffer,,null,,,,,,,,,,,,,,,,,,
1443.2999999821186,,pt2_memorable_rating,476006,Watkins Glen,,51,,,3,,,,,,,,,,,,,,,
null,,confidence_buffer,476107,confidence_buffer,,null,,,,,,,,,,,,,,,,,,
585.5999999940395,,recognition_phase,476694,Watkins Glen,,52,,,,,,new,1,0.42857142857142855,,,,,,,,,,
null,,confidence_buffer,476796,confidence_buffer,,null,,,,,,,,,,,,,,,,,,
null,,thebreak,477297,break,,null,,,,,,,,,,,,,,,,,,
40.70000001788139,,realistic_rating,477338,Sierra Hollow,,50,Sierra Hollow,Fictional,2,,,,,,,,,,,,,,,
null,,confidence_buffer,477440,confidence_buffer,,null,,,,,,,,,,,,,,,,,,
512.0999999940395,,pt2_unique_rating,477953,Sierra Hollow,,51,,,3,,,,,,,,,,,,,,,
null,,confidence_buffer,478055,confidence_buffer,,null,,,,,,,,,,,,,,,,,,
965.0999999940395,,pt2_memorable_rating,479021,Sierra Hollow,,49,,,1,,,,,,,,,,,,,,,
null,,confidence_buffer,479123,confidence_buffer,,null,,,,,,,,,,,,,,,,,,
760.8000000119209,,recognition_phase,479885,Sierra Hollow,,50,,,,,,old,1,0.5,,,,,,,,,,
null,,confidence_buffer,479986,confidence_buffer,,null,,,,,,,,,,,,,,,,,,
null,,thebreak,480488,break,,null,,,,,,,,,,,,,,,,,,
618.1000000238419,,realistic_rating,481106,Cornwall,,51,Cornwall,US,3,,,,,,,,,,,,,,,
null,,confidence_buffer,481213,confidence_buffer,,null,,,,,,,,,,,,,,,,,,
557,,pt2_unique_rating,481770,Cornwall,,50,,,2,,,,,,,,,,,,,,,
null,,confidence_buffer,481872,confidence_buffer,,null,,,,,,,,,,,,,,,,,,
672.7000000178814,,pt2_memorable_rating,482545,Cornwall,,49,,,1,,,,,,,,,,,,,,,
null,,confidence_buffer,482646,confidence_buffer,,null,,,,,,,,,,,,,,,,,,
707.3999999761581,,recognition_phase,483354,Cornwall,,50,,,,,,old,0,0.4444444444444444,,,,,,,,,,
null,,confidence_buffer,483457,confidence_buffer,,null,,,,,,,,,,,,,,,,,,
null,,thebreak,483958,break,,null,,,,,,,,,,,,,,,,,,
297,,realistic_rating,484256,Ashford Hills,,51,Ashford Hills,Fictional,3,,,,,,,,,,,,,,,
null,,confidence_buffer,484356,confidence_buffer,,null,,,,,,,,,,,,,,,,,,
586.5,,pt2_unique_rating,484944,Ashford Hills,,49,,,1,,,,,,,,,,,,,,,
null,,confidence_buffer,485055,confidence_buffer,,null,,,,,,,,,,,,,,,,,,
626.6999999880791,,pt2_memorable_rating,485682,Ashford Hills,,51,,,3,,,,,,,,,,,,,,,
null,,confidence_buffer,485784,confidence_buffer,,null,,,,,,,,,,,,,,,,,,
1191.300000011921,,recognition_phase,486976,Ashford Hills,,51,,,,,,new,0,0.4,,,,,,,,,,
null,,confidence_buffer,487077,confidence_buffer,,null,,,,,,,,,,,,,,,,,,
null,,thebreak,487579,break,,null,,,,,,,,,,,,,,,,,,
503,,realistic_rating,488083,Pine Hollow,,50,Pine Hollow,Fictional,2,,,,,,,,,,,,,,,
null,,confidence_buffer,488185,confidence_buffer,,null,,,,,,,,,,,,,,,,,,
1619.2999999821186,,pt2_unique_rating,489805,Pine Hollow,,51,,,3,,,,,,,,,,,,,,,
null,,confidence_buffer,489905,confidence_buffer,,null,,,,,,,,,,,,,,,,,,
826.5,,pt2_memorable_rating,490733,Pine Hollow,,50,,,2,,,,,,,,,,,,,,,
null,,confidence_buffer,490834,confidence_buffer,,null,,,,,,,,,,,,,,,,,,
846,,recognition_phase,491681,Pine Hollow,,51,,,,,,new,0,0.36363636363636365,,,,,,,,,,
null,,confidence_buffer,491782,confidence_buffer,,null,,,,,,,,,,,,,,,,,,
null,,thebreak,492283,break,,null,,,,,,,,,,,,,,,,,,
1445.8999999761581,,realistic_rating,493730,Gatlinburg,,50,Gatlinburg,US,2,,,,,,,,,,,,,,,
null,,confidence_buffer,493832,confidence_buffer,,null,,,,,,,,,,,,,,,,,,
579.1000000238419,,pt2_unique_rating,494411,Gatlinburg,,51,,,3,,,,,,,,,,,,,,,
null,,confidence_buffer,494513,confidence_buffer,,null,,,,,,,,,,,,,,,,,,
1066.2999999821186,,pt2_memorable_rating,495580,Gatlinburg,,50,,,2,,,,,,,,,,,,,,,
null,,confidence_buffer,495683,confidence_buffer,,null,,,,,,,,,,,,,,,,,,
919.0999999940395,,recognition_phase,496603,Gatlinburg,,49,,,,,,old,0,0.3333333333333333,,,,,,,,,,
null,,confidence_buffer,496704,confidence_buffer,,null,,,,,,,,,,,,,,,,,,
null,,thebreak,497206,break,,null,,,,,,,,,,,,,,,,,,
739.8000000119209,,realistic_rating,497946,Ravenport,,51,Ravenport,Fictional,3,,,,,,,,,,,,,,,
null,,confidence_buffer,498047,confidence_buffer,,null,,,,,,,,,,,,,,,,,,
1032,,pt2_unique_rating,499080,Ravenport,,52,,,4,,,,,,,,,,,,,,,
null,,confidence_buffer,499182,confidence_buffer,,null,,,,,,,,,,,,,,,,,,
860.5,,pt2_memorable_rating,500043,Ravenport,,50,,,2,,,,,,,,,,,,,,,
null,,confidence_buffer,500145,confidence_buffer,,null,,,,,,,,,,,,,,,,,,
684,,recognition_phase,500830,Ravenport,,49,,,,,,old,1,0.38461538461538464,,,,,,,,,,
null,,confidence_buffer,500931,confidence_buffer,,null,,,,,,,,,,,,,,,,,,
null,,thebreak,501439,break,,null,,,,,,,,,,,,,,,,,,
2844.5,,realistic_rating,504284,Maplehurst,,52,Maplehurst,Fictional,4,,,,,,,,,,,,,,,
null,,confidence_buffer,504387,confidence_buffer,,null,,,,,,,,,,,,,,,,,,
1720.5,,pt2_unique_rating,506108,Maplehurst,,53,,,5,,,,,,,,,,,,,,,
null,,confidence_buffer,506216,confidence_buffer,,null,,,,,,,,,,,,,,,,,,
537.9000000059605,,pt2_memorable_rating,506754,Maplehurst,,51,,,3,,,,,,,,,,,,,,,
null,,confidence_buffer,506857,confidence_buffer,,null,,,,,,,,,,,,,,,,,,
628.8000000119209,,recognition_phase,507486,Maplehurst,,52,,,,,,new,1,0.42857142857142855,,,,,,,,,,
null,,confidence_buffer,507599,confidence_buffer,,null,,,,,,,,,,,,,,,,,,
null,,thebreak,508100,break,,null,,,,,,,,,,,,,,,,,,
583.5999999940395,,realistic_rating,508685,New Verdan,,50,New Verdan,Fictional,2,,,,,,,,,,,,,,,
null,,confidence_buffer,508787,confidence_buffer,,null,,,,,,,,,,,,,,,,,,
482.30000001192093,,pt2_unique_rating,509270,New Verdan,,49,,,1,,,,,,,,,,,,,,,
null,,confidence_buffer,509371,confidence_buffer,,null,,,,,,,,,,,,,,,,,,
828.6000000238419,,pt2_memorable_rating,510201,New Verdan,,52,,,4,,,,,,,,,,,,,,,
null,,confidence_buffer,510302,confidence_buffer,,null,,,,,,,,,,,,,,,,,,
709.0999999940395,,recognition_phase,511012,New Verdan,,51,,,,,,new,1,0.4666666666666667,,,,,,,,,,
null,,confidence_buffer,511113,confidence_buffer,,null,,,,,,,,,,,,,,,,,,
null,,thebreak,511614,break,,null,,,,,,,,,,,,,,,,,,
692,,realistic_rating,512307,Hot Springs,,52,Hot Springs,US,4,,,,,,,,,,,,,,,
null,,confidence_buffer,512418,confidence_buffer,,null,,,,,,,,,,,,,,,,,,
2539.600000023842,,probe_rating,514958,probe_rating,,50,,,,2,1,,,,,,,,,,,,,
null,,confidence_buffer,515059,confidence_buffer,,null,,,,,,,,,,,,,,,,,,
1522.5999999940395,,pt2_unique_rating,516583,Hot Springs,,52,,,4,,,,,,,,,,,,,,,
null,,confidence_buffer,516684,confidence_buffer,,null,,,,,,,,,,,,,,,,,,
1891.800000011921,,pt2_memorable_rating,518576,Hot Springs,,49,,,1,,,,,,,,,,,,,,,
null,,confidence_buffer,518680,confidence_buffer,,null,,,,,,,,,,,,,,,,,,
839.7999999821186,,recognition_phase,519521,Hot Springs,,52,,,,,,new,1,0.5,,,,,,,,,,
null,,confidence_buffer,519622,confidence_buffer,,null,,,,,,,,,,,,,,,,,,
null,,thebreak,520124,break,,null,,,,,,,,,,,,,,,,,,
803.8999999761581,,realistic_rating,520929,Peoria,,51,Peoria,US,3,,,,,,,,,,,,,,,
null,,confidence_buffer,521030,confidence_buffer,,null,,,,,,,,,,,,,,,,,,
1743.800000011921,,probe_rating,522774,probe_rating,,49,,,,1,1,,,,,,,,,,,,,
null,,confidence_buffer,522875,confidence_buffer,,null,,,,,,,,,,,,,,,,,,
1530.300000011921,,pt2_unique_rating,524406,Peoria,,49,,,1,,,,,,,,,,,,,,,
null,,confidence_buffer,524523,confidence_buffer,,null,,,,,,,,,,,,,,,,,,
516.8000000119209,,pt2_memorable_rating,525040,Peoria,,50,,,2,,,,,,,,,,,,,,,
null,,confidence_buffer,525143,confidence_buffer,,null,,,,,,,,,,,,,,,,,,
794,,recognition_phase,525937,Peoria,,51,,,,,,new,1,0.5294117647058824,,,,,,,,,,
null,,confidence_buffer,526043,confidence_buffer,,null,,,,,,,,,,,,,,,,,,
null,,thebreak,526544,break,,null,,,,,,,,,,,,,,,,,,
522.5,,realistic_rating,527068,Medora,,52,Medora,US,4,,,,,,,,,,,,,,,
null,,confidence_buffer,527169,confidence_buffer,,null,,,,,,,,,,,,,,,,,,
2119.800000011921,,pt2_unique_rating,529289,Medora,,53,,,5,,,,,,,,,,,,,,,
null,,confidence_buffer,529391,confidence_buffer,,null,,,,,,,,,,,,,,,,,,
759.3000000119209,,pt2_memorable_rating,530151,Medora,,52,,,4,,,,,,,,,,,,,,,
null,,confidence_buffer,530253,confidence_buffer,,null,,,,,,,,,,,,,,,,,,
1993.5999999940395,,recognition_phase,532248,Medora,,51,,,,,,new,0,0.5,,,,,,,,,,
null,,confidence_buffer,532350,confidence_buffer,,null,,,,,,,,,,,,,,,,,,
null,,thebreak,532851,break,,null,,,,,,,,,,,,,,,,,,
1342,,realistic_rating,534194,Briarfield,,49,Briarfield,Fictional,1,,,,,,,,,,,,,,,
null,,confidence_buffer,534296,confidence_buffer,,null,,,,,,,,,,,,,,,,,,
540,,pt2_unique_rating,534837,Briarfield,,50,,,2,,,,,,,,,,,,,,,
null,,confidence_buffer,534948,confidence_buffer,,null,,,,,,,,,,,,,,,,,,
941.2000000178814,,pt2_memorable_rating,535890,Briarfield,,51,,,3,,,,,,,,,,,,,,,
null,,confidence_buffer,535992,confidence_buffer,,null,,,,,,,,,,,,,,,,,,
742.2000000178814,,recognition_phase,536735,Briarfield,,52,,,,,,new,0,0.47368421052631576,,,,,,,,,,
null,,confidence_buffer,536837,confidence_buffer,,null,,,,,,,,,,,,,,,,,,
null,,thebreak,537339,break,,null,,,,,,,,,,,,,,,,,,
566.4000000059605,,realistic_rating,537906,Tamarisk Hills,,52,Tamarisk Hills,Fictional,4,,,,,,,,,,,,,,,
null,,confidence_buffer,538009,confidence_buffer,,null,,,,,,,,,,,,,,,,,,
1874.7999999821186,,probe_rating,539885,probe_rating,,50,,,,2,1,,,,,,,,,,,,,
null,,confidence_buffer,539989,confidence_buffer,,null,,,,,,,,,,,,,,,,,,
741.9000000059605,,pt2_unique_rating,540731,Tamarisk Hills,,49,,,1,,,,,,,,,,,,,,,
null,,confidence_buffer,540833,confidence_buffer,,null,,,,,,,,,,,,,,,,,,
455.40000000596046,,pt2_memorable_rating,541289,Tamarisk Hills,,50,,,2,,,,,,,,,,,,,,,
null,,confidence_buffer,541390,confidence_buffer,,null,,,,,,,,,,,,,,,,,,
616.7000000178814,,recognition_phase,542008,Tamarisk Hills,,51,,,,,,new,0,0.45,,,,,,,,,,
null,,confidence_buffer,542109,confidence_buffer,,null,,,,,,,,,,,,,,,,,,
null,,thebreak,542611,break,,null,,,,,,,,,,,,,,,,,,
421.7000000178814,,realistic_rating,543034,Newport,,52,Newport,US,4,,,,,,,,,,,,,,,
null,,confidence_buffer,543135,confidence_buffer,,null,,,,,,,,,,,,,,,,,,
949.0999999940395,,pt2_unique_rating,544085,Newport,,49,,,1,,,,,,,,,,,,,,,
null,,confidence_buffer,544187,confidence_buffer,,null,,,,,,,,,,,,,,,,,,
1028.300000011921,,pt2_memorable_rating,545217,Newport,,51,,,3,,,,,,,,,,,,,,,
null,,confidence_buffer,545318,confidence_buffer,,null,,,,,,,,,,,,,,,,,,
1378.5,,probe_rating,546697,probe_rating,,49,,,,1,1,,,,,,,,,,,,,
null,,confidence_buffer,546812,confidence_buffer,,null,,,,,,,,,,,,,,,,,,
2584.5999999940395,,recognition_phase,549397,Newport,,50,,,,,,old,1,0.47619047619047616,,,,,,,,,,
null,,confidence_buffer,549512,confidence_buffer,,null,,,,,,,,,,,,,,,,,,
null,,thebreak,550013,break,,null,,,,,,,,,,,,,,,,,,
690.5999999940395,,realistic_rating,550705,Lakehaven,,51,Lakehaven,Fictional,3,,,,,,,,,,,,,,,
null,,confidence_buffer,550807,confidence_buffer,,null,,,,,,,,,,,,,,,,,,
1526.5,,pt2_unique_rating,552334,Lakehaven,,52,,,4,,,,,,,,,,,,,,,
null,,confidence_buffer,552437,confidence_buffer,,null,,,,,,,,,,,,,,,,,,
703.1000000238419,,pt2_memorable_rating,553141,Lakehaven,,51,,,3,,,,,,,,,,,,,,,
null,,confidence_buffer,553242,confidence_buffer,,null,,,,,,,,,,,,,,,,,,
837.0999999940395,,recognition_phase,554080,Lakehaven,,50,,,,,,old,0,0.45454545454545453,,,,,,,,,,
null,,confidence_buffer,554182,confidence_buffer,,null,,,,,,,,,,,,,,,,,,
null,,thebreak,554683,break,,null,,,,,,,,,,,,,,,,,,
3760.300000011921,,realistic_rating,558444,Boulder,,51,Boulder,US,3,,,,,,,,,,,,,,,
null,,confidence_buffer,558545,confidence_buffer,,null,,,,,,,,,,,,,,,,,,
743.7000000178814,,pt2_unique_rating,559290,Boulder,,52,,,4,,,,,,,,,,,,,,,
null,,confidence_buffer,559392,confidence_buffer,,null,,,,,,,,,,,,,,,,,,
1039.199999988079,,pt2_memorable_rating,560432,Boulder,,51,,,3,,,,,,,,,,,,,,,
null,,confidence_buffer,560533,confidence_buffer,,null,,,,,,,,,,,,,,,,,,
2482.2000000178814,,recognition_phase,563016,Boulder,,52,,,,,,new,0,0.43478260869565216,,,,,,,,,,
null,,confidence_buffer,563117,confidence_buffer,,null,,,,,,,,,,,,,,,,,,
null,,thebreak,563619,break,,null,,,,,,,,,,,,,,,,,,
1761.199999988079,,realistic_rating,565381,Delaro Park,,51,Delaro Park,Fictional,3,,,,,,,,,,,,,,,
null,,confidence_buffer,565482,confidence_buffer,,null,,,,,,,,,,,,,,,,,,
1059.5,,pt2_unique_rating,566543,Delaro Park,,50,,,2,,,,,,,,,,,,,,,
null,,confidence_buffer,566645,confidence_buffer,,null,,,,,,,,,,,,,,,,,,
2349.5999999940395,,pt2_memorable_rating,568996,Delaro Park,,50,,,2,,,,,,,,,,,,,,,
null,,confidence_buffer,569097,confidence_buffer,,null,,,,,,,,,,,,,,,,,,
709.2999999821186,,recognition_phase,569807,Delaro Park,,50,,,,,,old,0,0.4166666666666667,,,,,,,,,,
null,,confidence_buffer,569909,confidence_buffer,,null,,,,,,,,,,,,,,,,,,
null,,thebreak,570410,break,,null,,,,,,,,,,,,,,,,,,
1970.8999999761581,,realistic_rating,572382,Leesburg,,51,Leesburg,US,3,,,,,,,,,,,,,,,
null,,confidence_buffer,572484,confidence_buffer,,null,,,,,,,,,,,,,,,,,,
556.1000000238419,,pt2_unique_rating,573041,Leesburg,,51,,,3,,,,,,,,,,,,,,,
null,,confidence_buffer,573143,confidence_buffer,,null,,,,,,,,,,,,,,,,,,
1302.5,,probe_rating,574446,probe_rating,,49,,,,1,1,,,,,,,,,,,,,
null,,confidence_buffer,574547,confidence_buffer,,null,,,,,,,,,,,,,,,,,,
1080.7999999821186,,pt2_memorable_rating,575629,Leesburg,,49,,,1,,,,,,,,,,,,,,,
null,,confidence_buffer,575730,confidence_buffer,,null,,,,,,,,,,,,,,,,,,
737.5,,recognition_phase,576469,Leesburg,,49,,,,,,old,1,0.44,,,,,,,,,,
null,,confidence_buffer,576571,confidence_buffer,,null,,,,,,,,,,,,,,,,,,
null,,thebreak,577073,break,,null,,,,,,,,,,,,,,,,,,
1923.5,,realistic_rating,578997,Driftwood Bay,,51,Driftwood Bay,Fictional,3,,,,,,,,,,,,,,,
null,,confidence_buffer,579099,confidence_buffer,,null,,,,,,,,,,,,,,,,,,
11089.59999999404,,pt2_unique_rating,590189,Driftwood Bay,,49,,,1,,,,,,,,,,,,,,,
null,,confidence_buffer,590291,confidence_buffer,,null,,,,,,,,,,,,,,,,,,
760.3000000119209,,pt2_memorable_rating,591052,Driftwood Bay,,50,,,2,,,,,,,,,,,,,,,
null,,confidence_buffer,591154,confidence_buffer,,null,,,,,,,,,,,,,,,,,,
930.5999999940395,,recognition_phase,592085,Driftwood Bay,,51,,,,,,new,0,0.4230769230769231,,,,,,,,,,
null,,confidence_buffer,592187,confidence_buffer,,null,,,,,,,,,,,,,,,,,,
null,,thebreak,592688,break,,null,,,,,,,,,,,,,,,,,,
27039.899999976158,,realistic_rating,619729,West Talora,,50,West Talora,Fictional,2,,,,,,,,,,,,,,,
null,,confidence_buffer,619834,confidence_buffer,,null,,,,,,,,,,,,,,,,,,
3858.0999999940395,,probe_rating,623693,probe_rating,,50,,,,2,1,,,,,,,,,,,,,
null,,confidence_buffer,623794,confidence_buffer,,null,,,,,,,,,,,,,,,,,,
2350.9000000059605,,pt2_unique_rating,626146,West Talora,,50,,,2,,,,,,,,,,,,,,,
null,,confidence_buffer,626247,confidence_buffer,,null,,,,,,,,,,,,,,,,,,
804.6999999880791,,pt2_memorable_rating,627053,West Talora,,50,,,2,,,,,,,,,,,,,,,
null,,confidence_buffer,627162,confidence_buffer,,null,,,,,,,,,,,,,,,,,,
481.5,,recognition_phase,627644,West Talora,,50,,,,,,old,0,0.4074074074074074,,,,,,,,,,
null,,confidence_buffer,627746,confidence_buffer,,null,,,,,,,,,,,,,,,,,,
null,,thebreak,628248,break,,null,,,,,,,,,,,,,,,,,,
1926.0999999940395,,realistic_rating,630175,Brookmere,,52,Brookmere,Fictional,4,,,,,,,,,,,,,,,
null,,confidence_buffer,630276,confidence_buffer,,null,,,,,,,,,,,,,,,,,,
695.8000000119209,,pt2_unique_rating,630972,Brookmere,,52,,,4,,,,,,,,,,,,,,,
null,,confidence_buffer,631075,confidence_buffer,,null,,,,,,,,,,,,,,,,,,
614.1000000238419,,pt2_memorable_rating,631689,Brookmere,,52,,,4,,,,,,,,,,,,,,,
null,,confidence_buffer,631790,confidence_buffer,,null,,,,,,,,,,,,,,,,,,
682,,recognition_phase,632473,Brookmere,,51,,,,,,new,1,0.42857142857142855,,,,,,,,,,
null,,confidence_buffer,632575,confidence_buffer,,null,,,,,,,,,,,,,,,,,,
null,,thebreak,633077,break,,null,,,,,,,,,,,,,,,,,,
590.0999999940395,,realistic_rating,633668,Hawthorne Bluffs,,51,Hawthorne Bluffs,Fictional,3,,,,,,,,,,,,,,,
null,,confidence_buffer,633780,confidence_buffer,,null,,,,,,,,,,,,,,,,,,
678.7999999821186,,pt2_unique_rating,634460,Hawthorne Bluffs,,52,,,4,,,,,,,,,,,,,,,
null,,confidence_buffer,634562,confidence_buffer,,null,,,,,,,,,,,,,,,,,,
776,,pt2_memorable_rating,635339,Hawthorne Bluffs,,51,,,3,,,,,,,,,,,,,,,
null,,confidence_buffer,635440,confidence_buffer,,null,,,,,,,,,,,,,,,,,,
648.6000000238419,,recognition_phase,636089,Hawthorne Bluffs,,52,,,,,,new,1,0.4482758620689655,,,,,,,,,,
null,,confidence_buffer,636191,confidence_buffer,,null,,,,,,,,,,,,,,,,,,
null,,thebreak,636702,break,,null,,,,,,,,,,,,,,,,,,
2327.4000000059605,,realistic_rating,639031,Oakridge,,52,Oakridge,Fictional,4,,,,,,,,,,,,,,,
null,,confidence_buffer,639132,confidence_buffer,,null,,,,,,,,,,,,,,,,,,
603.0999999940395,,pt2_unique_rating,639736,Oakridge,,51,,,3,,,,,,,,,,,,,,,
null,,confidence_buffer,639837,confidence_buffer,,null,,,,,,,,,,,,,,,,,,
976.0999999940395,,pt2_memorable_rating,640814,Oakridge,,51,,,3,,,,,,,,,,,,,,,
null,,confidence_buffer,640915,confidence_buffer,,null,,,,,,,,,,,,,,,,,,
694.1999999880791,,recognition_phase,641610,Oakridge,,51,,,,,,new,1,0.4666666666666667,,,,,,,,,,
null,,confidence_buffer,641712,confidence_buffer,,null,,,,,,,,,,,,,,,,,,
null,,thebreak,642215,break,,null,,,,,,,,,,,,,,,,,,
618.5999999940395,,realistic_rating,642834,Coeur d'Alene,,52,Coeur d'Alene,US,4,,,,,,,,,,,,,,,
null,,confidence_buffer,642936,confidence_buffer,,null,,,,,,,,,,,,,,,,,,
614.5,,pt2_unique_rating,643551,Coeur d'Alene,,51,,,3,,,,,,,,,,,,,,,
null,,confidence_buffer,643652,confidence_buffer,,null,,,,,,,,,,,,,,,,,,
1017.1999999880791,,pt2_memorable_rating,644670,Coeur d'Alene,,50,,,2,,,,,,,,,,,,,,,
null,,confidence_buffer,644773,confidence_buffer,,null,,,,,,,,,,,,,,,,,,
670,,recognition_phase,645444,Coeur d'Alene,,50,,,,,,old,1,0.4838709677419355,,,,,,,,,,
null,,confidence_buffer,645545,confidence_buffer,,null,,,,,,,,,,,,,,,,,,
null,,thebreak,646047,break,,null,,,,,,,,,,,,,,,,,,
2024.699999988079,,realistic_rating,648073,Stonebrook,,50,Stonebrook,Fictional,2,,,,,,,,,,,,,,,
null,,confidence_buffer,648174,confidence_buffer,,null,,,,,,,,,,,,,,,,,,
2635,,pt2_unique_rating,650809,Stonebrook,,51,,,3,,,,,,,,,,,,,,,
null,,confidence_buffer,650911,confidence_buffer,,null,,,,,,,,,,,,,,,,,,
688,,pt2_memorable_rating,651600,Stonebrook,,51,,,3,,,,,,,,,,,,,,,
null,,confidence_buffer,651702,confidence_buffer,,null,,,,,,,,,,,,,,,,,,
531.3999999761581,,recognition_phase,652234,Stonebrook,,51,,,,,,new,1,0.5,,,,,,,,,,
null,,confidence_buffer,652336,confidence_buffer,,null,,,,,,,,,,,,,,,,,,
null,,thebreak,652838,break,,null,,,,,,,,,,,,,,,,,,
554.5,,realistic_rating,653394,Bar Harbor,,50,Bar Harbor,US,2,,,,,,,,,,,,,,,
null,,confidence_buffer,653495,confidence_buffer,,null,,,,,,,,,,,,,,,,,,
511.09999999403954,,pt2_unique_rating,654007,Bar Harbor,,50,,,2,,,,,,,,,,,,,,,
null,,confidence_buffer,654110,confidence_buffer,,null,,,,,,,,,,,,,,,,,,
452.40000000596046,,pt2_memorable_rating,654563,Bar Harbor,,50,,,2,,,,,,,,,,,,,,,
null,,confidence_buffer,654665,confidence_buffer,,null,,,,,,,,,,,,,,,,,,
466.7000000178814,,recognition_phase,655132,Bar Harbor,,50,,,,,,old,0,0.48484848484848486,,,,,,,,,,
null,,confidence_buffer,655234,confidence_buffer,,null,,,,,,,,,,,,,,,,,,
null,,thebreak,655736,break,,null,,,,,,,,,,,,,,,,,,
493,,realistic_rating,656230,Orr,,49,Orr,US,1,,,,,,,,,,,,,,,
null,,confidence_buffer,656331,confidence_buffer,,null,,,,,,,,,,,,,,,,,,
472.80000001192093,,pt2_unique_rating,656805,Orr,,49,,,1,,,,,,,,,,,,,,,
null,,confidence_buffer,656906,confidence_buffer,,null,,,,,,,,,,,,,,,,,,
457.09999999403954,,pt2_memorable_rating,657363,Orr,,49,,,1,,,,,,,,,,,,,,,
null,,confidence_buffer,657466,confidence_buffer,,null,,,,,,,,,,,,,,,,,,
548.5,,recognition_phase,658015,Orr,,49,,,,,,old,0,0.47058823529411764,,,,,,,,,,
null,,confidence_buffer,658117,confidence_buffer,,null,,,,,,,,,,,,,,,,,,
null,,thebreak,658618,break,,null,,,,,,,,,,,,,,,,,,
4878.0999999940395,,realistic_rating,663497,Granton Ridge,,52,Granton Ridge,Fictional,4,,,,,,,,,,,,,,,
null,,confidence_buffer,663608,confidence_buffer,,null,,,,,,,,,,,,,,,,,,
1044.7999999821186,,pt2_unique_rating,664654,Granton Ridge,,51,,,3,,,,,,,,,,,,,,,
null,,confidence_buffer,664756,confidence_buffer,,null,,,,,,,,,,,,,,,,,,
957.9000000059605,,pt2_memorable_rating,665715,Granton Ridge,,52,,,4,,,,,,,,,,,,,,,
null,,confidence_buffer,665816,confidence_buffer,,null,,,,,,,,,,,,,,,,,,
743.5,,recognition_phase,666560,Granton Ridge,,51,,,,,,new,0,0.45714285714285713,,,,,,,,,,
null,,confidence_buffer,666661,confidence_buffer,,null,,,,,,,,,,,,,,,,,,
null,,thebreak,667163,break,,null,,,,,,,,,,,,,,,,,,
786.3999999761581,,realistic_rating,667950,Willowford,,50,Willowford,Fictional,2,,,,,,,,,,,,,,,
null,,confidence_buffer,668052,confidence_buffer,,null,,,,,,,,,,,,,,,,,,
778,,pt2_unique_rating,668830,Willowford,,49,,,1,,,,,,,,,,,,,,,
null,,confidence_buffer,668932,confidence_buffer,,null,,,,,,,,,,,,,,,,,,
482.89999997615814,,pt2_memorable_rating,669416,Willowford,,50,,,2,,,,,,,,,,,,,,,
null,,confidence_buffer,669517,confidence_buffer,,null,,,,,,,,,,,,,,,,,,
746.3999999761581,,recognition_phase,670264,Willowford,,51,,,,,,new,0,0.4444444444444444,,,,,,,,,,
null,,confidence_buffer,670366,confidence_buffer,,null,,,,,,,,,,,,,,,,,,
null,,thebreak,670868,break,,null,,,,,,,,,,,,,,,,,,
989.3999999761581,,realistic_rating,671858,New Hope,,50,New Hope,US,2,,,,,,,,,,,,,,,
null,,confidence_buffer,671960,confidence_buffer,,null,,,,,,,,,,,,,,,,,,
1240.7999999821186,,pt2_unique_rating,673202,New Hope,,49,,,1,,,,,,,,,,,,,,,
null,,confidence_buffer,673303,confidence_buffer,,null,,,,,,,,,,,,,,,,,,
458.59999999403954,,pt2_memorable_rating,673763,New Hope,,50,,,2,,,,,,,,,,,,,,,
null,,confidence_buffer,673864,confidence_buffer,,null,,,,,,,,,,,,,,,,,,
652.8000000119209,,recognition_phase,674517,New Hope,,51,,,,,,new,1,0.4594594594594595,,,,,,,,,,
null,,confidence_buffer,674629,confidence_buffer,,null,,,,,,,,,,,,,,,,,,
null,,thebreak,675131,break,,null,,,,,,,,,,,,,,,,,,
585.2000000178814,,realistic_rating,675717,Highvale,,50,Highvale,Fictional,2,,,,,,,,,,,,,,,
null,,confidence_buffer,675820,confidence_buffer,,null,,,,,,,,,,,,,,,,,,
833.1000000238419,,pt2_unique_rating,676654,Highvale,,51,,,3,,,,,,,,,,,,,,,
null,,confidence_buffer,676757,confidence_buffer,,null,,,,,,,,,,,,,,,,,,
498.7000000178814,,pt2_memorable_rating,677256,Highvale,,50,,,2,,,,,,,,,,,,,,,
null,,confidence_buffer,677357,confidence_buffer,,null,,,,,,,,,,,,,,,,,,
760.1999999880791,,recognition_phase,678118,Highvale,,49,,,,,,old,0,0.4473684210526316,,,,,,,,,,
null,,confidence_buffer,678220,confidence_buffer,,null,,,,,,,,,,,,,,,,,,
null,,thebreak,678733,break,,null,,,,,,,,,,,,,,,,,,
350.19999998807907,,realistic_rating,679084,Cody,,50,Cody,US,2,,,,,,,,,,,,,,,
null,,confidence_buffer,679185,confidence_buffer,,null,,,,,,,,,,,,,,,,,,
657.2000000178814,,pt2_unique_rating,679843,Cody,,51,,,3,,,,,,,,,,,,,,,
null,,confidence_buffer,679945,confidence_buffer,,null,,,,,,,,,,,,,,,,,,
521.4000000059605,,pt2_memorable_rating,680467,Cody,,50,,,2,,,,,,,,,,,,,,,
null,,confidence_buffer,680568,confidence_buffer,,null,,,,,,,,,,,,,,,,,,
453.30000001192093,,recognition_phase,681023,Cody,,49,,,,,,old,1,0.46153846153846156,,,,,,,,,,
null,,confidence_buffer,681125,confidence_buffer,,null,,,,,,,,,,,,,,,,,,
null,,thebreak,681627,break,,null,,,,,,,,,,,,,,,,,,
396.40000000596046,,realistic_rating,682025,North Arroya,,50,North Arroya,Fictional,2,,,,,,,,,,,,,,,
null,,confidence_buffer,682127,confidence_buffer,,null,,,,,,,,,,,,,,,,,,
540.4000000059605,,pt2_unique_rating,682668,North Arroya,,49,,,1,,,,,,,,,,,,,,,
null,,confidence_buffer,682782,confidence_buffer,,null,,,,,,,,,,,,,,,,,,
613.1000000238419,,pt2_memorable_rating,683396,North Arroya,,50,,,2,,,,,,,,,,,,,,,
null,,confidence_buffer,683499,confidence_buffer,,null,,,,,,,,,,,,,,,,,,
678.3000000119209,,recognition_phase,684178,North Arroya,,51,,,,,,new,1,0.475,,,,,,,,,,
null,,confidence_buffer,684285,confidence_buffer,,null,,,,,,,,,,,,,,,,,,
null,,thebreak,684787,break,,null,,,,,,,,,,,,,,,,,,
899.4000000059605,,realistic_rating,685687,Alliance,,50,Alliance,US,2,,,,,,,,,,,,,,,
null,,confidence_buffer,685789,confidence_buffer,,null,,,,,,,,,,,,,,,,,,
1338.5,,pt2_unique_rating,687128,Alliance,,50,,,2,,,,,,,,,,,,,,,
null,,confidence_buffer,687230,confidence_buffer,,null,,,,,,,,,,,,,,,,,,
1033.2999999821186,,pt2_memorable_rating,688264,Alliance,,49,,,1,,,,,,,,,,,,,,,
null,,confidence_buffer,688366,confidence_buffer,,null,,,,,,,,,,,,,,,,,,
859,,recognition_phase,689225,Alliance,,50,,,,,,old,1,0.4878048780487805,,,,,,,,,,
null,,confidence_buffer,689327,confidence_buffer,,null,,,,,,,,,,,,,,,,,,
null,,thebreak,689829,break,,null,,,,,,,,,,,,,,,,,,
1827.699999988079,,realistic_rating,691658,Solara Glen,,52,Solara Glen,Fictional,4,,,,,,,,,,,,,,,
null,,confidence_buffer,691767,confidence_buffer,,null,,,,,,,,,,,,,,,,,,
1014.1999999880791,,pt2_unique_rating,692782,Solara Glen,,52,,,4,,,,,,,,,,,,,,,
null,,confidence_buffer,692883,confidence_buffer,,null,,,,,,,,,,,,,,,,,,
1051.9000000059605,,pt2_memorable_rating,693936,Solara Glen,,51,,,3,,,,,,,,,,,,,,,
null,,confidence_buffer,694037,confidence_buffer,,null,,,,,,,,,,,,,,,,,,
13855,,recognition_phase,707893,Solara Glen,,51,,,,,,new,0,0.47619047619047616,,,,,,,,,,
null,,confidence_buffer,707995,confidence_buffer,,null,,,,,,,,,,,,,,,,,,
null,,thebreak,708497,break,,null,,,,,,,,,,,,,,,,,,
516.5999999940395,,realistic_rating,709015,Sisters,,50,Sisters,US,2,,,,,,,,,,,,,,,
null,,confidence_buffer,709117,confidence_buffer,,null,,,,,,,,,,,,,,,,,,
615.5999999940395,,pt2_unique_rating,709734,Sisters,,51,,,3,,,,,,,,,,,,,,,
null,,confidence_buffer,709836,confidence_buffer,,null,,,,,,,,,,,,,,,,,,
479.5,,pt2_memorable_rating,710316,Sisters,,52,,,4,,,,,,,,,,,,,,,
null,,confidence_buffer,710417,confidence_buffer,,null,,,,,,,,,,,,,,,,,,
619.4000000059605,,recognition_phase,711037,Sisters,,51,,,,,,new,0,0.46511627906976744,,,,,,,,,,
null,,confidence_buffer,711138,confidence_buffer,,null,,,,,,,,,,,,,,,,,,
null,,thebreak,711641,break,,null,,,,,,,,,,,,,,,,,,
295.09999999403954,,realistic_rating,711937,Healdsburg,,50,Healdsburg,US,2,,,,,,,,,,,,,,,
null,,confidence_buffer,712039,confidence_buffer,,null,,,,,,,,,,,,,,,,,,
653,,pt2_unique_rating,712693,Healdsburg,,51,,,3,,,,,,,,,,,,,,,
null,,confidence_buffer,712795,confidence_buffer,,null,,,,,,,,,,,,,,,,,,
705.3000000119209,,pt2_memorable_rating,713501,Healdsburg,,52,,,4,,,,,,,,,,,,,,,
null,,confidence_buffer,713602,confidence_buffer,,null,,,,,,,,,,,,,,,,,,
609.9000000059605,,recognition_phase,714213,Healdsburg,,51,,,,,,new,0,0.45454545454545453,,,,,,,,,,
null,,confidence_buffer,714315,confidence_buffer,,null,,,,,,,,,,,,,,,,,,
null,,thebreak,714816,break,,null,,,,,,,,,,,,,,,,,,
853,,realistic_rating,715670,Yukon,,50,Yukon,US,2,,,,,,,,,,,,,,,
null,,confidence_buffer,715772,confidence_buffer,,null,,,,,,,,,,,,,,,,,,
669.5999999940395,,pt2_unique_rating,716442,Yukon,,49,,,1,,,,,,,,,,,,,,,
null,,confidence_buffer,716544,confidence_buffer,,null,,,,,,,,,,,,,,,,,,
688.5999999940395,,pt2_memorable_rating,717234,Yukon,,50,,,2,,,,,,,,,,,,,,,
null,,confidence_buffer,717335,confidence_buffer,,null,,,,,,,,,,,,,,,,,,
1152.0999999940395,,recognition_phase,718488,Yukon,,51,,,,,,new,0,0.4444444444444444,,,,,,,,,,
null,,confidence_buffer,718602,confidence_buffer,,null,,,,,,,,,,,,,,,,,,
null,,thebreak,719104,break,,null,,,,,,,,,,,,,,,,,,
641.1999999880791,,realistic_rating,719746,Silverpine,,50,Silverpine,Fictional,2,,,,,,,,,,,,,,,
null,,confidence_buffer,719847,confidence_buffer,,null,,,,,,,,,,,,,,,,,,
1588.7999999821186,,pt2_unique_rating,721436,Silverpine,,51,,,3,,,,,,,,,,,,,,,
null,,confidence_buffer,721539,confidence_buffer,,null,,,,,,,,,,,,,,,,,,
793,,pt2_memorable_rating,722333,Silverpine,,50,,,2,,,,,,,,,,,,,,,
null,,confidence_buffer,722434,confidence_buffer,,null,,,,,,,,,,,,,,,,,,
5612.799999982119,,probe_rating,728047,probe_rating,,52,,,,4,1,,,,,,,,,,,,,
null,,confidence_buffer,728149,confidence_buffer,,null,,,,,,,,,,,,,,,,,,
1928.4000000059605,,recognition_phase,730078,Silverpine,,51,,,,,,new,1,0.45652173913043476,,,,,,,,,,
null,,confidence_buffer,730180,confidence_buffer,,null,,,,,,,,,,,,,,,,,,
null,,thebreak,730682,break,,null,,,,,,,,,,,,,,,,,,
397.7000000178814,,realistic_rating,731080,Elmsbury,,52,Elmsbury,Fictional,4,,,,,,,,,,,,,,,
null,,confidence_buffer,731182,confidence_buffer,,null,,,,,,,,,,,,,,,,,,
703.3000000119209,,pt2_unique_rating,731886,Elmsbury,,51,,,3,,,,,,,,,,,,,,,
null,,confidence_buffer,731988,confidence_buffer,,null,,,,,,,,,,,,,,,,,,
2613.100000023842,,probe_rating,734602,probe_rating,,53,,,,5,1,,,,,,,,,,,,,
null,,confidence_buffer,734704,confidence_buffer,,null,,,,,,,,,,,,,,,,,,
5323.699999988079,,pt2_memorable_rating,740028,Elmsbury,,53,,,5,,,,,,,,,,,,,,,
null,,confidence_buffer,740133,confidence_buffer,,null,,,,,,,,,,,,,,,,,,
9708.800000011921,,recognition_phase,749843,Elmsbury,,51,,,,,,new,0,0.44680851063829785,,,,,,,,,,
null,,confidence_buffer,749943,confidence_buffer,,null,,,,,,,,,,,,,,,,,,
null,,thebreak,750445,break,,null,,,,,,,,,,,,,,,,,,
5141.4000000059605,,realistic_rating,755587,Huntsville,,50,Huntsville,US,2,,,,,,,,,,,,,,,
null,,confidence_buffer,755689,confidence_buffer,,null,,,,,,,,,,,,,,,,,,
622.5999999940395,,pt2_unique_rating,756313,Huntsville,,51,,,3,,,,,,,,,,,,,,,
null,,confidence_buffer,756415,confidence_buffer,,null,,,,,,,,,,,,,,,,,,
551.1999999880791,,pt2_memorable_rating,756967,Huntsville,,50,,,2,,,,,,,,,,,,,,,
null,,confidence_buffer,757084,confidence_buffer,,null,,,,,,,,,,,,,,,,,,
837.5,,recognition_phase,757923,Huntsville,,51,,,,,,new,0,0.4375,,,,,,,,,,
null,,confidence_buffer,758024,confidence_buffer,,null,,,,,,,,,,,,,,,,,,
null,,thebreak,758526,break,,null,,,,,,,,,,,,,,,,,,
682,,realistic_rating,759209,Bowling Green,,50,Bowling Green,US,2,,,,,,,,,,,,,,,
null,,confidence_buffer,759310,confidence_buffer,,null,,,,,,,,,,,,,,,,,,
844.9000000059605,,pt2_unique_rating,760156,Bowling Green,,49,,,1,,,,,,,,,,,,,,,
null,,confidence_buffer,760257,confidence_buffer,,null,,,,,,,,,,,,,,,,,,
1481.300000011921,,pt2_memorable_rating,761739,Bowling Green,,50,,,2,,,,,,,,,,,,,,,
null,,confidence_buffer,761841,confidence_buffer,,null,,,,,,,,,,,,,,,,,,
817.3000000119209,,recognition_phase,762659,Bowling Green,,51,,,,,,new,0,0.42857142857142855,,,,,,,,,,
null,,confidence_buffer,762760,confidence_buffer,,null,,,,,,,,,,,,,,,,,,
null,,thebreak,763262,break,,null,,,,,,,,,,,,,,,,,,
487.59999999403954,,realistic_rating,763751,San Antonio,,50,San Antonio,US,2,,,,,,,,,,,,,,,
null,,confidence_buffer,763853,confidence_buffer,,null,,,,,,,,,,,,,,,,,,
743.5,,pt2_unique_rating,764598,San Antonio,,49,,,1,,,,,,,,,,,,,,,
null,,confidence_buffer,764701,confidence_buffer,,null,,,,,,,,,,,,,,,,,,
746.5999999940395,,pt2_memorable_rating,765449,San Antonio,,50,,,2,,,,,,,,,,,,,,,
null,,confidence_buffer,765550,confidence_buffer,,null,,,,,,,,,,,,,,,,,,
877.8000000119209,,recognition_phase,766429,San Antonio,,51,,,,,,new,1,0.44,,,,,,,,,,
null,,confidence_buffer,766531,confidence_buffer,,null,,,,,,,,,,,,,,,,,,
null,,thebreak,767033,break,,null,,,,,,,,,,,,,,,,,,
594.8000000119209,,realistic_rating,767629,Manistee,,50,Manistee,US,2,,,,,,,,,,,,,,,
null,,confidence_buffer,767731,confidence_buffer,,null,,,,,,,,,,,,,,,,,,
468.30000001192093,,pt2_unique_rating,768200,Manistee,,51,,,3,,,,,,,,,,,,,,,
null,,confidence_buffer,768302,confidence_buffer,,null,,,,,,,,,,,,,,,,,,
3075.2000000178814,,probe_rating,771378,probe_rating,,53,,,,5,1,,,,,,,,,,,,,
null,,confidence_buffer,771490,confidence_buffer,,null,,,,,,,,,,,,,,,,,,
1732.9000000059605,,pt2_memorable_rating,773224,Manistee,,52,,,4,,,,,,,,,,,,,,,
null,,confidence_buffer,773325,confidence_buffer,,null,,,,,,,,,,,,,,,,,,
567.3000000119209,,recognition_phase,773893,Manistee,,51,,,,,,new,0,0.43137254901960786,,,,,,,,,,
null,,confidence_buffer,773995,confidence_buffer,,null,,,,,,,,,,,,,,,,,,
null,,thebreak,774496,break,,null,,,,,,,,,,,,,,,,,,
432.5,,realistic_rating,774930,Hanover,,50,Hanover,US,2,,,,,,,,,,,,,,,
null,,confidence_buffer,775031,confidence_buffer,,null,,,,,,,,,,,,,,,,,,
478.40000000596046,,pt2_unique_rating,775511,Hanover,,51,,,3,,,,,,,,,,,,,,,
null,,confidence_buffer,775613,confidence_buffer,,null,,,,,,,,,,,,,,,,,,
828.6000000238419,,pt2_memorable_rating,776442,Hanover,,52,,,4,,,,,,,,,,,,,,,
null,,confidence_buffer,776544,confidence_buffer,,null,,,,,,,,,,,,,,,,,,
663.4000000059605,,recognition_phase,777208,Hanover,,52,,,,,,new,1,0.4423076923076923,,,,,,,,,,
null,,confidence_buffer,777314,confidence_buffer,,null,,,,,,,,,,,,,,,,,,
null,,thebreak,777816,break,,null,,,,,,,,,,,,,,,,,,
618.9000000059605,,realistic_rating,778435,Golden Trace,,51,Golden Trace,Fictional,3,,,,,,,,,,,,,,,
null,,confidence_buffer,778537,confidence_buffer,,null,,,,,,,,,,,,,,,,,,
792.8999999761581,,pt2_unique_rating,779331,Golden Trace,,50,,,2,,,,,,,,,,,,,,,
null,,confidence_buffer,779433,confidence_buffer,,null,,,,,,,,,,,,,,,,,,
496.30000001192093,,pt2_memorable_rating,779930,Golden Trace,,51,,,3,,,,,,,,,,,,,,,
null,,confidence_buffer,780033,confidence_buffer,,null,,,,,,,,,,,,,,,,,,
736.9000000059605,,recognition_phase,780771,Golden Trace,,50,,,,,,old,1,0.4528301886792453,,,,,,,,,,
null,,confidence_buffer,780872,confidence_buffer,,null,,,,,,,,,,,,,,,,,,
null,,thebreak,781374,break,,null,,,,,,,,,,,,,,,,,,
448.2999999821186,,realistic_rating,781823,Natchez,,49,Natchez,US,1,,,,,,,,,,,,,,,
null,,confidence_buffer,781925,confidence_buffer,,null,,,,,,,,,,,,,,,,,,
1336.7000000178814,,pt2_unique_rating,783262,Natchez,,50,,,2,,,,,,,,,,,,,,,
null,,confidence_buffer,783365,confidence_buffer,,null,,,,,,,,,,,,,,,,,,
600.3000000119209,,pt2_memorable_rating,783966,Natchez,,51,,,3,,,,,,,,,,,,,,,
null,,confidence_buffer,784072,confidence_buffer,,null,,,,,,,,,,,,,,,,,,
683.0999999940395,,recognition_phase,784756,Natchez,,50,,,,,,old,0,0.4444444444444444,,,,,,,,,,
null,,confidence_buffer,784858,confidence_buffer,,null,,,,,,,,,,,,,,,,,,
null,,thebreak,785359,break,,null,,,,,,,,,,,,,,,,,,
1416.7999999821186,,realistic_rating,786777,East Ladera,,51,East Ladera,Fictional,3,,,,,,,,,,,,,,,
null,,confidence_buffer,786887,confidence_buffer,,null,,,,,,,,,,,,,,,,,,
842.8000000119209,,pt2_unique_rating,787731,East Ladera,,50,,,2,,,,,,,,,,,,,,,
null,,confidence_buffer,787833,confidence_buffer,,null,,,,,,,,,,,,,,,,,,
838,,pt2_memorable_rating,788672,East Ladera,,50,,,2,,,,,,,,,,,,,,,
null,,confidence_buffer,788774,confidence_buffer,,null,,,,,,,,,,,,,,,,,,
1180.5,,recognition_phase,789955,East Ladera,,51,,,,,,new,0,0.43636363636363634,,,,,,,,,,
null,,confidence_buffer,790057,confidence_buffer,,null,,,,,,,,,,,,,,,,,,
null,,thebreak,790561,break,,null,,,,,,,,,,,,,,,,,,
792.5999999940395,,realistic_rating,791354,Shreveport,,50,Shreveport,US,2,,,,,,,,,,,,,,,
null,,confidence_buffer,791456,confidence_buffer,,null,,,,,,,,,,,,,,,,,,
1554.0999999940395,,pt2_unique_rating,793011,Shreveport,,51,,,3,,,,,,,,,,,,,,,
null,,confidence_buffer,793113,confidence_buffer,,null,,,,,,,,,,,,,,,,,,
560.5999999940395,,pt2_memorable_rating,793675,Shreveport,,50,,,2,,,,,,,,,,,,,,,
null,,confidence_buffer,793776,confidence_buffer,,null,,,,,,,,,,,,,,,,,,
2724.800000011921,,probe_rating,796502,probe_rating,,52,,,,4,1,,,,,,,,,,,,,
null,,confidence_buffer,796604,confidence_buffer,,null,,,,,,,,,,,,,,,,,,
1338.5999999940395,,recognition_phase,797943,Shreveport,,51,,,,,,new,1,0.44642857142857145,,,,,,,,,,
null,,confidence_buffer,798044,confidence_buffer,,null,,,,,,,,,,,,,,,,,,
null,,thebreak,798545,break,,null,,,,,,,,,,,,,,,,,,
573.6999999880791,,realistic_rating,799120,Orchard Bend,,50,Orchard Bend,Fictional,2,,,,,,,,,,,,,,,
null,,confidence_buffer,799221,confidence_buffer,,null,,,,,,,,,,,,,,,,,,
439.19999998807907,,pt2_unique_rating,799661,Orchard Bend,,51,,,3,,,,,,,,,,,,,,,
null,,confidence_buffer,799762,confidence_buffer,,null,,,,,,,,,,,,,,,,,,
908.0999999940395,,pt2_memorable_rating,800671,Orchard Bend,,52,,,4,,,,,,,,,,,,,,,
null,,confidence_buffer,800776,confidence_buffer,,null,,,,,,,,,,,,,,,,,,
504.09999999403954,,recognition_phase,801281,Orchard Bend,,51,,,,,,new,1,0.45614035087719296,,,,,,,,,,
null,,confidence_buffer,801383,confidence_buffer,,null,,,,,,,,,,,,,,,,,,
null,,thebreak,801886,break,,null,,,,,,,,,,,,,,,,,,
1159.199999988079,,realistic_rating,803046,Custer,,50,Custer,US,2,,,,,,,,,,,,,,,
null,,confidence_buffer,803147,confidence_buffer,,null,,,,,,,,,,,,,,,,,,
1995.5999999940395,,probe_rating,805144,probe_rating,,52,,,,4,1,,,,,,,,,,,,,
null,,confidence_buffer,805245,confidence_buffer,,null,,,,,,,,,,,,,,,,,,
775.4000000059605,,pt2_unique_rating,806021,Custer,,51,,,3,,,,,,,,,,,,,,,
null,,confidence_buffer,806124,confidence_buffer,,null,,,,,,,,,,,,,,,,,,
634.4000000059605,,pt2_memorable_rating,806759,Custer,,50,,,2,,,,,,,,,,,,,,,
null,,confidence_buffer,806861,confidence_buffer,,null,,,,,,,,,,,,,,,,,,
1018.8000000119209,,recognition_phase,807880,Custer,,51,,,,,,new,0,0.4482758620689655,,,,,,,,,,
null,,confidence_buffer,807982,confidence_buffer,,null,,,,,,,,,,,,,,,,,,
null,,thebreak,808483,break,,null,,,,,,,,,,,,,,,,,,
429.7000000178814,,realistic_rating,808913,Berkeley Springs,,51,Berkeley Springs,US,3,,,,,,,,,,,,,,,
null,,confidence_buffer,809016,confidence_buffer,,null,,,,,,,,,,,,,,,,,,
685.3999999761581,,pt2_unique_rating,809702,Berkeley Springs,,52,,,4,,,,,,,,,,,,,,,
null,,confidence_buffer,809803,confidence_buffer,,null,,,,,,,,,,,,,,,,,,
523.0999999940395,,pt2_memorable_rating,810327,Berkeley Springs,,51,,,3,,,,,,,,,,,,,,,
null,,confidence_buffer,810429,confidence_buffer,,null,,,,,,,,,,,,,,,,,,
4024.5,,probe_rating,814454,probe_rating,,50,,,,2,1,,,,,,,,,,,,,
null,,confidence_buffer,814556,confidence_buffer,,null,,,,,,,,,,,,,,,,,,
2636.600000023842,,recognition_phase,817193,Berkeley Springs,,50,,,,,,old,0,0.4406779661016949,,,,,,,,,,
null,,confidence_buffer,817295,confidence_buffer,,null,,,,,,,,,,,,,,,,,,
null,,thebreak,817797,break,,null,,,,,,,,,,,,,,,,,,
558.5,,realistic_rating,818357,Westridge,,51,Westridge,Fictional,3,,,,,,,,,,,,,,,
null,,confidence_buffer,818467,confidence_buffer,,null,,,,,,,,,,,,,,,,,,
522.4000000059605,,pt2_unique_rating,818990,Westridge,,50,,,2,,,,,,,,,,,,,,,
null,,confidence_buffer,819093,confidence_buffer,,null,,,,,,,,,,,,,,,,,,
579.6000000238419,,pt2_memorable_rating,819673,Westridge,,51,,,3,,,,,,,,,,,,,,,
null,,confidence_buffer,819774,confidence_buffer,,null,,,,,,,,,,,,,,,,,,
784.5999999940395,,recognition_phase,820560,Westridge,,50,,,,,,old,1,0.45,,,,,,,,,,
null,,confidence_buffer,820662,confidence_buffer,,null,,,,,,,,,,,,,,,,,,
null,,thebreak,821168,break,,null,,,,,,,,,,,,,,,,,,
,,survey,1115753,survey-questions,,,,,,,,,,,none,high,I was not doing anything else other than rating the cities,I tried to figure out  how familiar a city maybe to me,none,none,none,none,no,no
