rt,responses,trial_type,time_elapsed,stimulus,button_pressed,key_press,name_trial,city_type,rating,probe,probe_accuracy,response,correct,accuracy,problems,smooth,distraction,strategies,familiar,memorable,unique,realistic,similar,comments
32511,{worker_id:66dc5f03f5c5a08a34f4b7a3},id_enter,32515,,,,,,,,,,,,,,,,,,,,,
2317,,fullscreen,34850,fullscreen,0,,,,,,,,,,,,,,,,,,,
3287,,intro_0,38143,instruct,,32,,,,,,,,,,,,,,,,,,
4925,,intro_1,43076,instruct,,32,,,,,,,,,,,,,,,,,,
3377,,intro_2,46456,instruct,,32,,,,,,,,,,,,,,,,,,
null,,instruct_dir_4,47964,instruct,,null,,,,,,,,,,,,,,,,,,
null,,thebreak,48481,break,,null,,,,,,,,,,,,,,,,,,
164976,,familiar_rating,213460,Claywater,,51,Claywater,Fictional,3,,,,,,,,,,,,,,,
null,,confidence_buffer,213577,confidence_buffer,,null,,,,,,,,,,,,,,,,,,
1962,,unique_rating,215541,Claywater,,50,,,2,,,,,,,,,,,,,,,
null,,confidence_buffer,215655,confidence_buffer,,null,,,,,,,,,,,,,,,,,,
1979,,memorable_rating,217637,Claywater,,52,,,4,,,,,,,,,,,,,,,
null,,confidence_buffer,217747,confidence_buffer,,null,,,,,,,,,,,,,,,,,,
null,,thebreak,218250,break,,null,,,,,,,,,,,,,,,,,,
1178,,familiar_rating,219431,West Palm Beach,,51,West Palm Beach,US,3,,,,,,,,,,,,,,,
null,,confidence_buffer,219538,confidence_buffer,,null,,,,,,,,,,,,,,,,,,
1666,,unique_rating,221206,West Palm Beach,,50,,,2,,,,,,,,,,,,,,,
null,,confidence_buffer,221329,confidence_buffer,,null,,,,,,,,,,,,,,,,,,
2773,,memorable_rating,224105,West Palm Beach,,53,,,5,,,,,,,,,,,,,,,
null,,confidence_buffer,224208,confidence_buffer,,null,,,,,,,,,,,,,,,,,,
null,,thebreak,224709,break,,null,,,,,,,,,,,,,,,,,,
2139,,familiar_rating,226850,Highvale,,52,Highvale,Fictional,4,,,,,,,,,,,,,,,
null,,confidence_buffer,226958,confidence_buffer,,null,,,,,,,,,,,,,,,,,,
1986,,unique_rating,228945,Highvale,,49,,,1,,,,,,,,,,,,,,,
null,,confidence_buffer,229049,confidence_buffer,,null,,,,,,,,,,,,,,,,,,
2689,,memorable_rating,231739,Highvale,,50,,,2,,,,,,,,,,,,,,,
null,,confidence_buffer,231847,confidence_buffer,,null,,,,,,,,,,,,,,,,,,
null,,thebreak,232348,break,,null,,,,,,,,,,,,,,,,,,
2527,,familiar_rating,234876,Maplehurst,,51,Maplehurst,Fictional,3,,,,,,,,,,,,,,,
null,,confidence_buffer,234981,confidence_buffer,,null,,,,,,,,,,,,,,,,,,
1998,,unique_rating,236981,Maplehurst,,52,,,4,,,,,,,,,,,,,,,
null,,confidence_buffer,237086,confidence_buffer,,null,,,,,,,,,,,,,,,,,,
1633,,memorable_rating,238720,Maplehurst,,49,,,1,,,,,,,,,,,,,,,
null,,confidence_buffer,238856,confidence_buffer,,null,,,,,,,,,,,,,,,,,,
null,,thebreak,239367,break,,null,,,,,,,,,,,,,,,,,,
2384,,familiar_rating,241753,Athens,,50,Athens,US,2,,,,,,,,,,,,,,,
null,,confidence_buffer,241870,confidence_buffer,,null,,,,,,,,,,,,,,,,,,
2252,,unique_rating,244122,Athens,,52,,,4,,,,,,,,,,,,,,,
null,,confidence_buffer,244228,confidence_buffer,,null,,,,,,,,,,,,,,,,,,
2558,,memorable_rating,246787,Athens,,50,,,2,,,,,,,,,,,,,,,
null,,confidence_buffer,246898,confidence_buffer,,null,,,,,,,,,,,,,,,,,,
null,,thebreak,247400,break,,null,,,,,,,,,,,,,,,,,,
1499,,familiar_rating,248900,Montelake,,49,Montelake,Fictional,1,,,,,,,,,,,,,,,
null,,confidence_buffer,249010,confidence_buffer,,null,,,,,,,,,,,,,,,,,,
1858,,unique_rating,250869,Montelake,,50,,,2,,,,,,,,,,,,,,,
null,,confidence_buffer,250989,confidence_buffer,,null,,,,,,,,,,,,,,,,,,
2752,,probe_rating,253742,probe_rating,,49,,,,1,1,,,,,,,,,,,,,
null,,confidence_buffer,253851,confidence_buffer,,null,,,,,,,,,,,,,,,,,,
2316,,memorable_rating,256168,Montelake,,51,,,3,,,,,,,,,,,,,,,
null,,confidence_buffer,256279,confidence_buffer,,null,,,,,,,,,,,,,,,,,,
null,,thebreak,256781,break,,null,,,,,,,,,,,,,,,,,,
3362,,familiar_rating,260143,Cody,,53,Cody,US,5,,,,,,,,,,,,,,,
null,,confidence_buffer,260266,confidence_buffer,,null,,,,,,,,,,,,,,,,,,
2384,,unique_rating,262650,Cody,,52,,,4,,,,,,,,,,,,,,,
null,,confidence_buffer,262763,confidence_buffer,,null,,,,,,,,,,,,,,,,,,
2176,,memorable_rating,264940,Cody,,51,,,3,,,,,,,,,,,,,,,
null,,confidence_buffer,265060,confidence_buffer,,null,,,,,,,,,,,,,,,,,,
null,,thebreak,265561,break,,null,,,,,,,,,,,,,,,,,,
4388,,familiar_rating,269951,Leesburg,,53,Leesburg,US,5,,,,,,,,,,,,,,,
null,,confidence_buffer,270061,confidence_buffer,,null,,,,,,,,,,,,,,,,,,
1857,,unique_rating,271919,Leesburg,,52,,,4,,,,,,,,,,,,,,,
null,,confidence_buffer,272024,confidence_buffer,,null,,,,,,,,,,,,,,,,,,
3872,,memorable_rating,275898,Leesburg,,50,,,2,,,,,,,,,,,,,,,
null,,confidence_buffer,276011,confidence_buffer,,null,,,,,,,,,,,,,,,,,,
null,,thebreak,276513,break,,null,,,,,,,,,,,,,,,,,,
3232,,familiar_rating,279745,Linden Trace,,51,Linden Trace,Fictional,3,,,,,,,,,,,,,,,
null,,confidence_buffer,279870,confidence_buffer,,null,,,,,,,,,,,,,,,,,,
2986,,unique_rating,282862,Linden Trace,,52,,,4,,,,,,,,,,,,,,,
null,,confidence_buffer,282977,confidence_buffer,,null,,,,,,,,,,,,,,,,,,
3030,,probe_rating,286008,probe_rating,,51,,,,3,1,,,,,,,,,,,,,
null,,confidence_buffer,286129,confidence_buffer,,null,,,,,,,,,,,,,,,,,,
1855,,memorable_rating,287985,Linden Trace,,50,,,2,,,,,,,,,,,,,,,
null,,confidence_buffer,288103,confidence_buffer,,null,,,,,,,,,,,,,,,,,,
null,,thebreak,288606,break,,null,,,,,,,,,,,,,,,,,,
3066,,familiar_rating,291674,Custer,,53,Custer,US,5,,,,,,,,,,,,,,,
null,,confidence_buffer,291789,confidence_buffer,,null,,,,,,,,,,,,,,,,,,
2157,,unique_rating,293947,Custer,,52,,,4,,,,,,,,,,,,,,,
null,,confidence_buffer,294061,confidence_buffer,,null,,,,,,,,,,,,,,,,,,
2654,,probe_rating,296717,probe_rating,,53,,,,5,1,,,,,,,,,,,,,
null,,confidence_buffer,296828,confidence_buffer,,null,,,,,,,,,,,,,,,,,,
2593,,memorable_rating,299421,Custer,,52,,,4,,,,,,,,,,,,,,,
null,,confidence_buffer,299526,confidence_buffer,,null,,,,,,,,,,,,,,,,,,
null,,thebreak,300029,break,,null,,,,,,,,,,,,,,,,,,
1504,,familiar_rating,301535,Boulder,,50,Boulder,US,2,,,,,,,,,,,,,,,
null,,confidence_buffer,301638,confidence_buffer,,null,,,,,,,,,,,,,,,,,,
2352,,probe_rating,303993,probe_rating,,52,,,,4,1,,,,,,,,,,,,,
null,,confidence_buffer,304099,confidence_buffer,,null,,,,,,,,,,,,,,,,,,
2238,,unique_rating,306337,Boulder,,50,,,2,,,,,,,,,,,,,,,
null,,confidence_buffer,306446,confidence_buffer,,null,,,,,,,,,,,,,,,,,,
1708,,memorable_rating,308156,Boulder,,51,,,3,,,,,,,,,,,,,,,
null,,confidence_buffer,308276,confidence_buffer,,null,,,,,,,,,,,,,,,,,,
null,,thebreak,308777,break,,null,,,,,,,,,,,,,,,,,,
2258,,familiar_rating,311035,Watkins Glen,,52,Watkins Glen,US,4,,,,,,,,,,,,,,,
null,,confidence_buffer,311152,confidence_buffer,,null,,,,,,,,,,,,,,,,,,
1894,,unique_rating,313047,Watkins Glen,,50,,,2,,,,,,,,,,,,,,,
null,,confidence_buffer,313163,confidence_buffer,,null,,,,,,,,,,,,,,,,,,
2866,,memorable_rating,316032,Watkins Glen,,51,,,3,,,,,,,,,,,,,,,
null,,confidence_buffer,316148,confidence_buffer,,null,,,,,,,,,,,,,,,,,,
null,,thebreak,316650,break,,null,,,,,,,,,,,,,,,,,,
3628,,familiar_rating,320282,Park City,,53,Park City,US,5,,,,,,,,,,,,,,,
null,,confidence_buffer,320385,confidence_buffer,,null,,,,,,,,,,,,,,,,,,
2047,,unique_rating,322433,Park City,,52,,,4,,,,,,,,,,,,,,,
null,,confidence_buffer,322549,confidence_buffer,,null,,,,,,,,,,,,,,,,,,
2165,,memorable_rating,324715,Park City,,51,,,3,,,,,,,,,,,,,,,
null,,confidence_buffer,324825,confidence_buffer,,null,,,,,,,,,,,,,,,,,,
null,,thebreak,325342,break,,null,,,,,,,,,,,,,,,,,,
1571,,familiar_rating,326913,Sitka,,50,Sitka,US,2,,,,,,,,,,,,,,,
null,,confidence_buffer,327020,confidence_buffer,,null,,,,,,,,,,,,,,,,,,
3952,,probe_rating,330973,probe_rating,,49,,,,1,1,,,,,,,,,,,,,
null,,confidence_buffer,331076,confidence_buffer,,null,,,,,,,,,,,,,,,,,,
2368,,unique_rating,333446,Sitka,,52,,,4,,,,,,,,,,,,,,,
null,,confidence_buffer,333558,confidence_buffer,,null,,,,,,,,,,,,,,,,,,
3098,,memorable_rating,336657,Sitka,,53,,,5,,,,,,,,,,,,,,,
null,,confidence_buffer,336772,confidence_buffer,,null,,,,,,,,,,,,,,,,,,
null,,thebreak,337285,break,,null,,,,,,,,,,,,,,,,,,
2662,,familiar_rating,339949,Tamarisk Hills,,51,Tamarisk Hills,Fictional,3,,,,,,,,,,,,,,,
null,,confidence_buffer,340057,confidence_buffer,,null,,,,,,,,,,,,,,,,,,
3193,,unique_rating,343252,Tamarisk Hills,,52,,,4,,,,,,,,,,,,,,,
null,,confidence_buffer,343362,confidence_buffer,,null,,,,,,,,,,,,,,,,,,
2207,,memorable_rating,345569,Tamarisk Hills,,50,,,2,,,,,,,,,,,,,,,
null,,confidence_buffer,345687,confidence_buffer,,null,,,,,,,,,,,,,,,,,,
3677,,probe_rating,349366,probe_rating,,50,,,,2,1,,,,,,,,,,,,,
null,,confidence_buffer,349483,confidence_buffer,,null,,,,,,,,,,,,,,,,,,
null,,thebreak,349985,break,,null,,,,,,,,,,,,,,,,,,
2070,,familiar_rating,352056,Crestwood,,52,Crestwood,Fictional,4,,,,,,,,,,,,,,,
null,,confidence_buffer,352175,confidence_buffer,,null,,,,,,,,,,,,,,,,,,
7274,,unique_rating,359451,Crestwood,,51,,,3,,,,,,,,,,,,,,,
null,,confidence_buffer,359554,confidence_buffer,,null,,,,,,,,,,,,,,,,,,
1837,,memorable_rating,361394,Crestwood,,50,,,2,,,,,,,,,,,,,,,
null,,confidence_buffer,361517,confidence_buffer,,null,,,,,,,,,,,,,,,,,,
null,,thebreak,362018,break,,null,,,,,,,,,,,,,,,,,,
3226,,familiar_rating,365245,Westridge,,52,Westridge,Fictional,4,,,,,,,,,,,,,,,
null,,confidence_buffer,365353,confidence_buffer,,null,,,,,,,,,,,,,,,,,,
1772,,unique_rating,367124,Westridge,,51,,,3,,,,,,,,,,,,,,,
null,,confidence_buffer,367246,confidence_buffer,,null,,,,,,,,,,,,,,,,,,
1800,,memorable_rating,369049,Westridge,,50,,,2,,,,,,,,,,,,,,,
null,,confidence_buffer,369157,confidence_buffer,,null,,,,,,,,,,,,,,,,,,
null,,thebreak,369659,break,,null,,,,,,,,,,,,,,,,,,
1830,,familiar_rating,371490,Hilo,,51,Hilo,US,3,,,,,,,,,,,,,,,
null,,confidence_buffer,371603,confidence_buffer,,null,,,,,,,,,,,,,,,,,,
2511,,unique_rating,374116,Hilo,,52,,,4,,,,,,,,,,,,,,,
null,,confidence_buffer,374230,confidence_buffer,,null,,,,,,,,,,,,,,,,,,
3524,,memorable_rating,377755,Hilo,,53,,,5,,,,,,,,,,,,,,,
null,,confidence_buffer,377864,confidence_buffer,,null,,,,,,,,,,,,,,,,,,
null,,thebreak,378367,break,,null,,,,,,,,,,,,,,,,,,
1181,,familiar_rating,379550,Huntsville,,51,Huntsville,US,3,,,,,,,,,,,,,,,
null,,confidence_buffer,379656,confidence_buffer,,null,,,,,,,,,,,,,,,,,,
2351,,unique_rating,382009,Huntsville,,50,,,2,,,,,,,,,,,,,,,
null,,confidence_buffer,382116,confidence_buffer,,null,,,,,,,,,,,,,,,,,,
1873,,memorable_rating,383989,Huntsville,,49,,,1,,,,,,,,,,,,,,,
null,,confidence_buffer,384092,confidence_buffer,,null,,,,,,,,,,,,,,,,,,
null,,thebreak,384595,break,,null,,,,,,,,,,,,,,,,,,
1293,,familiar_rating,385889,Alliance,,51,Alliance,US,3,,,,,,,,,,,,,,,
null,,confidence_buffer,386001,confidence_buffer,,null,,,,,,,,,,,,,,,,,,
1806,,unique_rating,387809,Alliance,,50,,,2,,,,,,,,,,,,,,,
null,,confidence_buffer,387925,confidence_buffer,,null,,,,,,,,,,,,,,,,,,
2100,,memorable_rating,390027,Alliance,,52,,,4,,,,,,,,,,,,,,,
null,,confidence_buffer,390135,confidence_buffer,,null,,,,,,,,,,,,,,,,,,
null,,thebreak,390637,break,,null,,,,,,,,,,,,,,,,,,
3200,,familiar_rating,393839,Lakehaven,,51,Lakehaven,Fictional,3,,,,,,,,,,,,,,,
null,,confidence_buffer,393950,confidence_buffer,,null,,,,,,,,,,,,,,,,,,
2120,,unique_rating,396071,Lakehaven,,52,,,4,,,,,,,,,,,,,,,
null,,confidence_buffer,396176,confidence_buffer,,null,,,,,,,,,,,,,,,,,,
1388,,memorable_rating,397565,Lakehaven,,51,,,3,,,,,,,,,,,,,,,
null,,confidence_buffer,397667,confidence_buffer,,null,,,,,,,,,,,,,,,,,,
null,,thebreak,398169,break,,null,,,,,,,,,,,,,,,,,,
1486,,familiar_rating,399656,Orchard Bend,,50,Orchard Bend,Fictional,2,,,,,,,,,,,,,,,
null,,confidence_buffer,399763,confidence_buffer,,null,,,,,,,,,,,,,,,,,,
2092,,probe_rating,401858,probe_rating,,49,,,,1,1,,,,,,,,,,,,,
null,,confidence_buffer,401971,confidence_buffer,,null,,,,,,,,,,,,,,,,,,
3269,,unique_rating,405242,Orchard Bend,,51,,,3,,,,,,,,,,,,,,,
null,,confidence_buffer,405356,confidence_buffer,,null,,,,,,,,,,,,,,,,,,
2319,,memorable_rating,407677,Orchard Bend,,50,,,2,,,,,,,,,,,,,,,
null,,confidence_buffer,407784,confidence_buffer,,null,,,,,,,,,,,,,,,,,,
null,,thebreak,408285,break,,null,,,,,,,,,,,,,,,,,,
2295,,familiar_rating,410582,Coeur d'Alene,,52,Coeur d'Alene,US,4,,,,,,,,,,,,,,,
null,,confidence_buffer,410684,confidence_buffer,,null,,,,,,,,,,,,,,,,,,
2031,,unique_rating,412715,Coeur d'Alene,,51,,,3,,,,,,,,,,,,,,,
null,,confidence_buffer,412824,confidence_buffer,,null,,,,,,,,,,,,,,,,,,
1927,,memorable_rating,414752,Coeur d'Alene,,50,,,2,,,,,,,,,,,,,,,
null,,confidence_buffer,414863,confidence_buffer,,null,,,,,,,,,,,,,,,,,,
null,,thebreak,415364,break,,null,,,,,,,,,,,,,,,,,,
1835,,familiar_rating,417202,Millstone,,53,Millstone,Fictional,5,,,,,,,,,,,,,,,
null,,confidence_buffer,417310,confidence_buffer,,null,,,,,,,,,,,,,,,,,,
2585,,unique_rating,419898,Millstone,,52,,,4,,,,,,,,,,,,,,,
null,,confidence_buffer,420006,confidence_buffer,,null,,,,,,,,,,,,,,,,,,
2389,,memorable_rating,422396,Millstone,,51,,,3,,,,,,,,,,,,,,,
null,,confidence_buffer,422518,confidence_buffer,,null,,,,,,,,,,,,,,,,,,
null,,thebreak,423022,break,,null,,,,,,,,,,,,,,,,,,
1501,,familiar_rating,424524,Ravenport,,50,Ravenport,Fictional,2,,,,,,,,,,,,,,,
null,,confidence_buffer,424632,confidence_buffer,,null,,,,,,,,,,,,,,,,,,
1659,,unique_rating,426294,Ravenport,,49,,,1,,,,,,,,,,,,,,,
null,,confidence_buffer,426403,confidence_buffer,,null,,,,,,,,,,,,,,,,,,
2617,,memorable_rating,429021,Ravenport,,51,,,3,,,,,,,,,,,,,,,
null,,confidence_buffer,429132,confidence_buffer,,null,,,,,,,,,,,,,,,,,,
null,,thebreak,429634,break,,null,,,,,,,,,,,,,,,,,,
1421,,familiar_rating,431056,Delaro Park,,52,Delaro Park,Fictional,4,,,,,,,,,,,,,,,
null,,confidence_buffer,431165,confidence_buffer,,null,,,,,,,,,,,,,,,,,,
3554,,unique_rating,434721,Delaro Park,,51,,,3,,,,,,,,,,,,,,,
null,,confidence_buffer,434832,confidence_buffer,,null,,,,,,,,,,,,,,,,,,
1321,,memorable_rating,436157,Delaro Park,,50,,,2,,,,,,,,,,,,,,,
null,,confidence_buffer,436270,confidence_buffer,,null,,,,,,,,,,,,,,,,,,
1810,,probe_rating,438082,probe_rating,,49,,,,1,1,,,,,,,,,,,,,
null,,confidence_buffer,438203,confidence_buffer,,null,,,,,,,,,,,,,,,,,,
null,,thebreak,438706,break,,null,,,,,,,,,,,,,,,,,,
2353,,familiar_rating,441060,Ironwood Heights,,51,Ironwood Heights,Fictional,3,,,,,,,,,,,,,,,
null,,confidence_buffer,441163,confidence_buffer,,null,,,,,,,,,,,,,,,,,,
1526,,unique_rating,442691,Ironwood Heights,,50,,,2,,,,,,,,,,,,,,,
null,,confidence_buffer,442801,confidence_buffer,,null,,,,,,,,,,,,,,,,,,
3162,,memorable_rating,445965,Ironwood Heights,,52,,,4,,,,,,,,,,,,,,,
null,,confidence_buffer,446071,confidence_buffer,,null,,,,,,,,,,,,,,,,,,
null,,thebreak,446573,break,,null,,,,,,,,,,,,,,,,,,
2158,,familiar_rating,448733,Juniper Creek,,51,Juniper Creek,Fictional,3,,,,,,,,,,,,,,,
null,,confidence_buffer,448854,confidence_buffer,,null,,,,,,,,,,,,,,,,,,
2411,,unique_rating,451266,Juniper Creek,,50,,,2,,,,,,,,,,,,,,,
null,,confidence_buffer,451382,confidence_buffer,,null,,,,,,,,,,,,,,,,,,
4406,,memorable_rating,455789,Juniper Creek,,51,,,3,,,,,,,,,,,,,,,
null,,confidence_buffer,455890,confidence_buffer,,null,,,,,,,,,,,,,,,,,,
null,,thebreak,456394,break,,null,,,,,,,,,,,,,,,,,,
1825,,familiar_rating,458222,Gatlinburg,,50,Gatlinburg,US,2,,,,,,,,,,,,,,,
null,,confidence_buffer,458332,confidence_buffer,,null,,,,,,,,,,,,,,,,,,
1897,,unique_rating,460231,Gatlinburg,,49,,,1,,,,,,,,,,,,,,,
null,,confidence_buffer,460343,confidence_buffer,,null,,,,,,,,,,,,,,,,,,
3575,,probe_rating,463921,probe_rating,,52,,,,4,1,,,,,,,,,,,,,
null,,confidence_buffer,464028,confidence_buffer,,null,,,,,,,,,,,,,,,,,,
1707,,memorable_rating,465736,Gatlinburg,,51,,,3,,,,,,,,,,,,,,,
null,,confidence_buffer,465837,confidence_buffer,,null,,,,,,,,,,,,,,,,,,
null,,thebreak,466340,break,,null,,,,,,,,,,,,,,,,,,
3501,,familiar_rating,469844,Newport,,50,Newport,US,2,,,,,,,,,,,,,,,
null,,confidence_buffer,469961,confidence_buffer,,null,,,,,,,,,,,,,,,,,,
1498,,unique_rating,471461,Newport,,52,,,4,,,,,,,,,,,,,,,
null,,confidence_buffer,471567,confidence_buffer,,null,,,,,,,,,,,,,,,,,,
1749,,memorable_rating,473317,Newport,,51,,,3,,,,,,,,,,,,,,,
null,,confidence_buffer,473422,confidence_buffer,,null,,,,,,,,,,,,,,,,,,
null,,thebreak,473924,break,,null,,,,,,,,,,,,,,,,,,
71606,,intro_0,545531,instruct,,32,,,,,,,,,,,,,,,,,,
4725,,intro_1,550257,instruct,,32,,,,,,,,,,,,,,,,,,
2851,,intro_2,553110,instruct,,32,,,,,,,,,,,,,,,,,,
null,,instruct_dir_4,554632,instruct,,null,,,,,,,,,,,,,,,,,,
2933,,realistic_rating,557567,Ravenport,,51,Ravenport,Fictional,3,,,,,,,,,,,,,,,
null,,confidence_buffer,557677,confidence_buffer,,null,,,,,,,,,,,,,,,,,,
1625,,pt2_unique_rating,559303,Ravenport,,52,,,4,,,,,,,,,,,,,,,
null,,confidence_buffer,559414,confidence_buffer,,null,,,,,,,,,,,,,,,,,,
2833,,pt2_memorable_rating,562249,Ravenport,,51,,,3,,,,,,,,,,,,,,,
null,,confidence_buffer,562365,confidence_buffer,,null,,,,,,,,,,,,,,,,,,
2877,,recognition_phase,565244,Ravenport,,50,,,,,,old,1,1,,,,,,,,,,
null,,confidence_buffer,565348,confidence_buffer,,null,,,,,,,,,,,,,,,,,,
null,,thebreak,565859,break,,null,,,,,,,,,,,,,,,,,,
1262,,realistic_rating,567123,Cleveland,,52,Cleveland,US,4,,,,,,,,,,,,,,,
null,,confidence_buffer,567235,confidence_buffer,,null,,,,,,,,,,,,,,,,,,
1463,,pt2_unique_rating,568700,Cleveland,,51,,,3,,,,,,,,,,,,,,,
null,,confidence_buffer,568811,confidence_buffer,,null,,,,,,,,,,,,,,,,,,
4116,,pt2_memorable_rating,572928,Cleveland,,53,,,5,,,,,,,,,,,,,,,
null,,confidence_buffer,573029,confidence_buffer,,null,,,,,,,,,,,,,,,,,,
1641,,recognition_phase,574672,Cleveland,,51,,,,,,new,1,1,,,,,,,,,,
null,,confidence_buffer,574787,confidence_buffer,,null,,,,,,,,,,,,,,,,,,
null,,thebreak,575290,break,,null,,,,,,,,,,,,,,,,,,
1671,,realistic_rating,576962,Orr,,53,Orr,US,5,,,,,,,,,,,,,,,
null,,confidence_buffer,577068,confidence_buffer,,null,,,,,,,,,,,,,,,,,,
1853,,pt2_unique_rating,578923,Orr,,50,,,2,,,,,,,,,,,,,,,
null,,confidence_buffer,579046,confidence_buffer,,null,,,,,,,,,,,,,,,,,,
1955,,pt2_memorable_rating,581004,Orr,,51,,,3,,,,,,,,,,,,,,,
null,,confidence_buffer,581118,confidence_buffer,,null,,,,,,,,,,,,,,,,,,
4700,,recognition_phase,585821,Orr,,52,,,,,,new,1,1,,,,,,,,,,
null,,confidence_buffer,585941,confidence_buffer,,null,,,,,,,,,,,,,,,,,,
null,,thebreak,586443,break,,null,,,,,,,,,,,,,,,,,,
4610,,realistic_rating,591055,Livingston,,50,Livingston,US,2,,,,,,,,,,,,,,,
null,,confidence_buffer,591166,confidence_buffer,,null,,,,,,,,,,,,,,,,,,
2914,,pt2_unique_rating,594081,Livingston,,51,,,3,,,,,,,,,,,,,,,
null,,confidence_buffer,594197,confidence_buffer,,null,,,,,,,,,,,,,,,,,,
4085,,probe_rating,598282,probe_rating,,51,,,,3,1,,,,,,,,,,,,,
null,,confidence_buffer,598388,confidence_buffer,,null,,,,,,,,,,,,,,,,,,
3561,,pt2_memorable_rating,601949,Livingston,,52,,,4,,,,,,,,,,,,,,,
null,,confidence_buffer,602056,confidence_buffer,,null,,,,,,,,,,,,,,,,,,
2196,,recognition_phase,604254,Livingston,,50,,,,,,old,0,0.75,,,,,,,,,,
null,,confidence_buffer,604366,confidence_buffer,,null,,,,,,,,,,,,,,,,,,
null,,thebreak,604870,break,,null,,,,,,,,,,,,,,,,,,
1745,,realistic_rating,606616,Hanover,,52,Hanover,US,4,,,,,,,,,,,,,,,
null,,confidence_buffer,606722,confidence_buffer,,null,,,,,,,,,,,,,,,,,,
4565,,probe_rating,611289,probe_rating,,50,,,,2,1,,,,,,,,,,,,,
null,,confidence_buffer,611398,confidence_buffer,,null,,,,,,,,,,,,,,,,,,
2995,,pt2_unique_rating,614394,Hanover,,51,,,3,,,,,,,,,,,,,,,
null,,confidence_buffer,614512,confidence_buffer,,null,,,,,,,,,,,,,,,,,,
1066,,pt2_memorable_rating,615579,Hanover,,52,,,4,,,,,,,,,,,,,,,
null,,confidence_buffer,615685,confidence_buffer,,null,,,,,,,,,,,,,,,,,,
1847,,recognition_phase,617533,Hanover,,50,,,,,,old,0,0.6,,,,,,,,,,
null,,confidence_buffer,617643,confidence_buffer,,null,,,,,,,,,,,,,,,,,,
null,,thebreak,618145,break,,null,,,,,,,,,,,,,,,,,,
1852,,realistic_rating,619999,Sierra Hollow,,51,Sierra Hollow,Fictional,3,,,,,,,,,,,,,,,
null,,confidence_buffer,620106,confidence_buffer,,null,,,,,,,,,,,,,,,,,,
1791,,pt2_unique_rating,621899,Sierra Hollow,,52,,,4,,,,,,,,,,,,,,,
null,,confidence_buffer,622011,confidence_buffer,,null,,,,,,,,,,,,,,,,,,
2854,,pt2_memorable_rating,624866,Sierra Hollow,,50,,,2,,,,,,,,,,,,,,,
null,,confidence_buffer,624977,confidence_buffer,,null,,,,,,,,,,,,,,,,,,
89148,,recognition_phase,714126,Sierra Hollow,,51,,,,,,new,1,0.6666666666666666,,,,,,,,,,
null,,confidence_buffer,714234,confidence_buffer,,null,,,,,,,,,,,,,,,,,,
null,,thebreak,714738,break,,null,,,,,,,,,,,,,,,,,,
3963,,realistic_rating,718703,Hilo,,52,Hilo,US,4,,,,,,,,,,,,,,,
null,,confidence_buffer,718806,confidence_buffer,,null,,,,,,,,,,,,,,,,,,
2491,,pt2_unique_rating,721298,Hilo,,50,,,2,,,,,,,,,,,,,,,
null,,confidence_buffer,721404,confidence_buffer,,null,,,,,,,,,,,,,,,,,,
2197,,pt2_memorable_rating,723603,Hilo,,51,,,3,,,,,,,,,,,,,,,
null,,confidence_buffer,723716,confidence_buffer,,null,,,,,,,,,,,,,,,,,,
1736,,recognition_phase,725453,Hilo,,52,,,,,,new,0,0.5714285714285714,,,,,,,,,,
null,,confidence_buffer,725557,confidence_buffer,,null,,,,,,,,,,,,,,,,,,
null,,thebreak,726058,break,,null,,,,,,,,,,,,,,,,,,
2719,,realistic_rating,728778,San Antonio,,50,San Antonio,US,2,,,,,,,,,,,,,,,
null,,confidence_buffer,728887,confidence_buffer,,null,,,,,,,,,,,,,,,,,,
1763,,pt2_unique_rating,730650,San Antonio,,51,,,3,,,,,,,,,,,,,,,
null,,confidence_buffer,730764,confidence_buffer,,null,,,,,,,,,,,,,,,,,,
1673,,pt2_memorable_rating,732438,San Antonio,,52,,,4,,,,,,,,,,,,,,,
null,,confidence_buffer,732543,confidence_buffer,,null,,,,,,,,,,,,,,,,,,
1912,,recognition_phase,734456,San Antonio,,50,,,,,,old,0,0.5,,,,,,,,,,
null,,confidence_buffer,734569,confidence_buffer,,null,,,,,,,,,,,,,,,,,,
null,,thebreak,735072,break,,null,,,,,,,,,,,,,,,,,,
2751,,realistic_rating,737824,Maplehurst,,51,Maplehurst,Fictional,3,,,,,,,,,,,,,,,
null,,confidence_buffer,737933,confidence_buffer,,null,,,,,,,,,,,,,,,,,,
5062,,pt2_unique_rating,742996,Maplehurst,,52,,,4,,,,,,,,,,,,,,,
null,,confidence_buffer,743111,confidence_buffer,,null,,,,,,,,,,,,,,,,,,
1492,,pt2_memorable_rating,744605,Maplehurst,,50,,,2,,,,,,,,,,,,,,,
null,,confidence_buffer,744718,confidence_buffer,,null,,,,,,,,,,,,,,,,,,
1870,,recognition_phase,746591,Maplehurst,,52,,,,,,new,0,0.4444444444444444,,,,,,,,,,
null,,confidence_buffer,746713,confidence_buffer,,null,,,,,,,,,,,,,,,,,,
null,,thebreak,747214,break,,null,,,,,,,,,,,,,,,,,,
2797,,realistic_rating,750012,Millstone,,50,Millstone,Fictional,2,,,,,,,,,,,,,,,
null,,confidence_buffer,750128,confidence_buffer,,null,,,,,,,,,,,,,,,,,,
1534,,pt2_unique_rating,751664,Millstone,,52,,,4,,,,,,,,,,,,,,,
null,,confidence_buffer,751768,confidence_buffer,,null,,,,,,,,,,,,,,,,,,
1543,,pt2_memorable_rating,753313,Millstone,,49,,,1,,,,,,,,,,,,,,,
null,,confidence_buffer,753422,confidence_buffer,,null,,,,,,,,,,,,,,,,,,
1865,,recognition_phase,755288,Millstone,,50,,,,,,old,1,0.5,,,,,,,,,,
null,,confidence_buffer,755401,confidence_buffer,,null,,,,,,,,,,,,,,,,,,
null,,thebreak,755919,break,,null,,,,,,,,,,,,,,,,,,
3426,,realistic_rating,759346,Ironwood Heights,,52,Ironwood Heights,Fictional,4,,,,,,,,,,,,,,,
null,,confidence_buffer,759452,confidence_buffer,,null,,,,,,,,,,,,,,,,,,
2375,,pt2_unique_rating,761829,Ironwood Heights,,50,,,2,,,,,,,,,,,,,,,
null,,confidence_buffer,761932,confidence_buffer,,null,,,,,,,,,,,,,,,,,,
1768,,pt2_memorable_rating,763702,Ironwood Heights,,52,,,4,,,,,,,,,,,,,,,
null,,confidence_buffer,763810,confidence_buffer,,null,,,,,,,,,,,,,,,,,,
2107,,recognition_phase,765917,Ironwood Heights,,51,,,,,,new,0,0.45454545454545453,,,,,,,,,,
null,,confidence_buffer,766021,confidence_buffer,,null,,,,,,,,,,,,,,,,,,
null,,thebreak,766538,break,,null,,,,,,,,,,,,,,,,,,
1380,,realistic_rating,767919,Silverpine,,49,Silverpine,Fictional,1,,,,,,,,,,,,,,,
null,,confidence_buffer,768030,confidence_buffer,,null,,,,,,,,,,,,,,,,,,
2217,,pt2_unique_rating,770249,Silverpine,,50,,,2,,,,,,,,,,,,,,,
null,,confidence_buffer,770355,confidence_buffer,,null,,,,,,,,,,,,,,,,,,
1564,,pt2_memorable_rating,771922,Silverpine,,51,,,3,,,,,,,,,,,,,,,
null,,confidence_buffer,772033,confidence_buffer,,null,,,,,,,,,,,,,,,,,,
1696,,recognition_phase,773731,Silverpine,,50,,,,,,old,0,0.4166666666666667,,,,,,,,,,
null,,confidence_buffer,773841,confidence_buffer,,null,,,,,,,,,,,,,,,,,,
null,,thebreak,774343,break,,null,,,,,,,,,,,,,,,,,,
2588,,realistic_rating,776933,Juniper Creek,,51,Juniper Creek,Fictional,3,,,,,,,,,,,,,,,
null,,confidence_buffer,777054,confidence_buffer,,null,,,,,,,,,,,,,,,,,,
2383,,pt2_unique_rating,779439,Juniper Creek,,52,,,4,,,,,,,,,,,,,,,
null,,confidence_buffer,779544,confidence_buffer,,null,,,,,,,,,,,,,,,,,,
12974,,pt2_memorable_rating,792519,Juniper Creek,,52,,,4,,,,,,,,,,,,,,,
null,,confidence_buffer,792627,confidence_buffer,,null,,,,,,,,,,,,,,,,,,
1538,,recognition_phase,794167,Juniper Creek,,51,,,,,,new,0,0.38461538461538464,,,,,,,,,,
null,,confidence_buffer,794282,confidence_buffer,,null,,,,,,,,,,,,,,,,,,
null,,thebreak,794784,break,,null,,,,,,,,,,,,,,,,,,
1909,,realistic_rating,796696,Cornwall,,50,Cornwall,US,2,,,,,,,,,,,,,,,
null,,confidence_buffer,796812,confidence_buffer,,null,,,,,,,,,,,,,,,,,,
1995,,pt2_unique_rating,798807,Cornwall,,52,,,4,,,,,,,,,,,,,,,
null,,confidence_buffer,798922,confidence_buffer,,null,,,,,,,,,,,,,,,,,,
3406,,probe_rating,802330,probe_rating,,52,,,,4,1,,,,,,,,,,,,,
null,,confidence_buffer,802437,confidence_buffer,,null,,,,,,,,,,,,,,,,,,
2676,,pt2_memorable_rating,805114,Cornwall,,50,,,2,,,,,,,,,,,,,,,
null,,confidence_buffer,805222,confidence_buffer,,null,,,,,,,,,,,,,,,,,,
1805,,recognition_phase,807033,Cornwall,,51,,,,,,new,1,0.42857142857142855,,,,,,,,,,
null,,confidence_buffer,807147,confidence_buffer,,null,,,,,,,,,,,,,,,,,,
null,,thebreak,807649,break,,null,,,,,,,,,,,,,,,,,,
1451,,realistic_rating,809102,Delaware City,,52,Delaware City,US,4,,,,,,,,,,,,,,,
null,,confidence_buffer,809211,confidence_buffer,,null,,,,,,,,,,,,,,,,,,
2592,,pt2_unique_rating,811806,Delaware City,,51,,,3,,,,,,,,,,,,,,,
null,,confidence_buffer,811907,confidence_buffer,,null,,,,,,,,,,,,,,,,,,
1419,,pt2_memorable_rating,813327,Delaware City,,50,,,2,,,,,,,,,,,,,,,
null,,confidence_buffer,813432,confidence_buffer,,null,,,,,,,,,,,,,,,,,,
1574,,recognition_phase,815009,Delaware City,,51,,,,,,new,1,0.4666666666666667,,,,,,,,,,
null,,confidence_buffer,815118,confidence_buffer,,null,,,,,,,,,,,,,,,,,,
null,,thebreak,815621,break,,null,,,,,,,,,,,,,,,,,,
1370,,realistic_rating,816993,Lake of the Ozarks,,52,Lake of the Ozarks,US,4,,,,,,,,,,,,,,,
null,,confidence_buffer,817097,confidence_buffer,,null,,,,,,,,,,,,,,,,,,
2656,,pt2_unique_rating,819755,Lake of the Ozarks,,53,,,5,,,,,,,,,,,,,,,
null,,confidence_buffer,819865,confidence_buffer,,null,,,,,,,,,,,,,,,,,,
1910,,pt2_memorable_rating,821776,Lake of the Ozarks,,52,,,4,,,,,,,,,,,,,,,
null,,confidence_buffer,821887,confidence_buffer,,null,,,,,,,,,,,,,,,,,,
1683,,recognition_phase,823571,Lake of the Ozarks,,51,,,,,,new,1,0.5,,,,,,,,,,
null,,confidence_buffer,823681,confidence_buffer,,null,,,,,,,,,,,,,,,,,,
null,,thebreak,824184,break,,null,,,,,,,,,,,,,,,,,,
2324,,realistic_rating,826510,Hawthorne Bluffs,,50,Hawthorne Bluffs,Fictional,2,,,,,,,,,,,,,,,
null,,confidence_buffer,826613,confidence_buffer,,null,,,,,,,,,,,,,,,,,,
1455,,pt2_unique_rating,828071,Hawthorne Bluffs,,51,,,3,,,,,,,,,,,,,,,
null,,confidence_buffer,828182,confidence_buffer,,null,,,,,,,,,,,,,,,,,,
1816,,pt2_memorable_rating,830000,Hawthorne Bluffs,,52,,,4,,,,,,,,,,,,,,,
null,,confidence_buffer,830115,confidence_buffer,,null,,,,,,,,,,,,,,,,,,
1138,,recognition_phase,831252,Hawthorne Bluffs,,51,,,,,,new,1,0.5294117647058824,,,,,,,,,,
null,,confidence_buffer,831368,confidence_buffer,,null,,,,,,,,,,,,,,,,,,
null,,thebreak,831869,break,,null,,,,,,,,,,,,,,,,,,
1091,,realistic_rating,832963,Athens,,50,Athens,US,2,,,,,,,,,,,,,,,
null,,confidence_buffer,833074,confidence_buffer,,null,,,,,,,,,,,,,,,,,,
1948,,pt2_unique_rating,835023,Athens,,52,,,4,,,,,,,,,,,,,,,
null,,confidence_buffer,835136,confidence_buffer,,null,,,,,,,,,,,,,,,,,,
1546,,pt2_memorable_rating,836683,Athens,,51,,,3,,,,,,,,,,,,,,,
null,,confidence_buffer,836791,confidence_buffer,,null,,,,,,,,,,,,,,,,,,
1652,,recognition_phase,838444,Athens,,50,,,,,,old,1,0.5555555555555556,,,,,,,,,,
null,,confidence_buffer,838551,confidence_buffer,,null,,,,,,,,,,,,,,,,,,
null,,thebreak,839054,break,,null,,,,,,,,,,,,,,,,,,
1477,,realistic_rating,840533,Sisters,,51,Sisters,US,3,,,,,,,,,,,,,,,
null,,confidence_buffer,840639,confidence_buffer,,null,,,,,,,,,,,,,,,,,,
1116,,pt2_unique_rating,841758,Sisters,,50,,,2,,,,,,,,,,,,,,,
null,,confidence_buffer,841864,confidence_buffer,,null,,,,,,,,,,,,,,,,,,
1349,,pt2_memorable_rating,843215,Sisters,,52,,,4,,,,,,,,,,,,,,,
null,,confidence_buffer,843318,confidence_buffer,,null,,,,,,,,,,,,,,,,,,
1014,,recognition_phase,844334,Sisters,,51,,,,,,new,1,0.5789473684210527,,,,,,,,,,
null,,confidence_buffer,844439,confidence_buffer,,null,,,,,,,,,,,,,,,,,,
null,,thebreak,844940,break,,null,,,,,,,,,,,,,,,,,,
1217,,realistic_rating,846160,Baymarsh,,50,Baymarsh,Fictional,2,,,,,,,,,,,,,,,
null,,confidence_buffer,846262,confidence_buffer,,null,,,,,,,,,,,,,,,,,,
1721,,pt2_unique_rating,847985,Baymarsh,,51,,,3,,,,,,,,,,,,,,,
null,,confidence_buffer,848094,confidence_buffer,,null,,,,,,,,,,,,,,,,,,
1769,,pt2_memorable_rating,849866,Baymarsh,,52,,,4,,,,,,,,,,,,,,,
null,,confidence_buffer,849968,confidence_buffer,,null,,,,,,,,,,,,,,,,,,
1625,,recognition_phase,851594,Baymarsh,,51,,,,,,new,1,0.6,,,,,,,,,,
null,,confidence_buffer,851711,confidence_buffer,,null,,,,,,,,,,,,,,,,,,
null,,thebreak,852227,break,,null,,,,,,,,,,,,,,,,,,
1422,,realistic_rating,853652,Fairhaven,,50,Fairhaven,Fictional,2,,,,,,,,,,,,,,,
null,,confidence_buffer,853765,confidence_buffer,,null,,,,,,,,,,,,,,,,,,
2848,,pt2_unique_rating,856613,Fairhaven,,52,,,4,,,,,,,,,,,,,,,
null,,confidence_buffer,856734,confidence_buffer,,null,,,,,,,,,,,,,,,,,,
1351,,pt2_memorable_rating,858087,Fairhaven,,51,,,3,,,,,,,,,,,,,,,
null,,confidence_buffer,858202,confidence_buffer,,null,,,,,,,,,,,,,,,,,,
2098,,probe_rating,860303,probe_rating,,52,,,,4,1,,,,,,,,,,,,,
null,,confidence_buffer,860413,confidence_buffer,,null,,,,,,,,,,,,,,,,,,
1719,,recognition_phase,862135,Fairhaven,,51,,,,,,new,1,0.6190476190476191,,,,,,,,,,
null,,confidence_buffer,862237,confidence_buffer,,null,,,,,,,,,,,,,,,,,,
null,,thebreak,862762,break,,null,,,,,,,,,,,,,,,,,,
1229,,realistic_rating,863994,Newport,,52,Newport,US,4,,,,,,,,,,,,,,,
null,,confidence_buffer,864100,confidence_buffer,,null,,,,,,,,,,,,,,,,,,
1395,,pt2_unique_rating,865497,Newport,,50,,,2,,,,,,,,,,,,,,,
null,,confidence_buffer,865607,confidence_buffer,,null,,,,,,,,,,,,,,,,,,
1488,,pt2_memorable_rating,867097,Newport,,52,,,4,,,,,,,,,,,,,,,
null,,confidence_buffer,867213,confidence_buffer,,null,,,,,,,,,,,,,,,,,,
1921,,recognition_phase,869136,Newport,,52,,,,,,new,0,0.5909090909090909,,,,,,,,,,
null,,confidence_buffer,869251,confidence_buffer,,null,,,,,,,,,,,,,,,,,,
null,,thebreak,869752,break,,null,,,,,,,,,,,,,,,,,,
1309,,realistic_rating,871063,Elmsbury,,51,Elmsbury,Fictional,3,,,,,,,,,,,,,,,
null,,confidence_buffer,871174,confidence_buffer,,null,,,,,,,,,,,,,,,,,,
2999,,pt2_unique_rating,874174,Elmsbury,,53,,,5,,,,,,,,,,,,,,,
null,,confidence_buffer,874288,confidence_buffer,,null,,,,,,,,,,,,,,,,,,
1726,,pt2_memorable_rating,876016,Elmsbury,,52,,,4,,,,,,,,,,,,,,,
null,,confidence_buffer,876119,confidence_buffer,,null,,,,,,,,,,,,,,,,,,
1340,,recognition_phase,877461,Elmsbury,,51,,,,,,new,1,0.6086956521739131,,,,,,,,,,
null,,confidence_buffer,877574,confidence_buffer,,null,,,,,,,,,,,,,,,,,,
null,,thebreak,878076,break,,null,,,,,,,,,,,,,,,,,,
1003,,realistic_rating,879079,Cody,,50,Cody,US,2,,,,,,,,,,,,,,,
null,,confidence_buffer,879191,confidence_buffer,,null,,,,,,,,,,,,,,,,,,
1752,,pt2_unique_rating,880945,Cody,,51,,,3,,,,,,,,,,,,,,,
null,,confidence_buffer,881060,confidence_buffer,,null,,,,,,,,,,,,,,,,,,
1787,,pt2_memorable_rating,882850,Cody,,52,,,4,,,,,,,,,,,,,,,
null,,confidence_buffer,882957,confidence_buffer,,null,,,,,,,,,,,,,,,,,,
3673,,recognition_phase,886631,Cody,,52,,,,,,new,0,0.5833333333333334,,,,,,,,,,
null,,confidence_buffer,886734,confidence_buffer,,null,,,,,,,,,,,,,,,,,,
null,,thebreak,887237,break,,null,,,,,,,,,,,,,,,,,,
1151,,realistic_rating,888389,Linden Trace,,51,Linden Trace,Fictional,3,,,,,,,,,,,,,,,
null,,confidence_buffer,888495,confidence_buffer,,null,,,,,,,,,,,,,,,,,,
1772,,pt2_unique_rating,890268,Linden Trace,,50,,,2,,,,,,,,,,,,,,,
null,,confidence_buffer,890388,confidence_buffer,,null,,,,,,,,,,,,,,,,,,
4575,,pt2_memorable_rating,894965,Linden Trace,,52,,,4,,,,,,,,,,,,,,,
null,,confidence_buffer,895076,confidence_buffer,,null,,,,,,,,,,,,,,,,,,
1795,,recognition_phase,896872,Linden Trace,,51,,,,,,new,0,0.56,,,,,,,,,,
null,,confidence_buffer,896988,confidence_buffer,,null,,,,,,,,,,,,,,,,,,
null,,thebreak,897500,break,,null,,,,,,,,,,,,,,,,,,
1417,,realistic_rating,898920,Barnard,,50,Barnard,US,2,,,,,,,,,,,,,,,
null,,confidence_buffer,899031,confidence_buffer,,null,,,,,,,,,,,,,,,,,,
2671,,pt2_unique_rating,901705,Barnard,,52,,,4,,,,,,,,,,,,,,,
null,,confidence_buffer,901806,confidence_buffer,,null,,,,,,,,,,,,,,,,,,
1139,,pt2_memorable_rating,902948,Barnard,,51,,,3,,,,,,,,,,,,,,,
null,,confidence_buffer,903066,confidence_buffer,,null,,,,,,,,,,,,,,,,,,
2674,,recognition_phase,905743,Barnard,,52,,,,,,new,1,0.5769230769230769,,,,,,,,,,
null,,confidence_buffer,905864,confidence_buffer,,null,,,,,,,,,,,,,,,,,,
null,,thebreak,906366,break,,null,,,,,,,,,,,,,,,,,,
2151,,realistic_rating,908519,Cedarwyn,,51,Cedarwyn,Fictional,3,,,,,,,,,,,,,,,
null,,confidence_buffer,908624,confidence_buffer,,null,,,,,,,,,,,,,,,,,,
2174,,probe_rating,910799,probe_rating,,53,,,,5,1,,,,,,,,,,,,,
null,,confidence_buffer,910903,confidence_buffer,,null,,,,,,,,,,,,,,,,,,
2134,,pt2_unique_rating,913039,Cedarwyn,,52,,,4,,,,,,,,,,,,,,,
null,,confidence_buffer,913147,confidence_buffer,,null,,,,,,,,,,,,,,,,,,
1237,,pt2_memorable_rating,914385,Cedarwyn,,50,,,2,,,,,,,,,,,,,,,
null,,confidence_buffer,914489,confidence_buffer,,null,,,,,,,,,,,,,,,,,,
4370,,recognition_phase,918860,Cedarwyn,,52,,,,,,new,1,0.5925925925925926,,,,,,,,,,
null,,confidence_buffer,918974,confidence_buffer,,null,,,,,,,,,,,,,,,,,,
null,,thebreak,919478,break,,null,,,,,,,,,,,,,,,,,,
3599,,realistic_rating,923078,Assateague Island,,51,Assateague Island,US,3,,,,,,,,,,,,,,,
null,,confidence_buffer,923180,confidence_buffer,,null,,,,,,,,,,,,,,,,,,
1738,,pt2_unique_rating,924919,Assateague Island,,52,,,4,,,,,,,,,,,,,,,
null,,confidence_buffer,925035,confidence_buffer,,null,,,,,,,,,,,,,,,,,,
2716,,pt2_memorable_rating,927753,Assateague Island,,52,,,4,,,,,,,,,,,,,,,
null,,confidence_buffer,927869,confidence_buffer,,null,,,,,,,,,,,,,,,,,,
1844,,recognition_phase,929715,Assateague Island,,52,,,,,,new,1,0.6071428571428571,,,,,,,,,,
null,,confidence_buffer,929828,confidence_buffer,,null,,,,,,,,,,,,,,,,,,
null,,thebreak,930331,break,,null,,,,,,,,,,,,,,,,,,
2286,,realistic_rating,932618,Boulder,,51,Boulder,US,3,,,,,,,,,,,,,,,
null,,confidence_buffer,932726,confidence_buffer,,null,,,,,,,,,,,,,,,,,,
2175,,pt2_unique_rating,934901,Boulder,,50,,,2,,,,,,,,,,,,,,,
null,,confidence_buffer,935005,confidence_buffer,,null,,,,,,,,,,,,,,,,,,
1535,,pt2_memorable_rating,936541,Boulder,,51,,,3,,,,,,,,,,,,,,,
null,,confidence_buffer,936644,confidence_buffer,,null,,,,,,,,,,,,,,,,,,
1139,,recognition_phase,937784,Boulder,,52,,,,,,new,0,0.5862068965517241,,,,,,,,,,
null,,confidence_buffer,937897,confidence_buffer,,null,,,,,,,,,,,,,,,,,,
null,,thebreak,938400,break,,null,,,,,,,,,,,,,,,,,,
917,,realistic_rating,939319,Tamarisk Hills,,50,Tamarisk Hills,Fictional,2,,,,,,,,,,,,,,,
null,,confidence_buffer,939426,confidence_buffer,,null,,,,,,,,,,,,,,,,,,
1773,,pt2_unique_rating,941199,Tamarisk Hills,,49,,,1,,,,,,,,,,,,,,,
null,,confidence_buffer,941314,confidence_buffer,,null,,,,,,,,,,,,,,,,,,
1829,,pt2_memorable_rating,943145,Tamarisk Hills,,50,,,2,,,,,,,,,,,,,,,
null,,confidence_buffer,943257,confidence_buffer,,null,,,,,,,,,,,,,,,,,,
1645,,recognition_phase,944905,Tamarisk Hills,,52,,,,,,new,0,0.5666666666666667,,,,,,,,,,
null,,confidence_buffer,945011,confidence_buffer,,null,,,,,,,,,,,,,,,,,,
null,,thebreak,945512,break,,null,,,,,,,,,,,,,,,,,,
1272,,realistic_rating,946786,Watkins Glen,,51,Watkins Glen,US,3,,,,,,,,,,,,,,,
null,,confidence_buffer,946889,confidence_buffer,,null,,,,,,,,,,,,,,,,,,
1753,,pt2_unique_rating,948643,Watkins Glen,,50,,,2,,,,,,,,,,,,,,,
null,,confidence_buffer,948766,confidence_buffer,,null,,,,,,,,,,,,,,,,,,
1795,,pt2_memorable_rating,950564,Watkins Glen,,52,,,4,,,,,,,,,,,,,,,
null,,confidence_buffer,950673,confidence_buffer,,null,,,,,,,,,,,,,,,,,,
3091,,recognition_phase,953766,Watkins Glen,,51,,,,,,new,0,0.5483870967741935,,,,,,,,,,
null,,confidence_buffer,953870,confidence_buffer,,null,,,,,,,,,,,,,,,,,,
null,,thebreak,954390,break,,null,,,,,,,,,,,,,,,,,,
3240,,realistic_rating,957632,Coeur d'Alene,,51,Coeur d'Alene,US,3,,,,,,,,,,,,,,,
null,,confidence_buffer,957735,confidence_buffer,,null,,,,,,,,,,,,,,,,,,
2280,,pt2_unique_rating,960017,Coeur d'Alene,,50,,,2,,,,,,,,,,,,,,,
null,,confidence_buffer,960131,confidence_buffer,,null,,,,,,,,,,,,,,,,,,
2110,,pt2_memorable_rating,962242,Coeur d'Alene,,52,,,4,,,,,,,,,,,,,,,
null,,confidence_buffer,962358,confidence_buffer,,null,,,,,,,,,,,,,,,,,,
3597,,recognition_phase,965956,Coeur d'Alene,,51,,,,,,new,0,0.53125,,,,,,,,,,
null,,confidence_buffer,966061,confidence_buffer,,null,,,,,,,,,,,,,,,,,,
null,,thebreak,966579,break,,null,,,,,,,,,,,,,,,,,,
1453,,realistic_rating,968035,Redgrove,,50,Redgrove,Fictional,2,,,,,,,,,,,,,,,
null,,confidence_buffer,968155,confidence_buffer,,null,,,,,,,,,,,,,,,,,,
1894,,pt2_unique_rating,970052,Redgrove,,52,,,4,,,,,,,,,,,,,,,
null,,confidence_buffer,970166,confidence_buffer,,null,,,,,,,,,,,,,,,,,,
3287,,pt2_memorable_rating,973455,Redgrove,,52,,,4,,,,,,,,,,,,,,,
null,,confidence_buffer,973563,confidence_buffer,,null,,,,,,,,,,,,,,,,,,
3090,,recognition_phase,976653,Redgrove,,51,,,,,,new,1,0.5454545454545454,,,,,,,,,,
null,,confidence_buffer,976757,confidence_buffer,,null,,,,,,,,,,,,,,,,,,
null,,thebreak,977258,break,,null,,,,,,,,,,,,,,,,,,
902,,realistic_rating,978161,Crestwood,,52,Crestwood,Fictional,4,,,,,,,,,,,,,,,
null,,confidence_buffer,978277,confidence_buffer,,null,,,,,,,,,,,,,,,,,,
2300,,pt2_unique_rating,980579,Crestwood,,51,,,3,,,,,,,,,,,,,,,
null,,confidence_buffer,980688,confidence_buffer,,null,,,,,,,,,,,,,,,,,,
4963,,probe_rating,985651,probe_rating,,53,,,,5,1,,,,,,,,,,,,,
null,,confidence_buffer,985760,confidence_buffer,,null,,,,,,,,,,,,,,,,,,
2284,,pt2_memorable_rating,988045,Crestwood,,52,,,4,,,,,,,,,,,,,,,
null,,confidence_buffer,988154,confidence_buffer,,null,,,,,,,,,,,,,,,,,,
1914,,recognition_phase,990069,Crestwood,,51,,,,,,new,0,0.5294117647058824,,,,,,,,,,
null,,confidence_buffer,990177,confidence_buffer,,null,,,,,,,,,,,,,,,,,,
null,,thebreak,990680,break,,null,,,,,,,,,,,,,,,,,,
1993,,realistic_rating,992676,Sunmere,,52,Sunmere,Fictional,4,,,,,,,,,,,,,,,
null,,confidence_buffer,992790,confidence_buffer,,null,,,,,,,,,,,,,,,,,,
1952,,pt2_unique_rating,994746,Sunmere,,51,,,3,,,,,,,,,,,,,,,
null,,confidence_buffer,994848,confidence_buffer,,null,,,,,,,,,,,,,,,,,,
2451,,pt2_memorable_rating,997299,Sunmere,,50,,,2,,,,,,,,,,,,,,,
null,,confidence_buffer,997415,confidence_buffer,,null,,,,,,,,,,,,,,,,,,
2605,,recognition_phase,1000021,Sunmere,,52,,,,,,new,1,0.5428571428571428,,,,,,,,,,
null,,confidence_buffer,1000128,confidence_buffer,,null,,,,,,,,,,,,,,,,,,
null,,thebreak,1000630,break,,null,,,,,,,,,,,,,,,,,,
2853,,realistic_rating,1003484,Highvale,,51,Highvale,Fictional,3,,,,,,,,,,,,,,,
null,,confidence_buffer,1003587,confidence_buffer,,null,,,,,,,,,,,,,,,,,,
4373,,pt2_unique_rating,1007961,Highvale,,52,,,4,,,,,,,,,,,,,,,
null,,confidence_buffer,1008074,confidence_buffer,,null,,,,,,,,,,,,,,,,,,
1717,,pt2_memorable_rating,1009793,Highvale,,51,,,3,,,,,,,,,,,,,,,
null,,confidence_buffer,1009898,confidence_buffer,,null,,,,,,,,,,,,,,,,,,
1247,,recognition_phase,1011146,Highvale,,50,,,,,,old,1,0.5555555555555556,,,,,,,,,,
null,,confidence_buffer,1011258,confidence_buffer,,null,,,,,,,,,,,,,,,,,,
null,,thebreak,1011760,break,,null,,,,,,,,,,,,,,,,,,
2883,,realistic_rating,1014644,Duck,,52,Duck,US,4,,,,,,,,,,,,,,,
null,,confidence_buffer,1014757,confidence_buffer,,null,,,,,,,,,,,,,,,,,,
2117,,pt2_unique_rating,1016876,Duck,,51,,,3,,,,,,,,,,,,,,,
null,,confidence_buffer,1016983,confidence_buffer,,null,,,,,,,,,,,,,,,,,,
2206,,pt2_memorable_rating,1019191,Duck,,49,,,1,,,,,,,,,,,,,,,
null,,confidence_buffer,1019295,confidence_buffer,,null,,,,,,,,,,,,,,,,,,
2239,,recognition_phase,1021535,Duck,,51,,,,,,new,1,0.5675675675675675,,,,,,,,,,
null,,confidence_buffer,1021652,confidence_buffer,,null,,,,,,,,,,,,,,,,,,
null,,thebreak,1022155,break,,null,,,,,,,,,,,,,,,,,,
4125,,realistic_rating,1026283,Summershade,,52,Summershade,Fictional,4,,,,,,,,,,,,,,,
null,,confidence_buffer,1026393,confidence_buffer,,null,,,,,,,,,,,,,,,,,,
2847,,pt2_unique_rating,1029241,Summershade,,51,,,3,,,,,,,,,,,,,,,
null,,confidence_buffer,1029346,confidence_buffer,,null,,,,,,,,,,,,,,,,,,
2010,,pt2_memorable_rating,1031357,Summershade,,50,,,2,,,,,,,,,,,,,,,
null,,confidence_buffer,1031476,confidence_buffer,,null,,,,,,,,,,,,,,,,,,
2263,,recognition_phase,1033741,Summershade,,52,,,,,,new,1,0.5789473684210527,,,,,,,,,,
null,,confidence_buffer,1033855,confidence_buffer,,null,,,,,,,,,,,,,,,,,,
null,,thebreak,1034358,break,,null,,,,,,,,,,,,,,,,,,
4488,,realistic_rating,1038848,North Arroya,,51,North Arroya,Fictional,3,,,,,,,,,,,,,,,
null,,confidence_buffer,1038961,confidence_buffer,,null,,,,,,,,,,,,,,,,,,
1526,,pt2_unique_rating,1040489,North Arroya,,50,,,2,,,,,,,,,,,,,,,
null,,confidence_buffer,1040591,confidence_buffer,,null,,,,,,,,,,,,,,,,,,
2018,,pt2_memorable_rating,1042609,North Arroya,,52,,,4,,,,,,,,,,,,,,,
null,,confidence_buffer,1042719,confidence_buffer,,null,,,,,,,,,,,,,,,,,,
1874,,recognition_phase,1044593,North Arroya,,51,,,,,,new,1,0.5897435897435898,,,,,,,,,,
null,,confidence_buffer,1044713,confidence_buffer,,null,,,,,,,,,,,,,,,,,,
null,,thebreak,1045214,break,,null,,,,,,,,,,,,,,,,,,
2101,,realistic_rating,1047317,Huntsville,,50,Huntsville,US,2,,,,,,,,,,,,,,,
null,,confidence_buffer,1047425,confidence_buffer,,null,,,,,,,,,,,,,,,,,,
2932,,pt2_unique_rating,1050358,Huntsville,,51,,,3,,,,,,,,,,,,,,,
null,,confidence_buffer,1050471,confidence_buffer,,null,,,,,,,,,,,,,,,,,,
2051,,pt2_memorable_rating,1052525,Huntsville,,52,,,4,,,,,,,,,,,,,,,
null,,confidence_buffer,1052628,confidence_buffer,,null,,,,,,,,,,,,,,,,,,
2757,,recognition_phase,1055385,Huntsville,,50,,,,,,old,1,0.6,,,,,,,,,,
null,,confidence_buffer,1055494,confidence_buffer,,null,,,,,,,,,,,,,,,,,,
null,,thebreak,1055998,break,,null,,,,,,,,,,,,,,,,,,
6261,,realistic_rating,1062261,Leesburg,,52,Leesburg,US,4,,,,,,,,,,,,,,,
null,,confidence_buffer,1062372,confidence_buffer,,null,,,,,,,,,,,,,,,,,,
2446,,pt2_unique_rating,1064820,Leesburg,,51,,,3,,,,,,,,,,,,,,,
null,,confidence_buffer,1064938,confidence_buffer,,null,,,,,,,,,,,,,,,,,,
1884,,pt2_memorable_rating,1066822,Leesburg,,50,,,2,,,,,,,,,,,,,,,
null,,confidence_buffer,1066932,confidence_buffer,,null,,,,,,,,,,,,,,,,,,
4776,,recognition_phase,1071709,Leesburg,,52,,,,,,new,0,0.5853658536585366,,,,,,,,,,
null,,confidence_buffer,1071839,confidence_buffer,,null,,,,,,,,,,,,,,,,,,
null,,thebreak,1072340,break,,null,,,,,,,,,,,,,,,,,,
1131,,realistic_rating,1073471,Orchard Bend,,51,Orchard Bend,Fictional,3,,,,,,,,,,,,,,,
null,,confidence_buffer,1073579,confidence_buffer,,null,,,,,,,,,,,,,,,,,,
2799,,pt2_unique_rating,1076379,Orchard Bend,,52,,,4,,,,,,,,,,,,,,,
null,,confidence_buffer,1076494,confidence_buffer,,null,,,,,,,,,,,,,,,,,,
3092,,pt2_memorable_rating,1079588,Orchard Bend,,51,,,3,,,,,,,,,,,,,,,
null,,confidence_buffer,1079694,confidence_buffer,,null,,,,,,,,,,,,,,,,,,
1774,,recognition_phase,1081470,Orchard Bend,,50,,,,,,old,1,0.5952380952380952,,,,,,,,,,
null,,confidence_buffer,1081587,confidence_buffer,,null,,,,,,,,,,,,,,,,,,
null,,thebreak,1082089,break,,null,,,,,,,,,,,,,,,,,,
4143,,realistic_rating,1086232,Claywater,,52,Claywater,Fictional,4,,,,,,,,,,,,,,,
null,,confidence_buffer,1086342,confidence_buffer,,null,,,,,,,,,,,,,,,,,,
1298,,pt2_unique_rating,1087641,Claywater,,51,,,3,,,,,,,,,,,,,,,
null,,confidence_buffer,1087750,confidence_buffer,,null,,,,,,,,,,,,,,,,,,
2067,,pt2_memorable_rating,1089817,Claywater,,50,,,2,,,,,,,,,,,,,,,
null,,confidence_buffer,1089930,confidence_buffer,,null,,,,,,,,,,,,,,,,,,
2333,,recognition_phase,1092265,Claywater,,52,,,,,,new,0,0.5813953488372093,,,,,,,,,,
null,,confidence_buffer,1092375,confidence_buffer,,null,,,,,,,,,,,,,,,,,,
null,,thebreak,1092877,break,,null,,,,,,,,,,,,,,,,,,
4070,,realistic_rating,1096949,Custer,,50,Custer,US,2,,,,,,,,,,,,,,,
null,,confidence_buffer,1097064,confidence_buffer,,null,,,,,,,,,,,,,,,,,,
2204,,pt2_unique_rating,1099271,Custer,,51,,,3,,,,,,,,,,,,,,,
null,,confidence_buffer,1099377,confidence_buffer,,null,,,,,,,,,,,,,,,,,,
2204,,pt2_memorable_rating,1101584,Custer,,50,,,2,,,,,,,,,,,,,,,
null,,confidence_buffer,1101688,confidence_buffer,,null,,,,,,,,,,,,,,,,,,
2516,,recognition_phase,1104206,Custer,,52,,,,,,new,0,0.5681818181818182,,,,,,,,,,
null,,confidence_buffer,1104311,confidence_buffer,,null,,,,,,,,,,,,,,,,,,
null,,thebreak,1104815,break,,null,,,,,,,,,,,,,,,,,,
3097,,realistic_rating,1107915,Alliance,,51,Alliance,US,3,,,,,,,,,,,,,,,
null,,confidence_buffer,1108032,confidence_buffer,,null,,,,,,,,,,,,,,,,,,
3595,,pt2_unique_rating,1111629,Alliance,,52,,,4,,,,,,,,,,,,,,,
null,,confidence_buffer,1111736,confidence_buffer,,null,,,,,,,,,,,,,,,,,,
3229,,probe_rating,1114967,probe_rating,,52,,,,4,1,,,,,,,,,,,,,
null,,confidence_buffer,1115084,confidence_buffer,,null,,,,,,,,,,,,,,,,,,
3048,,pt2_memorable_rating,1118134,Alliance,,51,,,3,,,,,,,,,,,,,,,
null,,confidence_buffer,1118247,confidence_buffer,,null,,,,,,,,,,,,,,,,,,
1936,,recognition_phase,1120184,Alliance,,52,,,,,,new,0,0.5555555555555556,,,,,,,,,,
null,,confidence_buffer,1120294,confidence_buffer,,null,,,,,,,,,,,,,,,,,,
null,,thebreak,1120796,break,,null,,,,,,,,,,,,,,,,,,
161731,,realistic_rating,1282528,Bowling Green,,51,Bowling Green,US,3,,,,,,,,,,,,,,,
null,,confidence_buffer,1282638,confidence_buffer,,null,,,,,,,,,,,,,,,,,,
2010,,pt2_unique_rating,1284649,Bowling Green,,50,,,2,,,,,,,,,,,,,,,
null,,confidence_buffer,1284764,confidence_buffer,,null,,,,,,,,,,,,,,,,,,
2973,,pt2_memorable_rating,1287738,Bowling Green,,52,,,4,,,,,,,,,,,,,,,
null,,confidence_buffer,1287847,confidence_buffer,,null,,,,,,,,,,,,,,,,,,
2364,,recognition_phase,1290213,Bowling Green,,51,,,,,,new,1,0.5652173913043478,,,,,,,,,,
null,,confidence_buffer,1290327,confidence_buffer,,null,,,,,,,,,,,,,,,,,,
null,,thebreak,1290828,break,,null,,,,,,,,,,,,,,,,,,
3250,,realistic_rating,1294080,Ashford Hills,,50,Ashford Hills,Fictional,2,,,,,,,,,,,,,,,
null,,confidence_buffer,1294190,confidence_buffer,,null,,,,,,,,,,,,,,,,,,
3875,,pt2_unique_rating,1298069,Ashford Hills,,51,,,3,,,,,,,,,,,,,,,
null,,confidence_buffer,1298175,confidence_buffer,,null,,,,,,,,,,,,,,,,,,
3395,,pt2_memorable_rating,1301571,Ashford Hills,,52,,,4,,,,,,,,,,,,,,,
null,,confidence_buffer,1301676,confidence_buffer,,null,,,,,,,,,,,,,,,,,,
2695,,recognition_phase,1304372,Ashford Hills,,51,,,,,,new,1,0.574468085106383,,,,,,,,,,
null,,confidence_buffer,1304488,confidence_buffer,,null,,,,,,,,,,,,,,,,,,
null,,thebreak,1304989,break,,null,,,,,,,,,,,,,,,,,,
1849,,realistic_rating,1306838,Lakehaven,,50,Lakehaven,Fictional,2,,,,,,,,,,,,,,,
null,,confidence_buffer,1306947,confidence_buffer,,null,,,,,,,,,,,,,,,,,,
2354,,pt2_unique_rating,1309303,Lakehaven,,52,,,4,,,,,,,,,,,,,,,
null,,confidence_buffer,1309411,confidence_buffer,,null,,,,,,,,,,,,,,,,,,
2485,,probe_rating,1311898,probe_rating,,50,,,,2,1,,,,,,,,,,,,,
null,,confidence_buffer,1312011,confidence_buffer,,null,,,,,,,,,,,,,,,,,,
3055,,pt2_memorable_rating,1315067,Lakehaven,,52,,,4,,,,,,,,,,,,,,,
null,,confidence_buffer,1315171,confidence_buffer,,null,,,,,,,,,,,,,,,,,,
2143,,recognition_phase,1317317,Lakehaven,,51,,,,,,new,0,0.5625,,,,,,,,,,
null,,confidence_buffer,1317420,confidence_buffer,,null,,,,,,,,,,,,,,,,,,
null,,thebreak,1317940,break,,null,,,,,,,,,,,,,,,,,,
4570,,realistic_rating,1322510,Stonebrook,,52,Stonebrook,Fictional,4,,,,,,,,,,,,,,,
null,,confidence_buffer,1322625,confidence_buffer,,null,,,,,,,,,,,,,,,,,,
1819,,pt2_unique_rating,1324447,Stonebrook,,51,,,3,,,,,,,,,,,,,,,
null,,confidence_buffer,1324550,confidence_buffer,,null,,,,,,,,,,,,,,,,,,
1671,,pt2_memorable_rating,1326224,Stonebrook,,50,,,2,,,,,,,,,,,,,,,
null,,confidence_buffer,1326327,confidence_buffer,,null,,,,,,,,,,,,,,,,,,
1863,,recognition_phase,1328193,Stonebrook,,49,,,,,,old,0,0.5510204081632653,,,,,,,,,,
null,,confidence_buffer,1328305,confidence_buffer,,null,,,,,,,,,,,,,,,,,,
null,,thebreak,1328808,break,,null,,,,,,,,,,,,,,,,,,
2538,,realistic_rating,1331346,West Palm Beach,,52,West Palm Beach,US,4,,,,,,,,,,,,,,,
null,,confidence_buffer,1331452,confidence_buffer,,null,,,,,,,,,,,,,,,,,,
1893,,pt2_unique_rating,1333348,West Palm Beach,,50,,,2,,,,,,,,,,,,,,,
null,,confidence_buffer,1333464,confidence_buffer,,null,,,,,,,,,,,,,,,,,,
1835,,pt2_memorable_rating,1335301,West Palm Beach,,51,,,3,,,,,,,,,,,,,,,
null,,confidence_buffer,1335406,confidence_buffer,,null,,,,,,,,,,,,,,,,,,
1805,,recognition_phase,1337213,West Palm Beach,,50,,,,,,old,1,0.56,,,,,,,,,,
null,,confidence_buffer,1337338,confidence_buffer,,null,,,,,,,,,,,,,,,,,,
null,,thebreak,1337840,break,,null,,,,,,,,,,,,,,,,,,
1806,,realistic_rating,1339648,Westridge,,52,Westridge,Fictional,4,,,,,,,,,,,,,,,
null,,confidence_buffer,1339765,confidence_buffer,,null,,,,,,,,,,,,,,,,,,
1569,,pt2_unique_rating,1341336,Westridge,,50,,,2,,,,,,,,,,,,,,,
null,,confidence_buffer,1341441,confidence_buffer,,null,,,,,,,,,,,,,,,,,,
1350,,pt2_memorable_rating,1342793,Westridge,,49,,,1,,,,,,,,,,,,,,,
null,,confidence_buffer,1342910,confidence_buffer,,null,,,,,,,,,,,,,,,,,,
1472,,recognition_phase,1344383,Westridge,,50,,,,,,old,1,0.5686274509803921,,,,,,,,,,
null,,confidence_buffer,1344486,confidence_buffer,,null,,,,,,,,,,,,,,,,,,
null,,thebreak,1344987,break,,null,,,,,,,,,,,,,,,,,,
1678,,realistic_rating,1346666,Albuquerque,,51,Albuquerque,US,3,,,,,,,,,,,,,,,
null,,confidence_buffer,1346780,confidence_buffer,,null,,,,,,,,,,,,,,,,,,
2338,,pt2_unique_rating,1349121,Albuquerque,,52,,,4,,,,,,,,,,,,,,,
null,,confidence_buffer,1349225,confidence_buffer,,null,,,,,,,,,,,,,,,,,,
3101,,pt2_memorable_rating,1352327,Albuquerque,,51,,,3,,,,,,,,,,,,,,,
null,,confidence_buffer,1352439,confidence_buffer,,null,,,,,,,,,,,,,,,,,,
2276,,recognition_phase,1354716,Albuquerque,,50,,,,,,old,0,0.5576923076923077,,,,,,,,,,
null,,confidence_buffer,1354819,confidence_buffer,,null,,,,,,,,,,,,,,,,,,
null,,thebreak,1355322,break,,null,,,,,,,,,,,,,,,,,,
1524,,realistic_rating,1356849,Delaro Park,,52,Delaro Park,Fictional,4,,,,,,,,,,,,,,,
null,,confidence_buffer,1356962,confidence_buffer,,null,,,,,,,,,,,,,,,,,,
5927,,pt2_unique_rating,1362890,Delaro Park,,50,,,2,,,,,,,,,,,,,,,
null,,confidence_buffer,1362992,confidence_buffer,,null,,,,,,,,,,,,,,,,,,
2354,,pt2_memorable_rating,1365348,Delaro Park,,49,,,1,,,,,,,,,,,,,,,
null,,confidence_buffer,1365471,confidence_buffer,,null,,,,,,,,,,,,,,,,,,
3455,,recognition_phase,1368927,Delaro Park,,52,,,,,,new,0,0.5471698113207547,,,,,,,,,,
null,,confidence_buffer,1369038,confidence_buffer,,null,,,,,,,,,,,,,,,,,,
null,,thebreak,1369540,break,,null,,,,,,,,,,,,,,,,,,
3730,,realistic_rating,1373272,Gardnerville,,51,Gardnerville,US,3,,,,,,,,,,,,,,,
null,,confidence_buffer,1373375,confidence_buffer,,null,,,,,,,,,,,,,,,,,,
2198,,pt2_unique_rating,1375573,Gardnerville,,50,,,2,,,,,,,,,,,,,,,
null,,confidence_buffer,1375684,confidence_buffer,,null,,,,,,,,,,,,,,,,,,
1877,,pt2_memorable_rating,1377562,Gardnerville,,52,,,4,,,,,,,,,,,,,,,
null,,confidence_buffer,1377664,confidence_buffer,,null,,,,,,,,,,,,,,,,,,
1879,,recognition_phase,1379545,Gardnerville,,51,,,,,,new,1,0.5555555555555556,,,,,,,,,,
null,,confidence_buffer,1379659,confidence_buffer,,null,,,,,,,,,,,,,,,,,,
null,,thebreak,1380176,break,,null,,,,,,,,,,,,,,,,,,
1803,,realistic_rating,1381980,Pine Hollow,,50,Pine Hollow,Fictional,2,,,,,,,,,,,,,,,
null,,confidence_buffer,1382085,confidence_buffer,,null,,,,,,,,,,,,,,,,,,
1639,,pt2_unique_rating,1383725,Pine Hollow,,49,,,1,,,,,,,,,,,,,,,
null,,confidence_buffer,1383837,confidence_buffer,,null,,,,,,,,,,,,,,,,,,
1912,,pt2_memorable_rating,1385751,Pine Hollow,,50,,,2,,,,,,,,,,,,,,,
null,,confidence_buffer,1385868,confidence_buffer,,null,,,,,,,,,,,,,,,,,,
2099,,recognition_phase,1387967,Pine Hollow,,51,,,,,,new,1,0.5636363636363636,,,,,,,,,,
null,,confidence_buffer,1388078,confidence_buffer,,null,,,,,,,,,,,,,,,,,,
null,,thebreak,1388580,break,,null,,,,,,,,,,,,,,,,,,
1418,,realistic_rating,1390001,Park City,,52,Park City,US,4,,,,,,,,,,,,,,,
null,,confidence_buffer,1390117,confidence_buffer,,null,,,,,,,,,,,,,,,,,,
2803,,probe_rating,1392921,probe_rating,,51,,,,3,1,,,,,,,,,,,,,
null,,confidence_buffer,1393030,confidence_buffer,,null,,,,,,,,,,,,,,,,,,
2537,,pt2_unique_rating,1395568,Park City,,52,,,4,,,,,,,,,,,,,,,
null,,confidence_buffer,1395673,confidence_buffer,,null,,,,,,,,,,,,,,,,,,
2057,,pt2_memorable_rating,1397733,Park City,,50,,,2,,,,,,,,,,,,,,,
null,,confidence_buffer,1397838,confidence_buffer,,null,,,,,,,,,,,,,,,,,,
1484,,recognition_phase,1399324,Park City,,52,,,,,,new,0,0.5535714285714286,,,,,,,,,,
null,,confidence_buffer,1399430,confidence_buffer,,null,,,,,,,,,,,,,,,,,,
null,,thebreak,1399932,break,,null,,,,,,,,,,,,,,,,,,
1319,,realistic_rating,1401254,Montelake,,52,Montelake,Fictional,4,,,,,,,,,,,,,,,
null,,confidence_buffer,1401371,confidence_buffer,,null,,,,,,,,,,,,,,,,,,
2844,,pt2_unique_rating,1404216,Montelake,,53,,,5,,,,,,,,,,,,,,,
null,,confidence_buffer,1404318,confidence_buffer,,null,,,,,,,,,,,,,,,,,,
1999,,pt2_memorable_rating,1406319,Montelake,,52,,,4,,,,,,,,,,,,,,,
null,,confidence_buffer,1406425,confidence_buffer,,null,,,,,,,,,,,,,,,,,,
1734,,recognition_phase,1408161,Montelake,,51,,,,,,new,0,0.543859649122807,,,,,,,,,,
null,,confidence_buffer,1408273,confidence_buffer,,null,,,,,,,,,,,,,,,,,,
null,,thebreak,1408788,break,,null,,,,,,,,,,,,,,,,,,
1251,,realistic_rating,1410042,Sitka,,50,Sitka,US,2,,,,,,,,,,,,,,,
null,,confidence_buffer,1410157,confidence_buffer,,null,,,,,,,,,,,,,,,,,,
2612,,pt2_unique_rating,1412771,Sitka,,52,,,4,,,,,,,,,,,,,,,
null,,confidence_buffer,1412894,confidence_buffer,,null,,,,,,,,,,,,,,,,,,
1949,,pt2_memorable_rating,1414845,Sitka,,51,,,3,,,,,,,,,,,,,,,
null,,confidence_buffer,1414951,confidence_buffer,,null,,,,,,,,,,,,,,,,,,
1686,,recognition_phase,1416638,Sitka,,50,,,,,,old,1,0.5517241379310345,,,,,,,,,,
null,,confidence_buffer,1416742,confidence_buffer,,null,,,,,,,,,,,,,,,,,,
null,,thebreak,1417245,break,,null,,,,,,,,,,,,,,,,,,
1247,,realistic_rating,1418494,Gatlinburg,,50,Gatlinburg,US,2,,,,,,,,,,,,,,,
null,,confidence_buffer,1418599,confidence_buffer,,null,,,,,,,,,,,,,,,,,,
1982,,pt2_unique_rating,1420584,Gatlinburg,,51,,,3,,,,,,,,,,,,,,,
null,,confidence_buffer,1420693,confidence_buffer,,null,,,,,,,,,,,,,,,,,,
1658,,pt2_memorable_rating,1422353,Gatlinburg,,50,,,2,,,,,,,,,,,,,,,
null,,confidence_buffer,1422471,confidence_buffer,,null,,,,,,,,,,,,,,,,,,
1904,,recognition_phase,1424377,Gatlinburg,,52,,,,,,new,0,0.5423728813559322,,,,,,,,,,
null,,confidence_buffer,1424481,confidence_buffer,,null,,,,,,,,,,,,,,,,,,
null,,thebreak,1424986,break,,null,,,,,,,,,,,,,,,,,,
4120,,realistic_rating,1429106,Northbridge,,51,Northbridge,Fictional,3,,,,,,,,,,,,,,,
null,,confidence_buffer,1429214,confidence_buffer,,null,,,,,,,,,,,,,,,,,,
2124,,pt2_unique_rating,1431340,Northbridge,,50,,,2,,,,,,,,,,,,,,,
null,,confidence_buffer,1431443,confidence_buffer,,null,,,,,,,,,,,,,,,,,,
1504,,pt2_memorable_rating,1432948,Northbridge,,52,,,4,,,,,,,,,,,,,,,
null,,confidence_buffer,1433065,confidence_buffer,,null,,,,,,,,,,,,,,,,,,
2603,,recognition_phase,1435670,Northbridge,,51,,,,,,new,1,0.55,,,,,,,,,,
null,,confidence_buffer,1435778,confidence_buffer,,null,,,,,,,,,,,,,,,,,,
null,,thebreak,1436280,break,,null,,,,,,,,,,,,,,,,,,
,,survey,1512766,survey-questions,,,,,,,,,,,none,high,no, i only do the survey,read many times,i little bit,common,weird,many real,prolific,
