rt,responses,trial_type,time_elapsed,stimulus,button_pressed,key_press,name_trial,city_type,rating,probe,probe_accuracy,response,correct,accuracy,problems,smooth,distraction,strategies,familiar,memorable,unique,realistic,similar,comments
43884.200000047684,{worker_id:67dc8f06e924a5e7d1fd9228},id_enter,43887,,,,,,,,,,,,,,,,,,,,,
5771.700000047684,,fullscreen,49668,fullscreen,0,,,,,,,,,,,,,,,,,,,
2846.300000190735,,intro_0,52515,instruct,,32,,,,,,,,,,,,,,,,,,
381.09999990463257,,intro_1,52897,instruct,,32,,,,,,,,,,,,,,,,,,
1157.5,,intro_2,54055,instruct,,32,,,,,,,,,,,,,,,,,,
null,,instruct_dir_4,55568,instruct,,null,,,,,,,,,,,,,,,,,,
null,,thebreak,56070,break,,null,,,,,,,,,,,,,,,,,,
3709.2999999523163,,familiar_rating,59781,Brookmere,,51,Brookmere,Fictional,3,,,,,,,,,,,,,,,
null,,confidence_buffer,59889,confidence_buffer,,null,,,,,,,,,,,,,,,,,,
669.7999999523163,,unique_rating,60561,Brookmere,,52,,,4,,,,,,,,,,,,,,,
null,,confidence_buffer,60664,confidence_buffer,,null,,,,,,,,,,,,,,,,,,
843.7000000476837,,memorable_rating,61509,Brookmere,,53,,,5,,,,,,,,,,,,,,,
null,,confidence_buffer,61626,confidence_buffer,,null,,,,,,,,,,,,,,,,,,
1443.9000000953674,,probe_rating,63071,probe_rating,,53,,,,5,1,,,,,,,,,,,,,
null,,confidence_buffer,63173,confidence_buffer,,null,,,,,,,,,,,,,,,,,,
null,,thebreak,63675,break,,null,,,,,,,,,,,,,,,,,,
3990.2000000476837,,familiar_rating,67667,Hawthorne Bluffs,,51,Hawthorne Bluffs,Fictional,3,,,,,,,,,,,,,,,
null,,confidence_buffer,67769,confidence_buffer,,null,,,,,,,,,,,,,,,,,,
1184.2000000476837,,unique_rating,68955,Hawthorne Bluffs,,53,,,5,,,,,,,,,,,,,,,
null,,confidence_buffer,69057,confidence_buffer,,null,,,,,,,,,,,,,,,,,,
485.30000019073486,,memorable_rating,69544,Hawthorne Bluffs,,52,,,4,,,,,,,,,,,,,,,
null,,confidence_buffer,69645,confidence_buffer,,null,,,,,,,,,,,,,,,,,,
null,,thebreak,70147,break,,null,,,,,,,,,,,,,,,,,,
1978.2999999523163,,familiar_rating,72125,Fairhaven,,53,Fairhaven,Fictional,5,,,,,,,,,,,,,,,
null,,confidence_buffer,72227,confidence_buffer,,null,,,,,,,,,,,,,,,,,,
1066.5,,unique_rating,73295,Fairhaven,,52,,,4,,,,,,,,,,,,,,,
null,,confidence_buffer,73397,confidence_buffer,,null,,,,,,,,,,,,,,,,,,
803.4000000953674,,memorable_rating,74202,Fairhaven,,51,,,3,,,,,,,,,,,,,,,
null,,confidence_buffer,74308,confidence_buffer,,null,,,,,,,,,,,,,,,,,,
null,,thebreak,74810,break,,null,,,,,,,,,,,,,,,,,,
1621.5999999046326,,familiar_rating,76432,Delaware City,,52,Delaware City,US,4,,,,,,,,,,,,,,,
null,,confidence_buffer,76540,confidence_buffer,,null,,,,,,,,,,,,,,,,,,
930.2000000476837,,unique_rating,77472,Delaware City,,53,,,5,,,,,,,,,,,,,,,
null,,confidence_buffer,77574,confidence_buffer,,null,,,,,,,,,,,,,,,,,,
1074.8999998569489,,memorable_rating,78651,Delaware City,,51,,,3,,,,,,,,,,,,,,,
null,,confidence_buffer,78763,confidence_buffer,,null,,,,,,,,,,,,,,,,,,
null,,thebreak,79265,break,,null,,,,,,,,,,,,,,,,,,
3335.5,,familiar_rating,82601,Redgrove,,52,Redgrove,Fictional,4,,,,,,,,,,,,,,,
null,,confidence_buffer,82704,confidence_buffer,,null,,,,,,,,,,,,,,,,,,
1443.3999998569489,,probe_rating,84149,probe_rating,,53,,,,5,1,,,,,,,,,,,,,
null,,confidence_buffer,84250,confidence_buffer,,null,,,,,,,,,,,,,,,,,,
632.2999999523163,,unique_rating,84884,Redgrove,,51,,,3,,,,,,,,,,,,,,,
null,,confidence_buffer,84986,confidence_buffer,,null,,,,,,,,,,,,,,,,,,
933.2000000476837,,memorable_rating,85921,Redgrove,,52,,,4,,,,,,,,,,,,,,,
null,,confidence_buffer,86022,confidence_buffer,,null,,,,,,,,,,,,,,,,,,
null,,thebreak,86523,break,,null,,,,,,,,,,,,,,,,,,
1870.2999999523163,,familiar_rating,88395,Sitka,,52,Sitka,US,4,,,,,,,,,,,,,,,
null,,confidence_buffer,88497,confidence_buffer,,null,,,,,,,,,,,,,,,,,,
602.6000001430511,,unique_rating,89101,Sitka,,51,,,3,,,,,,,,,,,,,,,
null,,confidence_buffer,89202,confidence_buffer,,null,,,,,,,,,,,,,,,,,,
1483,,memorable_rating,90687,Sitka,,53,,,5,,,,,,,,,,,,,,,
null,,confidence_buffer,90789,confidence_buffer,,null,,,,,,,,,,,,,,,,,,
null,,thebreak,91290,break,,null,,,,,,,,,,,,,,,,,,
2218.5999999046326,,familiar_rating,93510,Ravenport,,50,Ravenport,Fictional,2,,,,,,,,,,,,,,,
null,,confidence_buffer,93613,confidence_buffer,,null,,,,,,,,,,,,,,,,,,
1868.6000001430511,,unique_rating,95483,Ravenport,,52,,,4,,,,,,,,,,,,,,,
null,,confidence_buffer,95585,confidence_buffer,,null,,,,,,,,,,,,,,,,,,
321.10000014305115,,memorable_rating,95908,Ravenport,,51,,,3,,,,,,,,,,,,,,,
null,,confidence_buffer,96009,confidence_buffer,,null,,,,,,,,,,,,,,,,,,
null,,thebreak,96511,break,,null,,,,,,,,,,,,,,,,,,
1151.7999999523163,,familiar_rating,97664,Solara Glen,,51,Solara Glen,Fictional,3,,,,,,,,,,,,,,,
null,,confidence_buffer,97766,confidence_buffer,,null,,,,,,,,,,,,,,,,,,
842.3999998569489,,unique_rating,98610,Solara Glen,,52,,,4,,,,,,,,,,,,,,,
null,,confidence_buffer,98712,confidence_buffer,,null,,,,,,,,,,,,,,,,,,
1090.7000000476837,,memorable_rating,99803,Solara Glen,,50,,,2,,,,,,,,,,,,,,,
null,,confidence_buffer,99904,confidence_buffer,,null,,,,,,,,,,,,,,,,,,
null,,thebreak,100405,break,,null,,,,,,,,,,,,,,,,,,
911.6000001430511,,familiar_rating,101318,Maravilla Springs,,51,Maravilla Springs,Fictional,3,,,,,,,,,,,,,,,
null,,confidence_buffer,101420,confidence_buffer,,null,,,,,,,,,,,,,,,,,,
975.8999998569489,,unique_rating,102397,Maravilla Springs,,52,,,4,,,,,,,,,,,,,,,
null,,confidence_buffer,102499,confidence_buffer,,null,,,,,,,,,,,,,,,,,,
1150,,memorable_rating,103651,Maravilla Springs,,52,,,4,,,,,,,,,,,,,,,
null,,confidence_buffer,103752,confidence_buffer,,null,,,,,,,,,,,,,,,,,,
null,,thebreak,104254,break,,null,,,,,,,,,,,,,,,,,,
989,,familiar_rating,105245,Bar Harbor,,51,Bar Harbor,US,3,,,,,,,,,,,,,,,
null,,confidence_buffer,105346,confidence_buffer,,null,,,,,,,,,,,,,,,,,,
2297.2999999523163,,unique_rating,107645,Bar Harbor,,50,,,2,,,,,,,,,,,,,,,
null,,confidence_buffer,107747,confidence_buffer,,null,,,,,,,,,,,,,,,,,,
2574.7999999523163,,memorable_rating,110323,Bar Harbor,,53,,,5,,,,,,,,,,,,,,,
null,,confidence_buffer,110425,confidence_buffer,,null,,,,,,,,,,,,,,,,,,
null,,thebreak,110928,break,,null,,,,,,,,,,,,,,,,,,
7354.5,,familiar_rating,118283,Millstone,,52,Millstone,Fictional,4,,,,,,,,,,,,,,,
null,,confidence_buffer,118385,confidence_buffer,,null,,,,,,,,,,,,,,,,,,
697,,unique_rating,119084,Millstone,,51,,,3,,,,,,,,,,,,,,,
null,,confidence_buffer,119186,confidence_buffer,,null,,,,,,,,,,,,,,,,,,
1382.9000000953674,,memorable_rating,120570,Millstone,,50,,,2,,,,,,,,,,,,,,,
null,,confidence_buffer,120672,confidence_buffer,,null,,,,,,,,,,,,,,,,,,
null,,thebreak,121175,break,,null,,,,,,,,,,,,,,,,,,
6265.700000047684,,familiar_rating,127442,Folly Beach,,53,Folly Beach,US,5,,,,,,,,,,,,,,,
null,,confidence_buffer,127544,confidence_buffer,,null,,,,,,,,,,,,,,,,,,
652.6999998092651,,unique_rating,128199,Folly Beach,,52,,,4,,,,,,,,,,,,,,,
null,,confidence_buffer,128301,confidence_buffer,,null,,,,,,,,,,,,,,,,,,
1177,,probe_rating,129479,probe_rating,,50,,,,2,1,,,,,,,,,,,,,
null,,confidence_buffer,129581,confidence_buffer,,null,,,,,,,,,,,,,,,,,,
754.2999999523163,,memorable_rating,130337,Folly Beach,,51,,,3,,,,,,,,,,,,,,,
null,,confidence_buffer,130439,confidence_buffer,,null,,,,,,,,,,,,,,,,,,
null,,thebreak,130941,break,,null,,,,,,,,,,,,,,,,,,
1182.5,,familiar_rating,132124,Bayshore Haven,,52,Bayshore Haven,Fictional,4,,,,,,,,,,,,,,,
null,,confidence_buffer,132227,confidence_buffer,,null,,,,,,,,,,,,,,,,,,
952.8999998569489,,unique_rating,133181,Bayshore Haven,,53,,,5,,,,,,,,,,,,,,,
null,,confidence_buffer,133290,confidence_buffer,,null,,,,,,,,,,,,,,,,,,
896.5999999046326,,memorable_rating,134187,Bayshore Haven,,51,,,3,,,,,,,,,,,,,,,
null,,confidence_buffer,134289,confidence_buffer,,null,,,,,,,,,,,,,,,,,,
null,,thebreak,134790,break,,null,,,,,,,,,,,,,,,,,,
1906.7000000476837,,familiar_rating,136698,Granton Ridge,,52,Granton Ridge,Fictional,4,,,,,,,,,,,,,,,
null,,confidence_buffer,136800,confidence_buffer,,null,,,,,,,,,,,,,,,,,,
1715,,unique_rating,138517,Granton Ridge,,51,,,3,,,,,,,,,,,,,,,
null,,confidence_buffer,138619,confidence_buffer,,null,,,,,,,,,,,,,,,,,,
1272.2999999523163,,memorable_rating,139892,Granton Ridge,,50,,,2,,,,,,,,,,,,,,,
null,,confidence_buffer,139994,confidence_buffer,,null,,,,,,,,,,,,,,,,,,
null,,thebreak,140495,break,,null,,,,,,,,,,,,,,,,,,
1889.4000000953674,,familiar_rating,142386,Falconridge,,51,Falconridge,Fictional,3,,,,,,,,,,,,,,,
null,,confidence_buffer,142488,confidence_buffer,,null,,,,,,,,,,,,,,,,,,
1145.3999998569489,,probe_rating,143635,probe_rating,,52,,,,4,1,,,,,,,,,,,,,
null,,confidence_buffer,143738,confidence_buffer,,null,,,,,,,,,,,,,,,,,,
611,,unique_rating,144350,Falconridge,,53,,,5,,,,,,,,,,,,,,,
null,,confidence_buffer,144453,confidence_buffer,,null,,,,,,,,,,,,,,,,,,
1060.4000000953674,,memorable_rating,145514,Falconridge,,52,,,4,,,,,,,,,,,,,,,
null,,confidence_buffer,145616,confidence_buffer,,null,,,,,,,,,,,,,,,,,,
null,,thebreak,146118,break,,null,,,,,,,,,,,,,,,,,,
1411,,familiar_rating,147530,Yukon,,53,Yukon,US,5,,,,,,,,,,,,,,,
null,,confidence_buffer,147632,confidence_buffer,,null,,,,,,,,,,,,,,,,,,
475.7000000476837,,unique_rating,148109,Yukon,,52,,,4,,,,,,,,,,,,,,,
null,,confidence_buffer,148211,confidence_buffer,,null,,,,,,,,,,,,,,,,,,
804.4000000953674,,memorable_rating,149017,Yukon,,51,,,3,,,,,,,,,,,,,,,
null,,confidence_buffer,149118,confidence_buffer,,null,,,,,,,,,,,,,,,,,,
null,,thebreak,149621,break,,null,,,,,,,,,,,,,,,,,,
1879.6000001430511,,familiar_rating,151502,Athens,,52,Athens,US,4,,,,,,,,,,,,,,,
null,,confidence_buffer,151605,confidence_buffer,,null,,,,,,,,,,,,,,,,,,
1053.3000001907349,,unique_rating,152659,Athens,,53,,,5,,,,,,,,,,,,,,,
null,,confidence_buffer,152762,confidence_buffer,,null,,,,,,,,,,,,,,,,,,
1033.7999999523163,,memorable_rating,153797,Athens,,53,,,5,,,,,,,,,,,,,,,
null,,confidence_buffer,153898,confidence_buffer,,null,,,,,,,,,,,,,,,,,,
null,,thebreak,154400,break,,null,,,,,,,,,,,,,,,,,,
756.3000001907349,,familiar_rating,155158,Clearbrook,,52,Clearbrook,Fictional,4,,,,,,,,,,,,,,,
null,,confidence_buffer,155260,confidence_buffer,,null,,,,,,,,,,,,,,,,,,
877.8999998569489,,unique_rating,156139,Clearbrook,,51,,,3,,,,,,,,,,,,,,,
null,,confidence_buffer,156241,confidence_buffer,,null,,,,,,,,,,,,,,,,,,
1272.7999999523163,,memorable_rating,157516,Clearbrook,,50,,,2,,,,,,,,,,,,,,,
null,,confidence_buffer,157618,confidence_buffer,,null,,,,,,,,,,,,,,,,,,
965.2000000476837,,probe_rating,158584,probe_rating,,49,,,,1,1,,,,,,,,,,,,,
null,,confidence_buffer,158685,confidence_buffer,,null,,,,,,,,,,,,,,,,,,
null,,thebreak,159187,break,,null,,,,,,,,,,,,,,,,,,
781.5,,familiar_rating,159969,San Antonio,,52,San Antonio,US,4,,,,,,,,,,,,,,,
null,,confidence_buffer,160072,confidence_buffer,,null,,,,,,,,,,,,,,,,,,
766.9000000953674,,unique_rating,160840,San Antonio,,51,,,3,,,,,,,,,,,,,,,
null,,confidence_buffer,160941,confidence_buffer,,null,,,,,,,,,,,,,,,,,,
910.7999999523163,,memorable_rating,161854,San Antonio,,53,,,5,,,,,,,,,,,,,,,
null,,confidence_buffer,161956,confidence_buffer,,null,,,,,,,,,,,,,,,,,,
null,,thebreak,162457,break,,null,,,,,,,,,,,,,,,,,,
1484.5,,familiar_rating,163943,New Verdan,,52,New Verdan,Fictional,4,,,,,,,,,,,,,,,
null,,confidence_buffer,164045,confidence_buffer,,null,,,,,,,,,,,,,,,,,,
1015.0999999046326,,unique_rating,165062,New Verdan,,51,,,3,,,,,,,,,,,,,,,
null,,confidence_buffer,165164,confidence_buffer,,null,,,,,,,,,,,,,,,,,,
550.2999999523163,,memorable_rating,165715,New Verdan,,50,,,2,,,,,,,,,,,,,,,
null,,confidence_buffer,165818,confidence_buffer,,null,,,,,,,,,,,,,,,,,,
null,,thebreak,166319,break,,null,,,,,,,,,,,,,,,,,,
1142.2000000476837,,familiar_rating,167462,Hanover,,52,Hanover,US,4,,,,,,,,,,,,,,,
null,,confidence_buffer,167564,confidence_buffer,,null,,,,,,,,,,,,,,,,,,
586.5,,unique_rating,168152,Hanover,,53,,,5,,,,,,,,,,,,,,,
null,,confidence_buffer,168255,confidence_buffer,,null,,,,,,,,,,,,,,,,,,
1068.7999999523163,,probe_rating,169326,probe_rating,,49,,,,1,1,,,,,,,,,,,,,
null,,confidence_buffer,169428,confidence_buffer,,null,,,,,,,,,,,,,,,,,,
740.0999999046326,,memorable_rating,170170,Hanover,,51,,,3,,,,,,,,,,,,,,,
null,,confidence_buffer,170272,confidence_buffer,,null,,,,,,,,,,,,,,,,,,
null,,thebreak,170773,break,,null,,,,,,,,,,,,,,,,,,
1129,,familiar_rating,171903,Cape May,,52,Cape May,US,4,,,,,,,,,,,,,,,
null,,confidence_buffer,172005,confidence_buffer,,null,,,,,,,,,,,,,,,,,,
457.89999985694885,,unique_rating,172464,Cape May,,53,,,5,,,,,,,,,,,,,,,
null,,confidence_buffer,172566,confidence_buffer,,null,,,,,,,,,,,,,,,,,,
875.1999998092651,,memorable_rating,173442,Cape May,,53,,,5,,,,,,,,,,,,,,,
null,,confidence_buffer,173553,confidence_buffer,,null,,,,,,,,,,,,,,,,,,
1169.5,,probe_rating,174724,probe_rating,,49,,,,1,1,,,,,,,,,,,,,
null,,confidence_buffer,174826,confidence_buffer,,null,,,,,,,,,,,,,,,,,,
null,,thebreak,175327,break,,null,,,,,,,,,,,,,,,,,,
867,,familiar_rating,176195,Driftwood Bay,,51,Driftwood Bay,Fictional,3,,,,,,,,,,,,,,,
null,,confidence_buffer,176298,confidence_buffer,,null,,,,,,,,,,,,,,,,,,
458.2000000476837,,unique_rating,176758,Driftwood Bay,,52,,,4,,,,,,,,,,,,,,,
null,,confidence_buffer,176860,confidence_buffer,,null,,,,,,,,,,,,,,,,,,
1042.8999998569489,,memorable_rating,177905,Driftwood Bay,,50,,,2,,,,,,,,,,,,,,,
null,,confidence_buffer,178006,confidence_buffer,,null,,,,,,,,,,,,,,,,,,
null,,thebreak,178508,break,,null,,,,,,,,,,,,,,,,,,
2691,,familiar_rating,181200,Gloucester,,49,Gloucester,US,1,,,,,,,,,,,,,,,
null,,confidence_buffer,181302,confidence_buffer,,null,,,,,,,,,,,,,,,,,,
747,,unique_rating,182051,Gloucester,,52,,,4,,,,,,,,,,,,,,,
null,,confidence_buffer,182152,confidence_buffer,,null,,,,,,,,,,,,,,,,,,
1213.7000000476837,,probe_rating,183367,probe_rating,,51,,,,3,1,,,,,,,,,,,,,
null,,confidence_buffer,183469,confidence_buffer,,null,,,,,,,,,,,,,,,,,,
661.2000000476837,,memorable_rating,184131,Gloucester,,53,,,5,,,,,,,,,,,,,,,
null,,confidence_buffer,184232,confidence_buffer,,null,,,,,,,,,,,,,,,,,,
null,,thebreak,184734,break,,null,,,,,,,,,,,,,,,,,,
2575.2000000476837,,familiar_rating,187310,Assateague Island,,52,Assateague Island,US,4,,,,,,,,,,,,,,,
null,,confidence_buffer,187421,confidence_buffer,,null,,,,,,,,,,,,,,,,,,
685.8999998569489,,unique_rating,188108,Assateague Island,,51,,,3,,,,,,,,,,,,,,,
null,,confidence_buffer,188211,confidence_buffer,,null,,,,,,,,,,,,,,,,,,
1869.7999999523163,,memorable_rating,190082,Assateague Island,,50,,,2,,,,,,,,,,,,,,,
null,,confidence_buffer,190184,confidence_buffer,,null,,,,,,,,,,,,,,,,,,
null,,thebreak,190686,break,,null,,,,,,,,,,,,,,,,,,
1807.1000001430511,,familiar_rating,192494,Albuquerque,,51,Albuquerque,US,3,,,,,,,,,,,,,,,
null,,confidence_buffer,192597,confidence_buffer,,null,,,,,,,,,,,,,,,,,,
848.6000001430511,,unique_rating,193447,Albuquerque,,52,,,4,,,,,,,,,,,,,,,
null,,confidence_buffer,193549,confidence_buffer,,null,,,,,,,,,,,,,,,,,,
1198.1000001430511,,memorable_rating,194748,Albuquerque,,52,,,4,,,,,,,,,,,,,,,
null,,confidence_buffer,194849,confidence_buffer,,null,,,,,,,,,,,,,,,,,,
null,,thebreak,195350,break,,null,,,,,,,,,,,,,,,,,,
986.4000000953674,,familiar_rating,196337,Cornwall,,51,Cornwall,US,3,,,,,,,,,,,,,,,
null,,confidence_buffer,196439,confidence_buffer,,null,,,,,,,,,,,,,,,,,,
720.4000000953674,,unique_rating,197160,Cornwall,,53,,,5,,,,,,,,,,,,,,,
null,,confidence_buffer,197261,confidence_buffer,,null,,,,,,,,,,,,,,,,,,
899.5999999046326,,memorable_rating,198162,Cornwall,,52,,,4,,,,,,,,,,,,,,,
null,,confidence_buffer,198271,confidence_buffer,,null,,,,,,,,,,,,,,,,,,
null,,thebreak,198773,break,,null,,,,,,,,,,,,,,,,,,
1949.7999999523163,,familiar_rating,200724,Westridge,,51,Westridge,Fictional,3,,,,,,,,,,,,,,,
null,,confidence_buffer,200826,confidence_buffer,,null,,,,,,,,,,,,,,,,,,
1594.9000000953674,,unique_rating,202421,Westridge,,50,,,2,,,,,,,,,,,,,,,
null,,confidence_buffer,202523,confidence_buffer,,null,,,,,,,,,,,,,,,,,,
884.3999998569489,,memorable_rating,203408,Westridge,,52,,,4,,,,,,,,,,,,,,,
null,,confidence_buffer,203511,confidence_buffer,,null,,,,,,,,,,,,,,,,,,
null,,thebreak,204012,break,,null,,,,,,,,,,,,,,,,,,
1944.5,,familiar_rating,205958,Carmel,,51,Carmel,US,3,,,,,,,,,,,,,,,
null,,confidence_buffer,206060,confidence_buffer,,null,,,,,,,,,,,,,,,,,,
933.8999998569489,,unique_rating,206995,Carmel,,52,,,4,,,,,,,,,,,,,,,
null,,confidence_buffer,207097,confidence_buffer,,null,,,,,,,,,,,,,,,,,,
521.6999998092651,,memorable_rating,207620,Carmel,,53,,,5,,,,,,,,,,,,,,,
null,,confidence_buffer,207722,confidence_buffer,,null,,,,,,,,,,,,,,,,,,
null,,thebreak,208224,break,,null,,,,,,,,,,,,,,,,,,
988,,familiar_rating,209213,Huntsville,,52,Huntsville,US,4,,,,,,,,,,,,,,,
null,,confidence_buffer,209315,confidence_buffer,,null,,,,,,,,,,,,,,,,,,
578.5999999046326,,unique_rating,209895,Huntsville,,51,,,3,,,,,,,,,,,,,,,
null,,confidence_buffer,209996,confidence_buffer,,null,,,,,,,,,,,,,,,,,,
555.2000000476837,,memorable_rating,210553,Huntsville,,53,,,5,,,,,,,,,,,,,,,
null,,confidence_buffer,210655,confidence_buffer,,null,,,,,,,,,,,,,,,,,,
null,,thebreak,211156,break,,null,,,,,,,,,,,,,,,,,,
1864.6000001430511,,intro_0,213022,instruct,,32,,,,,,,,,,,,,,,,,,
552.9000000953674,,intro_1,213575,instruct,,32,,,,,,,,,,,,,,,,,,
1807.2000000476837,,intro_2,215384,instruct,,32,,,,,,,,,,,,,,,,,,
null,,instruct_dir_4,216885,instruct,,null,,,,,,,,,,,,,,,,,,
3884.199999809265,,realistic_rating,220770,Cleveland,,52,Cleveland,US,4,,,,,,,,,,,,,,,
null,,confidence_buffer,220875,confidence_buffer,,null,,,,,,,,,,,,,,,,,,
507.89999985694885,,pt2_unique_rating,221385,Cleveland,,53,,,5,,,,,,,,,,,,,,,
null,,confidence_buffer,221487,confidence_buffer,,null,,,,,,,,,,,,,,,,,,
1418.2999999523163,,probe_rating,222907,probe_rating,,53,,,,5,1,,,,,,,,,,,,,
null,,confidence_buffer,223009,confidence_buffer,,null,,,,,,,,,,,,,,,,,,
537,,pt2_memorable_rating,223547,Cleveland,,52,,,4,,,,,,,,,,,,,,,
null,,confidence_buffer,223649,confidence_buffer,,null,,,,,,,,,,,,,,,,,,
1101.3000001907349,,recognition_phase,224752,Cleveland,,49,,,,,,old,0,0,,,,,,,,,,
null,,confidence_buffer,224856,confidence_buffer,,null,,,,,,,,,,,,,,,,,,
null,,thebreak,225357,break,,null,,,,,,,,,,,,,,,,,,
1420.5,,realistic_rating,226779,Delaro Park,,51,Delaro Park,Fictional,3,,,,,,,,,,,,,,,
null,,confidence_buffer,226882,confidence_buffer,,null,,,,,,,,,,,,,,,,,,
698.4000000953674,,pt2_unique_rating,227582,Delaro Park,,52,,,4,,,,,,,,,,,,,,,
null,,confidence_buffer,227684,confidence_buffer,,null,,,,,,,,,,,,,,,,,,
747.5,,pt2_memorable_rating,228432,Delaro Park,,53,,,5,,,,,,,,,,,,,,,
null,,confidence_buffer,228535,confidence_buffer,,null,,,,,,,,,,,,,,,,,,
648.0999999046326,,recognition_phase,229183,Delaro Park,,52,,,,,,new,1,0.5,,,,,,,,,,
null,,confidence_buffer,229286,confidence_buffer,,null,,,,,,,,,,,,,,,,,,
null,,thebreak,229788,break,,null,,,,,,,,,,,,,,,,,,
2198.7000000476837,,realistic_rating,231988,Maravilla Springs,,52,Maravilla Springs,Fictional,4,,,,,,,,,,,,,,,
null,,confidence_buffer,232090,confidence_buffer,,null,,,,,,,,,,,,,,,,,,
1498.8000001907349,,pt2_unique_rating,233590,Maravilla Springs,,53,,,5,,,,,,,,,,,,,,,
null,,confidence_buffer,233697,confidence_buffer,,null,,,,,,,,,,,,,,,,,,
483.2999999523163,,pt2_memorable_rating,234181,Maravilla Springs,,51,,,3,,,,,,,,,,,,,,,
null,,confidence_buffer,234284,confidence_buffer,,null,,,,,,,,,,,,,,,,,,
2530.7000000476837,,recognition_phase,236816,Maravilla Springs,,51,,,,,,new,0,0.3333333333333333,,,,,,,,,,
null,,confidence_buffer,236918,confidence_buffer,,null,,,,,,,,,,,,,,,,,,
null,,thebreak,237420,break,,null,,,,,,,,,,,,,,,,,,
2074.5999999046326,,realistic_rating,239496,Sierra Hollow,,52,Sierra Hollow,Fictional,4,,,,,,,,,,,,,,,
null,,confidence_buffer,239598,confidence_buffer,,null,,,,,,,,,,,,,,,,,,
1334.9000000953674,,pt2_unique_rating,240934,Sierra Hollow,,53,,,5,,,,,,,,,,,,,,,
null,,confidence_buffer,241036,confidence_buffer,,null,,,,,,,,,,,,,,,,,,
396.7000000476837,,pt2_memorable_rating,241434,Sierra Hollow,,50,,,2,,,,,,,,,,,,,,,
null,,confidence_buffer,241536,confidence_buffer,,null,,,,,,,,,,,,,,,,,,
3895.2999999523163,,recognition_phase,245433,Sierra Hollow,,52,,,,,,new,1,0.5,,,,,,,,,,
null,,confidence_buffer,245535,confidence_buffer,,null,,,,,,,,,,,,,,,,,,
null,,thebreak,246038,break,,null,,,,,,,,,,,,,,,,,,
2409.199999809265,,realistic_rating,248448,Elmsbury,,51,Elmsbury,Fictional,3,,,,,,,,,,,,,,,
null,,confidence_buffer,248550,confidence_buffer,,null,,,,,,,,,,,,,,,,,,
354.7999999523163,,pt2_unique_rating,248906,Elmsbury,,52,,,4,,,,,,,,,,,,,,,
null,,confidence_buffer,249007,confidence_buffer,,null,,,,,,,,,,,,,,,,,,
1330.2999999523163,,probe_rating,250339,probe_rating,,49,,,,1,1,,,,,,,,,,,,,
null,,confidence_buffer,250442,confidence_buffer,,null,,,,,,,,,,,,,,,,,,
491.60000014305115,,pt2_memorable_rating,250935,Elmsbury,,50,,,2,,,,,,,,,,,,,,,
null,,confidence_buffer,251036,confidence_buffer,,null,,,,,,,,,,,,,,,,,,
2115.7999999523163,,recognition_phase,253153,Elmsbury,,51,,,,,,new,1,0.6,,,,,,,,,,
null,,confidence_buffer,253255,confidence_buffer,,null,,,,,,,,,,,,,,,,,,
null,,thebreak,253757,break,,null,,,,,,,,,,,,,,,,,,
1767.2999999523163,,realistic_rating,255526,Granton Ridge,,52,Granton Ridge,Fictional,4,,,,,,,,,,,,,,,
null,,confidence_buffer,255629,confidence_buffer,,null,,,,,,,,,,,,,,,,,,
415.40000009536743,,pt2_unique_rating,256045,Granton Ridge,,51,,,3,,,,,,,,,,,,,,,
null,,confidence_buffer,256147,confidence_buffer,,null,,,,,,,,,,,,,,,,,,
493.5,,pt2_memorable_rating,256642,Granton Ridge,,50,,,2,,,,,,,,,,,,,,,
null,,confidence_buffer,256744,confidence_buffer,,null,,,,,,,,,,,,,,,,,,
946.0999999046326,,recognition_phase,257691,Granton Ridge,,49,,,,,,old,1,0.6666666666666666,,,,,,,,,,
null,,confidence_buffer,257793,confidence_buffer,,null,,,,,,,,,,,,,,,,,,
null,,thebreak,258294,break,,null,,,,,,,,,,,,,,,,,,
968.2999999523163,,realistic_rating,259264,Park City,,51,Park City,US,3,,,,,,,,,,,,,,,
null,,confidence_buffer,259366,confidence_buffer,,null,,,,,,,,,,,,,,,,,,
715.9000000953674,,pt2_unique_rating,260084,Park City,,51,,,3,,,,,,,,,,,,,,,
null,,confidence_buffer,260185,confidence_buffer,,null,,,,,,,,,,,,,,,,,,
691.2000000476837,,pt2_memorable_rating,260878,Park City,,52,,,4,,,,,,,,,,,,,,,
null,,confidence_buffer,260979,confidence_buffer,,null,,,,,,,,,,,,,,,,,,
1579.6000001430511,,recognition_phase,262560,Park City,,52,,,,,,new,1,0.7142857142857143,,,,,,,,,,
null,,confidence_buffer,262674,confidence_buffer,,null,,,,,,,,,,,,,,,,,,
null,,thebreak,263176,break,,null,,,,,,,,,,,,,,,,,,
793.7000000476837,,realistic_rating,263971,Westridge,,51,Westridge,Fictional,3,,,,,,,,,,,,,,,
null,,confidence_buffer,264075,confidence_buffer,,null,,,,,,,,,,,,,,,,,,
930.5,,pt2_unique_rating,265006,Westridge,,52,,,4,,,,,,,,,,,,,,,
null,,confidence_buffer,265108,confidence_buffer,,null,,,,,,,,,,,,,,,,,,
429.59999990463257,,pt2_memorable_rating,265539,Westridge,,50,,,2,,,,,,,,,,,,,,,
null,,confidence_buffer,265642,confidence_buffer,,null,,,,,,,,,,,,,,,,,,
1383.8999998569489,,recognition_phase,267027,Westridge,,51,,,,,,new,0,0.625,,,,,,,,,,
null,,confidence_buffer,267129,confidence_buffer,,null,,,,,,,,,,,,,,,,,,
null,,thebreak,267638,break,,null,,,,,,,,,,,,,,,,,,
1321.1000001430511,,realistic_rating,268960,Delaware City,,51,Delaware City,US,3,,,,,,,,,,,,,,,
null,,confidence_buffer,269062,confidence_buffer,,null,,,,,,,,,,,,,,,,,,
1094.2999999523163,,pt2_unique_rating,270158,Delaware City,,52,,,4,,,,,,,,,,,,,,,
null,,confidence_buffer,270259,confidence_buffer,,null,,,,,,,,,,,,,,,,,,
499.10000014305115,,pt2_memorable_rating,270760,Delaware City,,50,,,2,,,,,,,,,,,,,,,
null,,confidence_buffer,270862,confidence_buffer,,null,,,,,,,,,,,,,,,,,,
2485.7000000476837,,recognition_phase,273348,Delaware City,,50,,,,,,old,1,0.6666666666666666,,,,,,,,,,
null,,confidence_buffer,273449,confidence_buffer,,null,,,,,,,,,,,,,,,,,,
null,,thebreak,273952,break,,null,,,,,,,,,,,,,,,,,,
645.0999999046326,,realistic_rating,274598,Solara Glen,,51,Solara Glen,Fictional,3,,,,,,,,,,,,,,,
null,,confidence_buffer,274701,confidence_buffer,,null,,,,,,,,,,,,,,,,,,
638.2000000476837,,pt2_unique_rating,275340,Solara Glen,,52,,,4,,,,,,,,,,,,,,,
null,,confidence_buffer,275453,confidence_buffer,,null,,,,,,,,,,,,,,,,,,
1179.9000000953674,,pt2_memorable_rating,276634,Solara Glen,,51,,,3,,,,,,,,,,,,,,,
null,,confidence_buffer,276735,confidence_buffer,,null,,,,,,,,,,,,,,,,,,
1032.7999999523163,,recognition_phase,277769,Solara Glen,,49,,,,,,old,1,0.7,,,,,,,,,,
null,,confidence_buffer,277872,confidence_buffer,,null,,,,,,,,,,,,,,,,,,
null,,thebreak,278373,break,,null,,,,,,,,,,,,,,,,,,
643.9000000953674,,realistic_rating,279019,West Talora,,51,West Talora,Fictional,3,,,,,,,,,,,,,,,
null,,confidence_buffer,279122,confidence_buffer,,null,,,,,,,,,,,,,,,,,,
792.5999999046326,,pt2_unique_rating,279916,West Talora,,52,,,4,,,,,,,,,,,,,,,
null,,confidence_buffer,280018,confidence_buffer,,null,,,,,,,,,,,,,,,,,,
528.7000000476837,,pt2_memorable_rating,280547,West Talora,,50,,,2,,,,,,,,,,,,,,,
null,,confidence_buffer,280649,confidence_buffer,,null,,,,,,,,,,,,,,,,,,
1997.0999999046326,,recognition_phase,282647,West Talora,,51,,,,,,new,1,0.7272727272727273,,,,,,,,,,
null,,confidence_buffer,282749,confidence_buffer,,null,,,,,,,,,,,,,,,,,,
null,,thebreak,283250,break,,null,,,,,,,,,,,,,,,,,,
2839.899999856949,,realistic_rating,286092,Cornwall,,53,Cornwall,US,5,,,,,,,,,,,,,,,
null,,confidence_buffer,286193,confidence_buffer,,null,,,,,,,,,,,,,,,,,,
710.5,,pt2_unique_rating,286904,Cornwall,,51,,,3,,,,,,,,,,,,,,,
null,,confidence_buffer,287006,confidence_buffer,,null,,,,,,,,,,,,,,,,,,
520.9000000953674,,pt2_memorable_rating,287528,Cornwall,,52,,,4,,,,,,,,,,,,,,,
null,,confidence_buffer,287629,confidence_buffer,,null,,,,,,,,,,,,,,,,,,
1596.2000000476837,,recognition_phase,289226,Cornwall,,49,,,,,,old,1,0.75,,,,,,,,,,
null,,confidence_buffer,289329,confidence_buffer,,null,,,,,,,,,,,,,,,,,,
null,,thebreak,289830,break,,null,,,,,,,,,,,,,,,,,,
1074.9000000953674,,realistic_rating,290906,Gardnerville,,51,Gardnerville,US,3,,,,,,,,,,,,,,,
null,,confidence_buffer,291009,confidence_buffer,,null,,,,,,,,,,,,,,,,,,
608.0999999046326,,pt2_unique_rating,291618,Gardnerville,,52,,,4,,,,,,,,,,,,,,,
null,,confidence_buffer,291720,confidence_buffer,,null,,,,,,,,,,,,,,,,,,
540,,pt2_memorable_rating,292261,Gardnerville,,50,,,2,,,,,,,,,,,,,,,
null,,confidence_buffer,292367,confidence_buffer,,null,,,,,,,,,,,,,,,,,,
1260.4000000953674,,recognition_phase,293629,Gardnerville,,51,,,,,,new,1,0.7692307692307693,,,,,,,,,,
null,,confidence_buffer,293731,confidence_buffer,,null,,,,,,,,,,,,,,,,,,
null,,thebreak,294233,break,,null,,,,,,,,,,,,,,,,,,
846.4000000953674,,realistic_rating,295080,Claywater,,51,Claywater,Fictional,3,,,,,,,,,,,,,,,
null,,confidence_buffer,295190,confidence_buffer,,null,,,,,,,,,,,,,,,,,,
694.2999999523163,,pt2_unique_rating,295886,Claywater,,52,,,4,,,,,,,,,,,,,,,
null,,confidence_buffer,295988,confidence_buffer,,null,,,,,,,,,,,,,,,,,,
1311.1000001430511,,probe_rating,297300,probe_rating,,53,,,,5,1,,,,,,,,,,,,,
null,,confidence_buffer,297410,confidence_buffer,,null,,,,,,,,,,,,,,,,,,
602.7000000476837,,pt2_memorable_rating,298014,Claywater,,50,,,2,,,,,,,,,,,,,,,
null,,confidence_buffer,298116,confidence_buffer,,null,,,,,,,,,,,,,,,,,,
1404.2000000476837,,recognition_phase,299522,Claywater,,51,,,,,,new,1,0.7857142857142857,,,,,,,,,,
null,,confidence_buffer,299627,confidence_buffer,,null,,,,,,,,,,,,,,,,,,
null,,thebreak,300130,break,,null,,,,,,,,,,,,,,,,,,
995,,realistic_rating,301126,Carmel,,52,Carmel,US,4,,,,,,,,,,,,,,,
null,,confidence_buffer,301228,confidence_buffer,,null,,,,,,,,,,,,,,,,,,
340,,pt2_unique_rating,301569,Carmel,,50,,,2,,,,,,,,,,,,,,,
null,,confidence_buffer,301671,confidence_buffer,,null,,,,,,,,,,,,,,,,,,
1097.6999998092651,,probe_rating,302770,probe_rating,,51,,,,3,1,,,,,,,,,,,,,
null,,confidence_buffer,302875,confidence_buffer,,null,,,,,,,,,,,,,,,,,,
1121.5999999046326,,pt2_memorable_rating,303998,Carmel,,50,,,2,,,,,,,,,,,,,,,
null,,confidence_buffer,304101,confidence_buffer,,null,,,,,,,,,,,,,,,,,,
1865.9000000953674,,recognition_phase,305968,Carmel,,49,,,,,,old,1,0.8,,,,,,,,,,
null,,confidence_buffer,306070,confidence_buffer,,null,,,,,,,,,,,,,,,,,,
null,,thebreak,306572,break,,null,,,,,,,,,,,,,,,,,,
2064,,realistic_rating,308638,Alliance,,51,Alliance,US,3,,,,,,,,,,,,,,,
null,,confidence_buffer,308740,confidence_buffer,,null,,,,,,,,,,,,,,,,,,
570.2000000476837,,pt2_unique_rating,309312,Alliance,,53,,,5,,,,,,,,,,,,,,,
null,,confidence_buffer,309414,confidence_buffer,,null,,,,,,,,,,,,,,,,,,
596.1999998092651,,pt2_memorable_rating,310011,Alliance,,52,,,4,,,,,,,,,,,,,,,
null,,confidence_buffer,310112,confidence_buffer,,null,,,,,,,,,,,,,,,,,,
1750.7999999523163,,recognition_phase,311864,Alliance,,51,,,,,,new,1,0.8125,,,,,,,,,,
null,,confidence_buffer,311966,confidence_buffer,,null,,,,,,,,,,,,,,,,,,
null,,thebreak,312468,break,,null,,,,,,,,,,,,,,,,,,
836.7000000476837,,realistic_rating,313306,Duck,,52,Duck,US,4,,,,,,,,,,,,,,,
null,,confidence_buffer,313407,confidence_buffer,,null,,,,,,,,,,,,,,,,,,
651.1000001430511,,pt2_unique_rating,314060,Duck,,51,,,3,,,,,,,,,,,,,,,
null,,confidence_buffer,314175,confidence_buffer,,null,,,,,,,,,,,,,,,,,,
856.8000001907349,,pt2_memorable_rating,315033,Duck,,50,,,2,,,,,,,,,,,,,,,
null,,confidence_buffer,315135,confidence_buffer,,null,,,,,,,,,,,,,,,,,,
1285.8000001907349,,recognition_phase,316422,Duck,,52,,,,,,new,1,0.8235294117647058,,,,,,,,,,
null,,confidence_buffer,316525,confidence_buffer,,null,,,,,,,,,,,,,,,,,,
null,,thebreak,317027,break,,null,,,,,,,,,,,,,,,,,,
1178.7000000476837,,realistic_rating,318207,New Hope,,52,New Hope,US,4,,,,,,,,,,,,,,,
null,,confidence_buffer,318309,confidence_buffer,,null,,,,,,,,,,,,,,,,,,
737.6000001430511,,pt2_unique_rating,319048,New Hope,,53,,,5,,,,,,,,,,,,,,,
null,,confidence_buffer,319150,confidence_buffer,,null,,,,,,,,,,,,,,,,,,
344.7999999523163,,pt2_memorable_rating,319495,New Hope,,51,,,3,,,,,,,,,,,,,,,
null,,confidence_buffer,319597,confidence_buffer,,null,,,,,,,,,,,,,,,,,,
1493.9000000953674,,recognition_phase,321092,New Hope,,52,,,,,,new,1,0.8333333333333334,,,,,,,,,,
null,,confidence_buffer,321194,confidence_buffer,,null,,,,,,,,,,,,,,,,,,
null,,thebreak,321696,break,,null,,,,,,,,,,,,,,,,,,
1647.0999999046326,,realistic_rating,323345,Folly Beach,,53,Folly Beach,US,5,,,,,,,,,,,,,,,
null,,confidence_buffer,323447,confidence_buffer,,null,,,,,,,,,,,,,,,,,,
423.7000000476837,,pt2_unique_rating,323872,Folly Beach,,51,,,3,,,,,,,,,,,,,,,
null,,confidence_buffer,323974,confidence_buffer,,null,,,,,,,,,,,,,,,,,,
462.89999985694885,,pt2_memorable_rating,324439,Folly Beach,,52,,,4,,,,,,,,,,,,,,,
null,,confidence_buffer,324556,confidence_buffer,,null,,,,,,,,,,,,,,,,,,
1094.7000000476837,,probe_rating,325651,probe_rating,,50,,,,2,1,,,,,,,,,,,,,
null,,confidence_buffer,325754,confidence_buffer,,null,,,,,,,,,,,,,,,,,,
1065.0999999046326,,recognition_phase,326820,Folly Beach,,49,,,,,,old,1,0.8421052631578947,,,,,,,,,,
null,,confidence_buffer,326923,confidence_buffer,,null,,,,,,,,,,,,,,,,,,
null,,thebreak,327425,break,,null,,,,,,,,,,,,,,,,,,
811.6000001430511,,realistic_rating,328238,Gloucester,,51,Gloucester,US,3,,,,,,,,,,,,,,,
null,,confidence_buffer,328340,confidence_buffer,,null,,,,,,,,,,,,,,,,,,
611,,pt2_unique_rating,328952,Gloucester,,52,,,4,,,,,,,,,,,,,,,
null,,confidence_buffer,329065,confidence_buffer,,null,,,,,,,,,,,,,,,,,,
753,,pt2_memorable_rating,329820,Gloucester,,53,,,5,,,,,,,,,,,,,,,
null,,confidence_buffer,329922,confidence_buffer,,null,,,,,,,,,,,,,,,,,,
1114.8999998569489,,recognition_phase,331038,Gloucester,,49,,,,,,old,1,0.85,,,,,,,,,,
null,,confidence_buffer,331139,confidence_buffer,,null,,,,,,,,,,,,,,,,,,
null,,thebreak,331641,break,,null,,,,,,,,,,,,,,,,,,
509,,realistic_rating,332151,Sammamish,,51,Sammamish,US,3,,,,,,,,,,,,,,,
null,,confidence_buffer,332254,confidence_buffer,,null,,,,,,,,,,,,,,,,,,
736.1000001430511,,pt2_unique_rating,332991,Sammamish,,53,,,5,,,,,,,,,,,,,,,
null,,confidence_buffer,333093,confidence_buffer,,null,,,,,,,,,,,,,,,,,,
1422.7000000476837,,pt2_memorable_rating,334516,Sammamish,,50,,,2,,,,,,,,,,,,,,,
null,,confidence_buffer,334617,confidence_buffer,,null,,,,,,,,,,,,,,,,,,
1474.0999999046326,,recognition_phase,336092,Sammamish,,52,,,,,,new,1,0.8571428571428571,,,,,,,,,,
null,,confidence_buffer,336194,confidence_buffer,,null,,,,,,,,,,,,,,,,,,
null,,thebreak,336695,break,,null,,,,,,,,,,,,,,,,,,
2716.199999809265,,realistic_rating,339413,Fairhaven,,53,Fairhaven,Fictional,5,,,,,,,,,,,,,,,
null,,confidence_buffer,339515,confidence_buffer,,null,,,,,,,,,,,,,,,,,,
785.5,,pt2_unique_rating,340301,Fairhaven,,52,,,4,,,,,,,,,,,,,,,
null,,confidence_buffer,340403,confidence_buffer,,null,,,,,,,,,,,,,,,,,,
969.6999998092651,,probe_rating,341374,probe_rating,,49,,,,1,1,,,,,,,,,,,,,
null,,confidence_buffer,341476,confidence_buffer,,null,,,,,,,,,,,,,,,,,,
639.7999999523163,,pt2_memorable_rating,342117,Fairhaven,,51,,,3,,,,,,,,,,,,,,,
null,,confidence_buffer,342219,confidence_buffer,,null,,,,,,,,,,,,,,,,,,
1460.8999998569489,,recognition_phase,343681,Fairhaven,,50,,,,,,old,1,0.8636363636363636,,,,,,,,,,
null,,confidence_buffer,343784,confidence_buffer,,null,,,,,,,,,,,,,,,,,,
null,,thebreak,344285,break,,null,,,,,,,,,,,,,,,,,,
770.7000000476837,,realistic_rating,345057,Sisters,,52,Sisters,US,4,,,,,,,,,,,,,,,
null,,confidence_buffer,345159,confidence_buffer,,null,,,,,,,,,,,,,,,,,,
604.2999999523163,,pt2_unique_rating,345765,Sisters,,53,,,5,,,,,,,,,,,,,,,
null,,confidence_buffer,345867,confidence_buffer,,null,,,,,,,,,,,,,,,,,,
1454.9000000953674,,pt2_memorable_rating,347323,Sisters,,50,,,2,,,,,,,,,,,,,,,
null,,confidence_buffer,347426,confidence_buffer,,null,,,,,,,,,,,,,,,,,,
2058.4000000953674,,recognition_phase,349486,Sisters,,51,,,,,,new,1,0.8695652173913043,,,,,,,,,,
null,,confidence_buffer,349588,confidence_buffer,,null,,,,,,,,,,,,,,,,,,
null,,thebreak,350089,break,,null,,,,,,,,,,,,,,,,,,
2266.5999999046326,,realistic_rating,352357,Okoboji,,50,Okoboji,US,2,,,,,,,,,,,,,,,
null,,confidence_buffer,352459,confidence_buffer,,null,,,,,,,,,,,,,,,,,,
865.2999999523163,,pt2_unique_rating,353326,Okoboji,,51,,,3,,,,,,,,,,,,,,,
null,,confidence_buffer,353427,confidence_buffer,,null,,,,,,,,,,,,,,,,,,
869.2999999523163,,pt2_memorable_rating,354298,Okoboji,,50,,,2,,,,,,,,,,,,,,,
null,,confidence_buffer,354401,confidence_buffer,,null,,,,,,,,,,,,,,,,,,
1721.8999998569489,,probe_rating,356125,probe_rating,,53,,,,5,1,,,,,,,,,,,,,
null,,confidence_buffer,356227,confidence_buffer,,null,,,,,,,,,,,,,,,,,,
2580.4000000953674,,recognition_phase,358809,Okoboji,,52,,,,,,new,1,0.875,,,,,,,,,,
null,,confidence_buffer,358911,confidence_buffer,,null,,,,,,,,,,,,,,,,,,
null,,thebreak,359413,break,,null,,,,,,,,,,,,,,,,,,
1645.9000000953674,,realistic_rating,361060,Gatlinburg,,51,Gatlinburg,US,3,,,,,,,,,,,,,,,
null,,confidence_buffer,361162,confidence_buffer,,null,,,,,,,,,,,,,,,,,,
474.90000009536743,,pt2_unique_rating,361637,Gatlinburg,,50,,,2,,,,,,,,,,,,,,,
null,,confidence_buffer,361738,confidence_buffer,,null,,,,,,,,,,,,,,,,,,
1325.2000000476837,,probe_rating,363065,probe_rating,,50,,,,2,1,,,,,,,,,,,,,
null,,confidence_buffer,363167,confidence_buffer,,null,,,,,,,,,,,,,,,,,,
389.5,,pt2_memorable_rating,363558,Gatlinburg,,51,,,3,,,,,,,,,,,,,,,
null,,confidence_buffer,363660,confidence_buffer,,null,,,,,,,,,,,,,,,,,,
1977.5,,recognition_phase,365639,Gatlinburg,,52,,,,,,new,1,0.88,,,,,,,,,,
null,,confidence_buffer,365741,confidence_buffer,,null,,,,,,,,,,,,,,,,,,
null,,thebreak,366244,break,,null,,,,,,,,,,,,,,,,,,
964.5999999046326,,realistic_rating,367209,Sitka,,51,Sitka,US,3,,,,,,,,,,,,,,,
null,,confidence_buffer,367314,confidence_buffer,,null,,,,,,,,,,,,,,,,,,
581.0999999046326,,pt2_unique_rating,367897,Sitka,,50,,,2,,,,,,,,,,,,,,,
null,,confidence_buffer,367999,confidence_buffer,,null,,,,,,,,,,,,,,,,,,
575.5,,pt2_memorable_rating,368576,Sitka,,53,,,5,,,,,,,,,,,,,,,
null,,confidence_buffer,368678,confidence_buffer,,null,,,,,,,,,,,,,,,,,,
1068.0999999046326,,recognition_phase,369747,Sitka,,49,,,,,,old,1,0.8846153846153846,,,,,,,,,,
null,,confidence_buffer,369850,confidence_buffer,,null,,,,,,,,,,,,,,,,,,
null,,thebreak,370352,break,,null,,,,,,,,,,,,,,,,,,
984.7000000476837,,realistic_rating,371338,Hawthorne Bluffs,,51,Hawthorne Bluffs,Fictional,3,,,,,,,,,,,,,,,
null,,confidence_buffer,371440,confidence_buffer,,null,,,,,,,,,,,,,,,,,,
1009.1000001430511,,pt2_unique_rating,372450,Hawthorne Bluffs,,52,,,4,,,,,,,,,,,,,,,
null,,confidence_buffer,372553,confidence_buffer,,null,,,,,,,,,,,,,,,,,,
985.7000000476837,,pt2_memorable_rating,373540,Hawthorne Bluffs,,50,,,2,,,,,,,,,,,,,,,
null,,confidence_buffer,373642,confidence_buffer,,null,,,,,,,,,,,,,,,,,,
1039.2999999523163,,recognition_phase,374682,Hawthorne Bluffs,,49,,,,,,old,1,0.8888888888888888,,,,,,,,,,
null,,confidence_buffer,374785,confidence_buffer,,null,,,,,,,,,,,,,,,,,,
null,,thebreak,375287,break,,null,,,,,,,,,,,,,,,,,,
773.1999998092651,,realistic_rating,376061,Clearbrook,,52,Clearbrook,Fictional,4,,,,,,,,,,,,,,,
null,,confidence_buffer,376164,confidence_buffer,,null,,,,,,,,,,,,,,,,,,
466.09999990463257,,pt2_unique_rating,376631,Clearbrook,,51,,,3,,,,,,,,,,,,,,,
null,,confidence_buffer,376734,confidence_buffer,,null,,,,,,,,,,,,,,,,,,
1394.5999999046326,,pt2_memorable_rating,378129,Clearbrook,,50,,,2,,,,,,,,,,,,,,,
null,,confidence_buffer,378230,confidence_buffer,,null,,,,,,,,,,,,,,,,,,
1125.7999999523163,,recognition_phase,379357,Clearbrook,,51,,,,,,new,0,0.8571428571428571,,,,,,,,,,
null,,confidence_buffer,379460,confidence_buffer,,null,,,,,,,,,,,,,,,,,,
null,,thebreak,379962,break,,null,,,,,,,,,,,,,,,,,,
934.7000000476837,,realistic_rating,380898,Rosehollow,,51,Rosehollow,Fictional,3,,,,,,,,,,,,,,,
null,,confidence_buffer,381000,confidence_buffer,,null,,,,,,,,,,,,,,,,,,
583.9000000953674,,pt2_unique_rating,381585,Rosehollow,,52,,,4,,,,,,,,,,,,,,,
null,,confidence_buffer,381687,confidence_buffer,,null,,,,,,,,,,,,,,,,,,
1100.2999999523163,,probe_rating,382789,probe_rating,,50,,,,2,1,,,,,,,,,,,,,
null,,confidence_buffer,382894,confidence_buffer,,null,,,,,,,,,,,,,,,,,,
2156.7000000476837,,pt2_memorable_rating,385052,Rosehollow,,51,,,3,,,,,,,,,,,,,,,
null,,confidence_buffer,385154,confidence_buffer,,null,,,,,,,,,,,,,,,,,,
1120.7000000476837,,recognition_phase,386276,Rosehollow,,51,,,,,,new,1,0.8620689655172413,,,,,,,,,,
null,,confidence_buffer,386379,confidence_buffer,,null,,,,,,,,,,,,,,,,,,
null,,thebreak,386881,break,,null,,,,,,,,,,,,,,,,,,
756.0999999046326,,realistic_rating,387639,Redgrove,,50,Redgrove,Fictional,2,,,,,,,,,,,,,,,
null,,confidence_buffer,387741,confidence_buffer,,null,,,,,,,,,,,,,,,,,,
547.4000000953674,,pt2_unique_rating,388289,Redgrove,,52,,,4,,,,,,,,,,,,,,,
null,,confidence_buffer,388397,confidence_buffer,,null,,,,,,,,,,,,,,,,,,
412.69999980926514,,pt2_memorable_rating,388812,Redgrove,,51,,,3,,,,,,,,,,,,,,,
null,,confidence_buffer,388913,confidence_buffer,,null,,,,,,,,,,,,,,,,,,
1184.6999998092651,,recognition_phase,390099,Redgrove,,49,,,,,,old,1,0.8666666666666667,,,,,,,,,,
null,,confidence_buffer,390200,confidence_buffer,,null,,,,,,,,,,,,,,,,,,
null,,thebreak,390702,break,,null,,,,,,,,,,,,,,,,,,
631.7000000476837,,realistic_rating,391335,Silverpine,,51,Silverpine,Fictional,3,,,,,,,,,,,,,,,
null,,confidence_buffer,391437,confidence_buffer,,null,,,,,,,,,,,,,,,,,,
531.4000000953674,,pt2_unique_rating,391969,Silverpine,,52,,,4,,,,,,,,,,,,,,,
null,,confidence_buffer,392086,confidence_buffer,,null,,,,,,,,,,,,,,,,,,
815.9000000953674,,pt2_memorable_rating,392903,Silverpine,,50,,,2,,,,,,,,,,,,,,,
null,,confidence_buffer,393005,confidence_buffer,,null,,,,,,,,,,,,,,,,,,
1554.7999999523163,,recognition_phase,394561,Silverpine,,52,,,,,,new,1,0.8709677419354839,,,,,,,,,,
null,,confidence_buffer,394670,confidence_buffer,,null,,,,,,,,,,,,,,,,,,
null,,thebreak,395171,break,,null,,,,,,,,,,,,,,,,,,
2258.600000143051,,realistic_rating,397431,Millstone,,51,Millstone,Fictional,3,,,,,,,,,,,,,,,
null,,confidence_buffer,397532,confidence_buffer,,null,,,,,,,,,,,,,,,,,,
440.7000000476837,,pt2_unique_rating,397975,Millstone,,50,,,2,,,,,,,,,,,,,,,
null,,confidence_buffer,398077,confidence_buffer,,null,,,,,,,,,,,,,,,,,,
834.2999999523163,,pt2_memorable_rating,398913,Millstone,,52,,,4,,,,,,,,,,,,,,,
null,,confidence_buffer,399015,confidence_buffer,,null,,,,,,,,,,,,,,,,,,
1123.6999998092651,,recognition_phase,400139,Millstone,,49,,,,,,old,1,0.875,,,,,,,,,,
null,,confidence_buffer,400247,confidence_buffer,,null,,,,,,,,,,,,,,,,,,
null,,thebreak,400748,break,,null,,,,,,,,,,,,,,,,,,
630.9000000953674,,realistic_rating,401380,Peoria,,51,Peoria,US,3,,,,,,,,,,,,,,,
null,,confidence_buffer,401481,confidence_buffer,,null,,,,,,,,,,,,,,,,,,
720.8999998569489,,pt2_unique_rating,402204,Peoria,,50,,,2,,,,,,,,,,,,,,,
null,,confidence_buffer,402306,confidence_buffer,,null,,,,,,,,,,,,,,,,,,
384,,pt2_memorable_rating,402692,Peoria,,52,,,4,,,,,,,,,,,,,,,
null,,confidence_buffer,402794,confidence_buffer,,null,,,,,,,,,,,,,,,,,,
2255.9000000953674,,recognition_phase,405051,Peoria,,52,,,,,,new,1,0.8787878787878788,,,,,,,,,,
null,,confidence_buffer,405152,confidence_buffer,,null,,,,,,,,,,,,,,,,,,
null,,thebreak,405655,break,,null,,,,,,,,,,,,,,,,,,
902.2000000476837,,realistic_rating,406558,Falconridge,,51,Falconridge,Fictional,3,,,,,,,,,,,,,,,
null,,confidence_buffer,406660,confidence_buffer,,null,,,,,,,,,,,,,,,,,,
606.2999999523163,,pt2_unique_rating,407268,Falconridge,,52,,,4,,,,,,,,,,,,,,,
null,,confidence_buffer,407369,confidence_buffer,,null,,,,,,,,,,,,,,,,,,
422.2999999523163,,pt2_memorable_rating,407792,Falconridge,,50,,,2,,,,,,,,,,,,,,,
null,,confidence_buffer,407893,confidence_buffer,,null,,,,,,,,,,,,,,,,,,
1269,,recognition_phase,409163,Falconridge,,49,,,,,,old,1,0.8823529411764706,,,,,,,,,,
null,,confidence_buffer,409265,confidence_buffer,,null,,,,,,,,,,,,,,,,,,
null,,thebreak,409766,break,,null,,,,,,,,,,,,,,,,,,
641.4000000953674,,realistic_rating,410409,Oakridge,,50,Oakridge,Fictional,2,,,,,,,,,,,,,,,
null,,confidence_buffer,410525,confidence_buffer,,null,,,,,,,,,,,,,,,,,,
1098.1000001430511,,pt2_unique_rating,411625,Oakridge,,52,,,4,,,,,,,,,,,,,,,
null,,confidence_buffer,411727,confidence_buffer,,null,,,,,,,,,,,,,,,,,,
633.7000000476837,,pt2_memorable_rating,412362,Oakridge,,51,,,3,,,,,,,,,,,,,,,
null,,confidence_buffer,412464,confidence_buffer,,null,,,,,,,,,,,,,,,,,,
1709.7000000476837,,recognition_phase,414175,Oakridge,,52,,,,,,new,1,0.8857142857142857,,,,,,,,,,
null,,confidence_buffer,414277,confidence_buffer,,null,,,,,,,,,,,,,,,,,,
null,,thebreak,414790,break,,null,,,,,,,,,,,,,,,,,,
1169.4000000953674,,realistic_rating,415961,Brookmere,,51,Brookmere,Fictional,3,,,,,,,,,,,,,,,
null,,confidence_buffer,416062,confidence_buffer,,null,,,,,,,,,,,,,,,,,,
510.2999999523163,,pt2_unique_rating,416574,Brookmere,,52,,,4,,,,,,,,,,,,,,,
null,,confidence_buffer,416676,confidence_buffer,,null,,,,,,,,,,,,,,,,,,
850,,pt2_memorable_rating,417527,Brookmere,,51,,,3,,,,,,,,,,,,,,,
null,,confidence_buffer,417629,confidence_buffer,,null,,,,,,,,,,,,,,,,,,
1585.3999998569489,,recognition_phase,419216,Brookmere,,50,,,,,,old,1,0.8888888888888888,,,,,,,,,,
null,,confidence_buffer,419318,confidence_buffer,,null,,,,,,,,,,,,,,,,,,
null,,thebreak,419819,break,,null,,,,,,,,,,,,,,,,,,
1414.4000000953674,,realistic_rating,421234,Berkeley Springs,,51,Berkeley Springs,US,3,,,,,,,,,,,,,,,
null,,confidence_buffer,421336,confidence_buffer,,null,,,,,,,,,,,,,,,,,,
665.7000000476837,,pt2_unique_rating,422002,Berkeley Springs,,52,,,4,,,,,,,,,,,,,,,
null,,confidence_buffer,422104,confidence_buffer,,null,,,,,,,,,,,,,,,,,,
430.7000000476837,,pt2_memorable_rating,422535,Berkeley Springs,,50,,,2,,,,,,,,,,,,,,,
null,,confidence_buffer,422637,confidence_buffer,,null,,,,,,,,,,,,,,,,,,
1764.9000000953674,,probe_rating,424404,probe_rating,,53,,,,5,1,,,,,,,,,,,,,
null,,confidence_buffer,424506,confidence_buffer,,null,,,,,,,,,,,,,,,,,,
1277.2000000476837,,recognition_phase,425784,Berkeley Springs,,51,,,,,,new,1,0.8918918918918919,,,,,,,,,,
null,,confidence_buffer,425885,confidence_buffer,,null,,,,,,,,,,,,,,,,,,
null,,thebreak,426386,break,,null,,,,,,,,,,,,,,,,,,
1430,,realistic_rating,427817,Assateague Island,,52,Assateague Island,US,4,,,,,,,,,,,,,,,
null,,confidence_buffer,427919,confidence_buffer,,null,,,,,,,,,,,,,,,,,,
1306.2999999523163,,probe_rating,429227,probe_rating,,53,,,,5,1,,,,,,,,,,,,,
null,,confidence_buffer,429329,confidence_buffer,,null,,,,,,,,,,,,,,,,,,
642.8999998569489,,pt2_unique_rating,429974,Assateague Island,,52,,,4,,,,,,,,,,,,,,,
null,,confidence_buffer,430075,confidence_buffer,,null,,,,,,,,,,,,,,,,,,
1842.1999998092651,,pt2_memorable_rating,431919,Assateague Island,,52,,,4,,,,,,,,,,,,,,,
null,,confidence_buffer,432021,confidence_buffer,,null,,,,,,,,,,,,,,,,,,
1173.3000001907349,,recognition_phase,433196,Assateague Island,,49,,,,,,old,1,0.8947368421052632,,,,,,,,,,
null,,confidence_buffer,433298,confidence_buffer,,null,,,,,,,,,,,,,,,,,,
null,,thebreak,433800,break,,null,,,,,,,,,,,,,,,,,,
3648.2999999523163,,realistic_rating,437450,Bayshore Haven,,53,Bayshore Haven,Fictional,5,,,,,,,,,,,,,,,
null,,confidence_buffer,437551,confidence_buffer,,null,,,,,,,,,,,,,,,,,,
362.90000009536743,,pt2_unique_rating,437915,Bayshore Haven,,52,,,4,,,,,,,,,,,,,,,
null,,confidence_buffer,438017,confidence_buffer,,null,,,,,,,,,,,,,,,,,,
1232.7000000476837,,probe_rating,439251,probe_rating,,49,,,,1,1,,,,,,,,,,,,,
null,,confidence_buffer,439353,confidence_buffer,,null,,,,,,,,,,,,,,,,,,
565.7000000476837,,pt2_memorable_rating,439920,Bayshore Haven,,51,,,3,,,,,,,,,,,,,,,
null,,confidence_buffer,440022,confidence_buffer,,null,,,,,,,,,,,,,,,,,,
7252.299999952316,,recognition_phase,447276,Bayshore Haven,,49,,,,,,old,1,0.8974358974358975,,,,,,,,,,
null,,confidence_buffer,447378,confidence_buffer,,null,,,,,,,,,,,,,,,,,,
null,,thebreak,447879,break,,null,,,,,,,,,,,,,,,,,,
1061.1000001430511,,realistic_rating,448942,San Antonio,,50,San Antonio,US,2,,,,,,,,,,,,,,,
null,,confidence_buffer,449045,confidence_buffer,,null,,,,,,,,,,,,,,,,,,
473.7000000476837,,pt2_unique_rating,449519,San Antonio,,52,,,4,,,,,,,,,,,,,,,
null,,confidence_buffer,449620,confidence_buffer,,null,,,,,,,,,,,,,,,,,,
488.69999980926514,,pt2_memorable_rating,450110,San Antonio,,53,,,5,,,,,,,,,,,,,,,
null,,confidence_buffer,450212,confidence_buffer,,null,,,,,,,,,,,,,,,,,,
2468.5,,recognition_phase,452682,San Antonio,,49,,,,,,old,1,0.9,,,,,,,,,,
null,,confidence_buffer,452784,confidence_buffer,,null,,,,,,,,,,,,,,,,,,
null,,thebreak,453286,break,,null,,,,,,,,,,,,,,,,,,
847.2999999523163,,realistic_rating,454135,New Verdan,,52,New Verdan,Fictional,4,,,,,,,,,,,,,,,
null,,confidence_buffer,454236,confidence_buffer,,null,,,,,,,,,,,,,,,,,,
479.59999990463257,,pt2_unique_rating,454717,New Verdan,,51,,,3,,,,,,,,,,,,,,,
null,,confidence_buffer,454819,confidence_buffer,,null,,,,,,,,,,,,,,,,,,
407.7000000476837,,pt2_memorable_rating,455228,New Verdan,,53,,,5,,,,,,,,,,,,,,,
null,,confidence_buffer,455329,confidence_buffer,,null,,,,,,,,,,,,,,,,,,
1618.0999999046326,,recognition_phase,456949,New Verdan,,49,,,,,,old,1,0.9024390243902439,,,,,,,,,,
null,,confidence_buffer,457055,confidence_buffer,,null,,,,,,,,,,,,,,,,,,
null,,thebreak,457557,break,,null,,,,,,,,,,,,,,,,,,
723.5999999046326,,realistic_rating,458282,Driftwood Bay,,52,Driftwood Bay,Fictional,4,,,,,,,,,,,,,,,
null,,confidence_buffer,458385,confidence_buffer,,null,,,,,,,,,,,,,,,,,,
517.3000001907349,,pt2_unique_rating,458904,Driftwood Bay,,51,,,3,,,,,,,,,,,,,,,
null,,confidence_buffer,459006,confidence_buffer,,null,,,,,,,,,,,,,,,,,,
664.1999998092651,,pt2_memorable_rating,459671,Driftwood Bay,,53,,,5,,,,,,,,,,,,,,,
null,,confidence_buffer,459774,confidence_buffer,,null,,,,,,,,,,,,,,,,,,
1529.9000000953674,,recognition_phase,461306,Driftwood Bay,,51,,,,,,new,0,0.8809523809523809,,,,,,,,,,
null,,confidence_buffer,461408,confidence_buffer,,null,,,,,,,,,,,,,,,,,,
null,,thebreak,461909,break,,null,,,,,,,,,,,,,,,,,,
1119.2999999523163,,realistic_rating,463030,Montelake,,52,Montelake,Fictional,4,,,,,,,,,,,,,,,
null,,confidence_buffer,463132,confidence_buffer,,null,,,,,,,,,,,,,,,,,,
1386,,pt2_unique_rating,464519,Montelake,,50,,,2,,,,,,,,,,,,,,,
null,,confidence_buffer,464621,confidence_buffer,,null,,,,,,,,,,,,,,,,,,
503,,pt2_memorable_rating,465125,Montelake,,52,,,4,,,,,,,,,,,,,,,
null,,confidence_buffer,465227,confidence_buffer,,null,,,,,,,,,,,,,,,,,,
1796.8999998569489,,recognition_phase,467026,Montelake,,50,,,,,,old,0,0.8604651162790697,,,,,,,,,,
null,,confidence_buffer,467128,confidence_buffer,,null,,,,,,,,,,,,,,,,,,
null,,thebreak,467629,break,,null,,,,,,,,,,,,,,,,,,
809.2999999523163,,realistic_rating,468440,Ravenport,,51,Ravenport,Fictional,3,,,,,,,,,,,,,,,
null,,confidence_buffer,468542,confidence_buffer,,null,,,,,,,,,,,,,,,,,,
628,,pt2_unique_rating,469171,Ravenport,,52,,,4,,,,,,,,,,,,,,,
null,,confidence_buffer,469275,confidence_buffer,,null,,,,,,,,,,,,,,,,,,
947.7000000476837,,pt2_memorable_rating,470224,Ravenport,,50,,,2,,,,,,,,,,,,,,,
null,,confidence_buffer,470326,confidence_buffer,,null,,,,,,,,,,,,,,,,,,
1929.6000001430511,,recognition_phase,472257,Ravenport,,49,,,,,,old,1,0.8636363636363636,,,,,,,,,,
null,,confidence_buffer,472358,confidence_buffer,,null,,,,,,,,,,,,,,,,,,
null,,thebreak,472860,break,,null,,,,,,,,,,,,,,,,,,
5250,,realistic_rating,478111,Bar Harbor,,51,Bar Harbor,US,3,,,,,,,,,,,,,,,
null,,confidence_buffer,478214,confidence_buffer,,null,,,,,,,,,,,,,,,,,,
519.0999999046326,,pt2_unique_rating,478734,Bar Harbor,,52,,,4,,,,,,,,,,,,,,,
null,,confidence_buffer,478837,confidence_buffer,,null,,,,,,,,,,,,,,,,,,
1496.7999999523163,,pt2_memorable_rating,480335,Bar Harbor,,53,,,5,,,,,,,,,,,,,,,
null,,confidence_buffer,480438,confidence_buffer,,null,,,,,,,,,,,,,,,,,,
1615,,recognition_phase,482054,Bar Harbor,,51,,,,,,new,0,0.8444444444444444,,,,,,,,,,
null,,confidence_buffer,482157,confidence_buffer,,null,,,,,,,,,,,,,,,,,,
null,,thebreak,482658,break,,null,,,,,,,,,,,,,,,,,,
1689.7999999523163,,realistic_rating,484349,Ironwood Heights,,50,Ironwood Heights,Fictional,2,,,,,,,,,,,,,,,
null,,confidence_buffer,484451,confidence_buffer,,null,,,,,,,,,,,,,,,,,,
530.7000000476837,,pt2_unique_rating,484983,Ironwood Heights,,52,,,4,,,,,,,,,,,,,,,
null,,confidence_buffer,485085,confidence_buffer,,null,,,,,,,,,,,,,,,,,,
618.1999998092651,,pt2_memorable_rating,485705,Ironwood Heights,,51,,,3,,,,,,,,,,,,,,,
null,,confidence_buffer,485807,confidence_buffer,,null,,,,,,,,,,,,,,,,,,
3575.899999856949,,recognition_phase,489384,Ironwood Heights,,52,,,,,,new,1,0.8478260869565217,,,,,,,,,,
null,,confidence_buffer,489486,confidence_buffer,,null,,,,,,,,,,,,,,,,,,
null,,thebreak,489988,break,,null,,,,,,,,,,,,,,,,,,
1658.9000000953674,,realistic_rating,491649,Cape May,,51,Cape May,US,3,,,,,,,,,,,,,,,
null,,confidence_buffer,491751,confidence_buffer,,null,,,,,,,,,,,,,,,,,,
741.5999999046326,,pt2_unique_rating,492494,Cape May,,50,,,2,,,,,,,,,,,,,,,
null,,confidence_buffer,492596,confidence_buffer,,null,,,,,,,,,,,,,,,,,,
700.4000000953674,,pt2_memorable_rating,493298,Cape May,,51,,,3,,,,,,,,,,,,,,,
null,,confidence_buffer,493399,confidence_buffer,,null,,,,,,,,,,,,,,,,,,
1224.5,,probe_rating,494625,probe_rating,,50,,,,2,1,,,,,,,,,,,,,
null,,confidence_buffer,494727,confidence_buffer,,null,,,,,,,,,,,,,,,,,,
1331.6999998092651,,recognition_phase,496061,Cape May,,50,,,,,,old,1,0.851063829787234,,,,,,,,,,
null,,confidence_buffer,496163,confidence_buffer,,null,,,,,,,,,,,,,,,,,,
null,,thebreak,496665,break,,null,,,,,,,,,,,,,,,,,,
673.5,,realistic_rating,497340,Yukon,,51,Yukon,US,3,,,,,,,,,,,,,,,
null,,confidence_buffer,497443,confidence_buffer,,null,,,,,,,,,,,,,,,,,,
532.7999999523163,,pt2_unique_rating,497978,Yukon,,52,,,4,,,,,,,,,,,,,,,
null,,confidence_buffer,498081,confidence_buffer,,null,,,,,,,,,,,,,,,,,,
848.8999998569489,,pt2_memorable_rating,498931,Yukon,,50,,,2,,,,,,,,,,,,,,,
null,,confidence_buffer,499033,confidence_buffer,,null,,,,,,,,,,,,,,,,,,
1634.7000000476837,,recognition_phase,500669,Yukon,,49,,,,,,old,1,0.8541666666666666,,,,,,,,,,
null,,confidence_buffer,500772,confidence_buffer,,null,,,,,,,,,,,,,,,,,,
null,,thebreak,501274,break,,null,,,,,,,,,,,,,,,,,,
1286.9000000953674,,realistic_rating,502562,West Palm Beach,,51,West Palm Beach,US,3,,,,,,,,,,,,,,,
null,,confidence_buffer,502665,confidence_buffer,,null,,,,,,,,,,,,,,,,,,
455.60000014305115,,pt2_unique_rating,503122,West Palm Beach,,52,,,4,,,,,,,,,,,,,,,
null,,confidence_buffer,503225,confidence_buffer,,null,,,,,,,,,,,,,,,,,,
598.7999999523163,,pt2_memorable_rating,503825,West Palm Beach,,50,,,2,,,,,,,,,,,,,,,
null,,confidence_buffer,503928,confidence_buffer,,null,,,,,,,,,,,,,,,,,,
1240,,recognition_phase,505169,West Palm Beach,,51,,,,,,new,1,0.8571428571428571,,,,,,,,,,
null,,confidence_buffer,505271,confidence_buffer,,null,,,,,,,,,,,,,,,,,,
null,,thebreak,505773,break,,null,,,,,,,,,,,,,,,,,,
614.2999999523163,,realistic_rating,506389,East Ladera,,51,East Ladera,Fictional,3,,,,,,,,,,,,,,,
null,,confidence_buffer,506492,confidence_buffer,,null,,,,,,,,,,,,,,,,,,
463.2000000476837,,pt2_unique_rating,506957,East Ladera,,52,,,4,,,,,,,,,,,,,,,
null,,confidence_buffer,507059,confidence_buffer,,null,,,,,,,,,,,,,,,,,,
742.2000000476837,,pt2_memorable_rating,507802,East Ladera,,50,,,2,,,,,,,,,,,,,,,
null,,confidence_buffer,507905,confidence_buffer,,null,,,,,,,,,,,,,,,,,,
1807.8999998569489,,recognition_phase,509714,East Ladera,,50,,,,,,old,0,0.84,,,,,,,,,,
null,,confidence_buffer,509816,confidence_buffer,,null,,,,,,,,,,,,,,,,,,
null,,thebreak,510318,break,,null,,,,,,,,,,,,,,,,,,
705.5999999046326,,realistic_rating,511025,Athens,,51,Athens,US,3,,,,,,,,,,,,,,,
null,,confidence_buffer,511126,confidence_buffer,,null,,,,,,,,,,,,,,,,,,
614,,pt2_unique_rating,511742,Athens,,50,,,2,,,,,,,,,,,,,,,
null,,confidence_buffer,511843,confidence_buffer,,null,,,,,,,,,,,,,,,,,,
828.8999998569489,,pt2_memorable_rating,512674,Athens,,52,,,4,,,,,,,,,,,,,,,
null,,confidence_buffer,512775,confidence_buffer,,null,,,,,,,,,,,,,,,,,,
1905.4000000953674,,recognition_phase,514682,Athens,,49,,,,,,old,1,0.8431372549019608,,,,,,,,,,
null,,confidence_buffer,514785,confidence_buffer,,null,,,,,,,,,,,,,,,,,,
null,,thebreak,515286,break,,null,,,,,,,,,,,,,,,,,,
1034,,realistic_rating,516322,Linden Trace,,51,Linden Trace,Fictional,3,,,,,,,,,,,,,,,
null,,confidence_buffer,516424,confidence_buffer,,null,,,,,,,,,,,,,,,,,,
803.5,,pt2_unique_rating,517229,Linden Trace,,52,,,4,,,,,,,,,,,,,,,
null,,confidence_buffer,517330,confidence_buffer,,null,,,,,,,,,,,,,,,,,,
435.2000000476837,,pt2_memorable_rating,517766,Linden Trace,,50,,,2,,,,,,,,,,,,,,,
null,,confidence_buffer,517868,confidence_buffer,,null,,,,,,,,,,,,,,,,,,
1448.2000000476837,,recognition_phase,519317,Linden Trace,,52,,,,,,new,1,0.8461538461538461,,,,,,,,,,
null,,confidence_buffer,519419,confidence_buffer,,null,,,,,,,,,,,,,,,,,,
null,,thebreak,519921,break,,null,,,,,,,,,,,,,,,,,,
851.5,,realistic_rating,520774,Shreveport,,51,Shreveport,US,3,,,,,,,,,,,,,,,
null,,confidence_buffer,520876,confidence_buffer,,null,,,,,,,,,,,,,,,,,,
714.2000000476837,,pt2_unique_rating,521591,Shreveport,,50,,,2,,,,,,,,,,,,,,,
null,,confidence_buffer,521694,confidence_buffer,,null,,,,,,,,,,,,,,,,,,
458.7000000476837,,pt2_memorable_rating,522154,Shreveport,,51,,,3,,,,,,,,,,,,,,,
null,,confidence_buffer,522257,confidence_buffer,,null,,,,,,,,,,,,,,,,,,
1143.7999999523163,,recognition_phase,523403,Shreveport,,49,,,,,,old,0,0.8301886792452831,,,,,,,,,,
null,,confidence_buffer,523506,confidence_buffer,,null,,,,,,,,,,,,,,,,,,
null,,thebreak,524008,break,,null,,,,,,,,,,,,,,,,,,
773,,realistic_rating,524783,Bowling Green,,50,Bowling Green,US,2,,,,,,,,,,,,,,,
null,,confidence_buffer,524884,confidence_buffer,,null,,,,,,,,,,,,,,,,,,
542.7999999523163,,pt2_unique_rating,525429,Bowling Green,,51,,,3,,,,,,,,,,,,,,,
null,,confidence_buffer,525531,confidence_buffer,,null,,,,,,,,,,,,,,,,,,
537.7000000476837,,pt2_memorable_rating,526070,Bowling Green,,50,,,2,,,,,,,,,,,,,,,
null,,confidence_buffer,526182,confidence_buffer,,null,,,,,,,,,,,,,,,,,,
1213.8999998569489,,recognition_phase,527397,Bowling Green,,51,,,,,,new,1,0.8333333333333334,,,,,,,,,,
null,,confidence_buffer,527499,confidence_buffer,,null,,,,,,,,,,,,,,,,,,
null,,thebreak,528002,break,,null,,,,,,,,,,,,,,,,,,
1356.2999999523163,,realistic_rating,529359,Pine Hollow,,51,Pine Hollow,Fictional,3,,,,,,,,,,,,,,,
null,,confidence_buffer,529462,confidence_buffer,,null,,,,,,,,,,,,,,,,,,
628.5999999046326,,pt2_unique_rating,530092,Pine Hollow,,52,,,4,,,,,,,,,,,,,,,
null,,confidence_buffer,530194,confidence_buffer,,null,,,,,,,,,,,,,,,,,,
487.19999980926514,,pt2_memorable_rating,530682,Pine Hollow,,50,,,2,,,,,,,,,,,,,,,
null,,confidence_buffer,530784,confidence_buffer,,null,,,,,,,,,,,,,,,,,,
1095.7000000476837,,recognition_phase,531881,Pine Hollow,,49,,,,,,old,0,0.8181818181818182,,,,,,,,,,
null,,confidence_buffer,531983,confidence_buffer,,null,,,,,,,,,,,,,,,,,,
null,,thebreak,532485,break,,null,,,,,,,,,,,,,,,,,,
781.5,,realistic_rating,533268,North Arroya,,50,North Arroya,Fictional,2,,,,,,,,,,,,,,,
null,,confidence_buffer,533371,confidence_buffer,,null,,,,,,,,,,,,,,,,,,
430.7000000476837,,pt2_unique_rating,533803,North Arroya,,51,,,3,,,,,,,,,,,,,,,
null,,confidence_buffer,533905,confidence_buffer,,null,,,,,,,,,,,,,,,,,,
424.2000000476837,,pt2_memorable_rating,534331,North Arroya,,52,,,4,,,,,,,,,,,,,,,
null,,confidence_buffer,534438,confidence_buffer,,null,,,,,,,,,,,,,,,,,,
1699.7999999523163,,recognition_phase,536139,North Arroya,,52,,,,,,new,1,0.8214285714285714,,,,,,,,,,
null,,confidence_buffer,536253,confidence_buffer,,null,,,,,,,,,,,,,,,,,,
null,,thebreak,536755,break,,null,,,,,,,,,,,,,,,,,,
679,,realistic_rating,537436,Orchard Bend,,51,Orchard Bend,Fictional,3,,,,,,,,,,,,,,,
null,,confidence_buffer,537539,confidence_buffer,,null,,,,,,,,,,,,,,,,,,
390.90000009536743,,pt2_unique_rating,537931,Orchard Bend,,50,,,2,,,,,,,,,,,,,,,
null,,confidence_buffer,538034,confidence_buffer,,null,,,,,,,,,,,,,,,,,,
464.7000000476837,,pt2_memorable_rating,538500,Orchard Bend,,51,,,3,,,,,,,,,,,,,,,
null,,confidence_buffer,538602,confidence_buffer,,null,,,,,,,,,,,,,,,,,,
1472.9000000953674,,recognition_phase,540076,Orchard Bend,,52,,,,,,new,1,0.8245614035087719,,,,,,,,,,
null,,confidence_buffer,540178,confidence_buffer,,null,,,,,,,,,,,,,,,,,,
null,,thebreak,540679,break,,null,,,,,,,,,,,,,,,,,,
949.6000001430511,,realistic_rating,541630,Huntsville,,51,Huntsville,US,3,,,,,,,,,,,,,,,
null,,confidence_buffer,541732,confidence_buffer,,null,,,,,,,,,,,,,,,,,,
425.80000019073486,,pt2_unique_rating,542160,Huntsville,,50,,,2,,,,,,,,,,,,,,,
null,,confidence_buffer,542262,confidence_buffer,,null,,,,,,,,,,,,,,,,,,
590.2000000476837,,pt2_memorable_rating,542853,Huntsville,,51,,,3,,,,,,,,,,,,,,,
null,,confidence_buffer,542956,confidence_buffer,,null,,,,,,,,,,,,,,,,,,
1261.7000000476837,,recognition_phase,544220,Huntsville,,50,,,,,,old,1,0.8275862068965517,,,,,,,,,,
null,,confidence_buffer,544321,confidence_buffer,,null,,,,,,,,,,,,,,,,,,
null,,thebreak,544824,break,,null,,,,,,,,,,,,,,,,,,
1814.3999998569489,,realistic_rating,546640,Hanover,,50,Hanover,US,2,,,,,,,,,,,,,,,
null,,confidence_buffer,546742,confidence_buffer,,null,,,,,,,,,,,,,,,,,,
409.7000000476837,,pt2_unique_rating,547152,Hanover,,51,,,3,,,,,,,,,,,,,,,
null,,confidence_buffer,547256,confidence_buffer,,null,,,,,,,,,,,,,,,,,,
536,,pt2_memorable_rating,547794,Hanover,,52,,,4,,,,,,,,,,,,,,,
null,,confidence_buffer,547895,confidence_buffer,,null,,,,,,,,,,,,,,,,,,
1394.6999998092651,,recognition_phase,549292,Hanover,,49,,,,,,old,1,0.8305084745762712,,,,,,,,,,
null,,confidence_buffer,549394,confidence_buffer,,null,,,,,,,,,,,,,,,,,,
null,,thebreak,549896,break,,null,,,,,,,,,,,,,,,,,,
1355.5999999046326,,realistic_rating,551253,Albuquerque,,51,Albuquerque,US,3,,,,,,,,,,,,,,,
null,,confidence_buffer,551356,confidence_buffer,,null,,,,,,,,,,,,,,,,,,
540.5,,pt2_unique_rating,551898,Albuquerque,,50,,,2,,,,,,,,,,,,,,,
null,,confidence_buffer,552000,confidence_buffer,,null,,,,,,,,,,,,,,,,,,
440.7000000476837,,pt2_memorable_rating,552442,Albuquerque,,52,,,4,,,,,,,,,,,,,,,
null,,confidence_buffer,552543,confidence_buffer,,null,,,,,,,,,,,,,,,,,,
2395.7000000476837,,recognition_phase,554939,Albuquerque,,49,,,,,,old,1,0.8333333333333334,,,,,,,,,,
null,,confidence_buffer,555041,confidence_buffer,,null,,,,,,,,,,,,,,,,,,
null,,thebreak,555542,break,,null,,,,,,,,,,,,,,,,,,
,,survey,969121,survey-questions,,,,,,,,,,,none,high,No I was not,I only based on my memory and familiarity to make my selections,I thought of the possibility of meeting the words elsewhere before,How easy it is for the word to stick on your mind,the uniqueness assesses how the name is unpopular and catchy,This measured whether the name could be an actual city,No,N/A
