rt,responses,trial_type,time_elapsed,stimulus,button_pressed,key_press,name_trial,city_type,rating,probe,probe_accuracy,response,correct,accuracy,problems,smooth,distraction,strategies,familiar,memorable,unique,realistic,similar,comments
10312.200000047684,{worker_id:67746ee55ca6064173cd144c},id_enter,10315,,,,,,,,,,,,,,,,,,,,,
69585.90000003576,,fullscreen,79906,fullscreen,0,,,,,,,,,,,,,,,,,,,
55410,,intro_0,135319,instruct,,32,,,,,,,,,,,,,,,,,,
37596.10000002384,,intro_1,172917,instruct,,32,,,,,,,,,,,,,,,,,,
8390.300000011921,,intro_2,181308,instruct,,32,,,,,,,,,,,,,,,,,,
null,,instruct_dir_4,182813,instruct,,null,,,,,,,,,,,,,,,,,,
null,,thebreak,183315,break,,null,,,,,,,,,,,,,,,,,,
9360.099999964237,,familiar_rating,192677,Solara Glen,,49,Solara Glen,Fictional,1,,,,,,,,,,,,,,,
null,,confidence_buffer,192779,confidence_buffer,,null,,,,,,,,,,,,,,,,,,
6559.399999976158,,unique_rating,199340,Solara Glen,,52,,,4,,,,,,,,,,,,,,,
null,,confidence_buffer,199441,confidence_buffer,,null,,,,,,,,,,,,,,,,,,
23433.299999952316,,memorable_rating,222876,Solara Glen,,53,,,5,,,,,,,,,,,,,,,
null,,confidence_buffer,222977,confidence_buffer,,null,,,,,,,,,,,,,,,,,,
null,,thebreak,223479,break,,null,,,,,,,,,,,,,,,,,,
22075.80000001192,,familiar_rating,245556,Millstone,,49,Millstone,Fictional,1,,,,,,,,,,,,,,,
null,,confidence_buffer,245657,confidence_buffer,,null,,,,,,,,,,,,,,,,,,
18913.30000001192,,unique_rating,264572,Millstone,,50,,,2,,,,,,,,,,,,,,,
null,,confidence_buffer,264674,confidence_buffer,,null,,,,,,,,,,,,,,,,,,
54568.30000001192,,memorable_rating,319244,Millstone,,51,,,3,,,,,,,,,,,,,,,
null,,confidence_buffer,319345,confidence_buffer,,null,,,,,,,,,,,,,,,,,,
null,,thebreak,319846,break,,null,,,,,,,,,,,,,,,,,,
5747.300000011921,,familiar_rating,325595,Cornwall,,49,Cornwall,US,1,,,,,,,,,,,,,,,
null,,confidence_buffer,325697,confidence_buffer,,null,,,,,,,,,,,,,,,,,,
3001.100000023842,,unique_rating,328699,Cornwall,,51,,,3,,,,,,,,,,,,,,,
null,,confidence_buffer,328801,confidence_buffer,,null,,,,,,,,,,,,,,,,,,
17473.099999964237,,memorable_rating,346275,Cornwall,,51,,,3,,,,,,,,,,,,,,,
null,,confidence_buffer,346376,confidence_buffer,,null,,,,,,,,,,,,,,,,,,
null,,thebreak,346877,break,,null,,,,,,,,,,,,,,,,,,
10364.300000011921,,familiar_rating,357243,Lake of the Ozarks,,52,Lake of the Ozarks,US,4,,,,,,,,,,,,,,,
null,,confidence_buffer,357345,confidence_buffer,,null,,,,,,,,,,,,,,,,,,
2073,,unique_rating,359419,Lake of the Ozarks,,53,,,5,,,,,,,,,,,,,,,
null,,confidence_buffer,359521,confidence_buffer,,null,,,,,,,,,,,,,,,,,,
11697.100000023842,,memorable_rating,371219,Lake of the Ozarks,,53,,,5,,,,,,,,,,,,,,,
null,,confidence_buffer,371320,confidence_buffer,,null,,,,,,,,,,,,,,,,,,
4305,,probe_rating,375627,probe_rating,,52,,,,4,1,,,,,,,,,,,,,
null,,confidence_buffer,375728,confidence_buffer,,null,,,,,,,,,,,,,,,,,,
null,,thebreak,376230,break,,null,,,,,,,,,,,,,,,,,,
12691.199999988079,,familiar_rating,388923,Rosehollow,,49,Rosehollow,Fictional,1,,,,,,,,,,,,,,,
null,,confidence_buffer,389025,confidence_buffer,,null,,,,,,,,,,,,,,,,,,
4016.100000023842,,unique_rating,393043,Rosehollow,,52,,,4,,,,,,,,,,,,,,,
null,,confidence_buffer,393144,confidence_buffer,,null,,,,,,,,,,,,,,,,,,
7129.699999988079,,memorable_rating,400275,Rosehollow,,52,,,4,,,,,,,,,,,,,,,
null,,confidence_buffer,400377,confidence_buffer,,null,,,,,,,,,,,,,,,,,,
null,,thebreak,400878,break,,null,,,,,,,,,,,,,,,,,,
2450.699999988079,,familiar_rating,403330,Redgrove,,50,Redgrove,Fictional,2,,,,,,,,,,,,,,,
null,,confidence_buffer,403432,confidence_buffer,,null,,,,,,,,,,,,,,,,,,
5033,,probe_rating,408466,probe_rating,,51,,,,3,1,,,,,,,,,,,,,
null,,confidence_buffer,408568,confidence_buffer,,null,,,,,,,,,,,,,,,,,,
3193.800000011921,,unique_rating,411763,Redgrove,,50,,,2,,,,,,,,,,,,,,,
null,,confidence_buffer,411865,confidence_buffer,,null,,,,,,,,,,,,,,,,,,
15408.899999976158,,memorable_rating,427275,Redgrove,,49,,,1,,,,,,,,,,,,,,,
null,,confidence_buffer,427376,confidence_buffer,,null,,,,,,,,,,,,,,,,,,
null,,thebreak,427877,break,,null,,,,,,,,,,,,,,,,,,
12251.299999952316,,familiar_rating,440130,Orchard Bend,,49,Orchard Bend,Fictional,1,,,,,,,,,,,,,,,
null,,confidence_buffer,440232,confidence_buffer,,null,,,,,,,,,,,,,,,,,,
2473.099999964237,,unique_rating,442706,Orchard Bend,,51,,,3,,,,,,,,,,,,,,,
null,,confidence_buffer,442808,confidence_buffer,,null,,,,,,,,,,,,,,,,,,
5000.899999976158,,memorable_rating,447810,Orchard Bend,,51,,,3,,,,,,,,,,,,,,,
null,,confidence_buffer,447912,confidence_buffer,,null,,,,,,,,,,,,,,,,,,
3281.199999988079,,probe_rating,451194,probe_rating,,53,,,,5,1,,,,,,,,,,,,,
null,,confidence_buffer,451296,confidence_buffer,,null,,,,,,,,,,,,,,,,,,
null,,thebreak,451798,break,,null,,,,,,,,,,,,,,,,,,
3030.5,,familiar_rating,454830,Delaware City,,53,Delaware City,US,5,,,,,,,,,,,,,,,
null,,confidence_buffer,454940,confidence_buffer,,null,,,,,,,,,,,,,,,,,,
13700.900000035763,,unique_rating,468642,Delaware City,,50,,,2,,,,,,,,,,,,,,,
null,,confidence_buffer,468744,confidence_buffer,,null,,,,,,,,,,,,,,,,,,
2816.899999976158,,memorable_rating,471562,Delaware City,,53,,,5,,,,,,,,,,,,,,,
null,,confidence_buffer,471664,confidence_buffer,,null,,,,,,,,,,,,,,,,,,
null,,thebreak,472166,break,,null,,,,,,,,,,,,,,,,,,
8754.600000023842,,familiar_rating,480922,Crestwood,,49,Crestwood,Fictional,1,,,,,,,,,,,,,,,
null,,confidence_buffer,481024,confidence_buffer,,null,,,,,,,,,,,,,,,,,,
3793,,unique_rating,484818,Crestwood,,49,,,1,,,,,,,,,,,,,,,
null,,confidence_buffer,484920,confidence_buffer,,null,,,,,,,,,,,,,,,,,,
2400.5,,memorable_rating,487321,Crestwood,,50,,,2,,,,,,,,,,,,,,,
null,,confidence_buffer,487423,confidence_buffer,,null,,,,,,,,,,,,,,,,,,
null,,thebreak,487924,break,,null,,,,,,,,,,,,,,,,,,
10884.800000011921,,familiar_rating,498810,Briarfield,,49,Briarfield,Fictional,1,,,,,,,,,,,,,,,
null,,confidence_buffer,498912,confidence_buffer,,null,,,,,,,,,,,,,,,,,,
1841.1000000238419,,unique_rating,500754,Briarfield,,51,,,3,,,,,,,,,,,,,,,
null,,confidence_buffer,500855,confidence_buffer,,null,,,,,,,,,,,,,,,,,,
3080.399999976158,,memorable_rating,503937,Briarfield,,51,,,3,,,,,,,,,,,,,,,
null,,confidence_buffer,504038,confidence_buffer,,null,,,,,,,,,,,,,,,,,,
null,,thebreak,504540,break,,null,,,,,,,,,,,,,,,,,,
12813,,familiar_rating,517354,Peoria,,51,Peoria,US,3,,,,,,,,,,,,,,,
null,,confidence_buffer,517456,confidence_buffer,,null,,,,,,,,,,,,,,,,,,
3736.399999976158,,unique_rating,521193,Peoria,,52,,,4,,,,,,,,,,,,,,,
null,,confidence_buffer,521300,confidence_buffer,,null,,,,,,,,,,,,,,,,,,
2516.399999976158,,memorable_rating,523817,Peoria,,52,,,4,,,,,,,,,,,,,,,
null,,confidence_buffer,523919,confidence_buffer,,null,,,,,,,,,,,,,,,,,,
null,,thebreak,524421,break,,null,,,,,,,,,,,,,,,,,,
10401.600000023842,,familiar_rating,534825,San Antonio,,53,San Antonio,US,5,,,,,,,,,,,,,,,
null,,confidence_buffer,534927,confidence_buffer,,null,,,,,,,,,,,,,,,,,,
4745.199999988079,,unique_rating,539673,San Antonio,,51,,,3,,,,,,,,,,,,,,,
null,,confidence_buffer,539776,confidence_buffer,,null,,,,,,,,,,,,,,,,,,
2360.100000023842,,memorable_rating,542137,San Antonio,,53,,,5,,,,,,,,,,,,,,,
null,,confidence_buffer,542239,confidence_buffer,,null,,,,,,,,,,,,,,,,,,
null,,thebreak,542740,break,,null,,,,,,,,,,,,,,,,,,
13572.099999964237,,familiar_rating,556314,Elmsbury,,50,Elmsbury,Fictional,2,,,,,,,,,,,,,,,
null,,confidence_buffer,556415,confidence_buffer,,null,,,,,,,,,,,,,,,,,,
2208.800000011921,,unique_rating,558625,Elmsbury,,51,,,3,,,,,,,,,,,,,,,
null,,confidence_buffer,558727,confidence_buffer,,null,,,,,,,,,,,,,,,,,,
2017,,memorable_rating,560745,Elmsbury,,50,,,2,,,,,,,,,,,,,,,
null,,confidence_buffer,560847,confidence_buffer,,null,,,,,,,,,,,,,,,,,,
null,,thebreak,561348,break,,null,,,,,,,,,,,,,,,,,,
9019.900000035763,,familiar_rating,570369,Manistee,,49,Manistee,US,1,,,,,,,,,,,,,,,
null,,confidence_buffer,570471,confidence_buffer,,null,,,,,,,,,,,,,,,,,,
3480.300000011921,,unique_rating,573952,Manistee,,52,,,4,,,,,,,,,,,,,,,
null,,confidence_buffer,574053,confidence_buffer,,null,,,,,,,,,,,,,,,,,,
3259,,memorable_rating,577313,Manistee,,51,,,3,,,,,,,,,,,,,,,
null,,confidence_buffer,577415,confidence_buffer,,null,,,,,,,,,,,,,,,,,,
null,,thebreak,577916,break,,null,,,,,,,,,,,,,,,,,,
9380.099999964237,,familiar_rating,587297,Westridge,,49,Westridge,Fictional,1,,,,,,,,,,,,,,,
null,,confidence_buffer,587399,confidence_buffer,,null,,,,,,,,,,,,,,,,,,
1833,,unique_rating,589233,Westridge,,50,,,2,,,,,,,,,,,,,,,
null,,confidence_buffer,589336,confidence_buffer,,null,,,,,,,,,,,,,,,,,,
2239.899999976158,,memorable_rating,591577,Westridge,,50,,,2,,,,,,,,,,,,,,,
null,,confidence_buffer,591679,confidence_buffer,,null,,,,,,,,,,,,,,,,,,
null,,thebreak,592180,break,,null,,,,,,,,,,,,,,,,,,
9099.599999964237,,familiar_rating,601280,Boulder,,51,Boulder,US,3,,,,,,,,,,,,,,,
null,,confidence_buffer,601382,confidence_buffer,,null,,,,,,,,,,,,,,,,,,
2994.100000023842,,unique_rating,604377,Boulder,,51,,,3,,,,,,,,,,,,,,,
null,,confidence_buffer,604479,confidence_buffer,,null,,,,,,,,,,,,,,,,,,
2480.399999976158,,memorable_rating,606960,Boulder,,52,,,4,,,,,,,,,,,,,,,
null,,confidence_buffer,607062,confidence_buffer,,null,,,,,,,,,,,,,,,,,,
null,,thebreak,607563,break,,null,,,,,,,,,,,,,,,,,,
9420.599999964237,,familiar_rating,616985,Brookmere,,49,Brookmere,Fictional,1,,,,,,,,,,,,,,,
null,,confidence_buffer,617086,confidence_buffer,,null,,,,,,,,,,,,,,,,,,
5545.099999964237,,unique_rating,622633,Brookmere,,51,,,3,,,,,,,,,,,,,,,
null,,confidence_buffer,622735,confidence_buffer,,null,,,,,,,,,,,,,,,,,,
2176.199999988079,,memorable_rating,624913,Brookmere,,50,,,2,,,,,,,,,,,,,,,
null,,confidence_buffer,625015,confidence_buffer,,null,,,,,,,,,,,,,,,,,,
null,,thebreak,625516,break,,null,,,,,,,,,,,,,,,,,,
12259.100000023842,,familiar_rating,637776,West Talora,,49,West Talora,Fictional,1,,,,,,,,,,,,,,,
null,,confidence_buffer,637878,confidence_buffer,,null,,,,,,,,,,,,,,,,,,
2857.199999988079,,unique_rating,640736,West Talora,,51,,,3,,,,,,,,,,,,,,,
null,,confidence_buffer,640838,confidence_buffer,,null,,,,,,,,,,,,,,,,,,
4249.200000047684,,memorable_rating,645088,West Talora,,50,,,2,,,,,,,,,,,,,,,
null,,confidence_buffer,645190,confidence_buffer,,null,,,,,,,,,,,,,,,,,,
null,,thebreak,645692,break,,null,,,,,,,,,,,,,,,,,,
8579.699999988079,,familiar_rating,654273,Yukon,,52,Yukon,US,4,,,,,,,,,,,,,,,
null,,confidence_buffer,654375,confidence_buffer,,null,,,,,,,,,,,,,,,,,,
2064.300000011921,,unique_rating,656440,Yukon,,53,,,5,,,,,,,,,,,,,,,
null,,confidence_buffer,656542,confidence_buffer,,null,,,,,,,,,,,,,,,,,,
3641.300000011921,,memorable_rating,660184,Yukon,,51,,,3,,,,,,,,,,,,,,,
null,,confidence_buffer,660286,confidence_buffer,,null,,,,,,,,,,,,,,,,,,
null,,thebreak,660787,break,,null,,,,,,,,,,,,,,,,,,
12092.099999964237,,familiar_rating,672881,Barnard,,50,Barnard,US,2,,,,,,,,,,,,,,,
null,,confidence_buffer,672982,confidence_buffer,,null,,,,,,,,,,,,,,,,,,
3793,,unique_rating,676776,Barnard,,50,,,2,,,,,,,,,,,,,,,
null,,confidence_buffer,676878,confidence_buffer,,null,,,,,,,,,,,,,,,,,,
3721.099999964237,,memorable_rating,680600,Barnard,,50,,,2,,,,,,,,,,,,,,,
null,,confidence_buffer,680703,confidence_buffer,,null,,,,,,,,,,,,,,,,,,
null,,thebreak,681204,break,,null,,,,,,,,,,,,,,,,,,
12874.899999976158,,familiar_rating,694080,Hawthorne Bluffs,,49,Hawthorne Bluffs,Fictional,1,,,,,,,,,,,,,,,
null,,confidence_buffer,694181,confidence_buffer,,null,,,,,,,,,,,,,,,,,,
1554.0999999642372,,unique_rating,695736,Hawthorne Bluffs,,53,,,5,,,,,,,,,,,,,,,
null,,confidence_buffer,695838,confidence_buffer,,null,,,,,,,,,,,,,,,,,,
3264.600000023842,,memorable_rating,699104,Hawthorne Bluffs,,53,,,5,,,,,,,,,,,,,,,
null,,confidence_buffer,699206,confidence_buffer,,null,,,,,,,,,,,,,,,,,,
null,,thebreak,699710,break,,null,,,,,,,,,,,,,,,,,,
13144.899999976158,,familiar_rating,712856,Healdsburg,,49,Healdsburg,US,1,,,,,,,,,,,,,,,
null,,confidence_buffer,712958,confidence_buffer,,null,,,,,,,,,,,,,,,,,,
1393.1000000238419,,unique_rating,714352,Healdsburg,,51,,,3,,,,,,,,,,,,,,,
null,,confidence_buffer,714454,confidence_buffer,,null,,,,,,,,,,,,,,,,,,
2072.899999976158,,memorable_rating,716528,Healdsburg,,51,,,3,,,,,,,,,,,,,,,
null,,confidence_buffer,716630,confidence_buffer,,null,,,,,,,,,,,,,,,,,,
null,,thebreak,717130,break,,null,,,,,,,,,,,,,,,,,,
8220.300000011921,,familiar_rating,725352,Livingston,,51,Livingston,US,3,,,,,,,,,,,,,,,
null,,confidence_buffer,725454,confidence_buffer,,null,,,,,,,,,,,,,,,,,,
5209.099999964237,,unique_rating,730664,Livingston,,51,,,3,,,,,,,,,,,,,,,
null,,confidence_buffer,730765,confidence_buffer,,null,,,,,,,,,,,,,,,,,,
2697.400000035763,,memorable_rating,733464,Livingston,,51,,,3,,,,,,,,,,,,,,,
null,,confidence_buffer,733566,confidence_buffer,,null,,,,,,,,,,,,,,,,,,
null,,thebreak,734067,break,,null,,,,,,,,,,,,,,,,,,
10299.300000011921,,familiar_rating,744368,Bayshore Haven,,49,Bayshore Haven,Fictional,1,,,,,,,,,,,,,,,
null,,confidence_buffer,744470,confidence_buffer,,null,,,,,,,,,,,,,,,,,,
4128.300000011921,,unique_rating,748600,Bayshore Haven,,51,,,3,,,,,,,,,,,,,,,
null,,confidence_buffer,748701,confidence_buffer,,null,,,,,,,,,,,,,,,,,,
2122,,memorable_rating,750825,Bayshore Haven,,52,,,4,,,,,,,,,,,,,,,
null,,confidence_buffer,750926,confidence_buffer,,null,,,,,,,,,,,,,,,,,,
null,,thebreak,751427,break,,null,,,,,,,,,,,,,,,,,,
9428,,familiar_rating,760856,Bowling Green,,53,Bowling Green,US,5,,,,,,,,,,,,,,,
null,,confidence_buffer,760957,confidence_buffer,,null,,,,,,,,,,,,,,,,,,
3313.2000000476837,,unique_rating,764272,Bowling Green,,53,,,5,,,,,,,,,,,,,,,
null,,confidence_buffer,764373,confidence_buffer,,null,,,,,,,,,,,,,,,,,,
1409.1000000238419,,memorable_rating,765783,Bowling Green,,53,,,5,,,,,,,,,,,,,,,
null,,confidence_buffer,765886,confidence_buffer,,null,,,,,,,,,,,,,,,,,,
3584.800000011921,,probe_rating,769471,probe_rating,,49,,,,1,1,,,,,,,,,,,,,
null,,confidence_buffer,769573,confidence_buffer,,null,,,,,,,,,,,,,,,,,,
null,,thebreak,770075,break,,null,,,,,,,,,,,,,,,,,,
10931.5,,familiar_rating,781008,Okoboji,,49,Okoboji,US,1,,,,,,,,,,,,,,,
null,,confidence_buffer,781109,confidence_buffer,,null,,,,,,,,,,,,,,,,,,
3432.900000035763,,unique_rating,784543,Okoboji,,53,,,5,,,,,,,,,,,,,,,
null,,confidence_buffer,784645,confidence_buffer,,null,,,,,,,,,,,,,,,,,,
3760.900000035763,,memorable_rating,788407,Okoboji,,53,,,5,,,,,,,,,,,,,,,
null,,confidence_buffer,788509,confidence_buffer,,null,,,,,,,,,,,,,,,,,,
null,,thebreak,789010,break,,null,,,,,,,,,,,,,,,,,,
7956,,familiar_rating,796968,Fairhaven,,50,Fairhaven,Fictional,2,,,,,,,,,,,,,,,
null,,confidence_buffer,797070,confidence_buffer,,null,,,,,,,,,,,,,,,,,,
5800.099999964237,,probe_rating,802871,probe_rating,,52,,,,4,1,,,,,,,,,,,,,
null,,confidence_buffer,802974,confidence_buffer,,null,,,,,,,,,,,,,,,,,,
5928.300000011921,,unique_rating,808903,Fairhaven,,49,,,1,,,,,,,,,,,,,,,
null,,confidence_buffer,809005,confidence_buffer,,null,,,,,,,,,,,,,,,,,,
4272.800000011921,,memorable_rating,813279,Fairhaven,,50,,,2,,,,,,,,,,,,,,,
null,,confidence_buffer,813381,confidence_buffer,,null,,,,,,,,,,,,,,,,,,
null,,thebreak,813882,break,,null,,,,,,,,,,,,,,,,,,
10636.300000011921,,familiar_rating,824519,Natchez,,49,Natchez,US,1,,,,,,,,,,,,,,,
null,,confidence_buffer,824621,confidence_buffer,,null,,,,,,,,,,,,,,,,,,
8224.899999976158,,unique_rating,832847,Natchez,,52,,,4,,,,,,,,,,,,,,,
null,,confidence_buffer,832949,confidence_buffer,,null,,,,,,,,,,,,,,,,,,
2569.300000011921,,memorable_rating,835519,Natchez,,51,,,3,,,,,,,,,,,,,,,
null,,confidence_buffer,835621,confidence_buffer,,null,,,,,,,,,,,,,,,,,,
null,,thebreak,836122,break,,null,,,,,,,,,,,,,,,,,,
17867.100000023842,,familiar_rating,853990,Medora,,49,Medora,US,1,,,,,,,,,,,,,,,
null,,confidence_buffer,854091,confidence_buffer,,null,,,,,,,,,,,,,,,,,,
6018,,unique_rating,860111,Medora,,51,,,3,,,,,,,,,,,,,,,
null,,confidence_buffer,860212,confidence_buffer,,null,,,,,,,,,,,,,,,,,,
2377.100000023842,,memorable_rating,862591,Medora,,52,,,4,,,,,,,,,,,,,,,
null,,confidence_buffer,862692,confidence_buffer,,null,,,,,,,,,,,,,,,,,,
null,,thebreak,863193,break,,null,,,,,,,,,,,,,,,,,,
11516.5,,familiar_rating,874711,Sierra Hollow,,49,Sierra Hollow,Fictional,1,,,,,,,,,,,,,,,
null,,confidence_buffer,874813,confidence_buffer,,null,,,,,,,,,,,,,,,,,,
1823.8999999761581,,unique_rating,876639,Sierra Hollow,,52,,,4,,,,,,,,,,,,,,,
null,,confidence_buffer,876740,confidence_buffer,,null,,,,,,,,,,,,,,,,,,
4832.899999976158,,memorable_rating,881574,Sierra Hollow,,52,,,4,,,,,,,,,,,,,,,
null,,confidence_buffer,881676,confidence_buffer,,null,,,,,,,,,,,,,,,,,,
null,,thebreak,882177,break,,null,,,,,,,,,,,,,,,,,,
9989,,intro_0,892167,instruct,,32,,,,,,,,,,,,,,,,,,
10502.699999988079,,intro_1,902671,instruct,,32,,,,,,,,,,,,,,,,,,
24269.599999964237,,intro_2,926941,instruct,,32,,,,,,,,,,,,,,,,,,
null,,instruct_dir_4,928443,instruct,,null,,,,,,,,,,,,,,,,,,
9401.700000047684,,realistic_rating,937846,Orr,,51,Orr,US,3,,,,,,,,,,,,,,,
null,,confidence_buffer,937948,confidence_buffer,,null,,,,,,,,,,,,,,,,,,
13145,,pt2_unique_rating,951094,Orr,,53,,,5,,,,,,,,,,,,,,,
null,,confidence_buffer,951195,confidence_buffer,,null,,,,,,,,,,,,,,,,,,
2009.6000000238419,,pt2_memorable_rating,953206,Orr,,53,,,5,,,,,,,,,,,,,,,
null,,confidence_buffer,953307,confidence_buffer,,null,,,,,,,,,,,,,,,,,,
7457.5,,probe_rating,960766,probe_rating,,51,,,,3,1,,,,,,,,,,,,,
null,,confidence_buffer,960867,confidence_buffer,,null,,,,,,,,,,,,,,,,,,
9441.400000035763,,recognition_phase,970310,Orr,,52,,,,,,new,1,1,,,,,,,,,,
null,,confidence_buffer,970413,confidence_buffer,,null,,,,,,,,,,,,,,,,,,
null,,thebreak,970914,break,,null,,,,,,,,,,,,,,,,,,
7882.800000011921,,realistic_rating,978798,Brookmere,,52,Brookmere,Fictional,4,,,,,,,,,,,,,,,
null,,confidence_buffer,978899,confidence_buffer,,null,,,,,,,,,,,,,,,,,,
4854.899999976158,,pt2_unique_rating,983756,Brookmere,,51,,,3,,,,,,,,,,,,,,,
null,,confidence_buffer,983857,confidence_buffer,,null,,,,,,,,,,,,,,,,,,
2891.600000023842,,pt2_memorable_rating,986750,Brookmere,,52,,,4,,,,,,,,,,,,,,,
null,,confidence_buffer,986851,confidence_buffer,,null,,,,,,,,,,,,,,,,,,
1776.6000000238419,,recognition_phase,988629,Brookmere,,49,,,,,,old,1,1,,,,,,,,,,
null,,confidence_buffer,988730,confidence_buffer,,null,,,,,,,,,,,,,,,,,,
null,,thebreak,989231,break,,null,,,,,,,,,,,,,,,,,,
13965,,realistic_rating,1003198,Hollendale,,52,Hollendale,Fictional,4,,,,,,,,,,,,,,,
null,,confidence_buffer,1003299,confidence_buffer,,null,,,,,,,,,,,,,,,,,,
3680.699999988079,,pt2_unique_rating,1006981,Hollendale,,52,,,4,,,,,,,,,,,,,,,
null,,confidence_buffer,1007082,confidence_buffer,,null,,,,,,,,,,,,,,,,,,
2650.5,,pt2_memorable_rating,1009733,Hollendale,,51,,,3,,,,,,,,,,,,,,,
null,,confidence_buffer,1009835,confidence_buffer,,null,,,,,,,,,,,,,,,,,,
12777.399999976158,,recognition_phase,1022614,Hollendale,,52,,,,,,new,1,1,,,,,,,,,,
null,,confidence_buffer,1022715,confidence_buffer,,null,,,,,,,,,,,,,,,,,,
null,,thebreak,1023216,break,,null,,,,,,,,,,,,,,,,,,
3539.699999988079,,realistic_rating,1026757,Delaware City,,53,Delaware City,US,5,,,,,,,,,,,,,,,
null,,confidence_buffer,1026859,confidence_buffer,,null,,,,,,,,,,,,,,,,,,
3416.899999976158,,pt2_unique_rating,1030277,Delaware City,,51,,,3,,,,,,,,,,,,,,,
null,,confidence_buffer,1030379,confidence_buffer,,null,,,,,,,,,,,,,,,,,,
2369.300000011921,,pt2_memorable_rating,1032749,Delaware City,,53,,,5,,,,,,,,,,,,,,,
null,,confidence_buffer,1032851,confidence_buffer,,null,,,,,,,,,,,,,,,,,,
5209.299999952316,,recognition_phase,1038061,Delaware City,,49,,,,,,old,1,1,,,,,,,,,,
null,,confidence_buffer,1038163,confidence_buffer,,null,,,,,,,,,,,,,,,,,,
null,,thebreak,1038665,break,,null,,,,,,,,,,,,,,,,,,
2794.300000011921,,realistic_rating,1041461,Yukon,,53,Yukon,US,5,,,,,,,,,,,,,,,
null,,confidence_buffer,1041563,confidence_buffer,,null,,,,,,,,,,,,,,,,,,
2729.300000011921,,pt2_unique_rating,1044293,Yukon,,52,,,4,,,,,,,,,,,,,,,
null,,confidence_buffer,1044395,confidence_buffer,,null,,,,,,,,,,,,,,,,,,
2425.699999988079,,pt2_memorable_rating,1046822,Yukon,,53,,,5,,,,,,,,,,,,,,,
null,,confidence_buffer,1046924,confidence_buffer,,null,,,,,,,,,,,,,,,,,,
1312.0999999642372,,recognition_phase,1048237,Yukon,,49,,,,,,old,1,1,,,,,,,,,,
null,,confidence_buffer,1048339,confidence_buffer,,null,,,,,,,,,,,,,,,,,,
null,,thebreak,1048840,break,,null,,,,,,,,,,,,,,,,,,
12396,,realistic_rating,1061237,Montelake,,50,Montelake,Fictional,2,,,,,,,,,,,,,,,
null,,confidence_buffer,1061339,confidence_buffer,,null,,,,,,,,,,,,,,,,,,
1792.5999999642372,,pt2_unique_rating,1063132,Montelake,,51,,,3,,,,,,,,,,,,,,,
null,,confidence_buffer,1063234,confidence_buffer,,null,,,,,,,,,,,,,,,,,,
4010.300000011921,,pt2_memorable_rating,1067245,Montelake,,50,,,2,,,,,,,,,,,,,,,
null,,confidence_buffer,1067346,confidence_buffer,,null,,,,,,,,,,,,,,,,,,
1841.3999999761581,,recognition_phase,1069189,Montelake,,52,,,,,,new,1,1,,,,,,,,,,
null,,confidence_buffer,1069291,confidence_buffer,,null,,,,,,,,,,,,,,,,,,
null,,thebreak,1069792,break,,null,,,,,,,,,,,,,,,,,,
2891.399999976158,,realistic_rating,1072685,Manistee,,49,Manistee,US,1,,,,,,,,,,,,,,,
null,,confidence_buffer,1072786,confidence_buffer,,null,,,,,,,,,,,,,,,,,,
2298.199999988079,,pt2_unique_rating,1075085,Manistee,,52,,,4,,,,,,,,,,,,,,,
null,,confidence_buffer,1075186,confidence_buffer,,null,,,,,,,,,,,,,,,,,,
2593,,pt2_memorable_rating,1077781,Manistee,,51,,,3,,,,,,,,,,,,,,,
null,,confidence_buffer,1077883,confidence_buffer,,null,,,,,,,,,,,,,,,,,,
6360.899999976158,,recognition_phase,1084245,Manistee,,49,,,,,,old,1,1,,,,,,,,,,
null,,confidence_buffer,1084347,confidence_buffer,,null,,,,,,,,,,,,,,,,,,
null,,thebreak,1084848,break,,null,,,,,,,,,,,,,,,,,,
8827.5,,realistic_rating,1093677,Sunmere,,51,Sunmere,Fictional,3,,,,,,,,,,,,,,,
null,,confidence_buffer,1093786,confidence_buffer,,null,,,,,,,,,,,,,,,,,,
3106,,pt2_unique_rating,1096893,Sunmere,,50,,,2,,,,,,,,,,,,,,,
null,,confidence_buffer,1096994,confidence_buffer,,null,,,,,,,,,,,,,,,,,,
2465.300000011921,,pt2_memorable_rating,1099461,Sunmere,,51,,,3,,,,,,,,,,,,,,,
null,,confidence_buffer,1099562,confidence_buffer,,null,,,,,,,,,,,,,,,,,,
1632.9000000357628,,recognition_phase,1101197,Sunmere,,52,,,,,,new,1,1,,,,,,,,,,
null,,confidence_buffer,1101298,confidence_buffer,,null,,,,,,,,,,,,,,,,,,
null,,thebreak,1101799,break,,null,,,,,,,,,,,,,,,,,,
4572,,realistic_rating,1106373,Okoboji,,52,Okoboji,US,4,,,,,,,,,,,,,,,
null,,confidence_buffer,1106474,confidence_buffer,,null,,,,,,,,,,,,,,,,,,
1496.699999988079,,pt2_unique_rating,1107972,Okoboji,,53,,,5,,,,,,,,,,,,,,,
null,,confidence_buffer,1108076,confidence_buffer,,null,,,,,,,,,,,,,,,,,,
1935.699999988079,,pt2_memorable_rating,1110012,Okoboji,,53,,,5,,,,,,,,,,,,,,,
null,,confidence_buffer,1110113,confidence_buffer,,null,,,,,,,,,,,,,,,,,,
1481.5,,recognition_phase,1111596,Okoboji,,49,,,,,,old,1,1,,,,,,,,,,
null,,confidence_buffer,1111697,confidence_buffer,,null,,,,,,,,,,,,,,,,,,
null,,thebreak,1112199,break,,null,,,,,,,,,,,,,,,,,,
11301.099999964237,,realistic_rating,1123501,Elmsbury,,53,Elmsbury,Fictional,5,,,,,,,,,,,,,,,
null,,confidence_buffer,1123602,confidence_buffer,,null,,,,,,,,,,,,,,,,,,
2760.600000023842,,pt2_unique_rating,1126364,Elmsbury,,52,,,4,,,,,,,,,,,,,,,
null,,confidence_buffer,1126466,confidence_buffer,,null,,,,,,,,,,,,,,,,,,
2840.899999976158,,pt2_memorable_rating,1129308,Elmsbury,,52,,,4,,,,,,,,,,,,,,,
null,,confidence_buffer,1129410,confidence_buffer,,null,,,,,,,,,,,,,,,,,,
1977,,recognition_phase,1131388,Elmsbury,,49,,,,,,old,1,1,,,,,,,,,,
null,,confidence_buffer,1131490,confidence_buffer,,null,,,,,,,,,,,,,,,,,,
null,,thebreak,1131992,break,,null,,,,,,,,,,,,,,,,,,
14691.699999988079,,realistic_rating,1146685,Watkins Glen,,49,Watkins Glen,US,1,,,,,,,,,,,,,,,
null,,confidence_buffer,1146786,confidence_buffer,,null,,,,,,,,,,,,,,,,,,
2577,,pt2_unique_rating,1149364,Watkins Glen,,53,,,5,,,,,,,,,,,,,,,
null,,confidence_buffer,1149466,confidence_buffer,,null,,,,,,,,,,,,,,,,,,
3400.900000035763,,pt2_memorable_rating,1152868,Watkins Glen,,53,,,5,,,,,,,,,,,,,,,
null,,confidence_buffer,1152970,confidence_buffer,,null,,,,,,,,,,,,,,,,,,
4217.200000047684,,recognition_phase,1157189,Watkins Glen,,52,,,,,,new,1,1,,,,,,,,,,
null,,confidence_buffer,1157290,confidence_buffer,,null,,,,,,,,,,,,,,,,,,
null,,thebreak,1157792,break,,null,,,,,,,,,,,,,,,,,,
3306.800000011921,,realistic_rating,1161100,Solara Glen,,51,Solara Glen,Fictional,3,,,,,,,,,,,,,,,
null,,confidence_buffer,1161202,confidence_buffer,,null,,,,,,,,,,,,,,,,,,
6513.100000023842,,pt2_unique_rating,1167716,Solara Glen,,53,,,5,,,,,,,,,,,,,,,
null,,confidence_buffer,1167818,confidence_buffer,,null,,,,,,,,,,,,,,,,,,
2849.099999964237,,pt2_memorable_rating,1170668,Solara Glen,,52,,,4,,,,,,,,,,,,,,,
null,,confidence_buffer,1170770,confidence_buffer,,null,,,,,,,,,,,,,,,,,,
1040.800000011921,,recognition_phase,1171812,Solara Glen,,49,,,,,,old,1,1,,,,,,,,,,
null,,confidence_buffer,1171914,confidence_buffer,,null,,,,,,,,,,,,,,,,,,
null,,thebreak,1172416,break,,null,,,,,,,,,,,,,,,,,,
2490.599999964237,,realistic_rating,1174907,San Antonio,,53,San Antonio,US,5,,,,,,,,,,,,,,,
null,,confidence_buffer,1175009,confidence_buffer,,null,,,,,,,,,,,,,,,,,,
1898.300000011921,,pt2_unique_rating,1176908,San Antonio,,51,,,3,,,,,,,,,,,,,,,
null,,confidence_buffer,1177010,confidence_buffer,,null,,,,,,,,,,,,,,,,,,
2409.199999988079,,pt2_memorable_rating,1179420,San Antonio,,53,,,5,,,,,,,,,,,,,,,
null,,confidence_buffer,1179522,confidence_buffer,,null,,,,,,,,,,,,,,,,,,
985,,recognition_phase,1180508,San Antonio,,49,,,,,,old,1,1,,,,,,,,,,
null,,confidence_buffer,1180610,confidence_buffer,,null,,,,,,,,,,,,,,,,,,
null,,thebreak,1181111,break,,null,,,,,,,,,,,,,,,,,,
3692,,realistic_rating,1184805,Maplehurst,,51,Maplehurst,Fictional,3,,,,,,,,,,,,,,,
null,,confidence_buffer,1184907,confidence_buffer,,null,,,,,,,,,,,,,,,,,,
2831.899999976158,,pt2_unique_rating,1187740,Maplehurst,,50,,,2,,,,,,,,,,,,,,,
null,,confidence_buffer,1187842,confidence_buffer,,null,,,,,,,,,,,,,,,,,,
2777,,pt2_memorable_rating,1190620,Maplehurst,,52,,,4,,,,,,,,,,,,,,,
null,,confidence_buffer,1190722,confidence_buffer,,null,,,,,,,,,,,,,,,,,,
3521.100000023842,,recognition_phase,1194244,Maplehurst,,52,,,,,,new,1,1,,,,,,,,,,
null,,confidence_buffer,1194346,confidence_buffer,,null,,,,,,,,,,,,,,,,,,
null,,thebreak,1194847,break,,null,,,,,,,,,,,,,,,,,,
3315.300000011921,,realistic_rating,1198164,Barnard,,53,Barnard,US,5,,,,,,,,,,,,,,,
null,,confidence_buffer,1198267,confidence_buffer,,null,,,,,,,,,,,,,,,,,,
4136,,probe_rating,1202404,probe_rating,,51,,,,3,1,,,,,,,,,,,,,
null,,confidence_buffer,1202506,confidence_buffer,,null,,,,,,,,,,,,,,,,,,
2504.199999988079,,pt2_unique_rating,1205012,Barnard,,50,,,2,,,,,,,,,,,,,,,
null,,confidence_buffer,1205115,confidence_buffer,,null,,,,,,,,,,,,,,,,,,
2479.899999976158,,pt2_memorable_rating,1207595,Barnard,,52,,,4,,,,,,,,,,,,,,,
null,,confidence_buffer,1207696,confidence_buffer,,null,,,,,,,,,,,,,,,,,,
1690,,recognition_phase,1209388,Barnard,,49,,,,,,old,1,1,,,,,,,,,,
null,,confidence_buffer,1209490,confidence_buffer,,null,,,,,,,,,,,,,,,,,,
null,,thebreak,1209992,break,,null,,,,,,,,,,,,,,,,,,
2715,,realistic_rating,1212708,Ashford Hills,,53,Ashford Hills,Fictional,5,,,,,,,,,,,,,,,
null,,confidence_buffer,1212810,confidence_buffer,,null,,,,,,,,,,,,,,,,,,
2887.899999976158,,pt2_unique_rating,1215700,Ashford Hills,,50,,,2,,,,,,,,,,,,,,,
null,,confidence_buffer,1215801,confidence_buffer,,null,,,,,,,,,,,,,,,,,,
1505.0999999642372,,pt2_memorable_rating,1217308,Ashford Hills,,52,,,4,,,,,,,,,,,,,,,
null,,confidence_buffer,1217409,confidence_buffer,,null,,,,,,,,,,,,,,,,,,
2584.400000035763,,recognition_phase,1219995,Ashford Hills,,52,,,,,,new,1,1,,,,,,,,,,
null,,confidence_buffer,1220096,confidence_buffer,,null,,,,,,,,,,,,,,,,,,
null,,thebreak,1220598,break,,null,,,,,,,,,,,,,,,,,,
2780.100000023842,,realistic_rating,1223379,Briarfield,,49,Briarfield,Fictional,1,,,,,,,,,,,,,,,
null,,confidence_buffer,1223481,confidence_buffer,,null,,,,,,,,,,,,,,,,,,
1889.0999999642372,,pt2_unique_rating,1225372,Briarfield,,53,,,5,,,,,,,,,,,,,,,
null,,confidence_buffer,1225473,confidence_buffer,,null,,,,,,,,,,,,,,,,,,
1993.0999999642372,,probe_rating,1227468,probe_rating,,53,,,,5,1,,,,,,,,,,,,,
null,,confidence_buffer,1227569,confidence_buffer,,null,,,,,,,,,,,,,,,,,,
1929.0999999642372,,pt2_memorable_rating,1229500,Briarfield,,52,,,4,,,,,,,,,,,,,,,
null,,confidence_buffer,1229601,confidence_buffer,,null,,,,,,,,,,,,,,,,,,
2081,,recognition_phase,1231684,Briarfield,,49,,,,,,old,1,1,,,,,,,,,,
null,,confidence_buffer,1231785,confidence_buffer,,null,,,,,,,,,,,,,,,,,,
null,,thebreak,1232286,break,,null,,,,,,,,,,,,,,,,,,
3948.300000011921,,realistic_rating,1236236,Bayshore Haven,,53,Bayshore Haven,Fictional,5,,,,,,,,,,,,,,,
null,,confidence_buffer,1236337,confidence_buffer,,null,,,,,,,,,,,,,,,,,,
2296.800000011921,,pt2_unique_rating,1238635,Bayshore Haven,,49,,,1,,,,,,,,,,,,,,,
null,,confidence_buffer,1238737,confidence_buffer,,null,,,,,,,,,,,,,,,,,,
1417.300000011921,,pt2_memorable_rating,1240156,Bayshore Haven,,50,,,2,,,,,,,,,,,,,,,
null,,confidence_buffer,1240257,confidence_buffer,,null,,,,,,,,,,,,,,,,,,
1265.300000011921,,recognition_phase,1241524,Bayshore Haven,,49,,,,,,old,1,1,,,,,,,,,,
null,,confidence_buffer,1241625,confidence_buffer,,null,,,,,,,,,,,,,,,,,,
null,,thebreak,1242127,break,,null,,,,,,,,,,,,,,,,,,
8427.599999964237,,realistic_rating,1250556,West Talora,,53,West Talora,Fictional,5,,,,,,,,,,,,,,,
null,,confidence_buffer,1250658,confidence_buffer,,null,,,,,,,,,,,,,,,,,,
1744.3999999761581,,pt2_unique_rating,1252403,West Talora,,51,,,3,,,,,,,,,,,,,,,
null,,confidence_buffer,1252505,confidence_buffer,,null,,,,,,,,,,,,,,,,,,
2232.899999976158,,pt2_memorable_rating,1254739,West Talora,,51,,,3,,,,,,,,,,,,,,,
null,,confidence_buffer,1254841,confidence_buffer,,null,,,,,,,,,,,,,,,,,,
1072.800000011921,,recognition_phase,1255915,West Talora,,49,,,,,,old,1,1,,,,,,,,,,
null,,confidence_buffer,1256025,confidence_buffer,,null,,,,,,,,,,,,,,,,,,
null,,thebreak,1256527,break,,null,,,,,,,,,,,,,,,,,,
8251.400000035763,,realistic_rating,1264780,Crestwood,,53,Crestwood,Fictional,5,,,,,,,,,,,,,,,
null,,confidence_buffer,1264881,confidence_buffer,,null,,,,,,,,,,,,,,,,,,
2144.699999988079,,pt2_unique_rating,1267028,Crestwood,,49,,,1,,,,,,,,,,,,,,,
null,,confidence_buffer,1267129,confidence_buffer,,null,,,,,,,,,,,,,,,,,,
1712.5999999642372,,pt2_memorable_rating,1268843,Crestwood,,50,,,2,,,,,,,,,,,,,,,
null,,confidence_buffer,1268945,confidence_buffer,,null,,,,,,,,,,,,,,,,,,
1192.5,,recognition_phase,1270139,Crestwood,,49,,,,,,old,1,1,,,,,,,,,,
null,,confidence_buffer,1270241,confidence_buffer,,null,,,,,,,,,,,,,,,,,,
null,,thebreak,1270742,break,,null,,,,,,,,,,,,,,,,,,
2380.099999964237,,realistic_rating,1273123,Millstone,,53,Millstone,Fictional,5,,,,,,,,,,,,,,,
null,,confidence_buffer,1273225,confidence_buffer,,null,,,,,,,,,,,,,,,,,,
1017.0999999642372,,pt2_unique_rating,1274243,Millstone,,49,,,1,,,,,,,,,,,,,,,
null,,confidence_buffer,1274345,confidence_buffer,,null,,,,,,,,,,,,,,,,,,
1600.800000011921,,pt2_memorable_rating,1275946,Millstone,,49,,,1,,,,,,,,,,,,,,,
null,,confidence_buffer,1276048,confidence_buffer,,null,,,,,,,,,,,,,,,,,,
4450.600000023842,,probe_rating,1280499,probe_rating,,49,,,,1,1,,,,,,,,,,,,,
null,,confidence_buffer,1280601,confidence_buffer,,null,,,,,,,,,,,,,,,,,,
3753.100000023842,,recognition_phase,1284355,Millstone,,49,,,,,,old,1,1,,,,,,,,,,
null,,confidence_buffer,1284458,confidence_buffer,,null,,,,,,,,,,,,,,,,,,
null,,thebreak,1284959,break,,null,,,,,,,,,,,,,,,,,,
2066.5,,realistic_rating,1287027,Boulder,,53,Boulder,US,5,,,,,,,,,,,,,,,
null,,confidence_buffer,1287129,confidence_buffer,,null,,,,,,,,,,,,,,,,,,
2889.100000023842,,pt2_unique_rating,1290019,Boulder,,52,,,4,,,,,,,,,,,,,,,
null,,confidence_buffer,1290120,confidence_buffer,,null,,,,,,,,,,,,,,,,,,
1594.0999999642372,,pt2_memorable_rating,1291715,Boulder,,53,,,5,,,,,,,,,,,,,,,
null,,confidence_buffer,1291817,confidence_buffer,,null,,,,,,,,,,,,,,,,,,
1216.9000000357628,,recognition_phase,1293035,Boulder,,49,,,,,,old,1,1,,,,,,,,,,
null,,confidence_buffer,1293137,confidence_buffer,,null,,,,,,,,,,,,,,,,,,
null,,thebreak,1293638,break,,null,,,,,,,,,,,,,,,,,,
4764.100000023842,,realistic_rating,1298403,Medora,,51,Medora,US,3,,,,,,,,,,,,,,,
null,,confidence_buffer,1298505,confidence_buffer,,null,,,,,,,,,,,,,,,,,,
2769.100000023842,,pt2_unique_rating,1301275,Medora,,53,,,5,,,,,,,,,,,,,,,
null,,confidence_buffer,1301377,confidence_buffer,,null,,,,,,,,,,,,,,,,,,
1937,,pt2_memorable_rating,1303315,Medora,,52,,,4,,,,,,,,,,,,,,,
null,,confidence_buffer,1303417,confidence_buffer,,null,,,,,,,,,,,,,,,,,,
1129,,recognition_phase,1304547,Medora,,49,,,,,,old,1,1,,,,,,,,,,
null,,confidence_buffer,1304649,confidence_buffer,,null,,,,,,,,,,,,,,,,,,
null,,thebreak,1305150,break,,null,,,,,,,,,,,,,,,,,,
3883.7000000476837,,realistic_rating,1309035,Natchez,,50,Natchez,US,2,,,,,,,,,,,,,,,
null,,confidence_buffer,1309137,confidence_buffer,,null,,,,,,,,,,,,,,,,,,
3104.699999988079,,pt2_unique_rating,1312243,Natchez,,53,,,5,,,,,,,,,,,,,,,
null,,confidence_buffer,1312345,confidence_buffer,,null,,,,,,,,,,,,,,,,,,
2025.199999988079,,pt2_memorable_rating,1314371,Natchez,,53,,,5,,,,,,,,,,,,,,,
null,,confidence_buffer,1314473,confidence_buffer,,null,,,,,,,,,,,,,,,,,,
1080.9000000357628,,recognition_phase,1315555,Natchez,,49,,,,,,old,1,1,,,,,,,,,,
null,,confidence_buffer,1315657,confidence_buffer,,null,,,,,,,,,,,,,,,,,,
null,,thebreak,1316158,break,,null,,,,,,,,,,,,,,,,,,
3169.600000023842,,realistic_rating,1319330,Leesburg,,53,Leesburg,US,5,,,,,,,,,,,,,,,
null,,confidence_buffer,1319432,confidence_buffer,,null,,,,,,,,,,,,,,,,,,
1538.0999999642372,,pt2_unique_rating,1320971,Leesburg,,49,,,1,,,,,,,,,,,,,,,
null,,confidence_buffer,1321073,confidence_buffer,,null,,,,,,,,,,,,,,,,,,
2128.900000035763,,pt2_memorable_rating,1323203,Leesburg,,49,,,1,,,,,,,,,,,,,,,
null,,confidence_buffer,1323305,confidence_buffer,,null,,,,,,,,,,,,,,,,,,
1632.8999999761581,,recognition_phase,1324939,Leesburg,,52,,,,,,new,1,1,,,,,,,,,,
null,,confidence_buffer,1325041,confidence_buffer,,null,,,,,,,,,,,,,,,,,,
null,,thebreak,1325543,break,,null,,,,,,,,,,,,,,,,,,
11811,,realistic_rating,1337355,Clearbrook,,52,Clearbrook,Fictional,4,,,,,,,,,,,,,,,
null,,confidence_buffer,1337457,confidence_buffer,,null,,,,,,,,,,,,,,,,,,
2936.600000023842,,pt2_unique_rating,1340394,Clearbrook,,49,,,1,,,,,,,,,,,,,,,
null,,confidence_buffer,1340496,confidence_buffer,,null,,,,,,,,,,,,,,,,,,
3202.2000000476837,,pt2_memorable_rating,1343699,Clearbrook,,50,,,2,,,,,,,,,,,,,,,
null,,confidence_buffer,1343801,confidence_buffer,,null,,,,,,,,,,,,,,,,,,
1392.8999999761581,,recognition_phase,1345195,Clearbrook,,52,,,,,,new,1,1,,,,,,,,,,
null,,confidence_buffer,1345296,confidence_buffer,,null,,,,,,,,,,,,,,,,,,
null,,thebreak,1345799,break,,null,,,,,,,,,,,,,,,,,,
14554.099999964237,,realistic_rating,1360354,Stonebrook,,51,Stonebrook,Fictional,3,,,,,,,,,,,,,,,
null,,confidence_buffer,1360456,confidence_buffer,,null,,,,,,,,,,,,,,,,,,
4153.299999952316,,pt2_unique_rating,1364611,Stonebrook,,50,,,2,,,,,,,,,,,,,,,
null,,confidence_buffer,1364712,confidence_buffer,,null,,,,,,,,,,,,,,,,,,
4809.199999988079,,pt2_memorable_rating,1369523,Stonebrook,,51,,,3,,,,,,,,,,,,,,,
null,,confidence_buffer,1369625,confidence_buffer,,null,,,,,,,,,,,,,,,,,,
1160.1000000238419,,recognition_phase,1370787,Stonebrook,,52,,,,,,new,1,1,,,,,,,,,,
null,,confidence_buffer,1370888,confidence_buffer,,null,,,,,,,,,,,,,,,,,,
null,,thebreak,1371389,break,,null,,,,,,,,,,,,,,,,,,
9652.099999964237,,realistic_rating,1381043,Rosehollow,,49,Rosehollow,Fictional,1,,,,,,,,,,,,,,,
null,,confidence_buffer,1381144,confidence_buffer,,null,,,,,,,,,,,,,,,,,,
1896.5999999642372,,pt2_unique_rating,1383042,Rosehollow,,53,,,5,,,,,,,,,,,,,,,
null,,confidence_buffer,1383143,confidence_buffer,,null,,,,,,,,,,,,,,,,,,
1682.2000000476837,,pt2_memorable_rating,1384826,Rosehollow,,53,,,5,,,,,,,,,,,,,,,
null,,confidence_buffer,1384928,confidence_buffer,,null,,,,,,,,,,,,,,,,,,
1224.699999988079,,recognition_phase,1386154,Rosehollow,,49,,,,,,old,1,1,,,,,,,,,,
null,,confidence_buffer,1386256,confidence_buffer,,null,,,,,,,,,,,,,,,,,,
null,,thebreak,1386758,break,,null,,,,,,,,,,,,,,,,,,
8330.699999988079,,realistic_rating,1395090,Huntsville,,53,Huntsville,US,5,,,,,,,,,,,,,,,
null,,confidence_buffer,1395192,confidence_buffer,,null,,,,,,,,,,,,,,,,,,
2169,,pt2_unique_rating,1397362,Huntsville,,51,,,3,,,,,,,,,,,,,,,
null,,confidence_buffer,1397464,confidence_buffer,,null,,,,,,,,,,,,,,,,,,
1680.5,,probe_rating,1399146,probe_rating,,49,,,,1,1,,,,,,,,,,,,,
null,,confidence_buffer,1399247,confidence_buffer,,null,,,,,,,,,,,,,,,,,,
3018.199999988079,,pt2_memorable_rating,1402266,Huntsville,,52,,,4,,,,,,,,,,,,,,,
null,,confidence_buffer,1402368,confidence_buffer,,null,,,,,,,,,,,,,,,,,,
1720.5,,recognition_phase,1404090,Huntsville,,52,,,,,,new,1,1,,,,,,,,,,
null,,confidence_buffer,1404192,confidence_buffer,,null,,,,,,,,,,,,,,,,,,
null,,thebreak,1404693,break,,null,,,,,,,,,,,,,,,,,,
1996.300000011921,,realistic_rating,1406690,Athens,,53,Athens,US,5,,,,,,,,,,,,,,,
null,,confidence_buffer,1406792,confidence_buffer,,null,,,,,,,,,,,,,,,,,,
1904.5,,pt2_unique_rating,1408698,Athens,,53,,,5,,,,,,,,,,,,,,,
null,,confidence_buffer,1408799,confidence_buffer,,null,,,,,,,,,,,,,,,,,,
1529.5,,pt2_memorable_rating,1410330,Athens,,53,,,5,,,,,,,,,,,,,,,
null,,confidence_buffer,1410433,confidence_buffer,,null,,,,,,,,,,,,,,,,,,
2312.199999988079,,recognition_phase,1412746,Athens,,52,,,,,,new,1,1,,,,,,,,,,
null,,confidence_buffer,1412848,confidence_buffer,,null,,,,,,,,,,,,,,,,,,
null,,thebreak,1413350,break,,null,,,,,,,,,,,,,,,,,,
3619.300000011921,,realistic_rating,1416970,Lake of the Ozarks,,49,Lake of the Ozarks,US,1,,,,,,,,,,,,,,,
null,,confidence_buffer,1417072,confidence_buffer,,null,,,,,,,,,,,,,,,,,,
1225,,pt2_unique_rating,1418298,Lake of the Ozarks,,53,,,5,,,,,,,,,,,,,,,
null,,confidence_buffer,1418400,confidence_buffer,,null,,,,,,,,,,,,,,,,,,
1945,,pt2_memorable_rating,1420346,Lake of the Ozarks,,53,,,5,,,,,,,,,,,,,,,
null,,confidence_buffer,1420448,confidence_buffer,,null,,,,,,,,,,,,,,,,,,
1793.0999999642372,,recognition_phase,1422242,Lake of the Ozarks,,49,,,,,,old,1,1,,,,,,,,,,
null,,confidence_buffer,1422344,confidence_buffer,,null,,,,,,,,,,,,,,,,,,
null,,thebreak,1422846,break,,null,,,,,,,,,,,,,,,,,,
2882.900000035763,,realistic_rating,1425730,Sierra Hollow,,49,Sierra Hollow,Fictional,1,,,,,,,,,,,,,,,
null,,confidence_buffer,1425833,confidence_buffer,,null,,,,,,,,,,,,,,,,,,
2047.199999988079,,pt2_unique_rating,1427881,Sierra Hollow,,52,,,4,,,,,,,,,,,,,,,
null,,confidence_buffer,1427983,confidence_buffer,,null,,,,,,,,,,,,,,,,,,
2202.199999988079,,pt2_memorable_rating,1430186,Sierra Hollow,,53,,,5,,,,,,,,,,,,,,,
null,,confidence_buffer,1430288,confidence_buffer,,null,,,,,,,,,,,,,,,,,,
1369,,recognition_phase,1431658,Sierra Hollow,,49,,,,,,old,1,1,,,,,,,,,,
null,,confidence_buffer,1431760,confidence_buffer,,null,,,,,,,,,,,,,,,,,,
null,,thebreak,1432261,break,,null,,,,,,,,,,,,,,,,,,
5763.5,,realistic_rating,1438026,Hawthorne Bluffs,,49,Hawthorne Bluffs,Fictional,1,,,,,,,,,,,,,,,
null,,confidence_buffer,1438128,confidence_buffer,,null,,,,,,,,,,,,,,,,,,
1112,,pt2_unique_rating,1439241,Hawthorne Bluffs,,53,,,5,,,,,,,,,,,,,,,
null,,confidence_buffer,1439343,confidence_buffer,,null,,,,,,,,,,,,,,,,,,
1482.2000000476837,,pt2_memorable_rating,1440826,Hawthorne Bluffs,,53,,,5,,,,,,,,,,,,,,,
null,,confidence_buffer,1440927,confidence_buffer,,null,,,,,,,,,,,,,,,,,,
1192.699999988079,,recognition_phase,1442121,Hawthorne Bluffs,,49,,,,,,old,1,1,,,,,,,,,,
null,,confidence_buffer,1442223,confidence_buffer,,null,,,,,,,,,,,,,,,,,,
null,,thebreak,1442725,break,,null,,,,,,,,,,,,,,,,,,
6100.100000023842,,realistic_rating,1448826,Bisbee,,50,Bisbee,US,2,,,,,,,,,,,,,,,
null,,confidence_buffer,1448927,confidence_buffer,,null,,,,,,,,,,,,,,,,,,
1393.1000000238419,,pt2_unique_rating,1450322,Bisbee,,53,,,5,,,,,,,,,,,,,,,
null,,confidence_buffer,1450423,confidence_buffer,,null,,,,,,,,,,,,,,,,,,
1960.8999999761581,,pt2_memorable_rating,1452386,Bisbee,,52,,,4,,,,,,,,,,,,,,,
null,,confidence_buffer,1452487,confidence_buffer,,null,,,,,,,,,,,,,,,,,,
1345.1000000238419,,recognition_phase,1453834,Bisbee,,52,,,,,,new,1,1,,,,,,,,,,
null,,confidence_buffer,1453948,confidence_buffer,,null,,,,,,,,,,,,,,,,,,
null,,thebreak,1454449,break,,null,,,,,,,,,,,,,,,,,,
2519.300000011921,,realistic_rating,1456970,Custer,,49,Custer,US,1,,,,,,,,,,,,,,,
null,,confidence_buffer,1457071,confidence_buffer,,null,,,,,,,,,,,,,,,,,,
2761.2000000476837,,pt2_unique_rating,1459834,Custer,,51,,,3,,,,,,,,,,,,,,,
null,,confidence_buffer,1459935,confidence_buffer,,null,,,,,,,,,,,,,,,,,,
2417.5,,pt2_memorable_rating,1462354,Custer,,52,,,4,,,,,,,,,,,,,,,
null,,confidence_buffer,1462455,confidence_buffer,,null,,,,,,,,,,,,,,,,,,
1320.8999999761581,,recognition_phase,1463778,Custer,,52,,,,,,new,1,1,,,,,,,,,,
null,,confidence_buffer,1463879,confidence_buffer,,null,,,,,,,,,,,,,,,,,,
null,,thebreak,1464380,break,,null,,,,,,,,,,,,,,,,,,
2211.899999976158,,realistic_rating,1466594,Livingston,,53,Livingston,US,5,,,,,,,,,,,,,,,
null,,confidence_buffer,1466696,confidence_buffer,,null,,,,,,,,,,,,,,,,,,
4928.599999964237,,pt2_unique_rating,1471626,Livingston,,49,,,1,,,,,,,,,,,,,,,
null,,confidence_buffer,1471727,confidence_buffer,,null,,,,,,,,,,,,,,,,,,
1633,,pt2_memorable_rating,1473362,Livingston,,51,,,3,,,,,,,,,,,,,,,
null,,confidence_buffer,1473463,confidence_buffer,,null,,,,,,,,,,,,,,,,,,
1065.0999999642372,,recognition_phase,1474530,Livingston,,49,,,,,,old,1,1,,,,,,,,,,
null,,confidence_buffer,1474631,confidence_buffer,,null,,,,,,,,,,,,,,,,,,
null,,thebreak,1475132,break,,null,,,,,,,,,,,,,,,,,,
11836.5,,realistic_rating,1486970,Coralridge,,53,Coralridge,Fictional,5,,,,,,,,,,,,,,,
null,,confidence_buffer,1487072,confidence_buffer,,null,,,,,,,,,,,,,,,,,,
3640,,probe_rating,1490714,probe_rating,,50,,,,2,1,,,,,,,,,,,,,
null,,confidence_buffer,1490815,confidence_buffer,,null,,,,,,,,,,,,,,,,,,
3353,,pt2_unique_rating,1494169,Coralridge,,52,,,4,,,,,,,,,,,,,,,
null,,confidence_buffer,1494271,confidence_buffer,,null,,,,,,,,,,,,,,,,,,
1760.5,,pt2_memorable_rating,1496033,Coralridge,,53,,,5,,,,,,,,,,,,,,,
null,,confidence_buffer,1496134,confidence_buffer,,null,,,,,,,,,,,,,,,,,,
4170.199999988079,,recognition_phase,1500306,Coralridge,,52,,,,,,new,1,1,,,,,,,,,,
null,,confidence_buffer,1500408,confidence_buffer,,null,,,,,,,,,,,,,,,,,,
null,,thebreak,1500909,break,,null,,,,,,,,,,,,,,,,,,
3418.899999976158,,realistic_rating,1504329,Peoria,,50,Peoria,US,2,,,,,,,,,,,,,,,
null,,confidence_buffer,1504431,confidence_buffer,,null,,,,,,,,,,,,,,,,,,
2184.899999976158,,pt2_unique_rating,1506617,Peoria,,52,,,4,,,,,,,,,,,,,,,
null,,confidence_buffer,1506719,confidence_buffer,,null,,,,,,,,,,,,,,,,,,
1416.6000000238419,,probe_rating,1508137,probe_rating,,50,,,,2,1,,,,,,,,,,,,,
null,,confidence_buffer,1508238,confidence_buffer,,null,,,,,,,,,,,,,,,,,,
7785.300000011921,,pt2_memorable_rating,1516025,Peoria,,51,,,3,,,,,,,,,,,,,,,
null,,confidence_buffer,1516126,confidence_buffer,,null,,,,,,,,,,,,,,,,,,
1625.5,,recognition_phase,1517753,Peoria,,49,,,,,,old,1,1,,,,,,,,,,
null,,confidence_buffer,1517855,confidence_buffer,,null,,,,,,,,,,,,,,,,,,
null,,thebreak,1518357,break,,null,,,,,,,,,,,,,,,,,,
8474.800000011921,,realistic_rating,1526833,Redgrove,,52,Redgrove,Fictional,4,,,,,,,,,,,,,,,
null,,confidence_buffer,1526935,confidence_buffer,,null,,,,,,,,,,,,,,,,,,
1209.6000000238419,,pt2_unique_rating,1528145,Redgrove,,49,,,1,,,,,,,,,,,,,,,
null,,confidence_buffer,1528247,confidence_buffer,,null,,,,,,,,,,,,,,,,,,
2241,,pt2_memorable_rating,1530489,Redgrove,,50,,,2,,,,,,,,,,,,,,,
null,,confidence_buffer,1530591,confidence_buffer,,null,,,,,,,,,,,,,,,,,,
1185,,recognition_phase,1531777,Redgrove,,49,,,,,,old,1,1,,,,,,,,,,
null,,confidence_buffer,1531879,confidence_buffer,,null,,,,,,,,,,,,,,,,,,
null,,thebreak,1532391,break,,null,,,,,,,,,,,,,,,,,,
6080.899999976158,,realistic_rating,1538473,Orchard Bend,,49,Orchard Bend,Fictional,1,,,,,,,,,,,,,,,
null,,confidence_buffer,1538575,confidence_buffer,,null,,,,,,,,,,,,,,,,,,
3153.099999964237,,pt2_unique_rating,1541729,Orchard Bend,,52,,,4,,,,,,,,,,,,,,,
null,,confidence_buffer,1541831,confidence_buffer,,null,,,,,,,,,,,,,,,,,,
1576.5,,pt2_memorable_rating,1543409,Orchard Bend,,52,,,4,,,,,,,,,,,,,,,
null,,confidence_buffer,1543511,confidence_buffer,,null,,,,,,,,,,,,,,,,,,
1048.6000000238419,,recognition_phase,1544561,Orchard Bend,,49,,,,,,old,1,1,,,,,,,,,,
null,,confidence_buffer,1544663,confidence_buffer,,null,,,,,,,,,,,,,,,,,,
null,,thebreak,1545164,break,,null,,,,,,,,,,,,,,,,,,
6451,,realistic_rating,1551616,Pine Hollow,,49,Pine Hollow,Fictional,1,,,,,,,,,,,,,,,
null,,confidence_buffer,1551719,confidence_buffer,,null,,,,,,,,,,,,,,,,,,
1568.5,,pt2_unique_rating,1553289,Pine Hollow,,52,,,4,,,,,,,,,,,,,,,
null,,confidence_buffer,1553391,confidence_buffer,,null,,,,,,,,,,,,,,,,,,
7777,,pt2_memorable_rating,1561169,Pine Hollow,,53,,,5,,,,,,,,,,,,,,,
null,,confidence_buffer,1561271,confidence_buffer,,null,,,,,,,,,,,,,,,,,,
1577.199999988079,,recognition_phase,1562849,Pine Hollow,,52,,,,,,new,1,1,,,,,,,,,,
null,,confidence_buffer,1562951,confidence_buffer,,null,,,,,,,,,,,,,,,,,,
null,,thebreak,1563452,break,,null,,,,,,,,,,,,,,,,,,
3931.899999976158,,realistic_rating,1567385,North Arroya,,52,North Arroya,Fictional,4,,,,,,,,,,,,,,,
null,,confidence_buffer,1567486,confidence_buffer,,null,,,,,,,,,,,,,,,,,,
3129,,pt2_unique_rating,1570617,North Arroya,,53,,,5,,,,,,,,,,,,,,,
null,,confidence_buffer,1570718,confidence_buffer,,null,,,,,,,,,,,,,,,,,,
1529,,pt2_memorable_rating,1572249,North Arroya,,53,,,5,,,,,,,,,,,,,,,
null,,confidence_buffer,1572350,confidence_buffer,,null,,,,,,,,,,,,,,,,,,
1249.300000011921,,recognition_phase,1573601,North Arroya,,52,,,,,,new,1,1,,,,,,,,,,
null,,confidence_buffer,1573702,confidence_buffer,,null,,,,,,,,,,,,,,,,,,
null,,thebreak,1574204,break,,null,,,,,,,,,,,,,,,,,,
5395.199999988079,,realistic_rating,1579601,Ironwood Heights,,50,Ironwood Heights,Fictional,2,,,,,,,,,,,,,,,
null,,confidence_buffer,1579702,confidence_buffer,,null,,,,,,,,,,,,,,,,,,
2745.199999988079,,pt2_unique_rating,1582449,Ironwood Heights,,52,,,4,,,,,,,,,,,,,,,
null,,confidence_buffer,1582550,confidence_buffer,,null,,,,,,,,,,,,,,,,,,
2049.199999988079,,pt2_memorable_rating,1584601,Ironwood Heights,,53,,,5,,,,,,,,,,,,,,,
null,,confidence_buffer,1584702,confidence_buffer,,null,,,,,,,,,,,,,,,,,,
1568.9000000357628,,recognition_phase,1586273,Ironwood Heights,,52,,,,,,new,1,1,,,,,,,,,,
null,,confidence_buffer,1586374,confidence_buffer,,null,,,,,,,,,,,,,,,,,,
null,,thebreak,1586876,break,,null,,,,,,,,,,,,,,,,,,
3451.100000023842,,realistic_rating,1590329,Shreveport,,53,Shreveport,US,5,,,,,,,,,,,,,,,
null,,confidence_buffer,1590430,confidence_buffer,,null,,,,,,,,,,,,,,,,,,
2945,,pt2_unique_rating,1593376,Shreveport,,53,,,5,,,,,,,,,,,,,,,
null,,confidence_buffer,1593479,confidence_buffer,,null,,,,,,,,,,,,,,,,,,
1753,,pt2_memorable_rating,1595233,Shreveport,,53,,,5,,,,,,,,,,,,,,,
null,,confidence_buffer,1595341,confidence_buffer,,null,,,,,,,,,,,,,,,,,,
1393.6000000238419,,recognition_phase,1596736,Shreveport,,52,,,,,,new,1,1,,,,,,,,,,
null,,confidence_buffer,1596838,confidence_buffer,,null,,,,,,,,,,,,,,,,,,
null,,thebreak,1597340,break,,null,,,,,,,,,,,,,,,,,,
4787.5,,realistic_rating,1602129,Fairhaven,,53,Fairhaven,Fictional,5,,,,,,,,,,,,,,,
null,,confidence_buffer,1602231,confidence_buffer,,null,,,,,,,,,,,,,,,,,,
4744.100000023842,,probe_rating,1606976,probe_rating,,53,,,,5,1,,,,,,,,,,,,,
null,,confidence_buffer,1607087,confidence_buffer,,null,,,,,,,,,,,,,,,,,,
2392.5,,pt2_unique_rating,1609480,Fairhaven,,51,,,3,,,,,,,,,,,,,,,
null,,confidence_buffer,1609581,confidence_buffer,,null,,,,,,,,,,,,,,,,,,
2433.699999988079,,pt2_memorable_rating,1612016,Fairhaven,,52,,,4,,,,,,,,,,,,,,,
null,,confidence_buffer,1612117,confidence_buffer,,null,,,,,,,,,,,,,,,,,,
1673.699999988079,,recognition_phase,1613792,Fairhaven,,49,,,,,,old,1,1,,,,,,,,,,
null,,confidence_buffer,1613895,confidence_buffer,,null,,,,,,,,,,,,,,,,,,
null,,thebreak,1614396,break,,null,,,,,,,,,,,,,,,,,,
4395.100000023842,,realistic_rating,1618793,Hilo,,49,Hilo,US,1,,,,,,,,,,,,,,,
null,,confidence_buffer,1618894,confidence_buffer,,null,,,,,,,,,,,,,,,,,,
8841,,pt2_unique_rating,1627736,Hilo,,51,,,3,,,,,,,,,,,,,,,
null,,confidence_buffer,1627838,confidence_buffer,,null,,,,,,,,,,,,,,,,,,
3592.5,,pt2_memorable_rating,1631432,Hilo,,50,,,2,,,,,,,,,,,,,,,
null,,confidence_buffer,1631533,confidence_buffer,,null,,,,,,,,,,,,,,,,,,
1290.1000000238419,,recognition_phase,1632824,Hilo,,52,,,,,,new,1,1,,,,,,,,,,
null,,confidence_buffer,1632926,confidence_buffer,,null,,,,,,,,,,,,,,,,,,
null,,thebreak,1633427,break,,null,,,,,,,,,,,,,,,,,,
3484,,realistic_rating,1636912,Hot Springs,,53,Hot Springs,US,5,,,,,,,,,,,,,,,
null,,confidence_buffer,1637015,confidence_buffer,,null,,,,,,,,,,,,,,,,,,
1576.199999988079,,pt2_unique_rating,1638592,Hot Springs,,49,,,1,,,,,,,,,,,,,,,
null,,confidence_buffer,1638694,confidence_buffer,,null,,,,,,,,,,,,,,,,,,
1489,,pt2_memorable_rating,1640184,Hot Springs,,49,,,1,,,,,,,,,,,,,,,
null,,confidence_buffer,1640285,confidence_buffer,,null,,,,,,,,,,,,,,,,,,
4465.800000011921,,recognition_phase,1644752,Hot Springs,,52,,,,,,new,1,1,,,,,,,,,,
null,,confidence_buffer,1644854,confidence_buffer,,null,,,,,,,,,,,,,,,,,,
null,,thebreak,1645355,break,,null,,,,,,,,,,,,,,,,,,
8451.900000035763,,realistic_rating,1653808,Gardnerville,,49,Gardnerville,US,1,,,,,,,,,,,,,,,
null,,confidence_buffer,1653910,confidence_buffer,,null,,,,,,,,,,,,,,,,,,
1793.5,,pt2_unique_rating,1655704,Gardnerville,,51,,,3,,,,,,,,,,,,,,,
null,,confidence_buffer,1655807,confidence_buffer,,null,,,,,,,,,,,,,,,,,,
1736.300000011921,,pt2_memorable_rating,1657544,Gardnerville,,52,,,4,,,,,,,,,,,,,,,
null,,confidence_buffer,1657645,confidence_buffer,,null,,,,,,,,,,,,,,,,,,
1681.199999988079,,probe_rating,1659328,probe_rating,,49,,,,1,1,,,,,,,,,,,,,
null,,confidence_buffer,1659430,confidence_buffer,,null,,,,,,,,,,,,,,,,,,
1288.8999999761581,,recognition_phase,1660720,Gardnerville,,52,,,,,,new,1,1,,,,,,,,,,
null,,confidence_buffer,1660822,confidence_buffer,,null,,,,,,,,,,,,,,,,,,
null,,thebreak,1661323,break,,null,,,,,,,,,,,,,,,,,,
3740,,realistic_rating,1665064,Cape May,,50,Cape May,US,2,,,,,,,,,,,,,,,
null,,confidence_buffer,1665166,confidence_buffer,,null,,,,,,,,,,,,,,,,,,
1456.5,,pt2_unique_rating,1666624,Cape May,,52,,,4,,,,,,,,,,,,,,,
null,,confidence_buffer,1666726,confidence_buffer,,null,,,,,,,,,,,,,,,,,,
4976.399999976158,,pt2_memorable_rating,1671704,Cape May,,51,,,3,,,,,,,,,,,,,,,
null,,confidence_buffer,1671806,confidence_buffer,,null,,,,,,,,,,,,,,,,,,
1440.3999999761581,,recognition_phase,1673248,Cape May,,52,,,,,,new,1,1,,,,,,,,,,
null,,confidence_buffer,1673350,confidence_buffer,,null,,,,,,,,,,,,,,,,,,
null,,thebreak,1673851,break,,null,,,,,,,,,,,,,,,,,,
3115.7000000476837,,realistic_rating,1676968,Sisters,,49,Sisters,US,1,,,,,,,,,,,,,,,
null,,confidence_buffer,1677070,confidence_buffer,,null,,,,,,,,,,,,,,,,,,
2577.100000023842,,pt2_unique_rating,1679648,Sisters,,53,,,5,,,,,,,,,,,,,,,
null,,confidence_buffer,1679749,confidence_buffer,,null,,,,,,,,,,,,,,,,,,
1841.0999999642372,,pt2_memorable_rating,1681592,Sisters,,49,,,1,,,,,,,,,,,,,,,
null,,confidence_buffer,1681693,confidence_buffer,,null,,,,,,,,,,,,,,,,,,
1569,,recognition_phase,1683264,Sisters,,52,,,,,,new,1,1,,,,,,,,,,
null,,confidence_buffer,1683365,confidence_buffer,,null,,,,,,,,,,,,,,,,,,
null,,thebreak,1683868,break,,null,,,,,,,,,,,,,,,,,,
11915,,realistic_rating,1695784,Healdsburg,,53,Healdsburg,US,5,,,,,,,,,,,,,,,
null,,confidence_buffer,1695887,confidence_buffer,,null,,,,,,,,,,,,,,,,,,
1983.4000000357628,,pt2_unique_rating,1697871,Healdsburg,,51,,,3,,,,,,,,,,,,,,,
null,,confidence_buffer,1697972,confidence_buffer,,null,,,,,,,,,,,,,,,,,,
2730.5,,pt2_memorable_rating,1700704,Healdsburg,,51,,,3,,,,,,,,,,,,,,,
null,,confidence_buffer,1700805,confidence_buffer,,null,,,,,,,,,,,,,,,,,,
1353.300000011921,,recognition_phase,1702160,Healdsburg,,49,,,,,,old,1,1,,,,,,,,,,
null,,confidence_buffer,1702262,confidence_buffer,,null,,,,,,,,,,,,,,,,,,
null,,thebreak,1702763,break,,null,,,,,,,,,,,,,,,,,,
3835.800000011921,,realistic_rating,1706600,Racine,,49,Racine,US,1,,,,,,,,,,,,,,,
null,,confidence_buffer,1706701,confidence_buffer,,null,,,,,,,,,,,,,,,,,,
2240.899999976158,,pt2_unique_rating,1708943,Racine,,51,,,3,,,,,,,,,,,,,,,
null,,confidence_buffer,1709045,confidence_buffer,,null,,,,,,,,,,,,,,,,,,
3625,,pt2_memorable_rating,1712672,Racine,,50,,,2,,,,,,,,,,,,,,,
null,,confidence_buffer,1712774,confidence_buffer,,null,,,,,,,,,,,,,,,,,,
1328.0999999642372,,recognition_phase,1714103,Racine,,52,,,,,,new,1,1,,,,,,,,,,
null,,confidence_buffer,1714204,confidence_buffer,,null,,,,,,,,,,,,,,,,,,
null,,thebreak,1714706,break,,null,,,,,,,,,,,,,,,,,,
12500,,realistic_rating,1727208,Westridge,,52,Westridge,Fictional,4,,,,,,,,,,,,,,,
null,,confidence_buffer,1727309,confidence_buffer,,null,,,,,,,,,,,,,,,,,,
2864.599999964237,,pt2_unique_rating,1730175,Westridge,,49,,,1,,,,,,,,,,,,,,,
null,,confidence_buffer,1730277,confidence_buffer,,null,,,,,,,,,,,,,,,,,,
1512.6000000238419,,pt2_memorable_rating,1731791,Westridge,,51,,,3,,,,,,,,,,,,,,,
null,,confidence_buffer,1731893,confidence_buffer,,null,,,,,,,,,,,,,,,,,,
1361.0999999642372,,recognition_phase,1733255,Westridge,,52,,,,,,new,0,0.9811320754716981,,,,,,,,,,
null,,confidence_buffer,1733357,confidence_buffer,,null,,,,,,,,,,,,,,,,,,
null,,thebreak,1733859,break,,null,,,,,,,,,,,,,,,,,,
4203.100000023842,,realistic_rating,1738064,Cornwall,,49,Cornwall,US,1,,,,,,,,,,,,,,,
null,,confidence_buffer,1738165,confidence_buffer,,null,,,,,,,,,,,,,,,,,,
3416.900000035763,,pt2_unique_rating,1741583,Cornwall,,52,,,4,,,,,,,,,,,,,,,
null,,confidence_buffer,1741685,confidence_buffer,,null,,,,,,,,,,,,,,,,,,
1928.8999999761581,,pt2_memorable_rating,1743615,Cornwall,,52,,,4,,,,,,,,,,,,,,,
null,,confidence_buffer,1743717,confidence_buffer,,null,,,,,,,,,,,,,,,,,,
1560.5,,recognition_phase,1745279,Cornwall,,49,,,,,,old,1,0.9814814814814815,,,,,,,,,,
null,,confidence_buffer,1745381,confidence_buffer,,null,,,,,,,,,,,,,,,,,,
null,,thebreak,1745884,break,,null,,,,,,,,,,,,,,,,,,
5522,,realistic_rating,1751407,West Palm Beach,,53,West Palm Beach,US,5,,,,,,,,,,,,,,,
null,,confidence_buffer,1751509,confidence_buffer,,null,,,,,,,,,,,,,,,,,,
2545.100000023842,,pt2_unique_rating,1754055,West Palm Beach,,49,,,1,,,,,,,,,,,,,,,
null,,confidence_buffer,1754157,confidence_buffer,,null,,,,,,,,,,,,,,,,,,
1856.3999999761581,,pt2_memorable_rating,1756014,West Palm Beach,,51,,,3,,,,,,,,,,,,,,,
null,,confidence_buffer,1756117,confidence_buffer,,null,,,,,,,,,,,,,,,,,,
1217.5,,recognition_phase,1757335,West Palm Beach,,52,,,,,,new,1,0.9818181818181818,,,,,,,,,,
null,,confidence_buffer,1757437,confidence_buffer,,null,,,,,,,,,,,,,,,,,,
null,,thebreak,1757940,break,,null,,,,,,,,,,,,,,,,,,
6298.899999976158,,realistic_rating,1764239,Tamarisk Hills,,49,Tamarisk Hills,Fictional,1,,,,,,,,,,,,,,,
null,,confidence_buffer,1764341,confidence_buffer,,null,,,,,,,,,,,,,,,,,,
2369,,pt2_unique_rating,1766711,Tamarisk Hills,,53,,,5,,,,,,,,,,,,,,,
null,,confidence_buffer,1766814,confidence_buffer,,null,,,,,,,,,,,,,,,,,,
2551.399999976158,,probe_rating,1769367,probe_rating,,51,,,,3,1,,,,,,,,,,,,,
null,,confidence_buffer,1769469,confidence_buffer,,null,,,,,,,,,,,,,,,,,,
2241,,pt2_memorable_rating,1771711,Tamarisk Hills,,51,,,3,,,,,,,,,,,,,,,
null,,confidence_buffer,1771814,confidence_buffer,,null,,,,,,,,,,,,,,,,,,
3016.400000035763,,recognition_phase,1774831,Tamarisk Hills,,52,,,,,,new,1,0.9821428571428571,,,,,,,,,,
null,,confidence_buffer,1774934,confidence_buffer,,null,,,,,,,,,,,,,,,,,,
null,,thebreak,1775435,break,,null,,,,,,,,,,,,,,,,,,
3082.699999988079,,realistic_rating,1778519,Golden Trace,,49,Golden Trace,Fictional,1,,,,,,,,,,,,,,,
null,,confidence_buffer,1778621,confidence_buffer,,null,,,,,,,,,,,,,,,,,,
2409,,pt2_unique_rating,1781031,Golden Trace,,51,,,3,,,,,,,,,,,,,,,
null,,confidence_buffer,1781133,confidence_buffer,,null,,,,,,,,,,,,,,,,,,
2473.199999988079,,pt2_memorable_rating,1783607,Golden Trace,,50,,,2,,,,,,,,,,,,,,,
null,,confidence_buffer,1783709,confidence_buffer,,null,,,,,,,,,,,,,,,,,,
1465.2000000476837,,recognition_phase,1785175,Golden Trace,,52,,,,,,new,1,0.9824561403508771,,,,,,,,,,
null,,confidence_buffer,1785276,confidence_buffer,,null,,,,,,,,,,,,,,,,,,
null,,thebreak,1785778,break,,null,,,,,,,,,,,,,,,,,,
3467.899999976158,,realistic_rating,1789247,Maravilla Springs,,52,Maravilla Springs,Fictional,4,,,,,,,,,,,,,,,
null,,confidence_buffer,1789348,confidence_buffer,,null,,,,,,,,,,,,,,,,,,
2672.599999964237,,pt2_unique_rating,1792022,Maravilla Springs,,51,,,3,,,,,,,,,,,,,,,
null,,confidence_buffer,1792124,confidence_buffer,,null,,,,,,,,,,,,,,,,,,
3378.600000023842,,pt2_memorable_rating,1795503,Maravilla Springs,,51,,,3,,,,,,,,,,,,,,,
null,,confidence_buffer,1795605,confidence_buffer,,null,,,,,,,,,,,,,,,,,,
4065,,recognition_phase,1799671,Maravilla Springs,,52,,,,,,new,1,0.9827586206896551,,,,,,,,,,
null,,confidence_buffer,1799774,confidence_buffer,,null,,,,,,,,,,,,,,,,,,
null,,thebreak,1800275,break,,null,,,,,,,,,,,,,,,,,,
1665.300000011921,,realistic_rating,1801942,Bowling Green,,53,Bowling Green,US,5,,,,,,,,,,,,,,,
null,,confidence_buffer,1802043,confidence_buffer,,null,,,,,,,,,,,,,,,,,,
3514.7999999523163,,pt2_unique_rating,1805559,Bowling Green,,51,,,3,,,,,,,,,,,,,,,
null,,confidence_buffer,1805661,confidence_buffer,,null,,,,,,,,,,,,,,,,,,
1407.4000000357628,,pt2_memorable_rating,1807070,Bowling Green,,53,,,5,,,,,,,,,,,,,,,
null,,confidence_buffer,1807171,confidence_buffer,,null,,,,,,,,,,,,,,,,,,
1635.0999999642372,,recognition_phase,1808807,Bowling Green,,49,,,,,,old,1,0.9830508474576272,,,,,,,,,,
null,,confidence_buffer,1808909,confidence_buffer,,null,,,,,,,,,,,,,,,,,,
null,,thebreak,1809410,break,,null,,,,,,,,,,,,,,,,,,
6179,,realistic_rating,1815590,New Verdan,,51,New Verdan,Fictional,3,,,,,,,,,,,,,,,
null,,confidence_buffer,1815692,confidence_buffer,,null,,,,,,,,,,,,,,,,,,
2329.100000023842,,pt2_unique_rating,1818022,New Verdan,,50,,,2,,,,,,,,,,,,,,,
null,,confidence_buffer,1818123,confidence_buffer,,null,,,,,,,,,,,,,,,,,,
4065.899999976158,,pt2_memorable_rating,1822191,New Verdan,,52,,,4,,,,,,,,,,,,,,,
null,,confidence_buffer,1822292,confidence_buffer,,null,,,,,,,,,,,,,,,,,,
2353,,recognition_phase,1824647,New Verdan,,52,,,,,,new,1,0.9833333333333333,,,,,,,,,,
null,,confidence_buffer,1824748,confidence_buffer,,null,,,,,,,,,,,,,,,,,,
null,,thebreak,1825249,break,,null,,,,,,,,,,,,,,,,,,
,,survey,2221256,survey-questions,,,,,,,,,,,none,high,No.,I noticed some of the city names were real cities so I connected them to the other cities to better remember them.,I recalled the names of cities I have heard of and driven through in my life.,I thought about how easy it would be for me to search this city name if I ever had trouble remembering it.,This could be somewhat related to uniness in certain aspects, if I am not entirely sure of how the city name is spelled but can recall it due to it's unique name.,I thought about the names of cities I know about in real life and considered the likeliness of a city bearing each respective name.,No.,Straightforward study, it was easy to navigate.
