rt,responses,trial_type,time_elapsed,stimulus,button_pressed,key_press,name_trial,city_type,rating,probe,probe_accuracy,response,correct,accuracy,problems,smooth,distraction,strategies,familiar,memorable,unique,realistic,similar,comments
22562.099999964237,{worker_id:67ad0fc2981df85a8b4f41e2},id_enter,22568,,,,,,,,,,,,,,,,,,,,,
8501,,fullscreen,31077,fullscreen,0,,,,,,,,,,,,,,,,,,,
10892.100000023842,,intro_0,41973,instruct,,32,,,,,,,,,,,,,,,,,,
5241.300000011921,,intro_1,47217,instruct,,32,,,,,,,,,,,,,,,,,,
6794,,intro_2,54013,instruct,,32,,,,,,,,,,,,,,,,,,
null,,instruct_dir_4,55526,instruct,,null,,,,,,,,,,,,,,,,,,
null,,thebreak,56034,break,,null,,,,,,,,,,,,,,,,,,
8176.699999988079,,familiar_rating,64213,Hanover,,49,Hanover,US,1,,,,,,,,,,,,,,,
null,,confidence_buffer,64326,confidence_buffer,,null,,,,,,,,,,,,,,,,,,
3126.699999988079,,unique_rating,67455,Hanover,,49,,,1,,,,,,,,,,,,,,,
null,,confidence_buffer,67559,confidence_buffer,,null,,,,,,,,,,,,,,,,,,
3538.5,,memorable_rating,71100,Hanover,,49,,,1,,,,,,,,,,,,,,,
null,,confidence_buffer,71210,confidence_buffer,,null,,,,,,,,,,,,,,,,,,
null,,thebreak,71716,break,,null,,,,,,,,,,,,,,,,,,
3710,,familiar_rating,75429,Lakehaven,,49,Lakehaven,Fictional,1,,,,,,,,,,,,,,,
null,,confidence_buffer,75541,confidence_buffer,,null,,,,,,,,,,,,,,,,,,
861.1000000238419,,unique_rating,76404,Lakehaven,,49,,,1,,,,,,,,,,,,,,,
null,,confidence_buffer,76515,confidence_buffer,,null,,,,,,,,,,,,,,,,,,
1419.800000011921,,memorable_rating,77937,Lakehaven,,49,,,1,,,,,,,,,,,,,,,
null,,confidence_buffer,78040,confidence_buffer,,null,,,,,,,,,,,,,,,,,,
null,,thebreak,78545,break,,null,,,,,,,,,,,,,,,,,,
2793,,familiar_rating,81340,Ironwood Heights,,50,Ironwood Heights,Fictional,2,,,,,,,,,,,,,,,
null,,confidence_buffer,81451,confidence_buffer,,null,,,,,,,,,,,,,,,,,,
1618.5,,unique_rating,83072,Ironwood Heights,,49,,,1,,,,,,,,,,,,,,,
null,,confidence_buffer,83179,confidence_buffer,,null,,,,,,,,,,,,,,,,,,
2606.600000023842,,memorable_rating,85788,Ironwood Heights,,50,,,2,,,,,,,,,,,,,,,
null,,confidence_buffer,85898,confidence_buffer,,null,,,,,,,,,,,,,,,,,,
null,,thebreak,86403,break,,null,,,,,,,,,,,,,,,,,,
946.3000000119209,,familiar_rating,87351,West Palm Beach,,49,West Palm Beach,US,1,,,,,,,,,,,,,,,
null,,confidence_buffer,87456,confidence_buffer,,null,,,,,,,,,,,,,,,,,,
1626.8999999761581,,unique_rating,89085,West Palm Beach,,49,,,1,,,,,,,,,,,,,,,
null,,confidence_buffer,89188,confidence_buffer,,null,,,,,,,,,,,,,,,,,,
1242.5,,probe_rating,90432,probe_rating,,50,,,,2,0,,,,,,,,,,,,,
null,,confidence_buffer,90538,confidence_buffer,,null,,,,,,,,,,,,,,,,,,
636.6000000238419,,memorable_rating,91177,West Palm Beach,,50,,,2,,,,,,,,,,,,,,,
null,,confidence_buffer,91288,confidence_buffer,,null,,,,,,,,,,,,,,,,,,
null,,thebreak,91798,break,,null,,,,,,,,,,,,,,,,,,
758.5,,familiar_rating,92558,Barnard,,50,Barnard,US,2,,,,,,,,,,,,,,,
null,,confidence_buffer,92663,confidence_buffer,,null,,,,,,,,,,,,,,,,,,
5367.399999976158,,unique_rating,98033,Barnard,,49,,,1,,,,,,,,,,,,,,,
null,,confidence_buffer,98138,confidence_buffer,,null,,,,,,,,,,,,,,,,,,
2025.1000000238419,,memorable_rating,100165,Barnard,,50,,,2,,,,,,,,,,,,,,,
null,,confidence_buffer,100276,confidence_buffer,,null,,,,,,,,,,,,,,,,,,
null,,thebreak,100781,break,,null,,,,,,,,,,,,,,,,,,
10455.800000011921,,familiar_rating,111238,Cedarwyn,,53,Cedarwyn,Fictional,5,,,,,,,,,,,,,,,
null,,confidence_buffer,111344,confidence_buffer,,null,,,,,,,,,,,,,,,,,,
1721.199999988079,,unique_rating,113068,Cedarwyn,,52,,,4,,,,,,,,,,,,,,,
null,,confidence_buffer,113172,confidence_buffer,,null,,,,,,,,,,,,,,,,,,
1535.300000011921,,memorable_rating,114709,Cedarwyn,,53,,,5,,,,,,,,,,,,,,,
null,,confidence_buffer,114813,confidence_buffer,,null,,,,,,,,,,,,,,,,,,
2683.7000000476837,,probe_rating,117499,probe_rating,,51,,,,3,1,,,,,,,,,,,,,
null,,confidence_buffer,117608,confidence_buffer,,null,,,,,,,,,,,,,,,,,,
null,,thebreak,118116,break,,null,,,,,,,,,,,,,,,,,,
5259.799999952316,,familiar_rating,123378,Solara Glen,,52,Solara Glen,Fictional,4,,,,,,,,,,,,,,,
null,,confidence_buffer,123486,confidence_buffer,,null,,,,,,,,,,,,,,,,,,
2425.300000011921,,unique_rating,125913,Solara Glen,,51,,,3,,,,,,,,,,,,,,,
null,,confidence_buffer,126017,confidence_buffer,,null,,,,,,,,,,,,,,,,,,
2538.199999988079,,memorable_rating,128557,Solara Glen,,51,,,3,,,,,,,,,,,,,,,
null,,confidence_buffer,128667,confidence_buffer,,null,,,,,,,,,,,,,,,,,,
null,,thebreak,129184,break,,null,,,,,,,,,,,,,,,,,,
1204.6000000238419,,familiar_rating,130391,Meadowspire,,52,Meadowspire,Fictional,4,,,,,,,,,,,,,,,
null,,confidence_buffer,130496,confidence_buffer,,null,,,,,,,,,,,,,,,,,,
703.8000000119209,,unique_rating,131201,Meadowspire,,52,,,4,,,,,,,,,,,,,,,
null,,confidence_buffer,131304,confidence_buffer,,null,,,,,,,,,,,,,,,,,,
2062.899999976158,,memorable_rating,133369,Meadowspire,,49,,,1,,,,,,,,,,,,,,,
null,,confidence_buffer,133482,confidence_buffer,,null,,,,,,,,,,,,,,,,,,
null,,thebreak,133992,break,,null,,,,,,,,,,,,,,,,,,
1375,,familiar_rating,135369,Orr,,50,Orr,US,2,,,,,,,,,,,,,,,
null,,confidence_buffer,135482,confidence_buffer,,null,,,,,,,,,,,,,,,,,,
1771.699999988079,,unique_rating,137256,Orr,,51,,,3,,,,,,,,,,,,,,,
null,,confidence_buffer,137359,confidence_buffer,,null,,,,,,,,,,,,,,,,,,
691.3000000119209,,memorable_rating,138053,Orr,,51,,,3,,,,,,,,,,,,,,,
null,,confidence_buffer,138165,confidence_buffer,,null,,,,,,,,,,,,,,,,,,
2003.8999999761581,,probe_rating,140171,probe_rating,,51,,,,3,1,,,,,,,,,,,,,
null,,confidence_buffer,140274,confidence_buffer,,null,,,,,,,,,,,,,,,,,,
null,,thebreak,140785,break,,null,,,,,,,,,,,,,,,,,,
1112.699999988079,,familiar_rating,141900,Summershade,,52,Summershade,Fictional,4,,,,,,,,,,,,,,,
null,,confidence_buffer,142006,confidence_buffer,,null,,,,,,,,,,,,,,,,,,
1785,,unique_rating,143793,Summershade,,49,,,1,,,,,,,,,,,,,,,
null,,confidence_buffer,143905,confidence_buffer,,null,,,,,,,,,,,,,,,,,,
1047.8999999761581,,memorable_rating,144955,Summershade,,50,,,2,,,,,,,,,,,,,,,
null,,confidence_buffer,145067,confidence_buffer,,null,,,,,,,,,,,,,,,,,,
null,,thebreak,145575,break,,null,,,,,,,,,,,,,,,,,,
756.3000000119209,,familiar_rating,146334,Cornwall,,51,Cornwall,US,3,,,,,,,,,,,,,,,
null,,confidence_buffer,146449,confidence_buffer,,null,,,,,,,,,,,,,,,,,,
1128,,unique_rating,147579,Cornwall,,51,,,3,,,,,,,,,,,,,,,
null,,confidence_buffer,147682,confidence_buffer,,null,,,,,,,,,,,,,,,,,,
1264.9000000357628,,memorable_rating,148949,Cornwall,,50,,,2,,,,,,,,,,,,,,,
null,,confidence_buffer,149055,confidence_buffer,,null,,,,,,,,,,,,,,,,,,
null,,thebreak,149559,break,,null,,,,,,,,,,,,,,,,,,
2033.5999999642372,,familiar_rating,151594,Natchez,,49,Natchez,US,1,,,,,,,,,,,,,,,
null,,confidence_buffer,151699,confidence_buffer,,null,,,,,,,,,,,,,,,,,,
1217.800000011921,,unique_rating,152919,Natchez,,49,,,1,,,,,,,,,,,,,,,
null,,confidence_buffer,153031,confidence_buffer,,null,,,,,,,,,,,,,,,,,,
471.30000001192093,,memorable_rating,153503,Natchez,,50,,,2,,,,,,,,,,,,,,,
null,,confidence_buffer,153606,confidence_buffer,,null,,,,,,,,,,,,,,,,,,
null,,thebreak,154116,break,,null,,,,,,,,,,,,,,,,,,
1092.6000000238419,,familiar_rating,155210,Coralridge,,51,Coralridge,Fictional,3,,,,,,,,,,,,,,,
null,,confidence_buffer,155319,confidence_buffer,,null,,,,,,,,,,,,,,,,,,
1533.300000011921,,probe_rating,156854,probe_rating,,49,,,,1,1,,,,,,,,,,,,,
null,,confidence_buffer,156957,confidence_buffer,,null,,,,,,,,,,,,,,,,,,
3224.2999999523163,,unique_rating,160183,Coralridge,,51,,,3,,,,,,,,,,,,,,,
null,,confidence_buffer,160295,confidence_buffer,,null,,,,,,,,,,,,,,,,,,
877.8000000119209,,memorable_rating,161175,Coralridge,,51,,,3,,,,,,,,,,,,,,,
null,,confidence_buffer,161278,confidence_buffer,,null,,,,,,,,,,,,,,,,,,
null,,thebreak,161783,break,,null,,,,,,,,,,,,,,,,,,
2805.100000023842,,familiar_rating,164590,Juniper Creek,,50,Juniper Creek,Fictional,2,,,,,,,,,,,,,,,
null,,confidence_buffer,164700,confidence_buffer,,null,,,,,,,,,,,,,,,,,,
5577.899999976158,,unique_rating,170279,Juniper Creek,,50,,,2,,,,,,,,,,,,,,,
null,,confidence_buffer,170390,confidence_buffer,,null,,,,,,,,,,,,,,,,,,
116.60000002384186,,memorable_rating,170508,Juniper Creek,,50,,,2,,,,,,,,,,,,,,,
null,,confidence_buffer,170614,confidence_buffer,,null,,,,,,,,,,,,,,,,,,
null,,thebreak,171117,break,,null,,,,,,,,,,,,,,,,,,
901.6000000238419,,familiar_rating,172021,Pine Hollow,,51,Pine Hollow,Fictional,3,,,,,,,,,,,,,,,
null,,confidence_buffer,172126,confidence_buffer,,null,,,,,,,,,,,,,,,,,,
2277.600000023842,,unique_rating,174405,Pine Hollow,,51,,,3,,,,,,,,,,,,,,,
null,,confidence_buffer,174513,confidence_buffer,,null,,,,,,,,,,,,,,,,,,
2381.5,,memorable_rating,176897,Pine Hollow,,50,,,2,,,,,,,,,,,,,,,
null,,confidence_buffer,177007,confidence_buffer,,null,,,,,,,,,,,,,,,,,,
null,,thebreak,177514,break,,null,,,,,,,,,,,,,,,,,,
957.1999999880791,,familiar_rating,178473,Folly Beach,,51,Folly Beach,US,3,,,,,,,,,,,,,,,
null,,confidence_buffer,178576,confidence_buffer,,null,,,,,,,,,,,,,,,,,,
1477.8999999761581,,unique_rating,180056,Folly Beach,,51,,,3,,,,,,,,,,,,,,,
null,,confidence_buffer,180162,confidence_buffer,,null,,,,,,,,,,,,,,,,,,
1775.0999999642372,,memorable_rating,181939,Folly Beach,,53,,,5,,,,,,,,,,,,,,,
null,,confidence_buffer,182043,confidence_buffer,,null,,,,,,,,,,,,,,,,,,
null,,thebreak,182549,break,,null,,,,,,,,,,,,,,,,,,
1806.4000000357628,,familiar_rating,184357,Highvale,,53,Highvale,Fictional,5,,,,,,,,,,,,,,,
null,,confidence_buffer,184462,confidence_buffer,,null,,,,,,,,,,,,,,,,,,
1319.4000000357628,,unique_rating,185783,Highvale,,53,,,5,,,,,,,,,,,,,,,
null,,confidence_buffer,185888,confidence_buffer,,null,,,,,,,,,,,,,,,,,,
2694.800000011921,,memorable_rating,188584,Highvale,,52,,,4,,,,,,,,,,,,,,,
null,,confidence_buffer,188689,confidence_buffer,,null,,,,,,,,,,,,,,,,,,
null,,thebreak,189195,break,,null,,,,,,,,,,,,,,,,,,
3781,,familiar_rating,192977,Millstone,,51,Millstone,Fictional,3,,,,,,,,,,,,,,,
null,,confidence_buffer,193089,confidence_buffer,,null,,,,,,,,,,,,,,,,,,
1355.300000011921,,unique_rating,194446,Millstone,,50,,,2,,,,,,,,,,,,,,,
null,,confidence_buffer,194556,confidence_buffer,,null,,,,,,,,,,,,,,,,,,
942.8000000119209,,memorable_rating,195501,Millstone,,51,,,3,,,,,,,,,,,,,,,
null,,confidence_buffer,195613,confidence_buffer,,null,,,,,,,,,,,,,,,,,,
null,,thebreak,196116,break,,null,,,,,,,,,,,,,,,,,,
1847,,familiar_rating,197965,Ravenport,,51,Ravenport,Fictional,3,,,,,,,,,,,,,,,
null,,confidence_buffer,198073,confidence_buffer,,null,,,,,,,,,,,,,,,,,,
1003.5,,unique_rating,199078,Ravenport,,52,,,4,,,,,,,,,,,,,,,
null,,confidence_buffer,199187,confidence_buffer,,null,,,,,,,,,,,,,,,,,,
989.8000000119209,,memorable_rating,200178,Ravenport,,50,,,2,,,,,,,,,,,,,,,
null,,confidence_buffer,200281,confidence_buffer,,null,,,,,,,,,,,,,,,,,,
null,,thebreak,200784,break,,null,,,,,,,,,,,,,,,,,,
950.8000000119209,,familiar_rating,201737,Yukon,,51,Yukon,US,3,,,,,,,,,,,,,,,
null,,confidence_buffer,201843,confidence_buffer,,null,,,,,,,,,,,,,,,,,,
916.7000000476837,,unique_rating,202761,Yukon,,51,,,3,,,,,,,,,,,,,,,
null,,confidence_buffer,202867,confidence_buffer,,null,,,,,,,,,,,,,,,,,,
637.9000000357628,,memorable_rating,203507,Yukon,,52,,,4,,,,,,,,,,,,,,,
null,,confidence_buffer,203609,confidence_buffer,,null,,,,,,,,,,,,,,,,,,
null,,thebreak,204115,break,,null,,,,,,,,,,,,,,,,,,
4159.300000011921,,familiar_rating,208277,Westridge,,50,Westridge,Fictional,2,,,,,,,,,,,,,,,
null,,confidence_buffer,208393,confidence_buffer,,null,,,,,,,,,,,,,,,,,,
764.5,,unique_rating,209160,Westridge,,51,,,3,,,,,,,,,,,,,,,
null,,confidence_buffer,209273,confidence_buffer,,null,,,,,,,,,,,,,,,,,,
656,,memorable_rating,209930,Westridge,,51,,,3,,,,,,,,,,,,,,,
null,,confidence_buffer,210041,confidence_buffer,,null,,,,,,,,,,,,,,,,,,
null,,thebreak,210544,break,,null,,,,,,,,,,,,,,,,,,
3901.199999988079,,familiar_rating,214447,Delaware City,,53,Delaware City,US,5,,,,,,,,,,,,,,,
null,,confidence_buffer,214550,confidence_buffer,,null,,,,,,,,,,,,,,,,,,
1474.3999999761581,,unique_rating,216026,Delaware City,,53,,,5,,,,,,,,,,,,,,,
null,,confidence_buffer,216140,confidence_buffer,,null,,,,,,,,,,,,,,,,,,
604.3000000119209,,memorable_rating,216746,Delaware City,,52,,,4,,,,,,,,,,,,,,,
null,,confidence_buffer,216861,confidence_buffer,,null,,,,,,,,,,,,,,,,,,
null,,thebreak,217367,break,,null,,,,,,,,,,,,,,,,,,
1036,,familiar_rating,218405,Leesburg,,51,Leesburg,US,3,,,,,,,,,,,,,,,
null,,confidence_buffer,218511,confidence_buffer,,null,,,,,,,,,,,,,,,,,,
1576,,probe_rating,220088,probe_rating,,49,,,,1,1,,,,,,,,,,,,,
null,,confidence_buffer,220199,confidence_buffer,,null,,,,,,,,,,,,,,,,,,
2574.5,,unique_rating,222775,Leesburg,,51,,,3,,,,,,,,,,,,,,,
null,,confidence_buffer,222886,confidence_buffer,,null,,,,,,,,,,,,,,,,,,
791.6999999880791,,memorable_rating,223680,Leesburg,,52,,,4,,,,,,,,,,,,,,,
null,,confidence_buffer,223794,confidence_buffer,,null,,,,,,,,,,,,,,,,,,
null,,thebreak,224298,break,,null,,,,,,,,,,,,,,,,,,
698.1000000238419,,familiar_rating,224998,Albuquerque,,53,Albuquerque,US,5,,,,,,,,,,,,,,,
null,,confidence_buffer,225114,confidence_buffer,,null,,,,,,,,,,,,,,,,,,
2226.699999988079,,unique_rating,227343,Albuquerque,,51,,,3,,,,,,,,,,,,,,,
null,,confidence_buffer,227459,confidence_buffer,,null,,,,,,,,,,,,,,,,,,
904.5999999642372,,memorable_rating,228365,Albuquerque,,52,,,4,,,,,,,,,,,,,,,
null,,confidence_buffer,228478,confidence_buffer,,null,,,,,,,,,,,,,,,,,,
null,,thebreak,228989,break,,null,,,,,,,,,,,,,,,,,,
1629,,familiar_rating,230620,Lake of the Ozarks,,52,Lake of the Ozarks,US,4,,,,,,,,,,,,,,,
null,,confidence_buffer,230732,confidence_buffer,,null,,,,,,,,,,,,,,,,,,
1262.6000000238419,,unique_rating,231997,Lake of the Ozarks,,53,,,5,,,,,,,,,,,,,,,
null,,confidence_buffer,232105,confidence_buffer,,null,,,,,,,,,,,,,,,,,,
1837,,memorable_rating,233944,Lake of the Ozarks,,50,,,2,,,,,,,,,,,,,,,
null,,confidence_buffer,234049,confidence_buffer,,null,,,,,,,,,,,,,,,,,,
null,,thebreak,234556,break,,null,,,,,,,,,,,,,,,,,,
1709.800000011921,,familiar_rating,236268,Clearbrook,,53,Clearbrook,Fictional,5,,,,,,,,,,,,,,,
null,,confidence_buffer,236376,confidence_buffer,,null,,,,,,,,,,,,,,,,,,
1494.5,,unique_rating,237873,Clearbrook,,53,,,5,,,,,,,,,,,,,,,
null,,confidence_buffer,237977,confidence_buffer,,null,,,,,,,,,,,,,,,,,,
1320.7000000476837,,memorable_rating,239300,Clearbrook,,52,,,4,,,,,,,,,,,,,,,
null,,confidence_buffer,239408,confidence_buffer,,null,,,,,,,,,,,,,,,,,,
null,,thebreak,239913,break,,null,,,,,,,,,,,,,,,,,,
1009.5999999642372,,familiar_rating,240925,San Antonio,,51,San Antonio,US,3,,,,,,,,,,,,,,,
null,,confidence_buffer,241029,confidence_buffer,,null,,,,,,,,,,,,,,,,,,
1343.7999999523163,,unique_rating,242376,San Antonio,,50,,,2,,,,,,,,,,,,,,,
null,,confidence_buffer,242481,confidence_buffer,,null,,,,,,,,,,,,,,,,,,
1766.699999988079,,memorable_rating,244250,San Antonio,,50,,,2,,,,,,,,,,,,,,,
null,,confidence_buffer,244356,confidence_buffer,,null,,,,,,,,,,,,,,,,,,
null,,thebreak,244858,break,,null,,,,,,,,,,,,,,,,,,
1005.5999999642372,,familiar_rating,245866,Cape May,,51,Cape May,US,3,,,,,,,,,,,,,,,
null,,confidence_buffer,245973,confidence_buffer,,null,,,,,,,,,,,,,,,,,,
1331.6000000238419,,unique_rating,247306,Cape May,,51,,,3,,,,,,,,,,,,,,,
null,,confidence_buffer,247413,confidence_buffer,,null,,,,,,,,,,,,,,,,,,
1863.199999988079,,memorable_rating,249278,Cape May,,52,,,4,,,,,,,,,,,,,,,
null,,confidence_buffer,249393,confidence_buffer,,null,,,,,,,,,,,,,,,,,,
null,,thebreak,249909,break,,null,,,,,,,,,,,,,,,,,,
1785.800000011921,,familiar_rating,251696,Northbridge,,53,Northbridge,Fictional,5,,,,,,,,,,,,,,,
null,,confidence_buffer,251806,confidence_buffer,,null,,,,,,,,,,,,,,,,,,
1313,,unique_rating,253121,Northbridge,,53,,,5,,,,,,,,,,,,,,,
null,,confidence_buffer,253227,confidence_buffer,,null,,,,,,,,,,,,,,,,,,
1721.1000000238419,,memorable_rating,254950,Northbridge,,52,,,4,,,,,,,,,,,,,,,
null,,confidence_buffer,255055,confidence_buffer,,null,,,,,,,,,,,,,,,,,,
null,,thebreak,255564,break,,null,,,,,,,,,,,,,,,,,,
1957.300000011921,,familiar_rating,257523,Athens,,53,Athens,US,5,,,,,,,,,,,,,,,
null,,confidence_buffer,257629,confidence_buffer,,null,,,,,,,,,,,,,,,,,,
1426.1000000238419,,unique_rating,259056,Athens,,53,,,5,,,,,,,,,,,,,,,
null,,confidence_buffer,259161,confidence_buffer,,null,,,,,,,,,,,,,,,,,,
5934.099999964237,,probe_rating,265097,probe_rating,,52,,,,4,1,,,,,,,,,,,,,
null,,confidence_buffer,265205,confidence_buffer,,null,,,,,,,,,,,,,,,,,,
2649.5,,memorable_rating,267856,Athens,,53,,,5,,,,,,,,,,,,,,,
null,,confidence_buffer,267959,confidence_buffer,,null,,,,,,,,,,,,,,,,,,
null,,thebreak,268464,break,,null,,,,,,,,,,,,,,,,,,
51078.40000003576,,intro_0,319544,instruct,,32,,,,,,,,,,,,,,,,,,
33615.80000001192,,intro_1,353161,instruct,,32,,,,,,,,,,,,,,,,,,
15186,,intro_2,368349,instruct,,32,,,,,,,,,,,,,,,,,,
null,,instruct_dir_4,369856,instruct,,null,,,,,,,,,,,,,,,,,,
6335.300000011921,,realistic_rating,376193,Abilene,,49,Abilene,US,1,,,,,,,,,,,,,,,
null,,confidence_buffer,376299,confidence_buffer,,null,,,,,,,,,,,,,,,,,,
1293,,pt2_unique_rating,377594,Abilene,,49,,,1,,,,,,,,,,,,,,,
null,,confidence_buffer,377706,confidence_buffer,,null,,,,,,,,,,,,,,,,,,
1089.199999988079,,pt2_memorable_rating,378797,Abilene,,49,,,1,,,,,,,,,,,,,,,
null,,confidence_buffer,378906,confidence_buffer,,null,,,,,,,,,,,,,,,,,,
1985.300000011921,,recognition_phase,380894,Abilene,,51,,,,,,new,1,1,,,,,,,,,,
null,,confidence_buffer,381004,confidence_buffer,,null,,,,,,,,,,,,,,,,,,
null,,thebreak,381519,break,,null,,,,,,,,,,,,,,,,,,
957.9000000357628,,realistic_rating,382479,Healdsburg,,49,Healdsburg,US,1,,,,,,,,,,,,,,,
null,,confidence_buffer,382586,confidence_buffer,,null,,,,,,,,,,,,,,,,,,
980.8999999761581,,pt2_unique_rating,383569,Healdsburg,,50,,,2,,,,,,,,,,,,,,,
null,,confidence_buffer,383682,confidence_buffer,,null,,,,,,,,,,,,,,,,,,
925.3000000119209,,pt2_memorable_rating,384609,Healdsburg,,50,,,2,,,,,,,,,,,,,,,
null,,confidence_buffer,384722,confidence_buffer,,null,,,,,,,,,,,,,,,,,,
983.1000000238419,,recognition_phase,385707,Healdsburg,,51,,,,,,new,1,1,,,,,,,,,,
null,,confidence_buffer,385822,confidence_buffer,,null,,,,,,,,,,,,,,,,,,
null,,thebreak,386338,break,,null,,,,,,,,,,,,,,,,,,
2258,,realistic_rating,388598,Briarfield,,49,Briarfield,Fictional,1,,,,,,,,,,,,,,,
null,,confidence_buffer,388700,confidence_buffer,,null,,,,,,,,,,,,,,,,,,
750.6000000238419,,pt2_unique_rating,389453,Briarfield,,50,,,2,,,,,,,,,,,,,,,
null,,confidence_buffer,389557,confidence_buffer,,null,,,,,,,,,,,,,,,,,,
567.6000000238419,,pt2_memorable_rating,390127,Briarfield,,50,,,2,,,,,,,,,,,,,,,
null,,confidence_buffer,390238,confidence_buffer,,null,,,,,,,,,,,,,,,,,,
3452.100000023842,,recognition_phase,393692,Briarfield,,52,,,,,,new,1,1,,,,,,,,,,
null,,confidence_buffer,393797,confidence_buffer,,null,,,,,,,,,,,,,,,,,,
null,,thebreak,394303,break,,null,,,,,,,,,,,,,,,,,,
908.8000000119209,,realistic_rating,395214,Juniper Creek,,51,Juniper Creek,Fictional,3,,,,,,,,,,,,,,,
null,,confidence_buffer,395320,confidence_buffer,,null,,,,,,,,,,,,,,,,,,
8225.600000023842,,probe_rating,403548,probe_rating,,53,,,,5,1,,,,,,,,,,,,,
null,,confidence_buffer,403652,confidence_buffer,,null,,,,,,,,,,,,,,,,,,
7546,,pt2_unique_rating,411199,Juniper Creek,,50,,,2,,,,,,,,,,,,,,,
null,,confidence_buffer,411301,confidence_buffer,,null,,,,,,,,,,,,,,,,,,
896.2000000476837,,pt2_memorable_rating,412199,Juniper Creek,,50,,,2,,,,,,,,,,,,,,,
null,,confidence_buffer,412302,confidence_buffer,,null,,,,,,,,,,,,,,,,,,
829,,recognition_phase,413133,Juniper Creek,,51,,,,,,new,0,0.75,,,,,,,,,,
null,,confidence_buffer,413240,confidence_buffer,,null,,,,,,,,,,,,,,,,,,
null,,thebreak,413743,break,,null,,,,,,,,,,,,,,,,,,
1902.4000000357628,,realistic_rating,415647,Summershade,,52,Summershade,Fictional,4,,,,,,,,,,,,,,,
null,,confidence_buffer,415751,confidence_buffer,,null,,,,,,,,,,,,,,,,,,
1304.300000011921,,pt2_unique_rating,417057,Summershade,,52,,,4,,,,,,,,,,,,,,,
null,,confidence_buffer,417169,confidence_buffer,,null,,,,,,,,,,,,,,,,,,
761.8000000119209,,pt2_memorable_rating,417933,Summershade,,51,,,3,,,,,,,,,,,,,,,
null,,confidence_buffer,418037,confidence_buffer,,null,,,,,,,,,,,,,,,,,,
1040.699999988079,,recognition_phase,419080,Summershade,,50,,,,,,old,1,0.8,,,,,,,,,,
null,,confidence_buffer,419184,confidence_buffer,,null,,,,,,,,,,,,,,,,,,
null,,thebreak,419695,break,,null,,,,,,,,,,,,,,,,,,
908.8000000119209,,realistic_rating,420605,Riverlyn,,50,Riverlyn,Fictional,2,,,,,,,,,,,,,,,
null,,confidence_buffer,420718,confidence_buffer,,null,,,,,,,,,,,,,,,,,,
1936.2000000476837,,pt2_unique_rating,422656,Riverlyn,,51,,,3,,,,,,,,,,,,,,,
null,,confidence_buffer,422766,confidence_buffer,,null,,,,,,,,,,,,,,,,,,
1272,,pt2_memorable_rating,424040,Riverlyn,,52,,,4,,,,,,,,,,,,,,,
null,,confidence_buffer,424154,confidence_buffer,,null,,,,,,,,,,,,,,,,,,
651.0999999642372,,recognition_phase,424807,Riverlyn,,51,,,,,,new,1,0.8333333333333334,,,,,,,,,,
null,,confidence_buffer,424918,confidence_buffer,,null,,,,,,,,,,,,,,,,,,
null,,thebreak,425421,break,,null,,,,,,,,,,,,,,,,,,
1368.699999988079,,realistic_rating,426792,Northbridge,,50,Northbridge,Fictional,2,,,,,,,,,,,,,,,
null,,confidence_buffer,426899,confidence_buffer,,null,,,,,,,,,,,,,,,,,,
1329.699999988079,,pt2_unique_rating,428231,Northbridge,,50,,,2,,,,,,,,,,,,,,,
null,,confidence_buffer,428349,confidence_buffer,,null,,,,,,,,,,,,,,,,,,
1754.6000000238419,,probe_rating,430105,probe_rating,,53,,,,5,1,,,,,,,,,,,,,
null,,confidence_buffer,430216,confidence_buffer,,null,,,,,,,,,,,,,,,,,,
2194.100000023842,,pt2_memorable_rating,432412,Northbridge,,51,,,3,,,,,,,,,,,,,,,
null,,confidence_buffer,432515,confidence_buffer,,null,,,,,,,,,,,,,,,,,,
758.5,,recognition_phase,433276,Northbridge,,52,,,,,,new,0,0.7142857142857143,,,,,,,,,,
null,,confidence_buffer,433384,confidence_buffer,,null,,,,,,,,,,,,,,,,,,
null,,thebreak,433899,break,,null,,,,,,,,,,,,,,,,,,
2795,,realistic_rating,436696,Baymarsh,,51,Baymarsh,Fictional,3,,,,,,,,,,,,,,,
null,,confidence_buffer,436811,confidence_buffer,,null,,,,,,,,,,,,,,,,,,
1215.5,,pt2_unique_rating,438028,Baymarsh,,52,,,4,,,,,,,,,,,,,,,
null,,confidence_buffer,438133,confidence_buffer,,null,,,,,,,,,,,,,,,,,,
1213.8999999761581,,pt2_memorable_rating,439349,Baymarsh,,50,,,2,,,,,,,,,,,,,,,
null,,confidence_buffer,439457,confidence_buffer,,null,,,,,,,,,,,,,,,,,,
993.3999999761581,,recognition_phase,440453,Baymarsh,,51,,,,,,new,1,0.75,,,,,,,,,,
null,,confidence_buffer,440565,confidence_buffer,,null,,,,,,,,,,,,,,,,,,
null,,thebreak,441068,break,,null,,,,,,,,,,,,,,,,,,
2378.5,,realistic_rating,443448,Solara Glen,,50,Solara Glen,Fictional,2,,,,,,,,,,,,,,,
null,,confidence_buffer,443559,confidence_buffer,,null,,,,,,,,,,,,,,,,,,
2003.0999999642372,,pt2_unique_rating,445564,Solara Glen,,50,,,2,,,,,,,,,,,,,,,
null,,confidence_buffer,445672,confidence_buffer,,null,,,,,,,,,,,,,,,,,,
1033.2000000476837,,pt2_memorable_rating,446707,Solara Glen,,52,,,4,,,,,,,,,,,,,,,
null,,confidence_buffer,446813,confidence_buffer,,null,,,,,,,,,,,,,,,,,,
939.3000000119209,,recognition_phase,447754,Solara Glen,,51,,,,,,new,0,0.6666666666666666,,,,,,,,,,
null,,confidence_buffer,447864,confidence_buffer,,null,,,,,,,,,,,,,,,,,,
null,,thebreak,448379,break,,null,,,,,,,,,,,,,,,,,,
3216.300000011921,,realistic_rating,451597,Oakridge,,50,Oakridge,Fictional,2,,,,,,,,,,,,,,,
null,,confidence_buffer,451708,confidence_buffer,,null,,,,,,,,,,,,,,,,,,
3897.2000000476837,,probe_rating,455608,probe_rating,,50,,,,2,1,,,,,,,,,,,,,
null,,confidence_buffer,455713,confidence_buffer,,null,,,,,,,,,,,,,,,,,,
961.8999999761581,,pt2_unique_rating,456677,Oakridge,,51,,,3,,,,,,,,,,,,,,,
null,,confidence_buffer,456787,confidence_buffer,,null,,,,,,,,,,,,,,,,,,
735.5,,pt2_memorable_rating,457524,Oakridge,,52,,,4,,,,,,,,,,,,,,,
null,,confidence_buffer,457633,confidence_buffer,,null,,,,,,,,,,,,,,,,,,
2071.699999988079,,recognition_phase,459707,Oakridge,,50,,,,,,old,0,0.6,,,,,,,,,,
null,,confidence_buffer,459817,confidence_buffer,,null,,,,,,,,,,,,,,,,,,
null,,thebreak,460328,break,,null,,,,,,,,,,,,,,,,,,
3321.100000023842,,realistic_rating,463651,East Ladera,,50,East Ladera,Fictional,2,,,,,,,,,,,,,,,
null,,confidence_buffer,463755,confidence_buffer,,null,,,,,,,,,,,,,,,,,,
1894.4000000357628,,pt2_unique_rating,465651,East Ladera,,51,,,3,,,,,,,,,,,,,,,
null,,confidence_buffer,465755,confidence_buffer,,null,,,,,,,,,,,,,,,,,,
792.6999999880791,,pt2_memorable_rating,466550,East Ladera,,52,,,4,,,,,,,,,,,,,,,
null,,confidence_buffer,466660,confidence_buffer,,null,,,,,,,,,,,,,,,,,,
2310.599999964237,,probe_rating,468972,probe_rating,,53,,,,5,1,,,,,,,,,,,,,
null,,confidence_buffer,469077,confidence_buffer,,null,,,,,,,,,,,,,,,,,,
4725.199999988079,,recognition_phase,473804,East Ladera,,51,,,,,,new,1,0.6363636363636364,,,,,,,,,,
null,,confidence_buffer,473908,confidence_buffer,,null,,,,,,,,,,,,,,,,,,
null,,thebreak,474412,break,,null,,,,,,,,,,,,,,,,,,
858.6000000238419,,realistic_rating,475272,San Antonio,,52,San Antonio,US,4,,,,,,,,,,,,,,,
null,,confidence_buffer,475375,confidence_buffer,,null,,,,,,,,,,,,,,,,,,
754.1000000238419,,pt2_unique_rating,476131,San Antonio,,52,,,4,,,,,,,,,,,,,,,
null,,confidence_buffer,476236,confidence_buffer,,null,,,,,,,,,,,,,,,,,,
1052.5,,pt2_memorable_rating,477290,San Antonio,,50,,,2,,,,,,,,,,,,,,,
null,,confidence_buffer,477402,confidence_buffer,,null,,,,,,,,,,,,,,,,,,
749.0999999642372,,recognition_phase,478153,San Antonio,,51,,,,,,new,0,0.5833333333333334,,,,,,,,,,
null,,confidence_buffer,478259,confidence_buffer,,null,,,,,,,,,,,,,,,,,,
null,,thebreak,478774,break,,null,,,,,,,,,,,,,,,,,,
1136.800000011921,,realistic_rating,479912,Clearbrook,,50,Clearbrook,Fictional,2,,,,,,,,,,,,,,,
null,,confidence_buffer,480019,confidence_buffer,,null,,,,,,,,,,,,,,,,,,
1645.800000011921,,pt2_unique_rating,481667,Clearbrook,,51,,,3,,,,,,,,,,,,,,,
null,,confidence_buffer,481777,confidence_buffer,,null,,,,,,,,,,,,,,,,,,
1402.0999999642372,,probe_rating,483181,probe_rating,,49,,,,1,1,,,,,,,,,,,,,
null,,confidence_buffer,483285,confidence_buffer,,null,,,,,,,,,,,,,,,,,,
1740.8999999761581,,pt2_memorable_rating,485028,Clearbrook,,51,,,3,,,,,,,,,,,,,,,
null,,confidence_buffer,485143,confidence_buffer,,null,,,,,,,,,,,,,,,,,,
665,,recognition_phase,485810,Clearbrook,,52,,,,,,new,0,0.5384615384615384,,,,,,,,,,
null,,confidence_buffer,485923,confidence_buffer,,null,,,,,,,,,,,,,,,,,,
null,,thebreak,486429,break,,null,,,,,,,,,,,,,,,,,,
717.0999999642372,,realistic_rating,487148,Highvale,,53,Highvale,Fictional,5,,,,,,,,,,,,,,,
null,,confidence_buffer,487254,confidence_buffer,,null,,,,,,,,,,,,,,,,,,
1210.5,,pt2_unique_rating,488466,Highvale,,51,,,3,,,,,,,,,,,,,,,
null,,confidence_buffer,488576,confidence_buffer,,null,,,,,,,,,,,,,,,,,,
806.1000000238419,,pt2_memorable_rating,489384,Highvale,,52,,,4,,,,,,,,,,,,,,,
null,,confidence_buffer,489492,confidence_buffer,,null,,,,,,,,,,,,,,,,,,
746.5,,recognition_phase,490241,Highvale,,52,,,,,,new,0,0.5,,,,,,,,,,
null,,confidence_buffer,490344,confidence_buffer,,null,,,,,,,,,,,,,,,,,,
null,,thebreak,490857,break,,null,,,,,,,,,,,,,,,,,,
1360,,realistic_rating,492219,Bowling Green,,51,Bowling Green,US,3,,,,,,,,,,,,,,,
null,,confidence_buffer,492329,confidence_buffer,,null,,,,,,,,,,,,,,,,,,
1695.5999999642372,,pt2_unique_rating,494027,Bowling Green,,53,,,5,,,,,,,,,,,,,,,
null,,confidence_buffer,494139,confidence_buffer,,null,,,,,,,,,,,,,,,,,,
512.5,,pt2_memorable_rating,494653,Bowling Green,,52,,,4,,,,,,,,,,,,,,,
null,,confidence_buffer,494770,confidence_buffer,,null,,,,,,,,,,,,,,,,,,
708.8999999761581,,recognition_phase,495481,Bowling Green,,51,,,,,,new,1,0.5333333333333333,,,,,,,,,,
null,,confidence_buffer,495595,confidence_buffer,,null,,,,,,,,,,,,,,,,,,
null,,thebreak,496104,break,,null,,,,,,,,,,,,,,,,,,
1265.1000000238419,,realistic_rating,497371,Natchez,,50,Natchez,US,2,,,,,,,,,,,,,,,
null,,confidence_buffer,497485,confidence_buffer,,null,,,,,,,,,,,,,,,,,,
1274.699999988079,,pt2_unique_rating,498762,Natchez,,51,,,3,,,,,,,,,,,,,,,
null,,confidence_buffer,498877,confidence_buffer,,null,,,,,,,,,,,,,,,,,,
793.1999999880791,,pt2_memorable_rating,499672,Natchez,,51,,,3,,,,,,,,,,,,,,,
null,,confidence_buffer,499778,confidence_buffer,,null,,,,,,,,,,,,,,,,,,
728.5,,recognition_phase,500509,Natchez,,52,,,,,,new,0,0.5,,,,,,,,,,
null,,confidence_buffer,500614,confidence_buffer,,null,,,,,,,,,,,,,,,,,,
null,,thebreak,501126,break,,null,,,,,,,,,,,,,,,,,,
918.8999999761581,,realistic_rating,502046,West Palm Beach,,50,West Palm Beach,US,2,,,,,,,,,,,,,,,
null,,confidence_buffer,502158,confidence_buffer,,null,,,,,,,,,,,,,,,,,,
858.5,,pt2_unique_rating,503018,West Palm Beach,,53,,,5,,,,,,,,,,,,,,,
null,,confidence_buffer,503123,confidence_buffer,,null,,,,,,,,,,,,,,,,,,
664,,pt2_memorable_rating,503789,West Palm Beach,,51,,,3,,,,,,,,,,,,,,,
null,,confidence_buffer,503895,confidence_buffer,,null,,,,,,,,,,,,,,,,,,
1356.5,,probe_rating,505254,probe_rating,,51,,,,3,1,,,,,,,,,,,,,
null,,confidence_buffer,505356,confidence_buffer,,null,,,,,,,,,,,,,,,,,,
2170.199999988079,,recognition_phase,507528,West Palm Beach,,51,,,,,,new,0,0.47058823529411764,,,,,,,,,,
null,,confidence_buffer,507635,confidence_buffer,,null,,,,,,,,,,,,,,,,,,
null,,thebreak,508140,break,,null,,,,,,,,,,,,,,,,,,
1769.300000011921,,realistic_rating,509911,Westridge,,50,Westridge,Fictional,2,,,,,,,,,,,,,,,
null,,confidence_buffer,510024,confidence_buffer,,null,,,,,,,,,,,,,,,,,,
1309.300000011921,,pt2_unique_rating,511335,Westridge,,51,,,3,,,,,,,,,,,,,,,
null,,confidence_buffer,511443,confidence_buffer,,null,,,,,,,,,,,,,,,,,,
738.1000000238419,,pt2_memorable_rating,512184,Westridge,,53,,,5,,,,,,,,,,,,,,,
null,,confidence_buffer,512293,confidence_buffer,,null,,,,,,,,,,,,,,,,,,
886.1999999880791,,recognition_phase,513181,Westridge,,52,,,,,,new,0,0.4444444444444444,,,,,,,,,,
null,,confidence_buffer,513288,confidence_buffer,,null,,,,,,,,,,,,,,,,,,
null,,thebreak,513804,break,,null,,,,,,,,,,,,,,,,,,
1522,,realistic_rating,515328,Hanover,,50,Hanover,US,2,,,,,,,,,,,,,,,
null,,confidence_buffer,515431,confidence_buffer,,null,,,,,,,,,,,,,,,,,,
875.6999999880791,,pt2_unique_rating,516309,Hanover,,50,,,2,,,,,,,,,,,,,,,
null,,confidence_buffer,516424,confidence_buffer,,null,,,,,,,,,,,,,,,,,,
595,,pt2_memorable_rating,517021,Hanover,,51,,,3,,,,,,,,,,,,,,,
null,,confidence_buffer,517126,confidence_buffer,,null,,,,,,,,,,,,,,,,,,
3728.699999988079,,recognition_phase,520857,Hanover,,52,,,,,,new,0,0.42105263157894735,,,,,,,,,,
null,,confidence_buffer,520963,confidence_buffer,,null,,,,,,,,,,,,,,,,,,
null,,thebreak,521469,break,,null,,,,,,,,,,,,,,,,,,
599,,realistic_rating,522070,Cedarwyn,,50,Cedarwyn,Fictional,2,,,,,,,,,,,,,,,
null,,confidence_buffer,522174,confidence_buffer,,null,,,,,,,,,,,,,,,,,,
629.9000000357628,,pt2_unique_rating,522805,Cedarwyn,,51,,,3,,,,,,,,,,,,,,,
null,,confidence_buffer,522913,confidence_buffer,,null,,,,,,,,,,,,,,,,,,
769,,pt2_memorable_rating,523684,Cedarwyn,,50,,,2,,,,,,,,,,,,,,,
null,,confidence_buffer,523797,confidence_buffer,,null,,,,,,,,,,,,,,,,,,
946.5,,recognition_phase,524747,Cedarwyn,,51,,,,,,new,0,0.4,,,,,,,,,,
null,,confidence_buffer,524856,confidence_buffer,,null,,,,,,,,,,,,,,,,,,
null,,thebreak,525373,break,,null,,,,,,,,,,,,,,,,,,
1948.699999988079,,realistic_rating,527323,Delaware City,,50,Delaware City,US,2,,,,,,,,,,,,,,,
null,,confidence_buffer,527437,confidence_buffer,,null,,,,,,,,,,,,,,,,,,
989.1999999880791,,pt2_unique_rating,528428,Delaware City,,50,,,2,,,,,,,,,,,,,,,
null,,confidence_buffer,528540,confidence_buffer,,null,,,,,,,,,,,,,,,,,,
551.7000000476837,,pt2_memorable_rating,529093,Delaware City,,52,,,4,,,,,,,,,,,,,,,
null,,confidence_buffer,529199,confidence_buffer,,null,,,,,,,,,,,,,,,,,,
1450.199999988079,,recognition_phase,530651,Delaware City,,52,,,,,,new,0,0.38095238095238093,,,,,,,,,,
null,,confidence_buffer,530763,confidence_buffer,,null,,,,,,,,,,,,,,,,,,
null,,thebreak,531279,break,,null,,,,,,,,,,,,,,,,,,
2389.100000023842,,realistic_rating,533670,Athens,,53,Athens,US,5,,,,,,,,,,,,,,,
null,,confidence_buffer,533780,confidence_buffer,,null,,,,,,,,,,,,,,,,,,
906.1999999880791,,pt2_unique_rating,534688,Athens,,50,,,2,,,,,,,,,,,,,,,
null,,confidence_buffer,534797,confidence_buffer,,null,,,,,,,,,,,,,,,,,,
548.3999999761581,,pt2_memorable_rating,535347,Athens,,51,,,3,,,,,,,,,,,,,,,
null,,confidence_buffer,535454,confidence_buffer,,null,,,,,,,,,,,,,,,,,,
924.0999999642372,,recognition_phase,536380,Athens,,50,,,,,,old,1,0.4090909090909091,,,,,,,,,,
null,,confidence_buffer,536494,confidence_buffer,,null,,,,,,,,,,,,,,,,,,
null,,thebreak,537007,break,,null,,,,,,,,,,,,,,,,,,
3956.5,,realistic_rating,540965,Livingston,,50,Livingston,US,2,,,,,,,,,,,,,,,
null,,confidence_buffer,541069,confidence_buffer,,null,,,,,,,,,,,,,,,,,,
991.1999999880791,,pt2_unique_rating,542062,Livingston,,51,,,3,,,,,,,,,,,,,,,
null,,confidence_buffer,542170,confidence_buffer,,null,,,,,,,,,,,,,,,,,,
800.4000000357628,,pt2_memorable_rating,542972,Livingston,,53,,,5,,,,,,,,,,,,,,,
null,,confidence_buffer,543078,confidence_buffer,,null,,,,,,,,,,,,,,,,,,
1144.699999988079,,recognition_phase,544225,Livingston,,51,,,,,,new,1,0.43478260869565216,,,,,,,,,,
null,,confidence_buffer,544337,confidence_buffer,,null,,,,,,,,,,,,,,,,,,
null,,thebreak,544846,break,,null,,,,,,,,,,,,,,,,,,
874,,realistic_rating,545722,Cape May,,51,Cape May,US,3,,,,,,,,,,,,,,,
null,,confidence_buffer,545826,confidence_buffer,,null,,,,,,,,,,,,,,,,,,
936.6999999880791,,pt2_unique_rating,546765,Cape May,,52,,,4,,,,,,,,,,,,,,,
null,,confidence_buffer,546871,confidence_buffer,,null,,,,,,,,,,,,,,,,,,
909.3000000119209,,pt2_memorable_rating,547782,Cape May,,50,,,2,,,,,,,,,,,,,,,
null,,confidence_buffer,547885,confidence_buffer,,null,,,,,,,,,,,,,,,,,,
2244.900000035763,,recognition_phase,550133,Cape May,,51,,,,,,new,0,0.4166666666666667,,,,,,,,,,
null,,confidence_buffer,550243,confidence_buffer,,null,,,,,,,,,,,,,,,,,,
null,,thebreak,550752,break,,null,,,,,,,,,,,,,,,,,,
1654.300000011921,,realistic_rating,552409,Linden Trace,,51,Linden Trace,Fictional,3,,,,,,,,,,,,,,,
null,,confidence_buffer,552523,confidence_buffer,,null,,,,,,,,,,,,,,,,,,
1340.300000011921,,pt2_unique_rating,553865,Linden Trace,,50,,,2,,,,,,,,,,,,,,,
null,,confidence_buffer,553983,confidence_buffer,,null,,,,,,,,,,,,,,,,,,
983.5999999642372,,pt2_memorable_rating,554969,Linden Trace,,52,,,4,,,,,,,,,,,,,,,
null,,confidence_buffer,555083,confidence_buffer,,null,,,,,,,,,,,,,,,,,,
829.3999999761581,,recognition_phase,555914,Linden Trace,,50,,,,,,old,0,0.4,,,,,,,,,,
null,,confidence_buffer,556019,confidence_buffer,,null,,,,,,,,,,,,,,,,,,
null,,thebreak,556531,break,,null,,,,,,,,,,,,,,,,,,
437.69999998807907,,realistic_rating,556971,Delaro Park,,52,Delaro Park,Fictional,4,,,,,,,,,,,,,,,
null,,confidence_buffer,557087,confidence_buffer,,null,,,,,,,,,,,,,,,,,,
794.1999999880791,,pt2_unique_rating,557884,Delaro Park,,51,,,3,,,,,,,,,,,,,,,
null,,confidence_buffer,557988,confidence_buffer,,null,,,,,,,,,,,,,,,,,,
669.3000000119209,,pt2_memorable_rating,558659,Delaro Park,,50,,,2,,,,,,,,,,,,,,,
null,,confidence_buffer,558762,confidence_buffer,,null,,,,,,,,,,,,,,,,,,
875.6999999880791,,recognition_phase,559642,Delaro Park,,51,,,,,,new,1,0.4230769230769231,,,,,,,,,,
null,,confidence_buffer,559753,confidence_buffer,,null,,,,,,,,,,,,,,,,,,
null,,thebreak,560259,break,,null,,,,,,,,,,,,,,,,,,
484.4000000357628,,realistic_rating,560746,Coralridge,,50,Coralridge,Fictional,2,,,,,,,,,,,,,,,
null,,confidence_buffer,560852,confidence_buffer,,null,,,,,,,,,,,,,,,,,,
1650.8999999761581,,probe_rating,562505,probe_rating,,49,,,,1,0,,,,,,,,,,,,,
null,,confidence_buffer,562615,confidence_buffer,,null,,,,,,,,,,,,,,,,,,
1100.6000000238419,,pt2_unique_rating,563718,Coralridge,,52,,,4,,,,,,,,,,,,,,,
null,,confidence_buffer,563826,confidence_buffer,,null,,,,,,,,,,,,,,,,,,
715.5,,pt2_memorable_rating,564544,Coralridge,,51,,,3,,,,,,,,,,,,,,,
null,,confidence_buffer,564649,confidence_buffer,,null,,,,,,,,,,,,,,,,,,
1068.699999988079,,recognition_phase,565721,Coralridge,,51,,,,,,new,0,0.4074074074074074,,,,,,,,,,
null,,confidence_buffer,565833,confidence_buffer,,null,,,,,,,,,,,,,,,,,,
null,,thebreak,566347,break,,null,,,,,,,,,,,,,,,,,,
1379.5,,realistic_rating,567729,Meadowspire,,50,Meadowspire,Fictional,2,,,,,,,,,,,,,,,
null,,confidence_buffer,567838,confidence_buffer,,null,,,,,,,,,,,,,,,,,,
904.2000000476837,,pt2_unique_rating,568744,Meadowspire,,51,,,3,,,,,,,,,,,,,,,
null,,confidence_buffer,568861,confidence_buffer,,null,,,,,,,,,,,,,,,,,,
972.6999999880791,,pt2_memorable_rating,569836,Meadowspire,,51,,,3,,,,,,,,,,,,,,,
null,,confidence_buffer,569942,confidence_buffer,,null,,,,,,,,,,,,,,,,,,
1215,,recognition_phase,571160,Meadowspire,,50,,,,,,old,1,0.42857142857142855,,,,,,,,,,
null,,confidence_buffer,571266,confidence_buffer,,null,,,,,,,,,,,,,,,,,,
null,,thebreak,571774,break,,null,,,,,,,,,,,,,,,,,,
767.5,,realistic_rating,572545,Maravilla Springs,,52,Maravilla Springs,Fictional,4,,,,,,,,,,,,,,,
null,,confidence_buffer,572650,confidence_buffer,,null,,,,,,,,,,,,,,,,,,
1666.199999988079,,probe_rating,574318,probe_rating,,53,,,,5,1,,,,,,,,,,,,,
null,,confidence_buffer,574425,confidence_buffer,,null,,,,,,,,,,,,,,,,,,
1529.6000000238419,,pt2_unique_rating,575957,Maravilla Springs,,50,,,2,,,,,,,,,,,,,,,
null,,confidence_buffer,576074,confidence_buffer,,null,,,,,,,,,,,,,,,,,,
1051,,pt2_memorable_rating,577127,Maravilla Springs,,51,,,3,,,,,,,,,,,,,,,
null,,confidence_buffer,577230,confidence_buffer,,null,,,,,,,,,,,,,,,,,,
1320.5999999642372,,recognition_phase,578553,Maravilla Springs,,52,,,,,,new,1,0.4482758620689655,,,,,,,,,,
null,,confidence_buffer,578663,confidence_buffer,,null,,,,,,,,,,,,,,,,,,
null,,thebreak,579173,break,,null,,,,,,,,,,,,,,,,,,
798.1999999880791,,realistic_rating,579974,Shreveport,,52,Shreveport,US,4,,,,,,,,,,,,,,,
null,,confidence_buffer,580081,confidence_buffer,,null,,,,,,,,,,,,,,,,,,
1069,,pt2_unique_rating,581152,Shreveport,,50,,,2,,,,,,,,,,,,,,,
null,,confidence_buffer,581257,confidence_buffer,,null,,,,,,,,,,,,,,,,,,
718.3000000119209,,pt2_memorable_rating,581978,Shreveport,,50,,,2,,,,,,,,,,,,,,,
null,,confidence_buffer,582080,confidence_buffer,,null,,,,,,,,,,,,,,,,,,
659.5999999642372,,recognition_phase,582743,Shreveport,,51,,,,,,new,1,0.4666666666666667,,,,,,,,,,
null,,confidence_buffer,582853,confidence_buffer,,null,,,,,,,,,,,,,,,,,,
null,,thebreak,583363,break,,null,,,,,,,,,,,,,,,,,,
1624.0999999642372,,realistic_rating,584990,Yukon,,52,Yukon,US,4,,,,,,,,,,,,,,,
null,,confidence_buffer,585094,confidence_buffer,,null,,,,,,,,,,,,,,,,,,
1210.0999999642372,,pt2_unique_rating,586306,Yukon,,52,,,4,,,,,,,,,,,,,,,
null,,confidence_buffer,586413,confidence_buffer,,null,,,,,,,,,,,,,,,,,,
1725.5,,probe_rating,588141,probe_rating,,51,,,,3,1,,,,,,,,,,,,,
null,,confidence_buffer,588244,confidence_buffer,,null,,,,,,,,,,,,,,,,,,
1504,,pt2_memorable_rating,589750,Yukon,,50,,,2,,,,,,,,,,,,,,,
null,,confidence_buffer,589856,confidence_buffer,,null,,,,,,,,,,,,,,,,,,
663.7000000476837,,recognition_phase,590523,Yukon,,52,,,,,,new,0,0.45161290322580644,,,,,,,,,,
null,,confidence_buffer,590631,confidence_buffer,,null,,,,,,,,,,,,,,,,,,
null,,thebreak,591137,break,,null,,,,,,,,,,,,,,,,,,
788.6000000238419,,realistic_rating,591928,Coeur d'Alene,,52,Coeur d'Alene,US,4,,,,,,,,,,,,,,,
null,,confidence_buffer,592033,confidence_buffer,,null,,,,,,,,,,,,,,,,,,
791.1999999880791,,pt2_unique_rating,592827,Coeur d'Alene,,50,,,2,,,,,,,,,,,,,,,
null,,confidence_buffer,592931,confidence_buffer,,null,,,,,,,,,,,,,,,,,,
536.3000000119209,,pt2_memorable_rating,593469,Coeur d'Alene,,50,,,2,,,,,,,,,,,,,,,
null,,confidence_buffer,593579,confidence_buffer,,null,,,,,,,,,,,,,,,,,,
1862.9000000357628,,recognition_phase,595445,Coeur d'Alene,,52,,,,,,new,1,0.46875,,,,,,,,,,
null,,confidence_buffer,595556,confidence_buffer,,null,,,,,,,,,,,,,,,,,,
null,,thebreak,596067,break,,null,,,,,,,,,,,,,,,,,,
771.3999999761581,,realistic_rating,596841,Gloucester,,51,Gloucester,US,3,,,,,,,,,,,,,,,
null,,confidence_buffer,596947,confidence_buffer,,null,,,,,,,,,,,,,,,,,,
2252.399999976158,,pt2_unique_rating,599202,Gloucester,,50,,,2,,,,,,,,,,,,,,,
null,,confidence_buffer,599312,confidence_buffer,,null,,,,,,,,,,,,,,,,,,
674.3000000119209,,pt2_memorable_rating,599989,Gloucester,,50,,,2,,,,,,,,,,,,,,,
null,,confidence_buffer,600103,confidence_buffer,,null,,,,,,,,,,,,,,,,,,
883.5,,recognition_phase,600990,Gloucester,,51,,,,,,new,1,0.48484848484848486,,,,,,,,,,
null,,confidence_buffer,601099,confidence_buffer,,null,,,,,,,,,,,,,,,,,,
null,,thebreak,601606,break,,null,,,,,,,,,,,,,,,,,,
752.6000000238419,,realistic_rating,602361,Leesburg,,50,Leesburg,US,2,,,,,,,,,,,,,,,
null,,confidence_buffer,602469,confidence_buffer,,null,,,,,,,,,,,,,,,,,,
831.1000000238419,,pt2_unique_rating,603302,Leesburg,,52,,,4,,,,,,,,,,,,,,,
null,,confidence_buffer,603422,confidence_buffer,,null,,,,,,,,,,,,,,,,,,
565.1999999880791,,pt2_memorable_rating,603989,Leesburg,,51,,,3,,,,,,,,,,,,,,,
null,,confidence_buffer,604095,confidence_buffer,,null,,,,,,,,,,,,,,,,,,
662.1000000238419,,recognition_phase,604759,Leesburg,,50,,,,,,old,1,0.5,,,,,,,,,,
null,,confidence_buffer,604871,confidence_buffer,,null,,,,,,,,,,,,,,,,,,
null,,thebreak,605378,break,,null,,,,,,,,,,,,,,,,,,
1058.199999988079,,realistic_rating,606439,Cleveland,,50,Cleveland,US,2,,,,,,,,,,,,,,,
null,,confidence_buffer,606545,confidence_buffer,,null,,,,,,,,,,,,,,,,,,
688.2000000476837,,pt2_unique_rating,607235,Cleveland,,51,,,3,,,,,,,,,,,,,,,
null,,confidence_buffer,607344,confidence_buffer,,null,,,,,,,,,,,,,,,,,,
613.3999999761581,,pt2_memorable_rating,607959,Cleveland,,52,,,4,,,,,,,,,,,,,,,
null,,confidence_buffer,608068,confidence_buffer,,null,,,,,,,,,,,,,,,,,,
635.8999999761581,,recognition_phase,608707,Cleveland,,51,,,,,,new,1,0.5142857142857142,,,,,,,,,,
null,,confidence_buffer,608811,confidence_buffer,,null,,,,,,,,,,,,,,,,,,
null,,thebreak,609318,break,,null,,,,,,,,,,,,,,,,,,
1888.2000000476837,,realistic_rating,611209,Alliance,,52,Alliance,US,4,,,,,,,,,,,,,,,
null,,confidence_buffer,611312,confidence_buffer,,null,,,,,,,,,,,,,,,,,,
812.3000000119209,,pt2_unique_rating,612127,Alliance,,51,,,3,,,,,,,,,,,,,,,
null,,confidence_buffer,612236,confidence_buffer,,null,,,,,,,,,,,,,,,,,,
532.3999999761581,,pt2_memorable_rating,612771,Alliance,,52,,,4,,,,,,,,,,,,,,,
null,,confidence_buffer,612875,confidence_buffer,,null,,,,,,,,,,,,,,,,,,
1535,,recognition_phase,614412,Alliance,,52,,,,,,new,1,0.5277777777777778,,,,,,,,,,
null,,confidence_buffer,614526,confidence_buffer,,null,,,,,,,,,,,,,,,,,,
null,,thebreak,615032,break,,null,,,,,,,,,,,,,,,,,,
793.4000000357628,,realistic_rating,615827,Sierra Hollow,,51,Sierra Hollow,Fictional,3,,,,,,,,,,,,,,,
null,,confidence_buffer,615942,confidence_buffer,,null,,,,,,,,,,,,,,,,,,
828.0999999642372,,pt2_unique_rating,616772,Sierra Hollow,,52,,,4,,,,,,,,,,,,,,,
null,,confidence_buffer,616881,confidence_buffer,,null,,,,,,,,,,,,,,,,,,
499.19999998807907,,pt2_memorable_rating,617382,Sierra Hollow,,51,,,3,,,,,,,,,,,,,,,
null,,confidence_buffer,617486,confidence_buffer,,null,,,,,,,,,,,,,,,,,,
981.8000000119209,,recognition_phase,618470,Sierra Hollow,,50,,,,,,old,0,0.5135135135135135,,,,,,,,,,
null,,confidence_buffer,618588,confidence_buffer,,null,,,,,,,,,,,,,,,,,,
null,,thebreak,619092,break,,null,,,,,,,,,,,,,,,,,,
600.6999999880791,,realistic_rating,619695,Granton Ridge,,50,Granton Ridge,Fictional,2,,,,,,,,,,,,,,,
null,,confidence_buffer,619804,confidence_buffer,,null,,,,,,,,,,,,,,,,,,
629.6000000238419,,pt2_unique_rating,620436,Granton Ridge,,51,,,3,,,,,,,,,,,,,,,
null,,confidence_buffer,620540,confidence_buffer,,null,,,,,,,,,,,,,,,,,,
534.6000000238419,,pt2_memorable_rating,621076,Granton Ridge,,52,,,4,,,,,,,,,,,,,,,
null,,confidence_buffer,621186,confidence_buffer,,null,,,,,,,,,,,,,,,,,,
540.3999999761581,,recognition_phase,621728,Granton Ridge,,51,,,,,,new,1,0.5263157894736842,,,,,,,,,,
null,,confidence_buffer,621839,confidence_buffer,,null,,,,,,,,,,,,,,,,,,
null,,thebreak,622342,break,,null,,,,,,,,,,,,,,,,,,
2253.900000035763,,realistic_rating,624598,Ravenport,,52,Ravenport,Fictional,4,,,,,,,,,,,,,,,
null,,confidence_buffer,624702,confidence_buffer,,null,,,,,,,,,,,,,,,,,,
1088.9000000357628,,pt2_unique_rating,625793,Ravenport,,51,,,3,,,,,,,,,,,,,,,
null,,confidence_buffer,625901,confidence_buffer,,null,,,,,,,,,,,,,,,,,,
843.3000000119209,,pt2_memorable_rating,626747,Ravenport,,51,,,3,,,,,,,,,,,,,,,
null,,confidence_buffer,626853,confidence_buffer,,null,,,,,,,,,,,,,,,,,,
1575.0999999642372,,probe_rating,628430,probe_rating,,53,,,,5,1,,,,,,,,,,,,,
null,,confidence_buffer,628535,confidence_buffer,,null,,,,,,,,,,,,,,,,,,
799.5,,recognition_phase,629336,Ravenport,,51,,,,,,new,0,0.5128205128205128,,,,,,,,,,
null,,confidence_buffer,629443,confidence_buffer,,null,,,,,,,,,,,,,,,,,,
null,,thebreak,629951,break,,null,,,,,,,,,,,,,,,,,,
670.1000000238419,,realistic_rating,630624,Millstone,,52,Millstone,Fictional,4,,,,,,,,,,,,,,,
null,,confidence_buffer,630734,confidence_buffer,,null,,,,,,,,,,,,,,,,,,
1184.3999999761581,,pt2_unique_rating,631920,Millstone,,50,,,2,,,,,,,,,,,,,,,
null,,confidence_buffer,632024,confidence_buffer,,null,,,,,,,,,,,,,,,,,,
801.0999999642372,,pt2_memorable_rating,632827,Millstone,,50,,,2,,,,,,,,,,,,,,,
null,,confidence_buffer,632934,confidence_buffer,,null,,,,,,,,,,,,,,,,,,
1463.4000000357628,,probe_rating,634400,probe_rating,,51,,,,3,1,,,,,,,,,,,,,
null,,confidence_buffer,634509,confidence_buffer,,null,,,,,,,,,,,,,,,,,,
1260.9000000357628,,recognition_phase,635772,Millstone,,52,,,,,,new,0,0.5,,,,,,,,,,
null,,confidence_buffer,635883,confidence_buffer,,null,,,,,,,,,,,,,,,,,,
null,,thebreak,636390,break,,null,,,,,,,,,,,,,,,,,,
759,,realistic_rating,637151,Okoboji,,50,Okoboji,US,2,,,,,,,,,,,,,,,
null,,confidence_buffer,637257,confidence_buffer,,null,,,,,,,,,,,,,,,,,,
545.0999999642372,,pt2_unique_rating,637804,Okoboji,,52,,,4,,,,,,,,,,,,,,,
null,,confidence_buffer,637910,confidence_buffer,,null,,,,,,,,,,,,,,,,,,
1201.300000011921,,pt2_memorable_rating,639113,Okoboji,,52,,,4,,,,,,,,,,,,,,,
null,,confidence_buffer,639216,confidence_buffer,,null,,,,,,,,,,,,,,,,,,
1469.9000000357628,,probe_rating,640688,probe_rating,,52,,,,4,1,,,,,,,,,,,,,
null,,confidence_buffer,640796,confidence_buffer,,null,,,,,,,,,,,,,,,,,,
1198.300000011921,,recognition_phase,641996,Okoboji,,51,,,,,,new,1,0.5121951219512195,,,,,,,,,,
null,,confidence_buffer,642115,confidence_buffer,,null,,,,,,,,,,,,,,,,,,
null,,thebreak,642617,break,,null,,,,,,,,,,,,,,,,,,
255.0999999642372,,realistic_rating,642875,Cody,,53,Cody,US,5,,,,,,,,,,,,,,,
null,,confidence_buffer,642982,confidence_buffer,,null,,,,,,,,,,,,,,,,,,
885,,pt2_unique_rating,643869,Cody,,50,,,2,,,,,,,,,,,,,,,
null,,confidence_buffer,643974,confidence_buffer,,null,,,,,,,,,,,,,,,,,,
726.9000000357628,,pt2_memorable_rating,644703,Cody,,51,,,3,,,,,,,,,,,,,,,
null,,confidence_buffer,644819,confidence_buffer,,null,,,,,,,,,,,,,,,,,,
859,,recognition_phase,645680,Cody,,50,,,,,,old,0,0.5,,,,,,,,,,
null,,confidence_buffer,645783,confidence_buffer,,null,,,,,,,,,,,,,,,,,,
null,,thebreak,646292,break,,null,,,,,,,,,,,,,,,,,,
760.6000000238419,,realistic_rating,647055,Orr,,49,Orr,US,1,,,,,,,,,,,,,,,
null,,confidence_buffer,647159,confidence_buffer,,null,,,,,,,,,,,,,,,,,,
2950.600000023842,,pt2_unique_rating,650111,Orr,,51,,,3,,,,,,,,,,,,,,,
null,,confidence_buffer,650225,confidence_buffer,,null,,,,,,,,,,,,,,,,,,
801.8999999761581,,pt2_memorable_rating,651029,Orr,,52,,,4,,,,,,,,,,,,,,,
null,,confidence_buffer,651134,confidence_buffer,,null,,,,,,,,,,,,,,,,,,
2252.300000011921,,recognition_phase,653388,Orr,,52,,,,,,new,0,0.4883720930232558,,,,,,,,,,
null,,confidence_buffer,653492,confidence_buffer,,null,,,,,,,,,,,,,,,,,,
null,,thebreak,653999,break,,null,,,,,,,,,,,,,,,,,,
1502.6000000238419,,realistic_rating,655503,Tamarisk Hills,,50,Tamarisk Hills,Fictional,2,,,,,,,,,,,,,,,
null,,confidence_buffer,655614,confidence_buffer,,null,,,,,,,,,,,,,,,,,,
614.5,,pt2_unique_rating,656230,Tamarisk Hills,,51,,,3,,,,,,,,,,,,,,,
null,,confidence_buffer,656334,confidence_buffer,,null,,,,,,,,,,,,,,,,,,
2250.600000023842,,probe_rating,658586,probe_rating,,50,,,,2,1,,,,,,,,,,,,,
null,,confidence_buffer,658691,confidence_buffer,,null,,,,,,,,,,,,,,,,,,
1203.0999999642372,,pt2_memorable_rating,659897,Tamarisk Hills,,51,,,3,,,,,,,,,,,,,,,
null,,confidence_buffer,660002,confidence_buffer,,null,,,,,,,,,,,,,,,,,,
545.5,,recognition_phase,660550,Tamarisk Hills,,52,,,,,,new,1,0.5,,,,,,,,,,
null,,confidence_buffer,660656,confidence_buffer,,null,,,,,,,,,,,,,,,,,,
null,,thebreak,661159,break,,null,,,,,,,,,,,,,,,,,,
525.8999999761581,,realistic_rating,661687,Barnard,,52,Barnard,US,4,,,,,,,,,,,,,,,
null,,confidence_buffer,661789,confidence_buffer,,null,,,,,,,,,,,,,,,,,,
631.5,,pt2_unique_rating,662422,Barnard,,51,,,3,,,,,,,,,,,,,,,
null,,confidence_buffer,662532,confidence_buffer,,null,,,,,,,,,,,,,,,,,,
668.7999999523163,,pt2_memorable_rating,663203,Barnard,,50,,,2,,,,,,,,,,,,,,,
null,,confidence_buffer,663321,confidence_buffer,,null,,,,,,,,,,,,,,,,,,
938.6000000238419,,recognition_phase,664262,Barnard,,50,,,,,,old,1,0.5111111111111111,,,,,,,,,,
null,,confidence_buffer,664365,confidence_buffer,,null,,,,,,,,,,,,,,,,,,
null,,thebreak,664877,break,,null,,,,,,,,,,,,,,,,,,
1715.699999988079,,realistic_rating,666595,Albuquerque,,49,Albuquerque,US,1,,,,,,,,,,,,,,,
null,,confidence_buffer,666706,confidence_buffer,,null,,,,,,,,,,,,,,,,,,
748.1999999880791,,pt2_unique_rating,667456,Albuquerque,,50,,,2,,,,,,,,,,,,,,,
null,,confidence_buffer,667563,confidence_buffer,,null,,,,,,,,,,,,,,,,,,
651.9000000357628,,pt2_memorable_rating,668217,Albuquerque,,52,,,4,,,,,,,,,,,,,,,
null,,confidence_buffer,668321,confidence_buffer,,null,,,,,,,,,,,,,,,,,,
1363.199999988079,,probe_rating,669686,probe_rating,,49,,,,1,1,,,,,,,,,,,,,
null,,confidence_buffer,669798,confidence_buffer,,null,,,,,,,,,,,,,,,,,,
2347.300000011921,,recognition_phase,672148,Albuquerque,,51,,,,,,new,0,0.5,,,,,,,,,,
null,,confidence_buffer,672255,confidence_buffer,,null,,,,,,,,,,,,,,,,,,
null,,thebreak,672765,break,,null,,,,,,,,,,,,,,,,,,
391.30000001192093,,realistic_rating,673158,Huntsville,,52,Huntsville,US,4,,,,,,,,,,,,,,,
null,,confidence_buffer,673263,confidence_buffer,,null,,,,,,,,,,,,,,,,,,
495.5,,pt2_unique_rating,673760,Huntsville,,53,,,5,,,,,,,,,,,,,,,
null,,confidence_buffer,673864,confidence_buffer,,null,,,,,,,,,,,,,,,,,,
685.1999999880791,,pt2_memorable_rating,674551,Huntsville,,53,,,5,,,,,,,,,,,,,,,
null,,confidence_buffer,674654,confidence_buffer,,null,,,,,,,,,,,,,,,,,,
1990.300000011921,,recognition_phase,676648,Huntsville,,51,,,,,,new,1,0.5106382978723404,,,,,,,,,,
null,,confidence_buffer,676754,confidence_buffer,,null,,,,,,,,,,,,,,,,,,
null,,thebreak,677256,break,,null,,,,,,,,,,,,,,,,,,
1003.7000000476837,,realistic_rating,678263,Pine Hollow,,51,Pine Hollow,Fictional,3,,,,,,,,,,,,,,,
null,,confidence_buffer,678370,confidence_buffer,,null,,,,,,,,,,,,,,,,,,
791.5,,pt2_unique_rating,679164,Pine Hollow,,52,,,4,,,,,,,,,,,,,,,
null,,confidence_buffer,679267,confidence_buffer,,null,,,,,,,,,,,,,,,,,,
746.5999999642372,,pt2_memorable_rating,680016,Pine Hollow,,52,,,4,,,,,,,,,,,,,,,
null,,confidence_buffer,680125,confidence_buffer,,null,,,,,,,,,,,,,,,,,,
601.3000000119209,,recognition_phase,680729,Pine Hollow,,51,,,,,,new,0,0.5,,,,,,,,,,
null,,confidence_buffer,680837,confidence_buffer,,null,,,,,,,,,,,,,,,,,,
null,,thebreak,681346,break,,null,,,,,,,,,,,,,,,,,,
1646.800000011921,,realistic_rating,682995,Lakehaven,,51,Lakehaven,Fictional,3,,,,,,,,,,,,,,,
null,,confidence_buffer,683107,confidence_buffer,,null,,,,,,,,,,,,,,,,,,
2623.699999988079,,pt2_unique_rating,685733,Lakehaven,,52,,,4,,,,,,,,,,,,,,,
null,,confidence_buffer,685839,confidence_buffer,,null,,,,,,,,,,,,,,,,,,
1571.5,,pt2_memorable_rating,687413,Lakehaven,,52,,,4,,,,,,,,,,,,,,,
null,,confidence_buffer,687518,confidence_buffer,,null,,,,,,,,,,,,,,,,,,
553.6000000238419,,recognition_phase,688074,Lakehaven,,51,,,,,,new,0,0.4897959183673469,,,,,,,,,,
null,,confidence_buffer,688182,confidence_buffer,,null,,,,,,,,,,,,,,,,,,
null,,thebreak,688692,break,,null,,,,,,,,,,,,,,,,,,
851.3000000119209,,realistic_rating,689545,Cornwall,,51,Cornwall,US,3,,,,,,,,,,,,,,,
null,,confidence_buffer,689662,confidence_buffer,,null,,,,,,,,,,,,,,,,,,
760,,pt2_unique_rating,690424,Cornwall,,52,,,4,,,,,,,,,,,,,,,
null,,confidence_buffer,690528,confidence_buffer,,null,,,,,,,,,,,,,,,,,,
634.5,,pt2_memorable_rating,691164,Cornwall,,50,,,2,,,,,,,,,,,,,,,
null,,confidence_buffer,691266,confidence_buffer,,null,,,,,,,,,,,,,,,,,,
793.8999999761581,,recognition_phase,692062,Cornwall,,52,,,,,,new,0,0.48,,,,,,,,,,
null,,confidence_buffer,692172,confidence_buffer,,null,,,,,,,,,,,,,,,,,,
null,,thebreak,692689,break,,null,,,,,,,,,,,,,,,,,,
907.5999999642372,,realistic_rating,693599,Bar Harbor,,51,Bar Harbor,US,3,,,,,,,,,,,,,,,
null,,confidence_buffer,693712,confidence_buffer,,null,,,,,,,,,,,,,,,,,,
683.6000000238419,,pt2_unique_rating,694398,Bar Harbor,,51,,,3,,,,,,,,,,,,,,,
null,,confidence_buffer,694503,confidence_buffer,,null,,,,,,,,,,,,,,,,,,
559.4000000357628,,pt2_memorable_rating,695064,Bar Harbor,,52,,,4,,,,,,,,,,,,,,,
null,,confidence_buffer,695169,confidence_buffer,,null,,,,,,,,,,,,,,,,,,
2209.5,,recognition_phase,697381,Bar Harbor,,50,,,,,,old,0,0.47058823529411764,,,,,,,,,,
null,,confidence_buffer,697498,confidence_buffer,,null,,,,,,,,,,,,,,,,,,
null,,thebreak,698008,break,,null,,,,,,,,,,,,,,,,,,
1242.699999988079,,realistic_rating,699253,New Hope,,50,New Hope,US,2,,,,,,,,,,,,,,,
null,,confidence_buffer,699360,confidence_buffer,,null,,,,,,,,,,,,,,,,,,
674.5999999642372,,pt2_unique_rating,700037,New Hope,,51,,,3,,,,,,,,,,,,,,,
null,,confidence_buffer,700144,confidence_buffer,,null,,,,,,,,,,,,,,,,,,
672.1000000238419,,pt2_memorable_rating,700818,New Hope,,52,,,4,,,,,,,,,,,,,,,
null,,confidence_buffer,700920,confidence_buffer,,null,,,,,,,,,,,,,,,,,,
1808.5,,probe_rating,702731,probe_rating,,52,,,,4,1,,,,,,,,,,,,,
null,,confidence_buffer,702834,confidence_buffer,,null,,,,,,,,,,,,,,,,,,
1557,,recognition_phase,704393,New Hope,,50,,,,,,old,0,0.46153846153846156,,,,,,,,,,
null,,confidence_buffer,704502,confidence_buffer,,null,,,,,,,,,,,,,,,,,,
null,,thebreak,705015,break,,null,,,,,,,,,,,,,,,,,,
1187.6000000238419,,realistic_rating,706205,Ashford Hills,,53,Ashford Hills,Fictional,5,,,,,,,,,,,,,,,
null,,confidence_buffer,706307,confidence_buffer,,null,,,,,,,,,,,,,,,,,,
826.2999999523163,,pt2_unique_rating,707138,Ashford Hills,,52,,,4,,,,,,,,,,,,,,,
null,,confidence_buffer,707244,confidence_buffer,,null,,,,,,,,,,,,,,,,,,
1405.199999988079,,pt2_memorable_rating,708652,Ashford Hills,,51,,,3,,,,,,,,,,,,,,,
null,,confidence_buffer,708758,confidence_buffer,,null,,,,,,,,,,,,,,,,,,
1021.0999999642372,,recognition_phase,709781,Ashford Hills,,50,,,,,,old,0,0.4528301886792453,,,,,,,,,,
null,,confidence_buffer,709885,confidence_buffer,,null,,,,,,,,,,,,,,,,,,
null,,thebreak,710388,break,,null,,,,,,,,,,,,,,,,,,
553.7999999523163,,realistic_rating,710944,Redgrove,,51,Redgrove,Fictional,3,,,,,,,,,,,,,,,
null,,confidence_buffer,711049,confidence_buffer,,null,,,,,,,,,,,,,,,,,,
612.3000000119209,,pt2_unique_rating,711663,Redgrove,,52,,,4,,,,,,,,,,,,,,,
null,,confidence_buffer,711767,confidence_buffer,,null,,,,,,,,,,,,,,,,,,
693.3999999761581,,pt2_memorable_rating,712463,Redgrove,,53,,,5,,,,,,,,,,,,,,,
null,,confidence_buffer,712573,confidence_buffer,,null,,,,,,,,,,,,,,,,,,
793.3000000119209,,recognition_phase,713369,Redgrove,,51,,,,,,new,1,0.46296296296296297,,,,,,,,,,
null,,confidence_buffer,713482,confidence_buffer,,null,,,,,,,,,,,,,,,,,,
null,,thebreak,713992,break,,null,,,,,,,,,,,,,,,,,,
700.4000000357628,,realistic_rating,714694,Folly Beach,,51,Folly Beach,US,3,,,,,,,,,,,,,,,
null,,confidence_buffer,714799,confidence_buffer,,null,,,,,,,,,,,,,,,,,,
852,,pt2_unique_rating,715653,Folly Beach,,52,,,4,,,,,,,,,,,,,,,
null,,confidence_buffer,715761,confidence_buffer,,null,,,,,,,,,,,,,,,,,,
799.8999999761581,,pt2_memorable_rating,716563,Folly Beach,,50,,,2,,,,,,,,,,,,,,,
null,,confidence_buffer,716668,confidence_buffer,,null,,,,,,,,,,,,,,,,,,
982.6999999880791,,recognition_phase,717653,Folly Beach,,51,,,,,,new,0,0.45454545454545453,,,,,,,,,,
null,,confidence_buffer,717759,confidence_buffer,,null,,,,,,,,,,,,,,,,,,
null,,thebreak,718266,break,,null,,,,,,,,,,,,,,,,,,
1613.1000000238419,,realistic_rating,719881,Berkeley Springs,,50,Berkeley Springs,US,2,,,,,,,,,,,,,,,
null,,confidence_buffer,719989,confidence_buffer,,null,,,,,,,,,,,,,,,,,,
878.8000000119209,,pt2_unique_rating,720870,Berkeley Springs,,50,,,2,,,,,,,,,,,,,,,
null,,confidence_buffer,720974,confidence_buffer,,null,,,,,,,,,,,,,,,,,,
632.4000000357628,,pt2_memorable_rating,721609,Berkeley Springs,,51,,,3,,,,,,,,,,,,,,,
null,,confidence_buffer,721719,confidence_buffer,,null,,,,,,,,,,,,,,,,,,
728.3999999761581,,recognition_phase,722450,Berkeley Springs,,52,,,,,,new,1,0.4642857142857143,,,,,,,,,,
null,,confidence_buffer,722555,confidence_buffer,,null,,,,,,,,,,,,,,,,,,
null,,thebreak,723057,break,,null,,,,,,,,,,,,,,,,,,
3654.599999964237,,realistic_rating,726714,Ironwood Heights,,52,Ironwood Heights,Fictional,4,,,,,,,,,,,,,,,
null,,confidence_buffer,726823,confidence_buffer,,null,,,,,,,,,,,,,,,,,,
969,,pt2_unique_rating,727795,Ironwood Heights,,51,,,3,,,,,,,,,,,,,,,
null,,confidence_buffer,727899,confidence_buffer,,null,,,,,,,,,,,,,,,,,,
594,,pt2_memorable_rating,728495,Ironwood Heights,,51,,,3,,,,,,,,,,,,,,,
null,,confidence_buffer,728603,confidence_buffer,,null,,,,,,,,,,,,,,,,,,
848.3999999761581,,recognition_phase,729453,Ironwood Heights,,52,,,,,,new,0,0.45614035087719296,,,,,,,,,,
null,,confidence_buffer,729557,confidence_buffer,,null,,,,,,,,,,,,,,,,,,
null,,thebreak,730064,break,,null,,,,,,,,,,,,,,,,,,
1579.1000000238419,,realistic_rating,731646,Willowford,,50,Willowford,Fictional,2,,,,,,,,,,,,,,,
null,,confidence_buffer,731749,confidence_buffer,,null,,,,,,,,,,,,,,,,,,
1372.5,,pt2_unique_rating,733124,Willowford,,51,,,3,,,,,,,,,,,,,,,
null,,confidence_buffer,733232,confidence_buffer,,null,,,,,,,,,,,,,,,,,,
1433.199999988079,,pt2_memorable_rating,734667,Willowford,,52,,,4,,,,,,,,,,,,,,,
null,,confidence_buffer,734773,confidence_buffer,,null,,,,,,,,,,,,,,,,,,
1260.1000000238419,,recognition_phase,736036,Willowford,,50,,,,,,old,0,0.4482758620689655,,,,,,,,,,
null,,confidence_buffer,736148,confidence_buffer,,null,,,,,,,,,,,,,,,,,,
null,,thebreak,736655,break,,null,,,,,,,,,,,,,,,,,,
2075.099999964237,,realistic_rating,738733,Orchard Bend,,50,Orchard Bend,Fictional,2,,,,,,,,,,,,,,,
null,,confidence_buffer,738840,confidence_buffer,,null,,,,,,,,,,,,,,,,,,
2392,,probe_rating,741235,probe_rating,,49,,,,1,1,,,,,,,,,,,,,
null,,confidence_buffer,741349,confidence_buffer,,null,,,,,,,,,,,,,,,,,,
1245.1000000238419,,pt2_unique_rating,742596,Orchard Bend,,51,,,3,,,,,,,,,,,,,,,
null,,confidence_buffer,742699,confidence_buffer,,null,,,,,,,,,,,,,,,,,,
597.5,,pt2_memorable_rating,743298,Orchard Bend,,52,,,4,,,,,,,,,,,,,,,
null,,confidence_buffer,743401,confidence_buffer,,null,,,,,,,,,,,,,,,,,,
707,,recognition_phase,744110,Orchard Bend,,52,,,,,,new,1,0.4576271186440678,,,,,,,,,,
null,,confidence_buffer,744215,confidence_buffer,,null,,,,,,,,,,,,,,,,,,
null,,thebreak,744717,break,,null,,,,,,,,,,,,,,,,,,
910.1000000238419,,realistic_rating,745629,Lake of the Ozarks,,53,Lake of the Ozarks,US,5,,,,,,,,,,,,,,,
null,,confidence_buffer,745732,confidence_buffer,,null,,,,,,,,,,,,,,,,,,
809.5,,pt2_unique_rating,746544,Lake of the Ozarks,,53,,,5,,,,,,,,,,,,,,,
null,,confidence_buffer,746646,confidence_buffer,,null,,,,,,,,,,,,,,,,,,
798.7999999523163,,pt2_memorable_rating,747447,Lake of the Ozarks,,51,,,3,,,,,,,,,,,,,,,
null,,confidence_buffer,747561,confidence_buffer,,null,,,,,,,,,,,,,,,,,,
914.4000000357628,,recognition_phase,748478,Lake of the Ozarks,,51,,,,,,new,0,0.45,,,,,,,,,,
null,,confidence_buffer,748588,confidence_buffer,,null,,,,,,,,,,,,,,,,,,
null,,thebreak,749094,break,,null,,,,,,,,,,,,,,,,,,
,,survey,952998,survey-questions,,,,,,,,,,,none,high,no. I was very keen,I was looking at the way I know the names,very high,very high,keen to details,very realistic,no,nope, all was well
