rt,responses,trial_type,time_elapsed,stimulus,cities,city_images,button_pressed,response,key_press,stimulus_left,stimulus_right,accuracy,cumulative_accuracy,stimulus_down_left,stimulus_down_mid,stimulus_down_right,stimulus_correct,stimulus_short,stimulus_far,weighted_accuracy,missedtrial,condition,specific_pairs,imgL_ID,imgR_ID,linedress,linedressed,image_position,unknowncity,testedstates,currentstate,otherstate,problems,smooth,distraction,strategies,easier,similar,comments
10135.5,{worker_id:66ecded667f721bca7e5609d},id_enter,10141,intro,Shreveport; Huntsville; West Palm Beach; Cornwall; New Hope; Hanover; Boulder; Peoria; Racine; Gatlinburg; Leesburg; Carmel; Hot Springs,US_Cities_List/nat_shreveport.png; US_Cities_List/nat_huntsville.png; US_Cities_List/mm_westpalmbeach.png; US_Cities_List/nat_cornwall.png; US_Cities_List/nat_newhope.png; US_Cities_List/mm_hanover.png; US_Cities_List/nat_boulder.png; US_Cities_List/nat_peoria.png; US_Cities_List/mm_racine.png; US_Cities_List/mm_gatlinburg.png; US_Cities_List/nat_leesburg.png; US_Cities_List/mm_carmel.png; US_Cities_List/mm_hotsprings.png,,,,,,,,,,,,,,,,,,,,,,,,,,,,,,,,,
40700,,fullscreen,50859,make_fullscreen,,,0,,,,,,,,,,,,,,,,,,,,,,,,,,,,,,,,
12271.70000000298,,intro_1,63137,instruct,,,0,,,,,,,,,,,,,,,,,,,,,,,,,,,,,,,,
14092.40000000596,,intro_2,77234,instruct,,,1,Next,,,,,,,,,,,,,,,,,,,,,,,,,,,,,,,
14979.70000000298,,intro_3,92218,instruct,,,1,Next,,,,,,,,,,,,,,,,,,,,,,,,,,,,,,,
14044.79999999702,,intro_4,106266,instruct,,,1,Next,,,,,,,,,,,,,,,,,,,,,,,,,,,,,,,
8499.39999999106,,intro_5,114768,instruct,,,1,Next,,,,,,,,,,,,,,,,,,,,,,,,,,,,,,,
27767.70000000298,,intro_6,142538,instruct,,,1,Next,,,,,,,,,,,,,,,,,,,,,,,,,,,,,,,
null,,prac_atten_color_black,143171,black_plus_sign,,,,,null,,,,,,,,,,,,,,,,,,,,,,,,,,,,,,
591.5999999940395,,prac_atten_color,143946,prac_stop_color,,,,,49,,,,,,,,,,,,,,,,,,,,,,,,,,,,,,
null,,prac_atten_color_black,145949,black_plus_sign,,,,,null,,,,,,,,,,,,,,,,,,,,,,,,,,,,,,
null,,prac_atten_color_black,146584,black_plus_sign,,,,,null,,,,,,,,,,,,,,,,,,,,,,,,,,,,,,
528.7999999970198,,prac_atten_color,147236,prac_stop_color,,,,,50,,,,,,,,,,,,,,,,,,,,,,,,,,,,,,
null,,prac_atten_color_black,149239,black_plus_sign,,,,,null,,,,,,,,,,,,,,,,,,,,,,,,,,,,,,
null,,prac_atten_color_black,149993,black_plus_sign,,,,,null,,,,,,,,,,,,,,,,,,,,,,,,,,,,,,
602,,prac_atten_color,150874,prac_stop_color,,,,,50,,,,,,,,,,,,,,,,,,,,,,,,,,,,,,
null,,prac_atten_color_black,152877,black_plus_sign,,,,,null,,,,,,,,,,,,,,,,,,,,,,,,,,,,,,
null,,prac_atten_color_black,153411,black_plus_sign,,,,,null,,,,,,,,,,,,,,,,,,,,,,,,,,,,,,
null,,prac_atten_color,153847,prac_stop_color,,,,,null,,,,,,,,,,,,,,,,,,,,,,,,,,,,,,
99.19999998807907,,prac_atten_color_black,155849,black_plus_sign,,,,,49,,,,,,,,,,,,,,,,,,,,,,,,,,,,,,
null,,prac_atten_color_black,156821,black_plus_sign,,,,,null,,,,,,,,,,,,,,,,,,,,,,,,,,,,,,
514.8999999910593,,prac_atten_color,157631,prac_stop_color,,,,,49,,,,,,,,,,,,,,,,,,,,,,,,,,,,,,
null,,prac_atten_color_black,159634,black_plus_sign,,,,,null,,,,,,,,,,,,,,,,,,,,,,,,,,,,,,
5127.29999999702,,attentioncheck_help,164764,instruct,,,,,32,,,,,,,,,,,,,,,,,,,,,,,,,,,,,,
null,,prac_atten_color_black,165361,black_plus_sign,,,,,null,,,,,,,,,,,,,,,,,,,,,,,,,,,,,,
606.5,,prac_atten_color,166356,prac_stop_color,,,,,50,,,,,,,,,,,,,,,,,,,,,,,,,,,,,,
null,,prac_atten_color_black,168358,black_plus_sign,,,,,null,,,,,,,,,,,,,,,,,,,,,,,,,,,,,,
null,,prac_atten_color_black,168770,black_plus_sign,,,,,null,,,,,,,,,,,,,,,,,,,,,,,,,,,,,,
521.4000000059605,,prac_atten_color,169721,prac_stop_color,,,,,49,,,,,,,,,,,,,,,,,,,,,,,,,,,,,,
null,,prac_atten_color_black,171724,black_plus_sign,,,,,null,,,,,,,,,,,,,,,,,,,,,,,,,,,,,,
null,,prac_atten_color_black,172180,black_plus_sign,,,,,null,,,,,,,,,,,,,,,,,,,,,,,,,,,,,,
571.1000000089407,,prac_atten_color,172886,prac_stop_color,,,,,50,,,,,,,,,,,,,,,,,,,,,,,,,,,,,,
null,,prac_atten_color_black,174888,black_plus_sign,,,,,null,,,,,,,,,,,,,,,,,,,,,,,,,,,,,,
null,,prac_atten_color_black,175588,black_plus_sign,,,,,null,,,,,,,,,,,,,,,,,,,,,,,,,,,,,,
null,,prac_atten_color,176023,prac_stop_color,,,,,null,,,,,,,,,,,,,,,,,,,,,,,,,,,,,,
47.30000001192093,,prac_atten_color_black,178026,black_plus_sign,,,,,49,,,,,,,,,,,,,,,,,,,,,,,,,,,,,,
null,,prac_atten_color_black,178999,black_plus_sign,,,,,null,,,,,,,,,,,,,,,,,,,,,,,,,,,,,,
921.8000000119209,,prac_atten_color,179981,prac_stop_color,,,,,49,,,,,,,,,,,,,,,,,,,,,,,,,,,,,,
null,,prac_atten_color_black,181983,black_plus_sign,,,,,null,,,,,,,,,,,,,,,,,,,,,,,,,,,,,,
9071.70000000298,,attentioncheck_feedback,191058,cross_check_feedback,,,0,,,,,,,,,,,,,,,,,,,,,,,,,,,,,,,,
13516.10000000894,,last_instruct,204576,instruct,,,,,32,,,,,,,,,,,,,,,,,,,,,,,,,,,,,,
null,,learn_phase(without_color),206624,black_plus_sign,,,,,null,US_Cities_List/mm_hanover.png,US_Cities_List/mm_racine.png,,,,,,,,,,,,,,,,,,,,,,,,,,,,
null,,black_cross(without_color),207397,green,,,,,null,US_Cities_List/mm_hanover.png,US_Cities_List/mm_racine.png,,,,,,,,,,,,,,,,,,,,,,,,,,,,
null,,rt_plussign_withcolor,207900,green,,,,,null,US_Cities_List/mm_hanover.png,US_Cities_List/mm_racine.png,,,,,,,,,,,,,,,,,,,,,,,,,,,,
1450.699999988079,,rt_thecrossant_black,209134,black_plus_sign,,,,,49,,,0,0,,,,,,,,,,,,,,,,,,,,,,,,,,
null,,color_black,209238,black_plus_sign,,,,,null,,,,,,,,,,,,,,,,,,,,,,,,,,,,,,
null,,learn_phase(without_color),211804,black_plus_sign,,,,,null,US_Cities_List/nat_huntsville.png,US_Cities_List/nat_cornwall.png,,,,,,,,,,,,,,,,,,,,,,,,,,,,
null,,black_cross(without_color),212330,green,,,,,null,US_Cities_List/nat_huntsville.png,US_Cities_List/nat_cornwall.png,,,,,,,,,,,,,,,,,,,,,,,,,,,,
null,,rt_plussign_withcolor,212833,green,,,,,null,US_Cities_List/nat_huntsville.png,US_Cities_List/nat_cornwall.png,,,,,,,,,,,,,,,,,,,,,,,,,,,,
1878.2000000029802,,rt_thecrossant_black,214315,black_plus_sign,,,,,50,,,1,0.5,,,,,,,,,,,,,,,,,,,,,,,,,,
null,,color_black,214418,black_plus_sign,,,,,null,,,,,,,,,,,,,,,,,,,,,,,,,,,,,,
null,,learn_phase(without_color),216978,black_plus_sign,,,,,null,US_Cities_List/nat_shreveport.png,US_Cities_List/nat_huntsville.png,,,,,,,,,,,,,,,,,,,,,,,,,,,,
null,,black_cross(without_color),217825,blue,,,,,null,US_Cities_List/nat_shreveport.png,US_Cities_List/nat_huntsville.png,,,,,,,,,,,,,,,,,,,,,,,,,,,,
null,,rt_plussign_withcolor,218328,blue,,,,,null,US_Cities_List/nat_shreveport.png,US_Cities_List/nat_huntsville.png,,,,,,,,,,,,,,,,,,,,,,,,,,,,
1153.0999999940395,,rt_thecrossant_black,219488,black_plus_sign,,,,,49,,,1,0.6666666666666666,,,,,,,,,,,,,,,,,,,,,,,,,,
null,,color_black,219592,black_plus_sign,,,,,null,,,,,,,,,,,,,,,,,,,,,,,,,,,,,,
null,,learn_phase(without_color),222132,black_plus_sign,,,,,null,US_Cities_List/nat_peoria.png,US_Cities_List/mm_gatlinburg.png,,,,,,,,,,,,,,,,,,,,,,,,,,,,
null,,black_cross(without_color),222675,green,,,,,null,US_Cities_List/nat_peoria.png,US_Cities_List/mm_gatlinburg.png,,,,,,,,,,,,,,,,,,,,,,,,,,,,
null,,rt_plussign_withcolor,223177,green,,,,,null,US_Cities_List/nat_peoria.png,US_Cities_List/mm_gatlinburg.png,,,,,,,,,,,,,,,,,,,,,,,,,,,,
1285.5,,rt_thecrossant_black,224640,black_plus_sign,,,,,49,,,0,0.5,,,,,,,,,,,,,,,,,,,,,,,,,,
null,,color_black,224756,black_plus_sign,,,,,null,,,,,,,,,,,,,,,,,,,,,,,,,,,,,,
null,,learn_phase(without_color),227290,black_plus_sign,,,,,null,US_Cities_List/mm_hanover.png,US_Cities_List/mm_racine.png,,,,,,,,,,,,,,,,,,,,,,,,,,,,
null,,black_cross(without_color),228201,blue,,,,,null,US_Cities_List/mm_hanover.png,US_Cities_List/mm_racine.png,,,,,,,,,,,,,,,,,,,,,,,,,,,,
null,,rt_plussign_withcolor,228704,blue,,,,,null,US_Cities_List/mm_hanover.png,US_Cities_List/mm_racine.png,,,,,,,,,,,,,,,,,,,,,,,,,,,,
1283.0999999940395,,rt_thecrossant_black,229799,black_plus_sign,,,,,49,,,1,0.6,,,,,,,,,,,,,,,,,,,,,,,,,,
null,,color_black,229903,black_plus_sign,,,,,null,,,,,,,,,,,,,,,,,,,,,,,,,,,,,,
null,,learn_phase(without_color),232455,black_plus_sign,,,,,null,US_Cities_List/mm_hanover.png,US_Cities_List/nat_boulder.png,,,,,,,,,,,,,,,,,,,,,,,,,,,,
null,,black_cross(without_color),233192,blue,,,,,null,US_Cities_List/mm_hanover.png,US_Cities_List/nat_boulder.png,,,,,,,,,,,,,,,,,,,,,,,,,,,,
null,,rt_plussign_withcolor,233694,blue,,,,,null,US_Cities_List/mm_hanover.png,US_Cities_List/nat_boulder.png,,,,,,,,,,,,,,,,,,,,,,,,,,,,
1643,,rt_thecrossant_black,234964,black_plus_sign,,,,,49,,,1,0.6666666666666666,,,,,,,,,,,,,,,,,,,,,,,,,,
null,,color_black,235067,black_plus_sign,,,,,null,,,,,,,,,,,,,,,,,,,,,,,,,,,,,,
null,,learn_phase(without_color),237643,black_plus_sign,,,,,null,US_Cities_List/mm_westpalmbeach.png,US_Cities_List/mm_hanover.png,,,,,,,,,,,,,,,,,,,,,,,,,,,,
null,,black_cross(without_color),238689,green,,,,,null,US_Cities_List/mm_westpalmbeach.png,US_Cities_List/mm_hanover.png,,,,,,,,,,,,,,,,,,,,,,,,,,,,
null,,rt_plussign_withcolor,239192,green,,,,,null,US_Cities_List/mm_westpalmbeach.png,US_Cities_List/mm_hanover.png,,,,,,,,,,,,,,,,,,,,,,,,,,,,
1162.9000000059605,,rt_thecrossant_black,240158,black_plus_sign,,,,,50,,,1,0.7142857142857143,,,,,,,,,,,,,,,,,,,,,,,,,,
null,,color_black,240262,black_plus_sign,,,,,null,,,,,,,,,,,,,,,,,,,,,,,,,,,,,,
null,,learn_phase(without_color),242802,black_plus_sign,,,,,null,US_Cities_List/nat_leesburg.png,US_Cities_List/mm_carmel.png,,,,,,,,,,,,,,,,,,,,,,,,,,,,
null,,black_cross(without_color),243597,green,,,,,null,US_Cities_List/nat_leesburg.png,US_Cities_List/mm_carmel.png,,,,,,,,,,,,,,,,,,,,,,,,,,,,
null,,rt_plussign_withcolor,244099,green,,,,,null,US_Cities_List/nat_leesburg.png,US_Cities_List/mm_carmel.png,,,,,,,,,,,,,,,,,,,,,,,,,,,,
1773.6000000089407,,rt_thecrossant_black,245311,black_plus_sign,,,,,49,,,0,0.625,,,,,,,,,,,,,,,,,,,,,,,,,,
null,,color_black,245414,black_plus_sign,,,,,null,,,,,,,,,,,,,,,,,,,,,,,,,,,,,,
null,,learn_phase(without_color),247959,black_plus_sign,,,,,null,US_Cities_List/mm_hanover.png,US_Cities_List/nat_boulder.png,,,,,,,,,,,,,,,,,,,,,,,,,,,,
null,,black_cross(without_color),248617,green,,,,,null,US_Cities_List/mm_hanover.png,US_Cities_List/nat_boulder.png,,,,,,,,,,,,,,,,,,,,,,,,,,,,
null,,rt_plussign_withcolor,249120,green,,,,,null,US_Cities_List/mm_hanover.png,US_Cities_List/nat_boulder.png,,,,,,,,,,,,,,,,,,,,,,,,,,,,
1686.0999999940395,,rt_thecrossant_black,250469,black_plus_sign,,,,,50,,,1,0.6666666666666666,,,,,,,,,,,,,,,,,,,,,,,,,,
null,,color_black,250572,black_plus_sign,,,,,null,,,,,,,,,,,,,,,,,,,,,,,,,,,,,,
null,,learn_phase(without_color),253129,black_plus_sign,,,,,null,US_Cities_List/nat_boulder.png,US_Cities_List/mm_hotsprings.png,,,,,,,,,,,,,,,,,,,,,,,,,,,,
null,,black_cross(without_color),254201,green,,,,,null,US_Cities_List/nat_boulder.png,US_Cities_List/mm_hotsprings.png,,,,,,,,,,,,,,,,,,,,,,,,,,,,
null,,rt_plussign_withcolor,254704,green,,,,,null,US_Cities_List/nat_boulder.png,US_Cities_List/mm_hotsprings.png,,,,,,,,,,,,,,,,,,,,,,,,,,,,
1296.199999988079,,rt_thecrossant_black,255639,black_plus_sign,,,,,50,,,1,0.7,,,,,,,,,,,,,,,,,,,,,,,,,,
null,,color_black,255742,black_plus_sign,,,,,null,,,,,,,,,,,,,,,,,,,,,,,,,,,,,,
null,,learn_phase(without_color),258288,black_plus_sign,,,,,null,US_Cities_List/nat_huntsville.png,US_Cities_List/nat_cornwall.png,,,,,,,,,,,,,,,,,,,,,,,,,,,,
null,,black_cross(without_color),259263,green,,,,,null,US_Cities_List/nat_huntsville.png,US_Cities_List/nat_cornwall.png,,,,,,,,,,,,,,,,,,,,,,,,,,,,
null,,rt_plussign_withcolor,259765,green,,,,,null,US_Cities_List/nat_huntsville.png,US_Cities_List/nat_cornwall.png,,,,,,,,,,,,,,,,,,,,,,,,,,,,
1449.4000000059605,,rt_thecrossant_black,260797,black_plus_sign,,,,,50,,,1,0.7272727272727273,,,,,,,,,,,,,,,,,,,,,,,,,,
null,,color_black,260901,black_plus_sign,,,,,null,,,,,,,,,,,,,,,,,,,,,,,,,,,,,,
null,,learn_phase(without_color),263477,black_plus_sign,,,,,null,US_Cities_List/nat_cornwall.png,US_Cities_List/mm_carmel.png,,,,,,,,,,,,,,,,,,,,,,,,,,,,
null,,black_cross(without_color),264075,green,,,,,null,US_Cities_List/nat_cornwall.png,US_Cities_List/mm_carmel.png,,,,,,,,,,,,,,,,,,,,,,,,,,,,
null,,rt_plussign_withcolor,264577,green,,,,,null,US_Cities_List/nat_cornwall.png,US_Cities_List/mm_carmel.png,,,,,,,,,,,,,,,,,,,,,,,,,,,,
1321.199999988079,,rt_thecrossant_black,265995,black_plus_sign,,,,,50,,,1,0.75,,,,,,,,,,,,,,,,,,,,,,,,,,
null,,color_black,266098,black_plus_sign,,,,,null,,,,,,,,,,,,,,,,,,,,,,,,,,,,,,
null,,learn_phase(without_color),268660,black_plus_sign,,,,,null,US_Cities_List/mm_westpalmbeach.png,US_Cities_List/nat_leesburg.png,,,,,,,,,,,,,,,,,,,,,,,,,,,,
null,,black_cross(without_color),269617,blue,,,,,null,US_Cities_List/mm_westpalmbeach.png,US_Cities_List/nat_leesburg.png,,,,,,,,,,,,,,,,,,,,,,,,,,,,
null,,rt_plussign_withcolor,270120,blue,,,,,null,US_Cities_List/mm_westpalmbeach.png,US_Cities_List/nat_leesburg.png,,,,,,,,,,,,,,,,,,,,,,,,,,,,
1095.2999999970198,,rt_thecrossant_black,271169,black_plus_sign,,,,,49,,,1,0.7692307692307693,,,,,,,,,,,,,,,,,,,,,,,,,,
null,,color_black,271273,black_plus_sign,,,,,null,,,,,,,,,,,,,,,,,,,,,,,,,,,,,,
null,,learn_phase(without_color),273819,black_plus_sign,,,,,null,US_Cities_List/nat_boulder.png,US_Cities_List/mm_racine.png,,,,,,,,,,,,,,,,,,,,,,,,,,,,
null,,black_cross(without_color),274651,green,,,,,null,US_Cities_List/nat_boulder.png,US_Cities_List/mm_racine.png,,,,,,,,,,,,,,,,,,,,,,,,,,,,
null,,rt_plussign_withcolor,275153,green,,,,,null,US_Cities_List/nat_boulder.png,US_Cities_List/mm_racine.png,,,,,,,,,,,,,,,,,,,,,,,,,,,,
1375.5999999940395,,rt_thecrossant_black,276326,black_plus_sign,,,,,50,,,1,0.7857142857142857,,,,,,,,,,,,,,,,,,,,,,,,,,
null,,color_black,276430,black_plus_sign,,,,,null,,,,,,,,,,,,,,,,,,,,,,,,,,,,,,
null,,learn_phase(without_color),278978,black_plus_sign,,,,,null,US_Cities_List/nat_peoria.png,US_Cities_List/mm_gatlinburg.png,,,,,,,,,,,,,,,,,,,,,,,,,,,,
null,,black_cross(without_color),279800,blue,,,,,null,US_Cities_List/nat_peoria.png,US_Cities_List/mm_gatlinburg.png,,,,,,,,,,,,,,,,,,,,,,,,,,,,
null,,rt_plussign_withcolor,280303,blue,,,,,null,US_Cities_List/nat_peoria.png,US_Cities_List/mm_gatlinburg.png,,,,,,,,,,,,,,,,,,,,,,,,,,,,
1710.7000000029802,,rt_thecrossant_black,281488,black_plus_sign,,,,,49,,,1,0.8,,,,,,,,,,,,,,,,,,,,,,,,,,
null,,color_black,281590,black_plus_sign,,,,,null,,,,,,,,,,,,,,,,,,,,,,,,,,,,,,
null,,learn_phase(without_color),284156,black_plus_sign,,,,,null,US_Cities_List/nat_shreveport.png,US_Cities_List/nat_huntsville.png,,,,,,,,,,,,,,,,,,,,,,,,,,,,
null,,black_cross(without_color),284953,green,,,,,null,US_Cities_List/nat_shreveport.png,US_Cities_List/nat_huntsville.png,,,,,,,,,,,,,,,,,,,,,,,,,,,,
null,,rt_plussign_withcolor,285456,green,,,,,null,US_Cities_List/nat_shreveport.png,US_Cities_List/nat_huntsville.png,,,,,,,,,,,,,,,,,,,,,,,,,,,,
1086.7000000029802,,rt_thecrossant_black,286664,black_plus_sign,,,,,50,,,1,0.8125,,,,,,,,,,,,,,,,,,,,,,,,,,
null,,color_black,286768,black_plus_sign,,,,,null,,,,,,,,,,,,,,,,,,,,,,,,,,,,,,
null,,learn_phase(without_color),289327,black_plus_sign,,,,,null,US_Cities_List/nat_cornwall.png,US_Cities_List/nat_newhope.png,,,,,,,,,,,,,,,,,,,,,,,,,,,,
null,,black_cross(without_color),289863,green,,,,,null,US_Cities_List/nat_cornwall.png,US_Cities_List/nat_newhope.png,,,,,,,,,,,,,,,,,,,,,,,,,,,,
null,,rt_plussign_withcolor,290367,green,,,,,null,US_Cities_List/nat_cornwall.png,US_Cities_List/nat_newhope.png,,,,,,,,,,,,,,,,,,,,,,,,,,,,
1683.199999988079,,rt_thecrossant_black,291838,black_plus_sign,,,,,50,,,1,0.8235294117647058,,,,,,,,,,,,,,,,,,,,,,,,,,
null,,color_black,291941,black_plus_sign,,,,,null,,,,,,,,,,,,,,,,,,,,,,,,,,,,,,
null,,learn_phase(without_color),294497,black_plus_sign,,,,,null,US_Cities_List/nat_leesburg.png,US_Cities_List/mm_carmel.png,,,,,,,,,,,,,,,,,,,,,,,,,,,,
null,,black_cross(without_color),295565,green,,,,,null,US_Cities_List/nat_leesburg.png,US_Cities_List/mm_carmel.png,,,,,,,,,,,,,,,,,,,,,,,,,,,,
null,,rt_plussign_withcolor,296068,green,,,,,null,US_Cities_List/nat_leesburg.png,US_Cities_List/mm_carmel.png,,,,,,,,,,,,,,,,,,,,,,,,,,,,
1293.2000000029802,,rt_thecrossant_black,297006,black_plus_sign,,,,,50,,,1,0.8333333333333334,,,,,,,,,,,,,,,,,,,,,,,,,,
null,,color_black,297109,black_plus_sign,,,,,null,,,,,,,,,,,,,,,,,,,,,,,,,,,,,,
null,,learn_phase(without_color),299646,black_plus_sign,,,,,null,US_Cities_List/nat_shreveport.png,US_Cities_List/nat_huntsville.png,,,,,,,,,,,,,,,,,,,,,,,,,,,,
null,,black_cross(without_color),300428,green,,,,,null,US_Cities_List/nat_shreveport.png,US_Cities_List/nat_huntsville.png,,,,,,,,,,,,,,,,,,,,,,,,,,,,
null,,rt_plussign_withcolor,300931,green,,,,,null,US_Cities_List/nat_shreveport.png,US_Cities_List/nat_huntsville.png,,,,,,,,,,,,,,,,,,,,,,,,,,,,
1403,,rt_thecrossant_black,302156,black_plus_sign,,,,,50,,,1,0.8421052631578947,,,,,,,,,,,,,,,,,,,,,,,,,,
null,,color_black,302260,black_plus_sign,,,,,null,,,,,,,,,,,,,,,,,,,,,,,,,,,,,,
null,,learn_phase(without_color),304812,black_plus_sign,,,,,null,US_Cities_List/mm_westpalmbeach.png,US_Cities_List/mm_hanover.png,,,,,,,,,,,,,,,,,,,,,,,,,,,,
null,,black_cross(without_color),305285,blue,,,,,null,US_Cities_List/mm_westpalmbeach.png,US_Cities_List/mm_hanover.png,,,,,,,,,,,,,,,,,,,,,,,,,,,,
null,,rt_plussign_withcolor,305788,blue,,,,,null,US_Cities_List/mm_westpalmbeach.png,US_Cities_List/mm_hanover.png,,,,,,,,,,,,,,,,,,,,,,,,,,,,
1499,,rt_thecrossant_black,307322,black_plus_sign,,,,,49,,,1,0.85,,,,,,,,,,,,,,,,,,,,,,,,,,
null,,color_black,307425,black_plus_sign,,,,,null,,,,,,,,,,,,,,,,,,,,,,,,,,,,,,
null,,learn_phase(without_color),309975,black_plus_sign,,,,,null,US_Cities_List/nat_cornwall.png,US_Cities_List/mm_carmel.png,,,,,,,,,,,,,,,,,,,,,,,,,,,,
null,,black_cross(without_color),310556,green,,,,,null,US_Cities_List/nat_cornwall.png,US_Cities_List/mm_carmel.png,,,,,,,,,,,,,,,,,,,,,,,,,,,,
null,,rt_plussign_withcolor,311074,green,,,,,null,US_Cities_List/nat_cornwall.png,US_Cities_List/mm_carmel.png,,,,,,,,,,,,,,,,,,,,,,,,,,,,
906.2000000029802,,rt_thecrossant_black,312499,black_plus_sign,,,,,50,,,1,0.8571428571428571,,,,,,,,,,,,,,,,,,,,,,,,,,
null,,color_black,312602,black_plus_sign,,,,,null,,,,,,,,,,,,,,,,,,,,,,,,,,,,,,
null,,learn_phase(without_color),315174,black_plus_sign,,,,,null,US_Cities_List/mm_westpalmbeach.png,US_Cities_List/mm_hanover.png,,,,,,,,,,,,,,,,,,,,,,,,,,,,
null,,black_cross(without_color),316106,green,,,,,null,US_Cities_List/mm_westpalmbeach.png,US_Cities_List/mm_hanover.png,,,,,,,,,,,,,,,,,,,,,,,,,,,,
null,,rt_plussign_withcolor,316608,green,,,,,null,US_Cities_List/mm_westpalmbeach.png,US_Cities_List/mm_hanover.png,,,,,,,,,,,,,,,,,,,,,,,,,,,,
1065.9000000059605,,rt_thecrossant_black,317685,black_plus_sign,,,,,50,,,1,0.8636363636363636,,,,,,,,,,,,,,,,,,,,,,,,,,
null,,color_black,317788,black_plus_sign,,,,,null,,,,,,,,,,,,,,,,,,,,,,,,,,,,,,
null,,learn_phase(without_color),320363,black_plus_sign,,,,,null,US_Cities_List/nat_huntsville.png,US_Cities_List/mm_westpalmbeach.png,,,,,,,,,,,,,,,,,,,,,,,,,,,,
null,,black_cross(without_color),321329,green,,,,,null,US_Cities_List/nat_huntsville.png,US_Cities_List/mm_westpalmbeach.png,,,,,,,,,,,,,,,,,,,,,,,,,,,,
null,,rt_plussign_withcolor,321832,green,,,,,null,US_Cities_List/nat_huntsville.png,US_Cities_List/mm_westpalmbeach.png,,,,,,,,,,,,,,,,,,,,,,,,,,,,
1319.7000000029802,,rt_thecrossant_black,322873,black_plus_sign,,,,,49,,,0,0.8260869565217391,,,,,,,,,,,,,,,,,,,,,,,,,,
null,,color_black,322977,black_plus_sign,,,,,null,,,,,,,,,,,,,,,,,,,,,,,,,,,,,,
null,,learn_phase(without_color),325553,black_plus_sign,,,,,null,US_Cities_List/nat_cornwall.png,US_Cities_List/mm_carmel.png,,,,,,,,,,,,,,,,,,,,,,,,,,,,
null,,black_cross(without_color),326248,blue,,,,,null,US_Cities_List/nat_cornwall.png,US_Cities_List/mm_carmel.png,,,,,,,,,,,,,,,,,,,,,,,,,,,,
null,,rt_plussign_withcolor,326750,blue,,,,,null,US_Cities_List/nat_cornwall.png,US_Cities_List/mm_carmel.png,,,,,,,,,,,,,,,,,,,,,,,,,,,,
1501.800000011921,,rt_thecrossant_black,328062,black_plus_sign,,,,,49,,,1,0.8333333333333334,,,,,,,,,,,,,,,,,,,,,,,,,,
null,,color_black,328165,black_plus_sign,,,,,null,,,,,,,,,,,,,,,,,,,,,,,,,,,,,,
null,,learn_phase(without_color),330724,black_plus_sign,,,,,null,US_Cities_List/mm_racine.png,US_Cities_List/nat_leesburg.png,,,,,,,,,,,,,,,,,,,,,,,,,,,,
null,,black_cross(without_color),331375,green,,,,,null,US_Cities_List/mm_racine.png,US_Cities_List/nat_leesburg.png,,,,,,,,,,,,,,,,,,,,,,,,,,,,
null,,rt_plussign_withcolor,331877,green,,,,,null,US_Cities_List/mm_racine.png,US_Cities_List/nat_leesburg.png,,,,,,,,,,,,,,,,,,,,,,,,,,,,
949.2000000029802,,rt_thecrossant_black,333232,black_plus_sign,,,,,50,,,1,0.84,,,,,,,,,,,,,,,,,,,,,,,,,,
null,,color_black,333336,black_plus_sign,,,,,null,,,,,,,,,,,,,,,,,,,,,,,,,,,,,,
null,,learn_phase(without_color),335898,black_plus_sign,,,,,null,US_Cities_List/nat_cornwall.png,US_Cities_List/nat_newhope.png,,,,,,,,,,,,,,,,,,,,,,,,,,,,
null,,black_cross(without_color),336670,green,,,,,null,US_Cities_List/nat_cornwall.png,US_Cities_List/nat_newhope.png,,,,,,,,,,,,,,,,,,,,,,,,,,,,
null,,rt_plussign_withcolor,337173,green,,,,,null,US_Cities_List/nat_cornwall.png,US_Cities_List/nat_newhope.png,,,,,,,,,,,,,,,,,,,,,,,,,,,,
1296.2000000029802,,rt_thecrossant_black,338417,black_plus_sign,,,,,50,,,1,0.8461538461538461,,,,,,,,,,,,,,,,,,,,,,,,,,
null,,color_black,338521,black_plus_sign,,,,,null,,,,,,,,,,,,,,,,,,,,,,,,,,,,,,
null,,learn_phase(without_color),341089,black_plus_sign,,,,,null,US_Cities_List/mm_westpalmbeach.png,US_Cities_List/mm_hanover.png,,,,,,,,,,,,,,,,,,,,,,,,,,,,
null,,black_cross(without_color),341538,blue,,,,,null,US_Cities_List/mm_westpalmbeach.png,US_Cities_List/mm_hanover.png,,,,,,,,,,,,,,,,,,,,,,,,,,,,
null,,rt_plussign_withcolor,342041,blue,,,,,null,US_Cities_List/mm_westpalmbeach.png,US_Cities_List/mm_hanover.png,,,,,,,,,,,,,,,,,,,,,,,,,,,,
1150.5,,rt_thecrossant_black,343600,black_plus_sign,,,,,49,,,1,0.8518518518518519,,,,,,,,,,,,,,,,,,,,,,,,,,
null,,color_black,343703,black_plus_sign,,,,,null,,,,,,,,,,,,,,,,,,,,,,,,,,,,,,
null,,learn_phase(without_color),346245,black_plus_sign,,,,,null,US_Cities_List/nat_peoria.png,US_Cities_List/mm_racine.png,,,,,,,,,,,,,,,,,,,,,,,,,,,,
null,,black_cross(without_color),346776,green,,,,,null,US_Cities_List/nat_peoria.png,US_Cities_List/mm_racine.png,,,,,,,,,,,,,,,,,,,,,,,,,,,,
null,,rt_plussign_withcolor,347278,green,,,,,null,US_Cities_List/nat_peoria.png,US_Cities_List/mm_racine.png,,,,,,,,,,,,,,,,,,,,,,,,,,,,
1159.9000000059605,,rt_thecrossant_black,348754,black_plus_sign,,,,,50,,,1,0.8571428571428571,,,,,,,,,,,,,,,,,,,,,,,,,,
null,,color_black,348857,black_plus_sign,,,,,null,,,,,,,,,,,,,,,,,,,,,,,,,,,,,,
null,,learn_phase(without_color),351413,black_plus_sign,,,,,null,US_Cities_List/nat_boulder.png,US_Cities_List/nat_peoria.png,,,,,,,,,,,,,,,,,,,,,,,,,,,,
null,,black_cross(without_color),351873,green,,,,,null,US_Cities_List/nat_boulder.png,US_Cities_List/nat_peoria.png,,,,,,,,,,,,,,,,,,,,,,,,,,,,
null,,rt_plussign_withcolor,352375,green,,,,,null,US_Cities_List/nat_boulder.png,US_Cities_List/nat_peoria.png,,,,,,,,,,,,,,,,,,,,,,,,,,,,
1090.7999999970198,,rt_thecrossant_black,353921,black_plus_sign,,,,,50,,,1,0.8620689655172413,,,,,,,,,,,,,,,,,,,,,,,,,,
null,,color_black,354025,black_plus_sign,,,,,null,,,,,,,,,,,,,,,,,,,,,,,,,,,,,,
null,,learn_phase(without_color),356575,black_plus_sign,,,,,null,US_Cities_List/nat_huntsville.png,US_Cities_List/mm_westpalmbeach.png,,,,,,,,,,,,,,,,,,,,,,,,,,,,
null,,black_cross(without_color),357672,blue,,,,,null,US_Cities_List/nat_huntsville.png,US_Cities_List/mm_westpalmbeach.png,,,,,,,,,,,,,,,,,,,,,,,,,,,,
null,,rt_plussign_withcolor,358177,blue,,,,,null,US_Cities_List/nat_huntsville.png,US_Cities_List/mm_westpalmbeach.png,,,,,,,,,,,,,,,,,,,,,,,,,,,,
620,,rt_thecrossant_black,359087,black_plus_sign,,,,,49,,,1,0.8666666666666667,,,,,,,,,,,,,,,,,,,,,,,,,,
null,,color_black,359190,black_plus_sign,,,,,null,,,,,,,,,,,,,,,,,,,,,,,,,,,,,,
null,,learn_phase(without_color),361739,black_plus_sign,,,,,null,US_Cities_List/mm_racine.png,US_Cities_List/nat_leesburg.png,,,,,,,,,,,,,,,,,,,,,,,,,,,,
null,,black_cross(without_color),362163,blue,,,,,null,US_Cities_List/mm_racine.png,US_Cities_List/nat_leesburg.png,,,,,,,,,,,,,,,,,,,,,,,,,,,,
null,,rt_plussign_withcolor,362666,blue,,,,,null,US_Cities_List/mm_racine.png,US_Cities_List/nat_leesburg.png,,,,,,,,,,,,,,,,,,,,,,,,,,,,
1443.4000000059605,,rt_thecrossant_black,364249,black_plus_sign,,,,,49,,,1,0.8709677419354839,,,,,,,,,,,,,,,,,,,,,,,,,,
null,,color_black,364353,black_plus_sign,,,,,null,,,,,,,,,,,,,,,,,,,,,,,,,,,,,,
null,,learn_phase(without_color),366907,black_plus_sign,,,,,null,US_Cities_List/nat_peoria.png,US_Cities_List/mm_gatlinburg.png,,,,,,,,,,,,,,,,,,,,,,,,,,,,
null,,black_cross(without_color),367571,green,,,,,null,US_Cities_List/nat_peoria.png,US_Cities_List/mm_gatlinburg.png,,,,,,,,,,,,,,,,,,,,,,,,,,,,
null,,rt_plussign_withcolor,368075,green,,,,,null,US_Cities_List/nat_peoria.png,US_Cities_List/mm_gatlinburg.png,,,,,,,,,,,,,,,,,,,,,,,,,,,,
937.5,,rt_thecrossant_black,369427,black_plus_sign,,,,,50,,,1,0.875,,,,,,,,,,,,,,,,,,,,,,,,,,
null,,color_black,369531,black_plus_sign,,,,,null,,,,,,,,,,,,,,,,,,,,,,,,,,,,,,
null,,learn_phase(without_color),372086,black_plus_sign,,,,,null,US_Cities_List/nat_leesburg.png,US_Cities_List/mm_carmel.png,,,,,,,,,,,,,,,,,,,,,,,,,,,,
null,,black_cross(without_color),372700,blue,,,,,null,US_Cities_List/nat_leesburg.png,US_Cities_List/mm_carmel.png,,,,,,,,,,,,,,,,,,,,,,,,,,,,
null,,rt_plussign_withcolor,373202,blue,,,,,null,US_Cities_List/nat_leesburg.png,US_Cities_List/mm_carmel.png,,,,,,,,,,,,,,,,,,,,,,,,,,,,
1276.4000000059605,,rt_thecrossant_black,374595,black_plus_sign,,,,,49,,,1,0.8787878787878788,,,,,,,,,,,,,,,,,,,,,,,,,,
null,,color_black,374698,black_plus_sign,,,,,null,,,,,,,,,,,,,,,,,,,,,,,,,,,,,,
null,,learn_phase(without_color),377257,black_plus_sign,,,,,null,US_Cities_List/nat_cornwall.png,US_Cities_List/nat_newhope.png,,,,,,,,,,,,,,,,,,,,,,,,,,,,
null,,black_cross(without_color),377754,blue,,,,,null,US_Cities_List/nat_cornwall.png,US_Cities_List/nat_newhope.png,,,,,,,,,,,,,,,,,,,,,,,,,,,,
null,,rt_plussign_withcolor,378257,blue,,,,,null,US_Cities_List/nat_cornwall.png,US_Cities_List/nat_newhope.png,,,,,,,,,,,,,,,,,,,,,,,,,,,,
1007.4000000059605,,rt_thecrossant_black,379766,black_plus_sign,,,,,49,,,1,0.8823529411764706,,,,,,,,,,,,,,,,,,,,,,,,,,
null,,color_black,379870,black_plus_sign,,,,,null,,,,,,,,,,,,,,,,,,,,,,,,,,,,,,
null,,learn_phase(without_color),382425,black_plus_sign,,,,,null,US_Cities_List/nat_boulder.png,US_Cities_List/nat_peoria.png,,,,,,,,,,,,,,,,,,,,,,,,,,,,
null,,black_cross(without_color),383457,green,,,,,null,US_Cities_List/nat_boulder.png,US_Cities_List/nat_peoria.png,,,,,,,,,,,,,,,,,,,,,,,,,,,,
null,,rt_plussign_withcolor,383960,green,,,,,null,US_Cities_List/nat_boulder.png,US_Cities_List/nat_peoria.png,,,,,,,,,,,,,,,,,,,,,,,,,,,,
1232.4000000059605,,rt_thecrossant_black,384935,black_plus_sign,,,,,50,,,1,0.8857142857142857,,,,,,,,,,,,,,,,,,,,,,,,,,
null,,color_black,385039,black_plus_sign,,,,,null,,,,,,,,,,,,,,,,,,,,,,,,,,,,,,
null,,learn_phase(without_color),387576,black_plus_sign,,,,,null,US_Cities_List/nat_boulder.png,US_Cities_List/mm_racine.png,,,,,,,,,,,,,,,,,,,,,,,,,,,,
null,,black_cross(without_color),388652,green,,,,,null,US_Cities_List/nat_boulder.png,US_Cities_List/mm_racine.png,,,,,,,,,,,,,,,,,,,,,,,,,,,,
null,,rt_plussign_withcolor,389154,green,,,,,null,US_Cities_List/nat_boulder.png,US_Cities_List/mm_racine.png,,,,,,,,,,,,,,,,,,,,,,,,,,,,
1308.4000000059605,,rt_thecrossant_black,390085,black_plus_sign,,,,,49,,,0,0.8611111111111112,,,,,,,,,,,,,,,,,,,,,,,,,,
null,,color_black,390188,black_plus_sign,,,,,null,,,,,,,,,,,,,,,,,,,,,,,,,,,,,,
null,,learn_phase(without_color),392744,black_plus_sign,,,,,null,US_Cities_List/nat_cornwall.png,US_Cities_List/nat_newhope.png,,,,,,,,,,,,,,,,,,,,,,,,,,,,
null,,black_cross(without_color),393350,green,,,,,null,US_Cities_List/nat_cornwall.png,US_Cities_List/nat_newhope.png,,,,,,,,,,,,,,,,,,,,,,,,,,,,
null,,rt_plussign_withcolor,393853,green,,,,,null,US_Cities_List/nat_cornwall.png,US_Cities_List/nat_newhope.png,,,,,,,,,,,,,,,,,,,,,,,,,,,,
1461.5,,rt_thecrossant_black,395253,black_plus_sign,,,,,50,,,1,0.8648648648648649,,,,,,,,,,,,,,,,,,,,,,,,,,
null,,color_black,395357,black_plus_sign,,,,,null,,,,,,,,,,,,,,,,,,,,,,,,,,,,,,
null,,learn_phase(without_color),397911,black_plus_sign,,,,,null,US_Cities_List/nat_huntsville.png,US_Cities_List/nat_cornwall.png,,,,,,,,,,,,,,,,,,,,,,,,,,,,
null,,black_cross(without_color),398681,green,,,,,null,US_Cities_List/nat_huntsville.png,US_Cities_List/nat_cornwall.png,,,,,,,,,,,,,,,,,,,,,,,,,,,,
null,,rt_plussign_withcolor,399184,green,,,,,null,US_Cities_List/nat_huntsville.png,US_Cities_List/nat_cornwall.png,,,,,,,,,,,,,,,,,,,,,,,,,,,,
1261.4000000059605,,rt_thecrossant_black,400421,black_plus_sign,,,,,50,,,1,0.868421052631579,,,,,,,,,,,,,,,,,,,,,,,,,,
null,,color_black,400525,black_plus_sign,,,,,null,,,,,,,,,,,,,,,,,,,,,,,,,,,,,,
null,,learn_phase(without_color),403094,black_plus_sign,,,,,null,US_Cities_List/nat_peoria.png,US_Cities_List/mm_racine.png,,,,,,,,,,,,,,,,,,,,,,,,,,,,
null,,black_cross(without_color),403845,blue,,,,,null,US_Cities_List/nat_peoria.png,US_Cities_List/mm_racine.png,,,,,,,,,,,,,,,,,,,,,,,,,,,,
null,,rt_plussign_withcolor,404348,blue,,,,,null,US_Cities_List/nat_peoria.png,US_Cities_List/mm_racine.png,,,,,,,,,,,,,,,,,,,,,,,,,,,,
1050.2999999970198,,rt_thecrossant_black,405602,black_plus_sign,,,,,49,,,1,0.8717948717948718,,,,,,,,,,,,,,,,,,,,,,,,,,
null,,color_black,405707,black_plus_sign,,,,,null,,,,,,,,,,,,,,,,,,,,,,,,,,,,,,
null,,learn_phase(without_color),408268,black_plus_sign,,,,,null,US_Cities_List/nat_cornwall.png,US_Cities_List/nat_newhope.png,,,,,,,,,,,,,,,,,,,,,,,,,,,,
null,,black_cross(without_color),408862,green,,,,,null,US_Cities_List/nat_cornwall.png,US_Cities_List/nat_newhope.png,,,,,,,,,,,,,,,,,,,,,,,,,,,,
null,,rt_plussign_withcolor,409365,green,,,,,null,US_Cities_List/nat_cornwall.png,US_Cities_List/nat_newhope.png,,,,,,,,,,,,,,,,,,,,,,,,,,,,
990.5999999940395,,rt_thecrossant_black,410777,black_plus_sign,,,,,50,,,1,0.875,,,,,,,,,,,,,,,,,,,,,,,,,,
null,,color_black,410879,black_plus_sign,,,,,null,,,,,,,,,,,,,,,,,,,,,,,,,,,,,,
null,,learn_phase(without_color),413411,black_plus_sign,,,,,null,US_Cities_List/nat_peoria.png,US_Cities_List/mm_racine.png,,,,,,,,,,,,,,,,,,,,,,,,,,,,
null,,black_cross(without_color),414002,green,,,,,null,US_Cities_List/nat_peoria.png,US_Cities_List/mm_racine.png,,,,,,,,,,,,,,,,,,,,,,,,,,,,
null,,rt_plussign_withcolor,414505,green,,,,,null,US_Cities_List/nat_peoria.png,US_Cities_List/mm_racine.png,,,,,,,,,,,,,,,,,,,,,,,,,,,,
839,,rt_thecrossant_black,415920,black_plus_sign,,,,,50,,,1,0.8780487804878049,,,,,,,,,,,,,,,,,,,,,,,,,,
null,,color_black,416023,black_plus_sign,,,,,null,,,,,,,,,,,,,,,,,,,,,,,,,,,,,,
null,,learn_phase(without_color),418589,black_plus_sign,,,,,null,US_Cities_List/nat_peoria.png,US_Cities_List/mm_gatlinburg.png,,,,,,,,,,,,,,,,,,,,,,,,,,,,
null,,black_cross(without_color),419633,blue,,,,,null,US_Cities_List/nat_peoria.png,US_Cities_List/mm_gatlinburg.png,,,,,,,,,,,,,,,,,,,,,,,,,,,,
null,,rt_plussign_withcolor,420136,blue,,,,,null,US_Cities_List/nat_peoria.png,US_Cities_List/mm_gatlinburg.png,,,,,,,,,,,,,,,,,,,,,,,,,,,,
1057.2999999970198,,rt_thecrossant_black,421099,black_plus_sign,,,,,49,,,1,0.8809523809523809,,,,,,,,,,,,,,,,,,,,,,,,,,
null,,color_black,421202,black_plus_sign,,,,,null,,,,,,,,,,,,,,,,,,,,,,,,,,,,,,
null,,learn_phase(without_color),423763,black_plus_sign,,,,,null,US_Cities_List/nat_peoria.png,US_Cities_List/mm_racine.png,,,,,,,,,,,,,,,,,,,,,,,,,,,,
null,,black_cross(without_color),424827,blue,,,,,null,US_Cities_List/nat_peoria.png,US_Cities_List/mm_racine.png,,,,,,,,,,,,,,,,,,,,,,,,,,,,
null,,rt_plussign_withcolor,425329,blue,,,,,null,US_Cities_List/nat_peoria.png,US_Cities_List/mm_racine.png,,,,,,,,,,,,,,,,,,,,,,,,,,,,
1222.6000000089407,,rt_thecrossant_black,426279,black_plus_sign,,,,,49,,,1,0.8837209302325582,,,,,,,,,,,,,,,,,,,,,,,,,,
null,,color_black,426382,black_plus_sign,,,,,null,,,,,,,,,,,,,,,,,,,,,,,,,,,,,,
null,,learn_phase(without_color),428949,black_plus_sign,,,,,null,US_Cities_List/mm_westpalmbeach.png,US_Cities_List/mm_hanover.png,,,,,,,,,,,,,,,,,,,,,,,,,,,,
null,,black_cross(without_color),429937,green,,,,,null,US_Cities_List/mm_westpalmbeach.png,US_Cities_List/mm_hanover.png,,,,,,,,,,,,,,,,,,,,,,,,,,,,
null,,rt_plussign_withcolor,430439,green,,,,,null,US_Cities_List/mm_westpalmbeach.png,US_Cities_List/mm_hanover.png,,,,,,,,,,,,,,,,,,,,,,,,,,,,
1245.4000000059605,,rt_thecrossant_black,431461,black_plus_sign,,,,,50,,,1,0.8863636363636364,,,,,,,,,,,,,,,,,,,,,,,,,,
null,,color_black,431564,black_plus_sign,,,,,null,,,,,,,,,,,,,,,,,,,,,,,,,,,,,,
null,,learn_phase(without_color),434115,black_plus_sign,,,,,null,US_Cities_List/mm_racine.png,US_Cities_List/nat_leesburg.png,,,,,,,,,,,,,,,,,,,,,,,,,,,,
null,,black_cross(without_color),435035,blue,,,,,null,US_Cities_List/mm_racine.png,US_Cities_List/nat_leesburg.png,,,,,,,,,,,,,,,,,,,,,,,,,,,,
null,,rt_plussign_withcolor,435538,blue,,,,,null,US_Cities_List/mm_racine.png,US_Cities_List/nat_leesburg.png,,,,,,,,,,,,,,,,,,,,,,,,,,,,
1234.7999999970198,,rt_thecrossant_black,436625,black_plus_sign,,,,,49,,,1,0.8888888888888888,,,,,,,,,,,,,,,,,,,,,,,,,,
null,,color_black,436728,black_plus_sign,,,,,null,,,,,,,,,,,,,,,,,,,,,,,,,,,,,,
null,,learn_phase(without_color),439283,black_plus_sign,,,,,null,US_Cities_List/mm_hanover.png,US_Cities_List/mm_racine.png,,,,,,,,,,,,,,,,,,,,,,,,,,,,
null,,black_cross(without_color),439752,green,,,,,null,US_Cities_List/mm_hanover.png,US_Cities_List/mm_racine.png,,,,,,,,,,,,,,,,,,,,,,,,,,,,
null,,rt_plussign_withcolor,440254,green,,,,,null,US_Cities_List/mm_hanover.png,US_Cities_List/mm_racine.png,,,,,,,,,,,,,,,,,,,,,,,,,,,,
1224.6000000089407,,rt_thecrossant_black,441793,black_plus_sign,,,,,50,,,1,0.8913043478260869,,,,,,,,,,,,,,,,,,,,,,,,,,
null,,color_black,441898,black_plus_sign,,,,,null,,,,,,,,,,,,,,,,,,,,,,,,,,,,,,
null,,learn_phase(without_color),444434,black_plus_sign,,,,,null,US_Cities_List/mm_racine.png,US_Cities_List/nat_leesburg.png,,,,,,,,,,,,,,,,,,,,,,,,,,,,
null,,black_cross(without_color),444887,green,,,,,null,US_Cities_List/mm_racine.png,US_Cities_List/nat_leesburg.png,,,,,,,,,,,,,,,,,,,,,,,,,,,,
null,,rt_plussign_withcolor,445390,green,,,,,null,US_Cities_List/mm_racine.png,US_Cities_List/nat_leesburg.png,,,,,,,,,,,,,,,,,,,,,,,,,,,,
905.5,,rt_thecrossant_black,446944,black_plus_sign,,,,,50,,,1,0.8936170212765957,,,,,,,,,,,,,,,,,,,,,,,,,,
null,,color_black,447048,black_plus_sign,,,,,null,,,,,,,,,,,,,,,,,,,,,,,,,,,,,,
null,,learn_phase(without_color),449593,black_plus_sign,,,,,null,US_Cities_List/nat_boulder.png,US_Cities_List/nat_peoria.png,,,,,,,,,,,,,,,,,,,,,,,,,,,,
null,,black_cross(without_color),450200,green,,,,,null,US_Cities_List/nat_boulder.png,US_Cities_List/nat_peoria.png,,,,,,,,,,,,,,,,,,,,,,,,,,,,
null,,rt_plussign_withcolor,450703,green,,,,,null,US_Cities_List/nat_boulder.png,US_Cities_List/nat_peoria.png,,,,,,,,,,,,,,,,,,,,,,,,,,,,
801.4000000059605,,rt_thecrossant_black,452103,black_plus_sign,,,,,50,,,1,0.8958333333333334,,,,,,,,,,,,,,,,,,,,,,,,,,
null,,color_black,452206,black_plus_sign,,,,,null,,,,,,,,,,,,,,,,,,,,,,,,,,,,,,
null,,learn_phase(without_color),454782,black_plus_sign,,,,,null,US_Cities_List/nat_peoria.png,US_Cities_List/mm_racine.png,,,,,,,,,,,,,,,,,,,,,,,,,,,,
null,,black_cross(without_color),455548,blue,,,,,null,US_Cities_List/nat_peoria.png,US_Cities_List/mm_racine.png,,,,,,,,,,,,,,,,,,,,,,,,,,,,
null,,rt_plussign_withcolor,456051,blue,,,,,null,US_Cities_List/nat_peoria.png,US_Cities_List/mm_racine.png,,,,,,,,,,,,,,,,,,,,,,,,,,,,
980.2000000029802,,rt_thecrossant_black,457291,black_plus_sign,,,,,49,,,1,0.8979591836734694,,,,,,,,,,,,,,,,,,,,,,,,,,
null,,color_black,457395,black_plus_sign,,,,,null,,,,,,,,,,,,,,,,,,,,,,,,,,,,,,
null,,learn_phase(without_color),459959,black_plus_sign,,,,,null,US_Cities_List/nat_cornwall.png,US_Cities_List/mm_carmel.png,,,,,,,,,,,,,,,,,,,,,,,,,,,,
null,,black_cross(without_color),460669,green,,,,,null,US_Cities_List/nat_cornwall.png,US_Cities_List/mm_carmel.png,,,,,,,,,,,,,,,,,,,,,,,,,,,,
null,,rt_plussign_withcolor,461171,green,,,,,null,US_Cities_List/nat_cornwall.png,US_Cities_List/mm_carmel.png,,,,,,,,,,,,,,,,,,,,,,,,,,,,
1006.5,,rt_thecrossant_black,462468,black_plus_sign,,,,,50,,,1,0.9,,,,,,,,,,,,,,,,,,,,,,,,,,
null,,color_black,462572,black_plus_sign,,,,,null,,,,,,,,,,,,,,,,,,,,,,,,,,,,,,
null,,learn_phase(without_color),465139,black_plus_sign,,,,,null,US_Cities_List/nat_boulder.png,US_Cities_List/nat_peoria.png,,,,,,,,,,,,,,,,,,,,,,,,,,,,
null,,black_cross(without_color),466211,blue,,,,,null,US_Cities_List/nat_boulder.png,US_Cities_List/nat_peoria.png,,,,,,,,,,,,,,,,,,,,,,,,,,,,
null,,rt_plussign_withcolor,466713,blue,,,,,null,US_Cities_List/nat_boulder.png,US_Cities_List/nat_peoria.png,,,,,,,,,,,,,,,,,,,,,,,,,,,,
960.2000000029802,,rt_thecrossant_black,467647,black_plus_sign,,,,,49,,,1,0.9019607843137255,,,,,,,,,,,,,,,,,,,,,,,,,,
null,,color_black,467751,black_plus_sign,,,,,null,,,,,,,,,,,,,,,,,,,,,,,,,,,,,,
null,,learn_phase(without_color),470314,black_plus_sign,,,,,null,US_Cities_List/nat_leesburg.png,US_Cities_List/mm_carmel.png,,,,,,,,,,,,,,,,,,,,,,,,,,,,
null,,black_cross(without_color),471206,green,,,,,null,US_Cities_List/nat_leesburg.png,US_Cities_List/mm_carmel.png,,,,,,,,,,,,,,,,,,,,,,,,,,,,
null,,rt_plussign_withcolor,471709,green,,,,,null,US_Cities_List/nat_leesburg.png,US_Cities_List/mm_carmel.png,,,,,,,,,,,,,,,,,,,,,,,,,,,,
1232.2000000029802,,rt_thecrossant_black,472823,black_plus_sign,,,,,49,,,0,0.8846153846153846,,,,,,,,,,,,,,,,,,,,,,,,,,
null,,color_black,472927,black_plus_sign,,,,,null,,,,,,,,,,,,,,,,,,,,,,,,,,,,,,
null,,learn_phase(without_color),475507,black_plus_sign,,,,,null,US_Cities_List/nat_cornwall.png,US_Cities_List/mm_carmel.png,,,,,,,,,,,,,,,,,,,,,,,,,,,,
null,,black_cross(without_color),476195,blue,,,,,null,US_Cities_List/nat_cornwall.png,US_Cities_List/mm_carmel.png,,,,,,,,,,,,,,,,,,,,,,,,,,,,
null,,rt_plussign_withcolor,476698,blue,,,,,null,US_Cities_List/nat_cornwall.png,US_Cities_List/mm_carmel.png,,,,,,,,,,,,,,,,,,,,,,,,,,,,
995.7999999970198,,rt_thecrossant_black,478017,black_plus_sign,,,,,50,,,0,0.8679245283018868,,,,,,,,,,,,,,,,,,,,,,,,,,
null,,warning_page,481022,warning,,,,,null,,,,,,,,,,,,,,,,,,,,,,,,,,,,,,
null,,color_black,481126,black_plus_sign,,,,,null,,,,,,,,,,,,,,,,,,,,,,,,,,,,,,
null,,learn_phase(without_color),483670,black_plus_sign,,,,,null,US_Cities_List/mm_racine.png,US_Cities_List/nat_leesburg.png,,,,,,,,,,,,,,,,,,,,,,,,,,,,
null,,black_cross(without_color),484421,green,,,,,null,US_Cities_List/mm_racine.png,US_Cities_List/nat_leesburg.png,,,,,,,,,,,,,,,,,,,,,,,,,,,,
null,,rt_plussign_withcolor,484924,green,,,,,null,US_Cities_List/mm_racine.png,US_Cities_List/nat_leesburg.png,,,,,,,,,,,,,,,,,,,,,,,,,,,,
1744.1000000089407,,rt_thecrossant_black,486180,black_plus_sign,,,,,50,,,1,0.8703703703703703,,,,,,,,,,,,,,,,,,,,,,,,,,
null,,color_black,486284,black_plus_sign,,,,,null,,,,,,,,,,,,,,,,,,,,,,,,,,,,,,
null,,learn_phase(without_color),488829,black_plus_sign,,,,,null,US_Cities_List/nat_peoria.png,US_Cities_List/mm_gatlinburg.png,,,,,,,,,,,,,,,,,,,,,,,,,,,,
null,,black_cross(without_color),489861,green,,,,,null,US_Cities_List/nat_peoria.png,US_Cities_List/mm_gatlinburg.png,,,,,,,,,,,,,,,,,,,,,,,,,,,,
null,,rt_plussign_withcolor,490363,green,,,,,null,US_Cities_List/nat_peoria.png,US_Cities_List/mm_gatlinburg.png,,,,,,,,,,,,,,,,,,,,,,,,,,,,
901.5999999940395,,rt_thecrossant_black,491338,black_plus_sign,,,,,50,,,1,0.8727272727272727,,,,,,,,,,,,,,,,,,,,,,,,,,
null,,color_black,491442,black_plus_sign,,,,,null,,,,,,,,,,,,,,,,,,,,,,,,,,,,,,
null,,learn_phase(without_color),493997,black_plus_sign,,,,,null,US_Cities_List/nat_leesburg.png,US_Cities_List/mm_carmel.png,,,,,,,,,,,,,,,,,,,,,,,,,,,,
null,,black_cross(without_color),494514,green,,,,,null,US_Cities_List/nat_leesburg.png,US_Cities_List/mm_carmel.png,,,,,,,,,,,,,,,,,,,,,,,,,,,,
null,,rt_plussign_withcolor,495017,green,,,,,null,US_Cities_List/nat_leesburg.png,US_Cities_List/mm_carmel.png,,,,,,,,,,,,,,,,,,,,,,,,,,,,
1497.8999999910593,,rt_thecrossant_black,496507,black_plus_sign,,,,,50,,,1,0.875,,,,,,,,,,,,,,,,,,,,,,,,,,
null,,color_black,496610,black_plus_sign,,,,,null,,,,,,,,,,,,,,,,,,,,,,,,,,,,,,
null,,learn_phase(without_color),499159,black_plus_sign,,,,,null,US_Cities_List/nat_boulder.png,US_Cities_List/nat_peoria.png,,,,,,,,,,,,,,,,,,,,,,,,,,,,
null,,black_cross(without_color),499748,blue,,,,,null,US_Cities_List/nat_boulder.png,US_Cities_List/nat_peoria.png,,,,,,,,,,,,,,,,,,,,,,,,,,,,
null,,rt_plussign_withcolor,500251,blue,,,,,null,US_Cities_List/nat_boulder.png,US_Cities_List/nat_peoria.png,,,,,,,,,,,,,,,,,,,,,,,,,,,,
852.8999999910593,,rt_thecrossant_black,501668,black_plus_sign,,,,,49,,,1,0.8771929824561403,,,,,,,,,,,,,,,,,,,,,,,,,,
null,,color_black,501772,black_plus_sign,,,,,null,,,,,,,,,,,,,,,,,,,,,,,,,,,,,,
null,,learn_phase(without_color),504317,black_plus_sign,,,,,null,US_Cities_List/nat_huntsville.png,US_Cities_List/nat_cornwall.png,,,,,,,,,,,,,,,,,,,,,,,,,,,,
null,,black_cross(without_color),505186,green,,,,,null,US_Cities_List/nat_huntsville.png,US_Cities_List/nat_cornwall.png,,,,,,,,,,,,,,,,,,,,,,,,,,,,
null,,rt_plussign_withcolor,505688,green,,,,,null,US_Cities_List/nat_huntsville.png,US_Cities_List/nat_cornwall.png,,,,,,,,,,,,,,,,,,,,,,,,,,,,
958.6000000089407,,rt_thecrossant_black,506826,black_plus_sign,,,,,50,,,1,0.8793103448275862,,,,,,,,,,,,,,,,,,,,,,,,,,
null,,color_black,506928,black_plus_sign,,,,,null,,,,,,,,,,,,,,,,,,,,,,,,,,,,,,
null,,learn_phase(without_color),509478,black_plus_sign,,,,,null,US_Cities_List/mm_westpalmbeach.png,US_Cities_List/nat_leesburg.png,,,,,,,,,,,,,,,,,,,,,,,,,,,,
null,,black_cross(without_color),510161,green,,,,,null,US_Cities_List/mm_westpalmbeach.png,US_Cities_List/nat_leesburg.png,,,,,,,,,,,,,,,,,,,,,,,,,,,,
null,,rt_plussign_withcolor,510663,green,,,,,null,US_Cities_List/mm_westpalmbeach.png,US_Cities_List/nat_leesburg.png,,,,,,,,,,,,,,,,,,,,,,,,,,,,
1344.3999999910593,,rt_thecrossant_black,511998,black_plus_sign,,,,,50,,,1,0.8813559322033898,,,,,,,,,,,,,,,,,,,,,,,,,,
null,,color_black,512102,black_plus_sign,,,,,null,,,,,,,,,,,,,,,,,,,,,,,,,,,,,,
null,,learn_phase(without_color),514638,black_plus_sign,,,,,null,US_Cities_List/nat_leesburg.png,US_Cities_List/mm_carmel.png,,,,,,,,,,,,,,,,,,,,,,,,,,,,
null,,black_cross(without_color),515423,green,,,,,null,US_Cities_List/nat_leesburg.png,US_Cities_List/mm_carmel.png,,,,,,,,,,,,,,,,,,,,,,,,,,,,
null,,rt_plussign_withcolor,515926,green,,,,,null,US_Cities_List/nat_leesburg.png,US_Cities_List/mm_carmel.png,,,,,,,,,,,,,,,,,,,,,,,,,,,,
954.7999999970198,,rt_thecrossant_black,517149,black_plus_sign,,,,,50,,,1,0.8833333333333333,,,,,,,,,,,,,,,,,,,,,,,,,,
null,,color_black,517253,black_plus_sign,,,,,null,,,,,,,,,,,,,,,,,,,,,,,,,,,,,,
null,,learn_phase(without_color),519794,black_plus_sign,,,,,null,US_Cities_List/mm_hanover.png,US_Cities_List/nat_boulder.png,,,,,,,,,,,,,,,,,,,,,,,,,,,,
null,,black_cross(without_color),520490,blue,,,,,null,US_Cities_List/mm_hanover.png,US_Cities_List/nat_boulder.png,,,,,,,,,,,,,,,,,,,,,,,,,,,,
null,,rt_plussign_withcolor,520993,blue,,,,,null,US_Cities_List/mm_hanover.png,US_Cities_List/nat_boulder.png,,,,,,,,,,,,,,,,,,,,,,,,,,,,
955.5999999940395,,rt_thecrossant_black,522305,black_plus_sign,,,,,49,,,1,0.8852459016393442,,,,,,,,,,,,,,,,,,,,,,,,,,
null,,color_black,522408,black_plus_sign,,,,,null,,,,,,,,,,,,,,,,,,,,,,,,,,,,,,
null,,learn_phase(without_color),524957,black_plus_sign,,,,,null,US_Cities_List/mm_westpalmbeach.png,US_Cities_List/nat_leesburg.png,,,,,,,,,,,,,,,,,,,,,,,,,,,,
null,,black_cross(without_color),525792,blue,,,,,null,US_Cities_List/mm_westpalmbeach.png,US_Cities_List/nat_leesburg.png,,,,,,,,,,,,,,,,,,,,,,,,,,,,
null,,rt_plussign_withcolor,526296,blue,,,,,null,US_Cities_List/mm_westpalmbeach.png,US_Cities_List/nat_leesburg.png,,,,,,,,,,,,,,,,,,,,,,,,,,,,
925.7000000029802,,rt_thecrossant_black,527468,black_plus_sign,,,,,49,,,1,0.8870967741935484,,,,,,,,,,,,,,,,,,,,,,,,,,
null,,color_black,527572,black_plus_sign,,,,,null,,,,,,,,,,,,,,,,,,,,,,,,,,,,,,
null,,learn_phase(without_color),530136,black_plus_sign,,,,,null,US_Cities_List/nat_huntsville.png,US_Cities_List/nat_cornwall.png,,,,,,,,,,,,,,,,,,,,,,,,,,,,
null,,black_cross(without_color),531187,green,,,,,null,US_Cities_List/nat_huntsville.png,US_Cities_List/nat_cornwall.png,,,,,,,,,,,,,,,,,,,,,,,,,,,,
null,,rt_plussign_withcolor,531689,green,,,,,null,US_Cities_List/nat_huntsville.png,US_Cities_List/nat_cornwall.png,,,,,,,,,,,,,,,,,,,,,,,,,,,,
1013.0999999940395,,rt_thecrossant_black,532644,black_plus_sign,,,,,49,,,0,0.873015873015873,,,,,,,,,,,,,,,,,,,,,,,,,,
null,,color_black,532748,black_plus_sign,,,,,null,,,,,,,,,,,,,,,,,,,,,,,,,,,,,,
null,,learn_phase(without_color),535302,black_plus_sign,,,,,null,US_Cities_List/mm_hanover.png,US_Cities_List/mm_racine.png,,,,,,,,,,,,,,,,,,,,,,,,,,,,
null,,black_cross(without_color),536242,green,,,,,null,US_Cities_List/mm_hanover.png,US_Cities_List/mm_racine.png,,,,,,,,,,,,,,,,,,,,,,,,,,,,
null,,rt_plussign_withcolor,536745,green,,,,,null,US_Cities_List/mm_hanover.png,US_Cities_List/mm_racine.png,,,,,,,,,,,,,,,,,,,,,,,,,,,,
1424.699999988079,,rt_thecrossant_black,537812,black_plus_sign,,,,,50,,,1,0.875,,,,,,,,,,,,,,,,,,,,,,,,,,
null,,color_black,537916,black_plus_sign,,,,,null,,,,,,,,,,,,,,,,,,,,,,,,,,,,,,
null,,learn_phase(without_color),540481,black_plus_sign,,,,,null,US_Cities_List/mm_westpalmbeach.png,US_Cities_List/nat_leesburg.png,,,,,,,,,,,,,,,,,,,,,,,,,,,,
null,,black_cross(without_color),541513,blue,,,,,null,US_Cities_List/mm_westpalmbeach.png,US_Cities_List/nat_leesburg.png,,,,,,,,,,,,,,,,,,,,,,,,,,,,
null,,rt_plussign_withcolor,542016,blue,,,,,null,US_Cities_List/mm_westpalmbeach.png,US_Cities_List/nat_leesburg.png,,,,,,,,,,,,,,,,,,,,,,,,,,,,
1232,,rt_thecrossant_black,542991,black_plus_sign,,,,,49,,,1,0.8769230769230769,,,,,,,,,,,,,,,,,,,,,,,,,,
null,,color_black,543094,black_plus_sign,,,,,null,,,,,,,,,,,,,,,,,,,,,,,,,,,,,,
null,,learn_phase(without_color),545660,black_plus_sign,,,,,null,US_Cities_List/nat_boulder.png,US_Cities_List/mm_racine.png,,,,,,,,,,,,,,,,,,,,,,,,,,,,
null,,black_cross(without_color),546548,blue,,,,,null,US_Cities_List/nat_boulder.png,US_Cities_List/mm_racine.png,,,,,,,,,,,,,,,,,,,,,,,,,,,,
null,,rt_plussign_withcolor,547051,blue,,,,,null,US_Cities_List/nat_boulder.png,US_Cities_List/mm_racine.png,,,,,,,,,,,,,,,,,,,,,,,,,,,,
1638.8999999910593,,rt_thecrossant_black,548170,black_plus_sign,,,,,49,,,1,0.8787878787878788,,,,,,,,,,,,,,,,,,,,,,,,,,
null,,color_black,548273,black_plus_sign,,,,,null,,,,,,,,,,,,,,,,,,,,,,,,,,,,,,
null,,learn_phase(without_color),550820,black_plus_sign,,,,,null,US_Cities_List/nat_peoria.png,US_Cities_List/mm_racine.png,,,,,,,,,,,,,,,,,,,,,,,,,,,,
null,,black_cross(without_color),551724,blue,,,,,null,US_Cities_List/nat_peoria.png,US_Cities_List/mm_racine.png,,,,,,,,,,,,,,,,,,,,,,,,,,,,
null,,rt_plussign_withcolor,552227,blue,,,,,null,US_Cities_List/nat_peoria.png,US_Cities_List/mm_racine.png,,,,,,,,,,,,,,,,,,,,,,,,,,,,
1156,,rt_thecrossant_black,553329,black_plus_sign,,,,,49,,,1,0.8805970149253731,,,,,,,,,,,,,,,,,,,,,,,,,,
null,,color_black,553446,black_plus_sign,,,,,null,,,,,,,,,,,,,,,,,,,,,,,,,,,,,,
null,,learn_phase(without_color),556008,black_plus_sign,,,,,null,US_Cities_List/nat_boulder.png,US_Cities_List/mm_hotsprings.png,,,,,,,,,,,,,,,,,,,,,,,,,,,,
null,,black_cross(without_color),556674,blue,,,,,null,US_Cities_List/nat_boulder.png,US_Cities_List/mm_hotsprings.png,,,,,,,,,,,,,,,,,,,,,,,,,,,,
null,,rt_plussign_withcolor,557177,blue,,,,,null,US_Cities_List/nat_boulder.png,US_Cities_List/mm_hotsprings.png,,,,,,,,,,,,,,,,,,,,,,,,,,,,
1175.800000011921,,rt_thecrossant_black,558519,black_plus_sign,,,,,49,,,1,0.8823529411764706,,,,,,,,,,,,,,,,,,,,,,,,,,
null,,color_black,558622,black_plus_sign,,,,,null,,,,,,,,,,,,,,,,,,,,,,,,,,,,,,
null,,learn_phase(without_color),561193,black_plus_sign,,,,,null,US_Cities_List/mm_hanover.png,US_Cities_List/nat_boulder.png,,,,,,,,,,,,,,,,,,,,,,,,,,,,
null,,black_cross(without_color),561666,green,,,,,null,US_Cities_List/mm_hanover.png,US_Cities_List/nat_boulder.png,,,,,,,,,,,,,,,,,,,,,,,,,,,,
null,,rt_plussign_withcolor,562170,green,,,,,null,US_Cities_List/mm_hanover.png,US_Cities_List/nat_boulder.png,,,,,,,,,,,,,,,,,,,,,,,,,,,,
1154.800000011921,,rt_thecrossant_black,563704,black_plus_sign,,,,,50,,,1,0.8840579710144928,,,,,,,,,,,,,,,,,,,,,,,,,,
null,,color_black,563807,black_plus_sign,,,,,null,,,,,,,,,,,,,,,,,,,,,,,,,,,,,,
null,,learn_phase(without_color),566353,black_plus_sign,,,,,null,US_Cities_List/nat_boulder.png,US_Cities_List/mm_hotsprings.png,,,,,,,,,,,,,,,,,,,,,,,,,,,,
null,,black_cross(without_color),567121,blue,,,,,null,US_Cities_List/nat_boulder.png,US_Cities_List/mm_hotsprings.png,,,,,,,,,,,,,,,,,,,,,,,,,,,,
null,,rt_plussign_withcolor,567623,blue,,,,,null,US_Cities_List/nat_boulder.png,US_Cities_List/mm_hotsprings.png,,,,,,,,,,,,,,,,,,,,,,,,,,,,
null,,rt_thecrossant_black,568861,black_plus_sign,,,,,null,,,,0.8840579710144928,,,,,,,,,,,,,,,,,,,,,,,,,,
null,,color_black,568965,black_plus_sign,,,,,null,,,,,,,,,,,,,,,,,,,,,,,,,,,,,,
null,,learn_phase(without_color),571514,black_plus_sign,,,,,null,US_Cities_List/nat_huntsville.png,US_Cities_List/nat_cornwall.png,,,,,,,,,,,,,,,,,,,,,,,,,,,,
null,,black_cross(without_color),572470,green,,,,,null,US_Cities_List/nat_huntsville.png,US_Cities_List/nat_cornwall.png,,,,,,,,,,,,,,,,,,,,,,,,,,,,
null,,rt_plussign_withcolor,572973,green,,,,,null,US_Cities_List/nat_huntsville.png,US_Cities_List/nat_cornwall.png,,,,,,,,,,,,,,,,,,,,,,,,,,,,
1068.5,,rt_thecrossant_black,574025,black_plus_sign,,,,,50,,,1,0.8857142857142857,,,,,,,,,,,,,,,,,,,,,,,,,,
null,,color_black,574128,black_plus_sign,,,,,null,,,,,,,,,,,,,,,,,,,,,,,,,,,,,,
null,,learn_phase(without_color),576687,black_plus_sign,,,,,null,US_Cities_List/nat_boulder.png,US_Cities_List/mm_hotsprings.png,,,,,,,,,,,,,,,,,,,,,,,,,,,,
null,,black_cross(without_color),577530,green,,,,,null,US_Cities_List/nat_boulder.png,US_Cities_List/mm_hotsprings.png,,,,,,,,,,,,,,,,,,,,,,,,,,,,
null,,rt_plussign_withcolor,578033,green,,,,,null,US_Cities_List/nat_boulder.png,US_Cities_List/mm_hotsprings.png,,,,,,,,,,,,,,,,,,,,,,,,,,,,
1113.7999999970198,,rt_thecrossant_black,579199,black_plus_sign,,,,,50,,,1,0.8873239436619719,,,,,,,,,,,,,,,,,,,,,,,,,,
null,,color_black,579315,black_plus_sign,,,,,null,,,,,,,,,,,,,,,,,,,,,,,,,,,,,,
null,,learn_phase(without_color),581890,black_plus_sign,,,,,null,US_Cities_List/nat_shreveport.png,US_Cities_List/nat_huntsville.png,,,,,,,,,,,,,,,,,,,,,,,,,,,,
null,,black_cross(without_color),582809,green,,,,,null,US_Cities_List/nat_shreveport.png,US_Cities_List/nat_huntsville.png,,,,,,,,,,,,,,,,,,,,,,,,,,,,
null,,rt_plussign_withcolor,583311,green,,,,,null,US_Cities_List/nat_shreveport.png,US_Cities_List/nat_huntsville.png,,,,,,,,,,,,,,,,,,,,,,,,,,,,
987.2000000029802,,rt_thecrossant_black,584400,black_plus_sign,,,,,50,,,1,0.8888888888888888,,,,,,,,,,,,,,,,,,,,,,,,,,
null,,color_black,584503,black_plus_sign,,,,,null,,,,,,,,,,,,,,,,,,,,,,,,,,,,,,
null,,learn_phase(without_color),587043,black_plus_sign,,,,,null,US_Cities_List/mm_westpalmbeach.png,US_Cities_List/mm_hanover.png,,,,,,,,,,,,,,,,,,,,,,,,,,,,
null,,black_cross(without_color),587541,blue,,,,,null,US_Cities_List/mm_westpalmbeach.png,US_Cities_List/mm_hanover.png,,,,,,,,,,,,,,,,,,,,,,,,,,,,
null,,rt_plussign_withcolor,588045,blue,,,,,null,US_Cities_List/mm_westpalmbeach.png,US_Cities_List/mm_hanover.png,,,,,,,,,,,,,,,,,,,,,,,,,,,,
1189.4000000059605,,rt_thecrossant_black,589556,black_plus_sign,,,,,49,,,1,0.8904109589041096,,,,,,,,,,,,,,,,,,,,,,,,,,
null,,color_black,589660,black_plus_sign,,,,,null,,,,,,,,,,,,,,,,,,,,,,,,,,,,,,
null,,learn_phase(without_color),592223,black_plus_sign,,,,,null,US_Cities_List/mm_westpalmbeach.png,US_Cities_List/nat_leesburg.png,,,,,,,,,,,,,,,,,,,,,,,,,,,,
null,,black_cross(without_color),593235,blue,,,,,null,US_Cities_List/mm_westpalmbeach.png,US_Cities_List/nat_leesburg.png,,,,,,,,,,,,,,,,,,,,,,,,,,,,
null,,rt_plussign_withcolor,593737,blue,,,,,null,US_Cities_List/mm_westpalmbeach.png,US_Cities_List/nat_leesburg.png,,,,,,,,,,,,,,,,,,,,,,,,,,,,
939.1000000089407,,rt_thecrossant_black,594743,black_plus_sign,,,,,49,,,1,0.8918918918918919,,,,,,,,,,,,,,,,,,,,,,,,,,
null,,color_black,594846,black_plus_sign,,,,,null,,,,,,,,,,,,,,,,,,,,,,,,,,,,,,
null,,learn_phase(without_color),597404,black_plus_sign,,,,,null,US_Cities_List/nat_boulder.png,US_Cities_List/nat_peoria.png,,,,,,,,,,,,,,,,,,,,,,,,,,,,
null,,black_cross(without_color),598055,green,,,,,null,US_Cities_List/nat_boulder.png,US_Cities_List/nat_peoria.png,,,,,,,,,,,,,,,,,,,,,,,,,,,,
null,,rt_plussign_withcolor,598558,green,,,,,null,US_Cities_List/nat_boulder.png,US_Cities_List/nat_peoria.png,,,,,,,,,,,,,,,,,,,,,,,,,,,,
1277.2000000029802,,rt_thecrossant_black,599912,black_plus_sign,,,,,50,,,1,0.8933333333333333,,,,,,,,,,,,,,,,,,,,,,,,,,
null,,color_black,600017,black_plus_sign,,,,,null,,,,,,,,,,,,,,,,,,,,,,,,,,,,,,
null,,learn_phase(without_color),602575,black_plus_sign,,,,,null,US_Cities_List/mm_hanover.png,US_Cities_List/nat_boulder.png,,,,,,,,,,,,,,,,,,,,,,,,,,,,
null,,black_cross(without_color),603390,blue,,,,,null,US_Cities_List/mm_hanover.png,US_Cities_List/nat_boulder.png,,,,,,,,,,,,,,,,,,,,,,,,,,,,
null,,rt_plussign_withcolor,603893,blue,,,,,null,US_Cities_List/mm_hanover.png,US_Cities_List/nat_boulder.png,,,,,,,,,,,,,,,,,,,,,,,,,,,,
927.6000000089407,,rt_thecrossant_black,605084,black_plus_sign,,,,,50,,,0,0.881578947368421,,,,,,,,,,,,,,,,,,,,,,,,,,
null,,color_black,605189,black_plus_sign,,,,,null,,,,,,,,,,,,,,,,,,,,,,,,,,,,,,
null,,learn_phase(without_color),607751,black_plus_sign,,,,,null,US_Cities_List/mm_racine.png,US_Cities_List/nat_leesburg.png,,,,,,,,,,,,,,,,,,,,,,,,,,,,
null,,black_cross(without_color),608421,green,,,,,null,US_Cities_List/mm_racine.png,US_Cities_List/nat_leesburg.png,,,,,,,,,,,,,,,,,,,,,,,,,,,,
null,,rt_plussign_withcolor,608924,green,,,,,null,US_Cities_List/mm_racine.png,US_Cities_List/nat_leesburg.png,,,,,,,,,,,,,,,,,,,,,,,,,,,,
1186.5999999940395,,rt_thecrossant_black,610263,black_plus_sign,,,,,50,,,1,0.8831168831168831,,,,,,,,,,,,,,,,,,,,,,,,,,
null,,color_black,610367,black_plus_sign,,,,,null,,,,,,,,,,,,,,,,,,,,,,,,,,,,,,
null,,learn_phase(without_color),612920,black_plus_sign,,,,,null,US_Cities_List/nat_huntsville.png,US_Cities_List/mm_westpalmbeach.png,,,,,,,,,,,,,,,,,,,,,,,,,,,,
null,,black_cross(without_color),613597,blue,,,,,null,US_Cities_List/nat_huntsville.png,US_Cities_List/mm_westpalmbeach.png,,,,,,,,,,,,,,,,,,,,,,,,,,,,
null,,rt_plussign_withcolor,614100,blue,,,,,null,US_Cities_List/nat_huntsville.png,US_Cities_List/mm_westpalmbeach.png,,,,,,,,,,,,,,,,,,,,,,,,,,,,
1080,,rt_thecrossant_black,615431,black_plus_sign,,,,,49,,,1,0.8846153846153846,,,,,,,,,,,,,,,,,,,,,,,,,,
null,,color_black,615534,black_plus_sign,,,,,null,,,,,,,,,,,,,,,,,,,,,,,,,,,,,,
null,,learn_phase(without_color),618081,black_plus_sign,,,,,null,US_Cities_List/nat_boulder.png,US_Cities_List/mm_racine.png,,,,,,,,,,,,,,,,,,,,,,,,,,,,
null,,black_cross(without_color),618604,blue,,,,,null,US_Cities_List/nat_boulder.png,US_Cities_List/mm_racine.png,,,,,,,,,,,,,,,,,,,,,,,,,,,,
null,,rt_plussign_withcolor,619108,blue,,,,,null,US_Cities_List/nat_boulder.png,US_Cities_List/mm_racine.png,,,,,,,,,,,,,,,,,,,,,,,,,,,,
903.7000000029802,,rt_thecrossant_black,620593,black_plus_sign,,,,,49,,,1,0.8860759493670886,,,,,,,,,,,,,,,,,,,,,,,,,,
null,,color_black,620696,black_plus_sign,,,,,null,,,,,,,,,,,,,,,,,,,,,,,,,,,,,,
null,,learn_phase(without_color),623274,black_plus_sign,,,,,null,US_Cities_List/mm_westpalmbeach.png,US_Cities_List/nat_leesburg.png,,,,,,,,,,,,,,,,,,,,,,,,,,,,
null,,black_cross(without_color),624286,green,,,,,null,US_Cities_List/mm_westpalmbeach.png,US_Cities_List/nat_leesburg.png,,,,,,,,,,,,,,,,,,,,,,,,,,,,
null,,rt_plussign_withcolor,624789,green,,,,,null,US_Cities_List/mm_westpalmbeach.png,US_Cities_List/nat_leesburg.png,,,,,,,,,,,,,,,,,,,,,,,,,,,,
661.2000000029802,,rt_thecrossant_black,625785,black_plus_sign,,,,,50,,,1,0.8875,,,,,,,,,,,,,,,,,,,,,,,,,,
null,,color_black,625888,black_plus_sign,,,,,null,,,,,,,,,,,,,,,,,,,,,,,,,,,,,,
null,,learn_phase(without_color),628450,black_plus_sign,,,,,null,US_Cities_List/mm_hanover.png,US_Cities_List/nat_boulder.png,,,,,,,,,,,,,,,,,,,,,,,,,,,,
null,,black_cross(without_color),629449,green,,,,,null,US_Cities_List/mm_hanover.png,US_Cities_List/nat_boulder.png,,,,,,,,,,,,,,,,,,,,,,,,,,,,
470,,rt_plussign_withcolor,629952,green,,,,,50,US_Cities_List/mm_hanover.png,US_Cities_List/nat_boulder.png,,,,,,,,,,,,,,,,,,,,,,,,,,,,
null,,rt_thecrossant_black,630960,black_plus_sign,,,,,null,,,1,0.8888888888888888,,,,,,,,,,,,,,,,,,,,,,,,,,
null,,color_black,631064,black_plus_sign,,,,,null,,,,,,,,,,,,,,,,,,,,,,,,,,,,,,
null,,learn_phase(without_color),633619,black_plus_sign,,,,,null,US_Cities_List/nat_leesburg.png,US_Cities_List/mm_carmel.png,,,,,,,,,,,,,,,,,,,,,,,,,,,,
null,,black_cross(without_color),634112,blue,,,,,null,US_Cities_List/nat_leesburg.png,US_Cities_List/mm_carmel.png,,,,,,,,,,,,,,,,,,,,,,,,,,,,
null,,rt_plussign_withcolor,634615,blue,,,,,null,US_Cities_List/nat_leesburg.png,US_Cities_List/mm_carmel.png,,,,,,,,,,,,,,,,,,,,,,,,,,,,
1342.1000000089407,,rt_thecrossant_black,636129,black_plus_sign,,,,,49,,,1,0.8902439024390244,,,,,,,,,,,,,,,,,,,,,,,,,,
null,,color_black,636246,black_plus_sign,,,,,null,,,,,,,,,,,,,,,,,,,,,,,,,,,,,,
null,,learn_phase(without_color),638803,black_plus_sign,,,,,null,US_Cities_List/nat_boulder.png,US_Cities_List/nat_peoria.png,,,,,,,,,,,,,,,,,,,,,,,,,,,,
null,,black_cross(without_color),639570,blue,,,,,null,US_Cities_List/nat_boulder.png,US_Cities_List/nat_peoria.png,,,,,,,,,,,,,,,,,,,,,,,,,,,,
null,,rt_plussign_withcolor,640074,blue,,,,,null,US_Cities_List/nat_boulder.png,US_Cities_List/nat_peoria.png,,,,,,,,,,,,,,,,,,,,,,,,,,,,
922,,rt_thecrossant_black,641315,black_plus_sign,,,,,49,,,1,0.891566265060241,,,,,,,,,,,,,,,,,,,,,,,,,,
null,,color_black,641418,black_plus_sign,,,,,null,,,,,,,,,,,,,,,,,,,,,,,,,,,,,,
null,,learn_phase(without_color),643993,black_plus_sign,,,,,null,US_Cities_List/nat_huntsville.png,US_Cities_List/mm_westpalmbeach.png,,,,,,,,,,,,,,,,,,,,,,,,,,,,
null,,black_cross(without_color),644879,green,,,,,null,US_Cities_List/nat_huntsville.png,US_Cities_List/mm_westpalmbeach.png,,,,,,,,,,,,,,,,,,,,,,,,,,,,
null,,rt_plussign_withcolor,645381,green,,,,,null,US_Cities_List/nat_huntsville.png,US_Cities_List/mm_westpalmbeach.png,,,,,,,,,,,,,,,,,,,,,,,,,,,,
1527,,rt_thecrossant_black,646503,black_plus_sign,,,,,50,,,1,0.8928571428571429,,,,,,,,,,,,,,,,,,,,,,,,,,
null,,color_black,646607,black_plus_sign,,,,,null,,,,,,,,,,,,,,,,,,,,,,,,,,,,,,
null,,learn_phase(without_color),649168,black_plus_sign,,,,,null,US_Cities_List/nat_cornwall.png,US_Cities_List/mm_carmel.png,,,,,,,,,,,,,,,,,,,,,,,,,,,,
null,,black_cross(without_color),649632,green,,,,,null,US_Cities_List/nat_cornwall.png,US_Cities_List/mm_carmel.png,,,,,,,,,,,,,,,,,,,,,,,,,,,,
null,,rt_plussign_withcolor,650135,green,,,,,null,US_Cities_List/nat_cornwall.png,US_Cities_List/mm_carmel.png,,,,,,,,,,,,,,,,,,,,,,,,,,,,
1315.7000000029802,,rt_thecrossant_black,651678,black_plus_sign,,,,,50,,,1,0.8941176470588236,,,,,,,,,,,,,,,,,,,,,,,,,,
null,,color_black,651782,black_plus_sign,,,,,null,,,,,,,,,,,,,,,,,,,,,,,,,,,,,,
null,,learn_phase(without_color),654335,black_plus_sign,,,,,null,US_Cities_List/mm_hanover.png,US_Cities_List/mm_racine.png,,,,,,,,,,,,,,,,,,,,,,,,,,,,
null,,black_cross(without_color),655419,blue,,,,,null,US_Cities_List/mm_hanover.png,US_Cities_List/mm_racine.png,,,,,,,,,,,,,,,,,,,,,,,,,,,,
null,,rt_plussign_withcolor,655930,blue,,,,,null,US_Cities_List/mm_hanover.png,US_Cities_List/mm_racine.png,,,,,,,,,,,,,,,,,,,,,,,,,,,,
1075.5999999940395,,rt_thecrossant_black,656853,black_plus_sign,,,,,49,,,1,0.8953488372093024,,,,,,,,,,,,,,,,,,,,,,,,,,
null,,color_black,656958,black_plus_sign,,,,,null,,,,,,,,,,,,,,,,,,,,,,,,,,,,,,
null,,learn_phase(without_color),659532,black_plus_sign,,,,,null,US_Cities_List/nat_huntsville.png,US_Cities_List/mm_westpalmbeach.png,,,,,,,,,,,,,,,,,,,,,,,,,,,,
null,,black_cross(without_color),660052,blue,,,,,null,US_Cities_List/nat_huntsville.png,US_Cities_List/mm_westpalmbeach.png,,,,,,,,,,,,,,,,,,,,,,,,,,,,
null,,rt_plussign_withcolor,660556,blue,,,,,null,US_Cities_List/nat_huntsville.png,US_Cities_List/mm_westpalmbeach.png,,,,,,,,,,,,,,,,,,,,,,,,,,,,
1289.6000000089407,,rt_thecrossant_black,662043,black_plus_sign,,,,,49,,,1,0.896551724137931,,,,,,,,,,,,,,,,,,,,,,,,,,
null,,color_black,662148,black_plus_sign,,,,,null,,,,,,,,,,,,,,,,,,,,,,,,,,,,,,
null,,learn_phase(without_color),664706,black_plus_sign,,,,,null,US_Cities_List/mm_westpalmbeach.png,US_Cities_List/nat_leesburg.png,,,,,,,,,,,,,,,,,,,,,,,,,,,,
null,,black_cross(without_color),665623,green,,,,,null,US_Cities_List/mm_westpalmbeach.png,US_Cities_List/nat_leesburg.png,,,,,,,,,,,,,,,,,,,,,,,,,,,,
null,,rt_plussign_withcolor,666127,green,,,,,null,US_Cities_List/mm_westpalmbeach.png,US_Cities_List/nat_leesburg.png,,,,,,,,,,,,,,,,,,,,,,,,,,,,
904.1000000089407,,rt_thecrossant_black,667218,black_plus_sign,,,,,50,,,1,0.8977272727272727,,,,,,,,,,,,,,,,,,,,,,,,,,
null,,color_black,667322,black_plus_sign,,,,,null,,,,,,,,,,,,,,,,,,,,,,,,,,,,,,
null,,learn_phase(without_color),669891,black_plus_sign,,,,,null,US_Cities_List/mm_racine.png,US_Cities_List/nat_leesburg.png,,,,,,,,,,,,,,,,,,,,,,,,,,,,
null,,black_cross(without_color),670465,blue,,,,,null,US_Cities_List/mm_racine.png,US_Cities_List/nat_leesburg.png,,,,,,,,,,,,,,,,,,,,,,,,,,,,
null,,rt_plussign_withcolor,670981,blue,,,,,null,US_Cities_List/mm_racine.png,US_Cities_List/nat_leesburg.png,,,,,,,,,,,,,,,,,,,,,,,,,,,,
1341.6000000089407,,rt_thecrossant_black,672416,black_plus_sign,,,,,49,,,1,0.898876404494382,,,,,,,,,,,,,,,,,,,,,,,,,,
null,,color_black,672520,black_plus_sign,,,,,null,,,,,,,,,,,,,,,,,,,,,,,,,,,,,,
null,,learn_phase(without_color),675051,black_plus_sign,,,,,null,US_Cities_List/nat_peoria.png,US_Cities_List/mm_gatlinburg.png,,,,,,,,,,,,,,,,,,,,,,,,,,,,
null,,black_cross(without_color),675519,green,,,,,null,US_Cities_List/nat_peoria.png,US_Cities_List/mm_gatlinburg.png,,,,,,,,,,,,,,,,,,,,,,,,,,,,
null,,rt_plussign_withcolor,676022,green,,,,,null,US_Cities_List/nat_peoria.png,US_Cities_List/mm_gatlinburg.png,,,,,,,,,,,,,,,,,,,,,,,,,,,,
1020.1000000089407,,rt_thecrossant_black,677562,black_plus_sign,,,,,50,,,1,0.9,,,,,,,,,,,,,,,,,,,,,,,,,,
null,,color_black,677666,black_plus_sign,,,,,null,,,,,,,,,,,,,,,,,,,,,,,,,,,,,,
null,,learn_phase(without_color),680235,black_plus_sign,,,,,null,US_Cities_List/nat_shreveport.png,US_Cities_List/nat_huntsville.png,,,,,,,,,,,,,,,,,,,,,,,,,,,,
null,,black_cross(without_color),681254,blue,,,,,null,US_Cities_List/nat_shreveport.png,US_Cities_List/nat_huntsville.png,,,,,,,,,,,,,,,,,,,,,,,,,,,,
null,,rt_plussign_withcolor,681757,blue,,,,,null,US_Cities_List/nat_shreveport.png,US_Cities_List/nat_huntsville.png,,,,,,,,,,,,,,,,,,,,,,,,,,,,
716,,rt_thecrossant_black,682747,black_plus_sign,,,,,49,,,1,0.9010989010989011,,,,,,,,,,,,,,,,,,,,,,,,,,
null,,color_black,682851,black_plus_sign,,,,,null,,,,,,,,,,,,,,,,,,,,,,,,,,,,,,
null,,learn_phase(without_color),685397,black_plus_sign,,,,,null,US_Cities_List/nat_cornwall.png,US_Cities_List/mm_carmel.png,,,,,,,,,,,,,,,,,,,,,,,,,,,,
null,,black_cross(without_color),686439,green,,,,,null,US_Cities_List/nat_cornwall.png,US_Cities_List/mm_carmel.png,,,,,,,,,,,,,,,,,,,,,,,,,,,,
489.30000001192093,,rt_plussign_withcolor,686942,green,,,,,50,US_Cities_List/nat_cornwall.png,US_Cities_List/mm_carmel.png,,,,,,,,,,,,,,,,,,,,,,,,,,,,
null,,rt_thecrossant_black,687908,black_plus_sign,,,,,null,,,1,0.9021739130434783,,,,,,,,,,,,,,,,,,,,,,,,,,
null,,color_black,688012,black_plus_sign,,,,,null,,,,,,,,,,,,,,,,,,,,,,,,,,,,,,
null,,learn_phase(without_color),690578,black_plus_sign,,,,,null,US_Cities_List/nat_huntsville.png,US_Cities_List/mm_westpalmbeach.png,,,,,,,,,,,,,,,,,,,,,,,,,,,,
null,,black_cross(without_color),691428,green,,,,,null,US_Cities_List/nat_huntsville.png,US_Cities_List/mm_westpalmbeach.png,,,,,,,,,,,,,,,,,,,,,,,,,,,,
null,,rt_plussign_withcolor,691931,green,,,,,null,US_Cities_List/nat_huntsville.png,US_Cities_List/mm_westpalmbeach.png,,,,,,,,,,,,,,,,,,,,,,,,,,,,
1205.4000000059605,,rt_thecrossant_black,693088,black_plus_sign,,,,,50,,,1,0.9032258064516129,,,,,,,,,,,,,,,,,,,,,,,,,,
null,,color_black,693191,black_plus_sign,,,,,null,,,,,,,,,,,,,,,,,,,,,,,,,,,,,,
null,,learn_phase(without_color),695727,black_plus_sign,,,,,null,US_Cities_List/nat_boulder.png,US_Cities_List/mm_racine.png,,,,,,,,,,,,,,,,,,,,,,,,,,,,
null,,black_cross(without_color),696296,green,,,,,null,US_Cities_List/nat_boulder.png,US_Cities_List/mm_racine.png,,,,,,,,,,,,,,,,,,,,,,,,,,,,
null,,rt_plussign_withcolor,696799,green,,,,,null,US_Cities_List/nat_boulder.png,US_Cities_List/mm_racine.png,,,,,,,,,,,,,,,,,,,,,,,,,,,,
1056.7999999970198,,rt_thecrossant_black,698237,black_plus_sign,,,,,50,,,1,0.9042553191489362,,,,,,,,,,,,,,,,,,,,,,,,,,
null,,color_black,698341,black_plus_sign,,,,,null,,,,,,,,,,,,,,,,,,,,,,,,,,,,,,
null,,learn_phase(without_color),700908,black_plus_sign,,,,,null,US_Cities_List/nat_boulder.png,US_Cities_List/mm_hotsprings.png,,,,,,,,,,,,,,,,,,,,,,,,,,,,
null,,black_cross(without_color),701864,blue,,,,,null,US_Cities_List/nat_boulder.png,US_Cities_List/mm_hotsprings.png,,,,,,,,,,,,,,,,,,,,,,,,,,,,
null,,rt_plussign_withcolor,702367,blue,,,,,null,US_Cities_List/nat_boulder.png,US_Cities_List/mm_hotsprings.png,,,,,,,,,,,,,,,,,,,,,,,,,,,,
771.5,,rt_thecrossant_black,703419,black_plus_sign,,,,,49,,,1,0.9052631578947369,,,,,,,,,,,,,,,,,,,,,,,,,,
null,,color_black,703521,black_plus_sign,,,,,null,,,,,,,,,,,,,,,,,,,,,,,,,,,,,,
null,,learn_phase(without_color),706066,black_plus_sign,,,,,null,US_Cities_List/nat_shreveport.png,US_Cities_List/nat_huntsville.png,,,,,,,,,,,,,,,,,,,,,,,,,,,,
null,,black_cross(without_color),706815,green,,,,,null,US_Cities_List/nat_shreveport.png,US_Cities_List/nat_huntsville.png,,,,,,,,,,,,,,,,,,,,,,,,,,,,
null,,rt_plussign_withcolor,707319,green,,,,,null,US_Cities_List/nat_shreveport.png,US_Cities_List/nat_huntsville.png,,,,,,,,,,,,,,,,,,,,,,,,,,,,
1200.2000000029802,,rt_thecrossant_black,708585,black_plus_sign,,,,,50,,,1,0.90625,,,,,,,,,,,,,,,,,,,,,,,,,,
null,,color_black,708688,black_plus_sign,,,,,null,,,,,,,,,,,,,,,,,,,,,,,,,,,,,,
null,,learn_phase(without_color),711250,black_plus_sign,,,,,null,US_Cities_List/nat_cornwall.png,US_Cities_List/nat_newhope.png,,,,,,,,,,,,,,,,,,,,,,,,,,,,
null,,black_cross(without_color),711692,green,,,,,null,US_Cities_List/nat_cornwall.png,US_Cities_List/nat_newhope.png,,,,,,,,,,,,,,,,,,,,,,,,,,,,
437.09999999403954,,rt_plussign_withcolor,712195,green,,,,,49,US_Cities_List/nat_cornwall.png,US_Cities_List/nat_newhope.png,,,,,,,,,,,,,,,,,,,,,,,,,,,,
null,,rt_thecrossant_black,713761,black_plus_sign,,,,,null,,,0,0.8969072164948454,,,,,,,,,,,,,,,,,,,,,,,,,,
null,,color_black,713864,black_plus_sign,,,,,null,,,,,,,,,,,,,,,,,,,,,,,,,,,,,,
null,,learn_phase(without_color),716416,black_plus_sign,,,,,null,US_Cities_List/nat_boulder.png,US_Cities_List/mm_hotsprings.png,,,,,,,,,,,,,,,,,,,,,,,,,,,,
null,,black_cross(without_color),716975,blue,,,,,null,US_Cities_List/nat_boulder.png,US_Cities_List/mm_hotsprings.png,,,,,,,,,,,,,,,,,,,,,,,,,,,,
null,,rt_plussign_withcolor,717478,blue,,,,,null,US_Cities_List/nat_boulder.png,US_Cities_List/mm_hotsprings.png,,,,,,,,,,,,,,,,,,,,,,,,,,,,
714,,rt_thecrossant_black,718927,black_plus_sign,,,,,49,,,1,0.8979591836734694,,,,,,,,,,,,,,,,,,,,,,,,,,
null,,color_black,719031,black_plus_sign,,,,,null,,,,,,,,,,,,,,,,,,,,,,,,,,,,,,
null,,learn_phase(without_color),721579,black_plus_sign,,,,,null,US_Cities_List/nat_boulder.png,US_Cities_List/mm_racine.png,,,,,,,,,,,,,,,,,,,,,,,,,,,,
null,,black_cross(without_color),722681,green,,,,,null,US_Cities_List/nat_boulder.png,US_Cities_List/mm_racine.png,,,,,,,,,,,,,,,,,,,,,,,,,,,,
null,,rt_plussign_withcolor,723184,green,,,,,null,US_Cities_List/nat_boulder.png,US_Cities_List/mm_racine.png,,,,,,,,,,,,,,,,,,,,,,,,,,,,
829.2999999970198,,rt_thecrossant_black,724089,black_plus_sign,,,,,49,,,0,0.8888888888888888,,,,,,,,,,,,,,,,,,,,,,,,,,
null,,color_black,724194,black_plus_sign,,,,,null,,,,,,,,,,,,,,,,,,,,,,,,,,,,,,
null,,learn_phase(without_color),726757,black_plus_sign,,,,,null,US_Cities_List/nat_shreveport.png,US_Cities_List/nat_huntsville.png,,,,,,,,,,,,,,,,,,,,,,,,,,,,
null,,black_cross(without_color),727376,green,,,,,null,US_Cities_List/nat_shreveport.png,US_Cities_List/nat_huntsville.png,,,,,,,,,,,,,,,,,,,,,,,,,,,,
null,,rt_plussign_withcolor,727878,green,,,,,null,US_Cities_List/nat_shreveport.png,US_Cities_List/nat_huntsville.png,,,,,,,,,,,,,,,,,,,,,,,,,,,,
1642.7000000029802,,rt_thecrossant_black,729268,black_plus_sign,,,,,50,,,1,0.89,,,,,,,,,,,,,,,,,,,,,,,,,,
null,,color_black,729372,black_plus_sign,,,,,null,,,,,,,,,,,,,,,,,,,,,,,,,,,,,,
null,,learn_phase(without_color),731938,black_plus_sign,,,,,null,US_Cities_List/nat_huntsville.png,US_Cities_List/mm_westpalmbeach.png,,,,,,,,,,,,,,,,,,,,,,,,,,,,
null,,black_cross(without_color),732673,green,,,,,null,US_Cities_List/nat_huntsville.png,US_Cities_List/mm_westpalmbeach.png,,,,,,,,,,,,,,,,,,,,,,,,,,,,
null,,rt_plussign_withcolor,733177,green,,,,,null,US_Cities_List/nat_huntsville.png,US_Cities_List/mm_westpalmbeach.png,,,,,,,,,,,,,,,,,,,,,,,,,,,,
840.8000000119209,,rt_thecrossant_black,734449,black_plus_sign,,,,,50,,,1,0.8910891089108911,,,,,,,,,,,,,,,,,,,,,,,,,,
null,,color_black,734552,black_plus_sign,,,,,null,,,,,,,,,,,,,,,,,,,,,,,,,,,,,,
null,,learn_phase(without_color),737120,black_plus_sign,,,,,null,US_Cities_List/nat_boulder.png,US_Cities_List/mm_racine.png,,,,,,,,,,,,,,,,,,,,,,,,,,,,
null,,black_cross(without_color),738189,blue,,,,,null,US_Cities_List/nat_boulder.png,US_Cities_List/mm_racine.png,,,,,,,,,,,,,,,,,,,,,,,,,,,,
null,,rt_plussign_withcolor,738692,blue,,,,,null,US_Cities_List/nat_boulder.png,US_Cities_List/mm_racine.png,,,,,,,,,,,,,,,,,,,,,,,,,,,,
1287.7000000029802,,rt_thecrossant_black,739631,black_plus_sign,,,,,49,,,1,0.8921568627450981,,,,,,,,,,,,,,,,,,,,,,,,,,
null,,color_black,739734,black_plus_sign,,,,,null,,,,,,,,,,,,,,,,,,,,,,,,,,,,,,
null,,learn_phase(without_color),742311,black_plus_sign,,,,,null,US_Cities_List/nat_shreveport.png,US_Cities_List/nat_huntsville.png,,,,,,,,,,,,,,,,,,,,,,,,,,,,
null,,black_cross(without_color),743287,green,,,,,null,US_Cities_List/nat_shreveport.png,US_Cities_List/nat_huntsville.png,,,,,,,,,,,,,,,,,,,,,,,,,,,,
473.09999999403954,,rt_plussign_withcolor,743790,green,,,,,50,US_Cities_List/nat_shreveport.png,US_Cities_List/nat_huntsville.png,,,,,,,,,,,,,,,,,,,,,,,,,,,,
null,,rt_thecrossant_black,744821,black_plus_sign,,,,,null,,,1,0.8932038834951457,,,,,,,,,,,,,,,,,,,,,,,,,,
null,,color_black,744925,black_plus_sign,,,,,null,,,,,,,,,,,,,,,,,,,,,,,,,,,,,,
null,,learn_phase(without_color),747492,black_plus_sign,,,,,null,US_Cities_List/mm_hanover.png,US_Cities_List/nat_boulder.png,,,,,,,,,,,,,,,,,,,,,,,,,,,,
null,,black_cross(without_color),748412,green,,,,,null,US_Cities_List/mm_hanover.png,US_Cities_List/nat_boulder.png,,,,,,,,,,,,,,,,,,,,,,,,,,,,
null,,rt_plussign_withcolor,748915,green,,,,,null,US_Cities_List/mm_hanover.png,US_Cities_List/nat_boulder.png,,,,,,,,,,,,,,,,,,,,,,,,,,,,
1153.7000000029802,,rt_thecrossant_black,750002,black_plus_sign,,,,,50,,,1,0.8942307692307693,,,,,,,,,,,,,,,,,,,,,,,,,,
null,,color_black,750106,black_plus_sign,,,,,null,,,,,,,,,,,,,,,,,,,,,,,,,,,,,,
null,,learn_phase(without_color),752671,black_plus_sign,,,,,null,US_Cities_List/nat_cornwall.png,US_Cities_List/nat_newhope.png,,,,,,,,,,,,,,,,,,,,,,,,,,,,
null,,black_cross(without_color),753248,green,,,,,null,US_Cities_List/nat_cornwall.png,US_Cities_List/nat_newhope.png,,,,,,,,,,,,,,,,,,,,,,,,,,,,
null,,rt_plussign_withcolor,753751,green,,,,,null,US_Cities_List/nat_cornwall.png,US_Cities_List/nat_newhope.png,,,,,,,,,,,,,,,,,,,,,,,,,,,,
1237.8999999910593,,rt_thecrossant_black,755188,black_plus_sign,,,,,50,,,1,0.8952380952380953,,,,,,,,,,,,,,,,,,,,,,,,,,
null,,color_black,755292,black_plus_sign,,,,,null,,,,,,,,,,,,,,,,,,,,,,,,,,,,,,
null,,learn_phase(without_color),757870,black_plus_sign,,,,,null,US_Cities_List/nat_peoria.png,US_Cities_List/mm_racine.png,,,,,,,,,,,,,,,,,,,,,,,,,,,,
null,,black_cross(without_color),758570,blue,,,,,null,US_Cities_List/nat_peoria.png,US_Cities_List/mm_racine.png,,,,,,,,,,,,,,,,,,,,,,,,,,,,
null,,rt_plussign_withcolor,759073,blue,,,,,null,US_Cities_List/nat_peoria.png,US_Cities_List/mm_racine.png,,,,,,,,,,,,,,,,,,,,,,,,,,,,
1053.3999999910593,,rt_thecrossant_black,760383,black_plus_sign,,,,,49,,,1,0.8962264150943396,,,,,,,,,,,,,,,,,,,,,,,,,,
null,,color_black,760487,black_plus_sign,,,,,null,,,,,,,,,,,,,,,,,,,,,,,,,,,,,,
null,,learn_phase(without_color),763064,black_plus_sign,,,,,null,US_Cities_List/nat_boulder.png,US_Cities_List/mm_racine.png,,,,,,,,,,,,,,,,,,,,,,,,,,,,
null,,black_cross(without_color),763978,green,,,,,null,US_Cities_List/nat_boulder.png,US_Cities_List/mm_racine.png,,,,,,,,,,,,,,,,,,,,,,,,,,,,
null,,rt_plussign_withcolor,764483,green,,,,,null,US_Cities_List/nat_boulder.png,US_Cities_List/mm_racine.png,,,,,,,,,,,,,,,,,,,,,,,,,,,,
876.5999999940395,,rt_thecrossant_black,765577,black_plus_sign,,,,,50,,,1,0.897196261682243,,,,,,,,,,,,,,,,,,,,,,,,,,
null,,color_black,765681,black_plus_sign,,,,,null,,,,,,,,,,,,,,,,,,,,,,,,,,,,,,
null,,learn_phase(without_color),768223,black_plus_sign,,,,,null,US_Cities_List/mm_hanover.png,US_Cities_List/mm_racine.png,,,,,,,,,,,,,,,,,,,,,,,,,,,,
null,,black_cross(without_color),769219,green,,,,,null,US_Cities_List/mm_hanover.png,US_Cities_List/mm_racine.png,,,,,,,,,,,,,,,,,,,,,,,,,,,,
null,,rt_plussign_withcolor,769722,green,,,,,null,US_Cities_List/mm_hanover.png,US_Cities_List/mm_racine.png,,,,,,,,,,,,,,,,,,,,,,,,,,,,
1089.800000011921,,rt_thecrossant_black,770735,black_plus_sign,,,,,50,,,1,0.8981481481481481,,,,,,,,,,,,,,,,,,,,,,,,,,
null,,color_black,770840,black_plus_sign,,,,,null,,,,,,,,,,,,,,,,,,,,,,,,,,,,,,
null,,learn_phase(without_color),773383,black_plus_sign,,,,,null,US_Cities_List/nat_boulder.png,US_Cities_List/nat_peoria.png,,,,,,,,,,,,,,,,,,,,,,,,,,,,
null,,black_cross(without_color),773888,blue,,,,,null,US_Cities_List/nat_boulder.png,US_Cities_List/nat_peoria.png,,,,,,,,,,,,,,,,,,,,,,,,,,,,
null,,rt_plussign_withcolor,774392,blue,,,,,null,US_Cities_List/nat_boulder.png,US_Cities_List/nat_peoria.png,,,,,,,,,,,,,,,,,,,,,,,,,,,,
1450.5,,rt_thecrossant_black,775895,black_plus_sign,,,,,49,,,1,0.8990825688073395,,,,,,,,,,,,,,,,,,,,,,,,,,
null,,color_black,775999,black_plus_sign,,,,,null,,,,,,,,,,,,,,,,,,,,,,,,,,,,,,
null,,learn_phase(without_color),778550,black_plus_sign,,,,,null,US_Cities_List/nat_peoria.png,US_Cities_List/mm_gatlinburg.png,,,,,,,,,,,,,,,,,,,,,,,,,,,,
null,,black_cross(without_color),779048,blue,,,,,null,US_Cities_List/nat_peoria.png,US_Cities_List/mm_gatlinburg.png,,,,,,,,,,,,,,,,,,,,,,,,,,,,
null,,rt_plussign_withcolor,779552,blue,,,,,null,US_Cities_List/nat_peoria.png,US_Cities_List/mm_gatlinburg.png,,,,,,,,,,,,,,,,,,,,,,,,,,,,
800,,rt_thecrossant_black,781061,black_plus_sign,,,,,49,,,1,0.9,,,,,,,,,,,,,,,,,,,,,,,,,,
null,,color_black,781165,black_plus_sign,,,,,null,,,,,,,,,,,,,,,,,,,,,,,,,,,,,,
null,,learn_phase(without_color),783715,black_plus_sign,,,,,null,US_Cities_List/mm_hanover.png,US_Cities_List/mm_racine.png,,,,,,,,,,,,,,,,,,,,,,,,,,,,
null,,black_cross(without_color),784348,blue,,,,,null,US_Cities_List/mm_hanover.png,US_Cities_List/mm_racine.png,,,,,,,,,,,,,,,,,,,,,,,,,,,,
null,,rt_plussign_withcolor,784851,blue,,,,,null,US_Cities_List/mm_hanover.png,US_Cities_List/mm_racine.png,,,,,,,,,,,,,,,,,,,,,,,,,,,,
754.7000000029802,,rt_thecrossant_black,786226,black_plus_sign,,,,,49,,,1,0.9009009009009009,,,,,,,,,,,,,,,,,,,,,,,,,,
null,,color_black,786330,black_plus_sign,,,,,null,,,,,,,,,,,,,,,,,,,,,,,,,,,,,,
null,,learn_phase(without_color),788894,black_plus_sign,,,,,null,US_Cities_List/nat_huntsville.png,US_Cities_List/nat_cornwall.png,,,,,,,,,,,,,,,,,,,,,,,,,,,,
null,,black_cross(without_color),789365,green,,,,,null,US_Cities_List/nat_huntsville.png,US_Cities_List/nat_cornwall.png,,,,,,,,,,,,,,,,,,,,,,,,,,,,
null,,rt_plussign_withcolor,789868,green,,,,,null,US_Cities_List/nat_huntsville.png,US_Cities_List/nat_cornwall.png,,,,,,,,,,,,,,,,,,,,,,,,,,,,
910,,rt_thecrossant_black,791406,black_plus_sign,,,,,50,,,1,0.9017857142857143,,,,,,,,,,,,,,,,,,,,,,,,,,
null,,color_black,791509,black_plus_sign,,,,,null,,,,,,,,,,,,,,,,,,,,,,,,,,,,,,
null,,learn_phase(without_color),794065,black_plus_sign,,,,,null,US_Cities_List/mm_westpalmbeach.png,US_Cities_List/mm_hanover.png,,,,,,,,,,,,,,,,,,,,,,,,,,,,
null,,black_cross(without_color),794669,green,,,,,null,US_Cities_List/mm_westpalmbeach.png,US_Cities_List/mm_hanover.png,,,,,,,,,,,,,,,,,,,,,,,,,,,,
null,,rt_plussign_withcolor,795172,green,,,,,null,US_Cities_List/mm_westpalmbeach.png,US_Cities_List/mm_hanover.png,,,,,,,,,,,,,,,,,,,,,,,,,,,,
605.9000000059605,,rt_thecrossant_black,796575,black_plus_sign,,,,,50,,,1,0.9026548672566371,,,,,,,,,,,,,,,,,,,,,,,,,,
null,,color_black,796679,black_plus_sign,,,,,null,,,,,,,,,,,,,,,,,,,,,,,,,,,,,,
null,,learn_phase(without_color),799251,black_plus_sign,,,,,null,US_Cities_List/nat_huntsville.png,US_Cities_List/nat_cornwall.png,,,,,,,,,,,,,,,,,,,,,,,,,,,,
null,,black_cross(without_color),799773,blue,,,,,null,US_Cities_List/nat_huntsville.png,US_Cities_List/nat_cornwall.png,,,,,,,,,,,,,,,,,,,,,,,,,,,,
null,,rt_plussign_withcolor,800275,blue,,,,,null,US_Cities_List/nat_huntsville.png,US_Cities_List/nat_cornwall.png,,,,,,,,,,,,,,,,,,,,,,,,,,,,
977.5999999940395,,rt_thecrossant_black,801762,black_plus_sign,,,,,49,,,1,0.9035087719298246,,,,,,,,,,,,,,,,,,,,,,,,,,
null,,color_black,801866,black_plus_sign,,,,,null,,,,,,,,,,,,,,,,,,,,,,,,,,,,,,
null,,learn_phase(without_color),804429,black_plus_sign,,,,,null,US_Cities_List/mm_racine.png,US_Cities_List/nat_leesburg.png,,,,,,,,,,,,,,,,,,,,,,,,,,,,
null,,black_cross(without_color),805403,blue,,,,,null,US_Cities_List/mm_racine.png,US_Cities_List/nat_leesburg.png,,,,,,,,,,,,,,,,,,,,,,,,,,,,
null,,rt_plussign_withcolor,805905,blue,,,,,null,US_Cities_List/mm_racine.png,US_Cities_List/nat_leesburg.png,,,,,,,,,,,,,,,,,,,,,,,,,,,,
853,,rt_thecrossant_black,806939,black_plus_sign,,,,,49,,,1,0.9043478260869565,,,,,,,,,,,,,,,,,,,,,,,,,,
null,,color_black,807051,black_plus_sign,,,,,null,,,,,,,,,,,,,,,,,,,,,,,,,,,,,,
null,,learn_phase(without_color),809603,black_plus_sign,,,,,null,US_Cities_List/mm_hanover.png,US_Cities_List/nat_boulder.png,,,,,,,,,,,,,,,,,,,,,,,,,,,,
null,,black_cross(without_color),810228,green,,,,,null,US_Cities_List/mm_hanover.png,US_Cities_List/nat_boulder.png,,,,,,,,,,,,,,,,,,,,,,,,,,,,
null,,rt_plussign_withcolor,810730,green,,,,,null,US_Cities_List/mm_hanover.png,US_Cities_List/nat_boulder.png,,,,,,,,,,,,,,,,,,,,,,,,,,,,
1505.1000000089407,,rt_thecrossant_black,812113,black_plus_sign,,,,,50,,,1,0.9051724137931034,,,,,,,,,,,,,,,,,,,,,,,,,,
null,,color_black,812217,black_plus_sign,,,,,null,,,,,,,,,,,,,,,,,,,,,,,,,,,,,,
null,,learn_phase(without_color),814774,black_plus_sign,,,,,null,US_Cities_List/mm_westpalmbeach.png,US_Cities_List/nat_leesburg.png,,,,,,,,,,,,,,,,,,,,,,,,,,,,
null,,black_cross(without_color),815422,green,,,,,null,US_Cities_List/mm_westpalmbeach.png,US_Cities_List/nat_leesburg.png,,,,,,,,,,,,,,,,,,,,,,,,,,,,
null,,rt_plussign_withcolor,815925,green,,,,,null,US_Cities_List/mm_westpalmbeach.png,US_Cities_List/nat_leesburg.png,,,,,,,,,,,,,,,,,,,,,,,,,,,,
937.2000000029802,,rt_thecrossant_black,817285,black_plus_sign,,,,,50,,,1,0.905982905982906,,,,,,,,,,,,,,,,,,,,,,,,,,
null,,color_black,817388,black_plus_sign,,,,,null,,,,,,,,,,,,,,,,,,,,,,,,,,,,,,
null,,learn_phase(without_color),819947,black_plus_sign,,,,,null,US_Cities_List/nat_peoria.png,US_Cities_List/mm_gatlinburg.png,,,,,,,,,,,,,,,,,,,,,,,,,,,,
null,,black_cross(without_color),820682,blue,,,,,null,US_Cities_List/nat_peoria.png,US_Cities_List/mm_gatlinburg.png,,,,,,,,,,,,,,,,,,,,,,,,,,,,
null,,rt_plussign_withcolor,821186,blue,,,,,null,US_Cities_List/nat_peoria.png,US_Cities_List/mm_gatlinburg.png,,,,,,,,,,,,,,,,,,,,,,,,,,,,
946.5,,rt_thecrossant_black,822457,black_plus_sign,,,,,49,,,1,0.9067796610169492,,,,,,,,,,,,,,,,,,,,,,,,,,
null,,color_black,822561,black_plus_sign,,,,,null,,,,,,,,,,,,,,,,,,,,,,,,,,,,,,
null,,learn_phase(without_color),825109,black_plus_sign,,,,,null,US_Cities_List/mm_westpalmbeach.png,US_Cities_List/mm_hanover.png,,,,,,,,,,,,,,,,,,,,,,,,,,,,
null,,black_cross(without_color),826153,green,,,,,null,US_Cities_List/mm_westpalmbeach.png,US_Cities_List/mm_hanover.png,,,,,,,,,,,,,,,,,,,,,,,,,,,,
null,,rt_plussign_withcolor,826655,green,,,,,null,US_Cities_List/mm_westpalmbeach.png,US_Cities_List/mm_hanover.png,,,,,,,,,,,,,,,,,,,,,,,,,,,,
847.2000000029802,,rt_thecrossant_black,827620,black_plus_sign,,,,,50,,,1,0.907563025210084,,,,,,,,,,,,,,,,,,,,,,,,,,
null,,color_black,827725,black_plus_sign,,,,,null,,,,,,,,,,,,,,,,,,,,,,,,,,,,,,
null,,learn_phase(without_color),830269,black_plus_sign,,,,,null,US_Cities_List/nat_cornwall.png,US_Cities_List/mm_carmel.png,,,,,,,,,,,,,,,,,,,,,,,,,,,,
null,,black_cross(without_color),831272,green,,,,,null,US_Cities_List/nat_cornwall.png,US_Cities_List/mm_carmel.png,,,,,,,,,,,,,,,,,,,,,,,,,,,,
null,,rt_plussign_withcolor,831776,green,,,,,null,US_Cities_List/nat_cornwall.png,US_Cities_List/mm_carmel.png,,,,,,,,,,,,,,,,,,,,,,,,,,,,
1472.7999999970198,,rt_thecrossant_black,832781,black_plus_sign,,,,,50,,,1,0.9083333333333333,,,,,,,,,,,,,,,,,,,,,,,,,,
null,,color_black,832884,black_plus_sign,,,,,null,,,,,,,,,,,,,,,,,,,,,,,,,,,,,,
null,,learn_phase(without_color),835446,black_plus_sign,,,,,null,US_Cities_List/nat_boulder.png,US_Cities_List/mm_hotsprings.png,,,,,,,,,,,,,,,,,,,,,,,,,,,,
null,,black_cross(without_color),835890,green,,,,,null,US_Cities_List/nat_boulder.png,US_Cities_List/mm_hotsprings.png,,,,,,,,,,,,,,,,,,,,,,,,,,,,
null,,rt_plussign_withcolor,836393,green,,,,,null,US_Cities_List/nat_boulder.png,US_Cities_List/mm_hotsprings.png,,,,,,,,,,,,,,,,,,,,,,,,,,,,
1332.8999999910593,,rt_thecrossant_black,837956,black_plus_sign,,,,,50,,,1,0.9090909090909091,,,,,,,,,,,,,,,,,,,,,,,,,,
null,,color_black,838059,black_plus_sign,,,,,null,,,,,,,,,,,,,,,,,,,,,,,,,,,,,,
null,,learn_phase(without_color),840615,black_plus_sign,,,,,null,US_Cities_List/nat_peoria.png,US_Cities_List/mm_racine.png,,,,,,,,,,,,,,,,,,,,,,,,,,,,
null,,black_cross(without_color),841641,green,,,,,null,US_Cities_List/nat_peoria.png,US_Cities_List/mm_racine.png,,,,,,,,,,,,,,,,,,,,,,,,,,,,
null,,rt_plussign_withcolor,842144,green,,,,,null,US_Cities_List/nat_peoria.png,US_Cities_List/mm_racine.png,,,,,,,,,,,,,,,,,,,,,,,,,,,,
571.9000000059605,,rt_thecrossant_black,843125,black_plus_sign,,,,,50,,,1,0.9098360655737705,,,,,,,,,,,,,,,,,,,,,,,,,,
null,,color_black,843229,black_plus_sign,,,,,null,,,,,,,,,,,,,,,,,,,,,,,,,,,,,,
null,,learn_phase(without_color),845781,black_plus_sign,,,,,null,US_Cities_List/nat_cornwall.png,US_Cities_List/nat_newhope.png,,,,,,,,,,,,,,,,,,,,,,,,,,,,
null,,black_cross(without_color),846698,blue,,,,,null,US_Cities_List/nat_cornwall.png,US_Cities_List/nat_newhope.png,,,,,,,,,,,,,,,,,,,,,,,,,,,,
479.59999999403954,,rt_plussign_withcolor,847200,blue,,,,,49,US_Cities_List/nat_cornwall.png,US_Cities_List/nat_newhope.png,,,,,,,,,,,,,,,,,,,,,,,,,,,,
null,,rt_thecrossant_black,848292,black_plus_sign,,,,,null,,,1,0.9105691056910569,,,,,,,,,,,,,,,,,,,,,,,,,,
null,,color_black,848396,black_plus_sign,,,,,null,,,,,,,,,,,,,,,,,,,,,,,,,,,,,,
null,,learn_phase(without_color),850971,black_plus_sign,,,,,null,US_Cities_List/nat_boulder.png,US_Cities_List/mm_hotsprings.png,,,,,,,,,,,,,,,,,,,,,,,,,,,,
null,,black_cross(without_color),851885,green,,,,,null,US_Cities_List/nat_boulder.png,US_Cities_List/mm_hotsprings.png,,,,,,,,,,,,,,,,,,,,,,,,,,,,
null,,rt_plussign_withcolor,852388,green,,,,,null,US_Cities_List/nat_boulder.png,US_Cities_List/mm_hotsprings.png,,,,,,,,,,,,,,,,,,,,,,,,,,,,
1362.8999999910593,,rt_thecrossant_black,853481,black_plus_sign,,,,,50,,,1,0.9112903225806451,,,,,,,,,,,,,,,,,,,,,,,,,,
null,,color_black,853584,black_plus_sign,,,,,null,,,,,,,,,,,,,,,,,,,,,,,,,,,,,,
null,,learn_phase(without_color),856153,black_plus_sign,,,,,null,US_Cities_List/nat_leesburg.png,US_Cities_List/mm_carmel.png,,,,,,,,,,,,,,,,,,,,,,,,,,,,
null,,black_cross(without_color),857060,green,,,,,null,US_Cities_List/nat_leesburg.png,US_Cities_List/mm_carmel.png,,,,,,,,,,,,,,,,,,,,,,,,,,,,
null,,rt_plussign_withcolor,857563,green,,,,,null,US_Cities_List/nat_leesburg.png,US_Cities_List/mm_carmel.png,,,,,,,,,,,,,,,,,,,,,,,,,,,,
1140.2999999970198,,rt_thecrossant_black,858663,black_plus_sign,,,,,50,,,1,0.912,,,,,,,,,,,,,,,,,,,,,,,,,,
null,,color_black,858767,black_plus_sign,,,,,null,,,,,,,,,,,,,,,,,,,,,,,,,,,,,,
null,,learn_phase(without_color),861328,black_plus_sign,,,,,null,US_Cities_List/nat_huntsville.png,US_Cities_List/mm_westpalmbeach.png,,,,,,,,,,,,,,,,,,,,,,,,,,,,
null,,black_cross(without_color),862044,blue,,,,,null,US_Cities_List/nat_huntsville.png,US_Cities_List/mm_westpalmbeach.png,,,,,,,,,,,,,,,,,,,,,,,,,,,,
481.59999999403954,,rt_plussign_withcolor,862547,blue,,,,,49,US_Cities_List/nat_huntsville.png,US_Cities_List/mm_westpalmbeach.png,,,,,,,,,,,,,,,,,,,,,,,,,,,,
null,,rt_thecrossant_black,863838,black_plus_sign,,,,,null,,,1,0.9126984126984127,,,,,,,,,,,,,,,,,,,,,,,,,,
null,,color_black,863942,black_plus_sign,,,,,null,,,,,,,,,,,,,,,,,,,,,,,,,,,,,,
null,,learn_phase(without_color),866507,black_plus_sign,,,,,null,US_Cities_List/mm_hanover.png,US_Cities_List/mm_racine.png,,,,,,,,,,,,,,,,,,,,,,,,,,,,
null,,black_cross(without_color),867541,green,,,,,null,US_Cities_List/mm_hanover.png,US_Cities_List/mm_racine.png,,,,,,,,,,,,,,,,,,,,,,,,,,,,
400.29999999701977,,rt_plussign_withcolor,868044,green,,,,,50,US_Cities_List/mm_hanover.png,US_Cities_List/mm_racine.png,,,,,,,,,,,,,,,,,,,,,,,,,,,,
null,,rt_thecrossant_black,869018,black_plus_sign,,,,,null,,,1,0.9133858267716536,,,,,,,,,,,,,,,,,,,,,,,,,,
null,,color_black,869121,black_plus_sign,,,,,null,,,,,,,,,,,,,,,,,,,,,,,,,,,,,,
30045.09999999404,,intro_1,899171,instruct,,,0,,,,,,,,,,,,,,,,,,,,,,,,,,,,,,,,
20779.39999999106,,intro_2,919955,instruct,,,1,Next,,,,,,,,,,,,,,,,,,,,,,,,,,,,,,,
3092.2000000029802,,directmemory_phase,923158,../static/images/US_Cities_List/nat_leesburg.png,,,,,50,,,0,0,../static/images/US_Cities_List/nat_newhope.png,../static/images/US_Cities_List/nat_cornwall.png,../static/images/US_Cities_List/mm_westpalmbeach.png,../static/images/US_Cities_List/mm_westpalmbeach.png,../static/images/US_Cities_List/nat_cornwall.png,../static/images/US_Cities_List/nat_newhope.png,0.5,closer,,,,,,,,,,,,,,,,,,
null,,html-keyboard-response,924170,<p></p>,,,,,null,,,,,,,,,,,,,,,,,,,,,,,,,,,,,,
3158,,directmemory_phase,927420,../static/images/US_Cities_List/nat_cornwall.png,,,,,51,,,1,0.5,../static/images/US_Cities_List/mm_racine.png,../static/images/US_Cities_List/nat_shreveport.png,../static/images/US_Cities_List/mm_carmel.png,../static/images/US_Cities_List/mm_carmel.png,../static/images/US_Cities_List/nat_shreveport.png,../static/images/US_Cities_List/mm_racine.png,1,,,,,,,,,,,,,,,,,,,
null,,html-keyboard-response,928436,<p></p>,,,,,null,,,,,,,,,,,,,,,,,,,,,,,,,,,,,,
3800.7000000029802,,directmemory_phase,932310,../static/images/US_Cities_List/nat_peoria.png,,,,,49,,,0,0.3333333333333333,../static/images/US_Cities_List/mm_westpalmbeach.png,../static/images/US_Cities_List/mm_hotsprings.png,../static/images/US_Cities_List/mm_gatlinburg.png,../static/images/US_Cities_List/mm_gatlinburg.png,../static/images/US_Cities_List/mm_hotsprings.png,../static/images/US_Cities_List/mm_westpalmbeach.png,0.5,closer,,,,,,,,,,,,,,,,,,
null,,html-keyboard-response,933320,<p></p>,,,,,null,,,,,,,,,,,,,,,,,,,,,,,,,,,,,,
3956.2999999970198,,directmemory_phase,937375,../static/images/US_Cities_List/mm_carmel.png,,,,,50,,,0,0.25,../static/images/US_Cities_List/mm_hanover.png,../static/images/US_Cities_List/nat_huntsville.png,../static/images/US_Cities_List/nat_leesburg.png,../static/images/US_Cities_List/nat_leesburg.png,../static/images/US_Cities_List/nat_huntsville.png,../static/images/US_Cities_List/mm_hanover.png,0.5,closer,,,,,,,,,,,,,,,,,,
null,,html-keyboard-response,938387,<p></p>,,,,,null,,,,,,,,,,,,,,,,,,,,,,,,,,,,,,
1859.8999999910593,,directmemory_phase,940324,../static/images/US_Cities_List/mm_gatlinburg.png,,,,,50,,,1,0.4,../static/images/US_Cities_List/nat_boulder.png,../static/images/US_Cities_List/nat_peoria.png,../static/images/US_Cities_List/mm_carmel.png,../static/images/US_Cities_List/nat_peoria.png,../static/images/US_Cities_List/nat_boulder.png,../static/images/US_Cities_List/mm_carmel.png,1,,,,,,,,,,,,,,,,,,,
null,,html-keyboard-response,941338,<p></p>,,,,,null,,,,,,,,,,,,,,,,,,,,,,,,,,,,,,
1814.7000000029802,,directmemory_phase,943251,../static/images/US_Cities_List/mm_carmel.png,,,,,49,,,1,0.5,../static/images/US_Cities_List/nat_cornwall.png,../static/images/US_Cities_List/nat_shreveport.png,../static/images/US_Cities_List/mm_racine.png,../static/images/US_Cities_List/nat_cornwall.png,../static/images/US_Cities_List/mm_racine.png,../static/images/US_Cities_List/nat_shreveport.png,1,,,,,,,,,,,,,,,,,,,
null,,html-keyboard-response,944267,<p></p>,,,,,null,,,,,,,,,,,,,,,,,,,,,,,,,,,,,,
2989.800000011921,,directmemory_phase,947338,../static/images/US_Cities_List/mm_hanover.png,,,,,51,,,1,0.5714285714285714,../static/images/US_Cities_List/mm_gatlinburg.png,../static/images/US_Cities_List/nat_peoria.png,../static/images/US_Cities_List/nat_boulder.png,../static/images/US_Cities_List/nat_boulder.png,../static/images/US_Cities_List/nat_peoria.png,../static/images/US_Cities_List/mm_gatlinburg.png,1,,,,,,,,,,,,,,,,,,,
null,,html-keyboard-response,948351,<p></p>,,,,,null,,,,,,,,,,,,,,,,,,,,,,,,,,,,,,
2386.4000000059605,,directmemory_phase,950823,../static/images/US_Cities_List/nat_cornwall.png,,,,,50,,,0,0.5,../static/images/US_Cities_List/nat_boulder.png,../static/images/US_Cities_List/nat_leesburg.png,../static/images/US_Cities_List/nat_newhope.png,../static/images/US_Cities_List/nat_newhope.png,../static/images/US_Cities_List/nat_leesburg.png,../static/images/US_Cities_List/nat_boulder.png,0.5,closer,,,,,,,,,,,,,,,,,,
null,,html-keyboard-response,951851,<p></p>,,,,,null,,,,,,,,,,,,,,,,,,,,,,,,,,,,,,
2190.5,,directmemory_phase,954141,../static/images/US_Cities_List/mm_westpalmbeach.png,,,,,49,,,1,0.5555555555555556,../static/images/US_Cities_List/nat_leesburg.png,../static/images/US_Cities_List/nat_peoria.png,../static/images/US_Cities_List/nat_cornwall.png,../static/images/US_Cities_List/nat_leesburg.png,../static/images/US_Cities_List/nat_cornwall.png,../static/images/US_Cities_List/nat_peoria.png,1,,,,,,,,,,,,,,,,,,,
null,,html-keyboard-response,955151,<p></p>,,,,,null,,,,,,,,,,,,,,,,,,,,,,,,,,,,,,
1527.5,,directmemory_phase,956771,../static/images/US_Cities_List/mm_racine.png,,,,,50,,,1,0.6,../static/images/US_Cities_List/mm_hotsprings.png,../static/images/US_Cities_List/nat_boulder.png,../static/images/US_Cities_List/nat_shreveport.png,../static/images/US_Cities_List/nat_boulder.png,../static/images/US_Cities_List/mm_hotsprings.png,../static/images/US_Cities_List/nat_shreveport.png,1,,,,,,,,,,,,,,,,,,,
null,,html-keyboard-response,957784,<p></p>,,,,,null,,,,,,,,,,,,,,,,,,,,,,,,,,,,,,
3156.7000000029802,,directmemory_phase,961015,../static/images/US_Cities_List/nat_leesburg.png,,,,,49,,,0,0.5454545454545454,../static/images/US_Cities_List/mm_hanover.png,../static/images/US_Cities_List/mm_carmel.png,../static/images/US_Cities_List/nat_shreveport.png,../static/images/US_Cities_List/mm_carmel.png,../static/images/US_Cities_List/mm_hanover.png,../static/images/US_Cities_List/nat_shreveport.png,0.5,closer,,,,,,,,,,,,,,,,,,
null,,html-keyboard-response,962024,<p></p>,,,,,null,,,,,,,,,,,,,,,,,,,,,,,,,,,,,,
2393.800000011921,,directmemory_phase,964489,../static/images/US_Cities_List/nat_boulder.png,,,,,49,,,0,0.5,../static/images/US_Cities_List/mm_gatlinburg.png,../static/images/US_Cities_List/nat_peoria.png,../static/images/US_Cities_List/nat_huntsville.png,../static/images/US_Cities_List/nat_peoria.png,../static/images/US_Cities_List/mm_gatlinburg.png,../static/images/US_Cities_List/nat_huntsville.png,0.5,closer,,,,,,,,,,,,,,,,,,
null,,html-keyboard-response,965499,<p></p>,,,,,null,,,,,,,,,,,,,,,,,,,,,,,,,,,,,,
2932.2000000029802,,directmemory_phase,968515,../static/images/US_Cities_List/nat_leesburg.png,,,,,51,,,1,0.5384615384615384,../static/images/US_Cities_List/nat_newhope.png,../static/images/US_Cities_List/nat_boulder.png,../static/images/US_Cities_List/mm_racine.png,../static/images/US_Cities_List/mm_racine.png,../static/images/US_Cities_List/nat_boulder.png,../static/images/US_Cities_List/nat_newhope.png,1,,,,,,,,,,,,,,,,,,,
null,,html-keyboard-response,969525,<p></p>,,,,,null,,,,,,,,,,,,,,,,,,,,,,,,,,,,,,
2969,,directmemory_phase,972582,../static/images/US_Cities_List/mm_hotsprings.png,,,,,51,,,0,0.5,../static/images/US_Cities_List/mm_racine.png,../static/images/US_Cities_List/nat_boulder.png,../static/images/US_Cities_List/mm_gatlinburg.png,../static/images/US_Cities_List/nat_boulder.png,../static/images/US_Cities_List/mm_racine.png,../static/images/US_Cities_List/mm_gatlinburg.png,0.5,closer,,,,,,,,,,,,,,,,,,
null,,html-keyboard-response,973592,<p></p>,,,,,null,,,,,,,,,,,,,,,,,,,,,,,,,,,,,,
2359.7999999970198,,directmemory_phase,976054,../static/images/US_Cities_List/nat_peoria.png,,,,,50,,,0,0.4666666666666667,../static/images/US_Cities_List/nat_huntsville.png,../static/images/US_Cities_List/nat_leesburg.png,../static/images/US_Cities_List/mm_racine.png,../static/images/US_Cities_List/mm_racine.png,../static/images/US_Cities_List/nat_leesburg.png,../static/images/US_Cities_List/nat_huntsville.png,0.5,closer,,,,,,,,,,,,,,,,,,
null,,html-keyboard-response,977064,<p></p>,,,,,null,,,,,,,,,,,,,,,,,,,,,,,,,,,,,,
2348.2000000029802,,directmemory_phase,979506,../static/images/US_Cities_List/nat_shreveport.png,,,,,51,,,1,0.5,../static/images/US_Cities_List/mm_carmel.png,../static/images/US_Cities_List/nat_cornwall.png,../static/images/US_Cities_List/nat_huntsville.png,../static/images/US_Cities_List/nat_huntsville.png,../static/images/US_Cities_List/nat_cornwall.png,../static/images/US_Cities_List/mm_carmel.png,1,,,,,,,,,,,,,,,,,,,
null,,html-keyboard-response,980519,<p></p>,,,,,null,,,,,,,,,,,,,,,,,,,,,,,,,,,,,,
1646.5,,directmemory_phase,982256,../static/images/US_Cities_List/nat_boulder.png,,,,,50,,,0,0.47058823529411764,../static/images/US_Cities_List/nat_cornwall.png,../static/images/US_Cities_List/mm_westpalmbeach.png,../static/images/US_Cities_List/mm_racine.png,../static/images/US_Cities_List/mm_racine.png,../static/images/US_Cities_List/mm_westpalmbeach.png,../static/images/US_Cities_List/nat_cornwall.png,0.5,closer,,,,,,,,,,,,,,,,,,
null,,html-keyboard-response,983269,<p></p>,,,,,null,,,,,,,,,,,,,,,,,,,,,,,,,,,,,,
2609.6000000089407,,directmemory_phase,985998,../static/images/US_Cities_List/nat_newhope.png,,,,,51,,,0,0.4444444444444444,../static/images/US_Cities_List/nat_cornwall.png,../static/images/US_Cities_List/mm_racine.png,../static/images/US_Cities_List/nat_huntsville.png,../static/images/US_Cities_List/nat_cornwall.png,../static/images/US_Cities_List/nat_huntsville.png,../static/images/US_Cities_List/mm_racine.png,0.5,closer,,,,,,,,,,,,,,,,,,
null,,html-keyboard-response,987010,<p></p>,,,,,null,,,,,,,,,,,,,,,,,,,,,,,,,,,,,,
3098.5,,directmemory_phase,990176,../static/images/US_Cities_List/mm_hanover.png,,,,,50,,,0,0.42105263157894735,../static/images/US_Cities_List/mm_racine.png,../static/images/US_Cities_List/nat_shreveport.png,../static/images/US_Cities_List/nat_peoria.png,../static/images/US_Cities_List/mm_racine.png,../static/images/US_Cities_List/nat_peoria.png,../static/images/US_Cities_List/nat_shreveport.png,0.5,closer,,,,,,,,,,,,,,,,,,
null,,html-keyboard-response,991185,<p></p>,,,,,null,,,,,,,,,,,,,,,,,,,,,,,,,,,,,,
1921.9000000059605,,directmemory_phase,993187,../static/images/US_Cities_List/nat_peoria.png,,,,,49,,,0,0.4,../static/images/US_Cities_List/mm_westpalmbeach.png,../static/images/US_Cities_List/nat_leesburg.png,../static/images/US_Cities_List/nat_boulder.png,../static/images/US_Cities_List/nat_boulder.png,../static/images/US_Cities_List/nat_leesburg.png,../static/images/US_Cities_List/mm_westpalmbeach.png,0.5,closer,,,,,,,,,,,,,,,,,,
null,,html-keyboard-response,994197,<p></p>,,,,,null,,,,,,,,,,,,,,,,,,,,,,,,,,,,,,
2464.7000000029802,,directmemory_phase,996744,../static/images/US_Cities_List/mm_racine.png,,,,,51,,,0,0.38095238095238093,../static/images/US_Cities_List/mm_carmel.png,../static/images/US_Cities_List/mm_hanover.png,../static/images/US_Cities_List/nat_newhope.png,../static/images/US_Cities_List/mm_hanover.png,../static/images/US_Cities_List/mm_carmel.png,../static/images/US_Cities_List/nat_newhope.png,0.5,closer,,,,,,,,,,,,,,,,,,
null,,html-keyboard-response,997753,<p></p>,,,,,null,,,,,,,,,,,,,,,,,,,,,,,,,,,,,,
2124,,directmemory_phase,999949,../static/images/US_Cities_List/nat_huntsville.png,,,,,50,,,1,0.4090909090909091,../static/images/US_Cities_List/mm_hanover.png,../static/images/US_Cities_List/nat_shreveport.png,../static/images/US_Cities_List/nat_boulder.png,../static/images/US_Cities_List/nat_shreveport.png,../static/images/US_Cities_List/mm_hanover.png,../static/images/US_Cities_List/nat_boulder.png,1,,,,,,,,,,,,,,,,,,,
null,,html-keyboard-response,1000956,<p></p>,,,,,null,,,,,,,,,,,,,,,,,,,,,,,,,,,,,,
3429.4000000059605,,directmemory_phase,1004460,../static/images/US_Cities_List/nat_boulder.png,,,,,50,,,0,0.391304347826087,../static/images/US_Cities_List/nat_shreveport.png,../static/images/US_Cities_List/mm_gatlinburg.png,../static/images/US_Cities_List/mm_hanover.png,../static/images/US_Cities_List/mm_hanover.png,../static/images/US_Cities_List/mm_gatlinburg.png,../static/images/US_Cities_List/nat_shreveport.png,0.5,closer,,,,,,,,,,,,,,,,,,
null,,html-keyboard-response,1005472,<p></p>,,,,,null,,,,,,,,,,,,,,,,,,,,,,,,,,,,,,
2719.9000000059605,,directmemory_phase,1008300,../static/images/US_Cities_List/nat_cornwall.png,,,,,50,,,0,0.375,../static/images/US_Cities_List/nat_huntsville.png,../static/images/US_Cities_List/nat_boulder.png,../static/images/US_Cities_List/nat_shreveport.png,../static/images/US_Cities_List/nat_huntsville.png,../static/images/US_Cities_List/nat_shreveport.png,../static/images/US_Cities_List/nat_boulder.png,0.5,closer,,,,,,,,,,,,,,,,,,
null,,html-keyboard-response,1009312,<p></p>,,,,,null,,,,,,,,,,,,,,,,,,,,,,,,,,,,,,
