rt,responses,trial_type,time_elapsed,stimulus,cities,city_images,button_pressed,response,key_press,stimulus_left,stimulus_right,accuracy,cumulative_accuracy,stimulus_down_left,stimulus_down_mid,stimulus_down_right,stimulus_correct,stimulus_short,stimulus_far,weighted_accuracy,missedtrial,condition,specific_pairs,imgL_ID,imgR_ID,linedress,linedressed,image_position,unknowncity,testedstates,currentstate,otherstate,problems,smooth,distraction,strategies,easier,similar,comments,,
6607.2,{worker_id:67351d691e6e9753f1834168},id_enter,6610,intro,Gatlinburg; Boulder; Leesburg; Peoria; Hanover; Racine; Shreveport; Huntsville; Cornwall; New Hope; West Palm Beach; Carmel; Hot Springs,US_Cities_List/mm_gatlinburg.png; US_Cities_List/nat_boulder.png; US_Cities_List/mm_leesburg.png; US_Cities_List/nat_peoria.png; US_Cities_List/nat_hanover.png; US_Cities_List/mm_racine.png; US_Cities_List/nat_shreveport.png; US_Cities_List/mm_huntsville.png; US_Cities_List/nat_cornwall.png; US_Cities_List/nat_newhope.png; US_Cities_List/mm_westpalmbeach.png; US_Cities_List/nat_carmel.png; US_Cities_List/nat_hotsprings.png,,,,,,,,,,,,,,,,,,,,,,,,,,,,,,,,,,,
50503.2,,fullscreen,57117,make_fullscreen,,,0,,,,,,,,,,,,,,,,,,,,,,,,,,,,,,,,,,
37938.3,,intro_1,95058,instruct,,,0,,,,,,,,,,,,,,,,,,,,,,,,,,,,,,,,,,
15335.6,,intro_2,110396,instruct,,,1,Next,,,,,,,,,,,,,,,,,,,,,,,,,,,,,,,,,
12634.3,,intro_3,123032,instruct,,,1,Next,,,,,,,,,,,,,,,,,,,,,,,,,,,,,,,,,
16103.4,,intro_4,139137,instruct,,,1,Next,,,,,,,,,,,,,,,,,,,,,,,,,,,,,,,,,
12787.6,,intro_5,151926,instruct,,,1,Next,,,,,,,,,,,,,,,,,,,,,,,,,,,,,,,,,
38816.2,,intro_6,190743,instruct,,,1,Next,,,,,,,,,,,,,,,,,,,,,,,,,,,,,,,,,
null,,prac_atten_color_black,191201,black_plus_sign,,,,,null,,,,,,,,,,,,,,,,,,,,,,,,,,,,,,,,
730.8000001,,prac_atten_color,192166,prac_stop_color,,,,,49,,,,,,,,,,,,,,,,,,,,,,,,,,,,,,,,
null,,prac_atten_color_black,194174,black_plus_sign,,,,,null,,,,,,,,,,,,,,,,,,,,,,,,,,,,,,,,
null,,prac_atten_color_black,194628,black_plus_sign,,,,,null,,,,,,,,,,,,,,,,,,,,,,,,,,,,,,,,
435.3,,prac_atten_color,195364,prac_stop_color,,,,,50,,,,,,,,,,,,,,,,,,,,,,,,,,,,,,,,
null,,prac_atten_color_black,197370,black_plus_sign,,,,,null,,,,,,,,,,,,,,,,,,,,,,,,,,,,,,,,
null,,prac_atten_color_black,198055,black_plus_sign,,,,,null,,,,,,,,,,,,,,,,,,,,,,,,,,,,,,,,
396.4000001,,prac_atten_color,198979,prac_stop_color,,,,,49,,,,,,,,,,,,,,,,,,,,,,,,,,,,,,,,
null,,prac_atten_color_black,200985,black_plus_sign,,,,,null,,,,,,,,,,,,,,,,,,,,,,,,,,,,,,,,
4932.2,,attentioncheck_help,205918,instruct,,,,,32,,,,,,,,,,,,,,,,,,,,,,,,,,,,,,,,
null,,prac_atten_color_black,206420,black_plus_sign,,,,,null,,,,,,,,,,,,,,,,,,,,,,,,,,,,,,,,
null,,prac_atten_color,206846,prac_stop_color,,,,,null,,,,,,,,,,,,,,,,,,,,,,,,,,,,,,,,
327.2,,prac_atten_color_black,208854,black_plus_sign,,,,,49,,,,,,,,,,,,,,,,,,,,,,,,,,,,,,,,
null,,prac_atten_color_black,209846,black_plus_sign,,,,,null,,,,,,,,,,,,,,,,,,,,,,,,,,,,,,,,
622.1999999,,prac_atten_color,210913,prac_stop_color,,,,,50,,,,,,,,,,,,,,,,,,,,,,,,,,,,,,,,
null,,prac_atten_color_black,212924,black_plus_sign,,,,,null,,,,,,,,,,,,,,,,,,,,,,,,,,,,,,,,
null,,prac_atten_color_black,213266,black_plus_sign,,,,,null,,,,,,,,,,,,,,,,,,,,,,,,,,,,,,,,
506.9,,prac_atten_color,213873,prac_stop_color,,,,,50,,,,,,,,,,,,,,,,,,,,,,,,,,,,,,,,
null,,prac_atten_color_black,215879,black_plus_sign,,,,,null,,,,,,,,,,,,,,,,,,,,,,,,,,,,,,,,
null,,prac_atten_color_black,216685,black_plus_sign,,,,,null,,,,,,,,,,,,,,,,,,,,,,,,,,,,,,,,
465.4000001,,prac_atten_color,217414,prac_stop_color,,,,,49,,,,,,,,,,,,,,,,,,,,,,,,,,,,,,,,
null,,prac_atten_color_black,219417,black_plus_sign,,,,,null,,,,,,,,,,,,,,,,,,,,,,,,,,,,,,,,
null,,prac_atten_color_black,220113,black_plus_sign,,,,,null,,,,,,,,,,,,,,,,,,,,,,,,,,,,,,,,
486.8,,prac_atten_color,221203,prac_stop_color,,,,,50,,,,,,,,,,,,,,,,,,,,,,,,,,,,,,,,
null,,prac_atten_color_black,223210,black_plus_sign,,,,,null,,,,,,,,,,,,,,,,,,,,,,,,,,,,,,,,
null,,prac_atten_color_black,223546,black_plus_sign,,,,,null,,,,,,,,,,,,,,,,,,,,,,,,,,,,,,,,
469.5,,prac_atten_color,224117,prac_stop_color,,,,,49,,,,,,,,,,,,,,,,,,,,,,,,,,,,,,,,
null,,prac_atten_color_black,226119,black_plus_sign,,,,,null,,,,,,,,,,,,,,,,,,,,,,,,,,,,,,,,
null,,prac_atten_color_black,226959,black_plus_sign,,,,,null,,,,,,,,,,,,,,,,,,,,,,,,,,,,,,,,
null,,prac_atten_color,227627,prac_stop_color,,,,,null,,,,,,,,,,,,,,,,,,,,,,,,,,,,,,,,
133.4,,prac_atten_color_black,229635,black_plus_sign,,,,,49,,,,,,,,,,,,,,,,,,,,,,,,,,,,,,,,
5610.4,,attentioncheck_feedback,235247,cross_check_feedback,,,0,,,,,,,,,,,,,,,,,,,,,,,,,,,,,,,,,,
16366.4,,last_instruct,251614,instruct,,,,,32,,,,,,,,,,,,,,,,,,,,,,,,,,,,,,,,
null,,learn_phase(without_color),253662,black_plus_sign,,,,,null,US_Cities_List/mm_leesburg.png,US_Cities_List/mm_westpalmbeach.png,,,,,,,,,,,,,,,,,,,,,,,,,,,,,,
null,,black_cross(without_color),254628,green,,,,,null,US_Cities_List/mm_leesburg.png,US_Cities_List/mm_westpalmbeach.png,,,,,,,,,,,,,,,,,,,,,,,,,,,,,,
null,,rt_plussign_withcolor,255134,green,,,,,null,US_Cities_List/mm_leesburg.png,US_Cities_List/mm_westpalmbeach.png,,,,,,,,,,,,,,,,,,,,,,,,,,,,,,
800.8,,rt_thecrossant_black,256189,black_plus_sign,,,,,50,,,1,1,,,,,,,,,,,,,,,,,,,,,,,,,,,,
null,,color_black,256293,black_plus_sign,,,,,null,,,,,,,,,,,,,,,,,,,,,,,,,,,,,,,,
null,,learn_phase(without_color),258839,black_plus_sign,,,,,null,US_Cities_List/nat_shreveport.png,US_Cities_List/nat_cornwall.png,,,,,,,,,,,,,,,,,,,,,,,,,,,,,,
null,,black_cross(without_color),259450,green,,,,,null,US_Cities_List/nat_shreveport.png,US_Cities_List/nat_cornwall.png,,,,,,,,,,,,,,,,,,,,,,,,,,,,,,
null,,rt_plussign_withcolor,259952,green,,,,,null,US_Cities_List/nat_shreveport.png,US_Cities_List/nat_cornwall.png,,,,,,,,,,,,,,,,,,,,,,,,,,,,,,
817.7,,rt_thecrossant_black,261366,black_plus_sign,,,,,50,,,1,1,,,,,,,,,,,,,,,,,,,,,,,,,,,,
null,,color_black,261478,black_plus_sign,,,,,null,,,,,,,,,,,,,,,,,,,,,,,,,,,,,,,,
null,,learn_phase(without_color),264013,black_plus_sign,,,,,null,US_Cities_List/nat_peoria.png,US_Cities_List/nat_hanover.png,,,,,,,,,,,,,,,,,,,,,,,,,,,,,,
null,,black_cross(without_color),264502,blue,,,,,null,US_Cities_List/nat_peoria.png,US_Cities_List/nat_hanover.png,,,,,,,,,,,,,,,,,,,,,,,,,,,,,,
null,,rt_plussign_withcolor,265006,blue,,,,,null,US_Cities_List/nat_peoria.png,US_Cities_List/nat_hanover.png,,,,,,,,,,,,,,,,,,,,,,,,,,,,,,
745.3,,rt_thecrossant_black,266537,black_plus_sign,,,,,49,,,1,1,,,,,,,,,,,,,,,,,,,,,,,,,,,,
null,,color_black,266641,black_plus_sign,,,,,null,,,,,,,,,,,,,,,,,,,,,,,,,,,,,,,,
null,,learn_phase(without_color),269184,black_plus_sign,,,,,null,US_Cities_List/nat_shreveport.png,US_Cities_List/nat_hotsprings.png,,,,,,,,,,,,,,,,,,,,,,,,,,,,,,
null,,black_cross(without_color),269832,green,,,,,null,US_Cities_List/nat_shreveport.png,US_Cities_List/nat_hotsprings.png,,,,,,,,,,,,,,,,,,,,,,,,,,,,,,
473.2,,rt_plussign_withcolor,270336,green,,,,,50,US_Cities_List/nat_shreveport.png,US_Cities_List/nat_hotsprings.png,,,,,,,,,,,,,,,,,,,,,,,,,,,,,,
null,,rt_thecrossant_black,271712,black_plus_sign,,,,,null,,,1,1,,,,,,,,,,,,,,,,,,,,,,,,,,,,
null,,color_black,271814,black_plus_sign,,,,,null,,,,,,,,,,,,,,,,,,,,,,,,,,,,,,,,
null,,learn_phase(without_color),274353,black_plus_sign,,,,,null,US_Cities_List/mm_huntsville.png,US_Cities_List/nat_newhope.png,,,,,,,,,,,,,,,,,,,,,,,,,,,,,,
null,,black_cross(without_color),274819,blue,,,,,null,US_Cities_List/mm_huntsville.png,US_Cities_List/nat_newhope.png,,,,,,,,,,,,,,,,,,,,,,,,,,,,,,
483.6999999,,rt_plussign_withcolor,275326,blue,,,,,49,US_Cities_List/mm_huntsville.png,US_Cities_List/nat_newhope.png,,,,,,,,,,,,,,,,,,,,,,,,,,,,,,
null,,rt_thecrossant_black,276879,black_plus_sign,,,,,null,,,1,1,,,,,,,,,,,,,,,,,,,,,,,,,,,,
null,,color_black,276992,black_plus_sign,,,,,null,,,,,,,,,,,,,,,,,,,,,,,,,,,,,,,,
null,,learn_phase(without_color),279533,black_plus_sign,,,,,null,US_Cities_List/mm_huntsville.png,US_Cities_List/nat_cornwall.png,,,,,,,,,,,,,,,,,,,,,,,,,,,,,,
null,,black_cross(without_color),279978,green,,,,,null,US_Cities_List/mm_huntsville.png,US_Cities_List/nat_cornwall.png,,,,,,,,,,,,,,,,,,,,,,,,,,,,,,
455.3000001,,rt_plussign_withcolor,280488,green,,,,,50,US_Cities_List/mm_huntsville.png,US_Cities_List/nat_cornwall.png,,,,,,,,,,,,,,,,,,,,,,,,,,,,,,
null,,rt_thecrossant_black,282052,black_plus_sign,,,,,null,,,1,1,,,,,,,,,,,,,,,,,,,,,,,,,,,,
null,,color_black,282155,black_plus_sign,,,,,null,,,,,,,,,,,,,,,,,,,,,,,,,,,,,,,,
null,,learn_phase(without_color),284690,black_plus_sign,,,,,null,US_Cities_List/nat_shreveport.png,US_Cities_List/nat_hotsprings.png,,,,,,,,,,,,,,,,,,,,,,,,,,,,,,
null,,black_cross(without_color),285469,blue,,,,,null,US_Cities_List/nat_shreveport.png,US_Cities_List/nat_hotsprings.png,,,,,,,,,,,,,,,,,,,,,,,,,,,,,,
489.6,,rt_plussign_withcolor,285972,blue,,,,,49,US_Cities_List/nat_shreveport.png,US_Cities_List/nat_hotsprings.png,,,,,,,,,,,,,,,,,,,,,,,,,,,,,,
null,,rt_thecrossant_black,287210,black_plus_sign,,,,,null,,,1,1,,,,,,,,,,,,,,,,,,,,,,,,,,,,
null,,color_black,287313,black_plus_sign,,,,,null,,,,,,,,,,,,,,,,,,,,,,,,,,,,,,,,
null,,learn_phase(without_color),289839,black_plus_sign,,,,,null,US_Cities_List/mm_huntsville.png,US_Cities_List/nat_newhope.png,,,,,,,,,,,,,,,,,,,,,,,,,,,,,,
null,,black_cross(without_color),290351,green,,,,,null,US_Cities_List/mm_huntsville.png,US_Cities_List/nat_newhope.png,,,,,,,,,,,,,,,,,,,,,,,,,,,,,,
477.5,,rt_plussign_withcolor,290860,green,,,,,50,US_Cities_List/mm_huntsville.png,US_Cities_List/nat_newhope.png,,,,,,,,,,,,,,,,,,,,,,,,,,,,,,
null,,rt_thecrossant_black,292365,black_plus_sign,,,,,null,,,1,1,,,,,,,,,,,,,,,,,,,,,,,,,,,,
null,,color_black,292467,black_plus_sign,,,,,null,,,,,,,,,,,,,,,,,,,,,,,,,,,,,,,,
null,,learn_phase(without_color),295010,black_plus_sign,,,,,null,US_Cities_List/nat_shreveport.png,US_Cities_List/mm_huntsville.png,,,,,,,,,,,,,,,,,,,,,,,,,,,,,,
null,,black_cross(without_color),295528,green,,,,,null,US_Cities_List/nat_shreveport.png,US_Cities_List/mm_huntsville.png,,,,,,,,,,,,,,,,,,,,,,,,,,,,,,
null,,rt_plussign_withcolor,296043,green,,,,,null,US_Cities_List/nat_shreveport.png,US_Cities_List/mm_huntsville.png,,,,,,,,,,,,,,,,,,,,,,,,,,,,,,
639,,rt_thecrossant_black,297544,black_plus_sign,,,,,50,,,1,1,,,,,,,,,,,,,,,,,,,,,,,,,,,,
null,,color_black,297657,black_plus_sign,,,,,null,,,,,,,,,,,,,,,,,,,,,,,,,,,,,,,,
null,,learn_phase(without_color),300185,black_plus_sign,,,,,null,US_Cities_List/nat_boulder.png,US_Cities_List/mm_leesburg.png,,,,,,,,,,,,,,,,,,,,,,,,,,,,,,
null,,black_cross(without_color),300803,green,,,,,null,US_Cities_List/nat_boulder.png,US_Cities_List/mm_leesburg.png,,,,,,,,,,,,,,,,,,,,,,,,,,,,,,
null,,rt_plussign_withcolor,301321,green,,,,,null,US_Cities_List/nat_boulder.png,US_Cities_List/mm_leesburg.png,,,,,,,,,,,,,,,,,,,,,,,,,,,,,,
666.5,,rt_thecrossant_black,302714,black_plus_sign,,,,,50,,,1,1,,,,,,,,,,,,,,,,,,,,,,,,,,,,
null,,color_black,302815,black_plus_sign,,,,,null,,,,,,,,,,,,,,,,,,,,,,,,,,,,,,,,
null,,learn_phase(without_color),305356,black_plus_sign,,,,,null,US_Cities_List/mm_racine.png,US_Cities_List/nat_shreveport.png,,,,,,,,,,,,,,,,,,,,,,,,,,,,,,
null,,black_cross(without_color),306082,blue,,,,,null,US_Cities_List/mm_racine.png,US_Cities_List/nat_shreveport.png,,,,,,,,,,,,,,,,,,,,,,,,,,,,,,
null,,rt_plussign_withcolor,306586,blue,,,,,null,US_Cities_List/mm_racine.png,US_Cities_List/nat_shreveport.png,,,,,,,,,,,,,,,,,,,,,,,,,,,,,,
795.5,,rt_thecrossant_black,307874,black_plus_sign,,,,,49,,,1,1,,,,,,,,,,,,,,,,,,,,,,,,,,,,
null,,color_black,307987,black_plus_sign,,,,,null,,,,,,,,,,,,,,,,,,,,,,,,,,,,,,,,
null,,learn_phase(without_color),310520,black_plus_sign,,,,,null,US_Cities_List/nat_shreveport.png,US_Cities_List/mm_huntsville.png,,,,,,,,,,,,,,,,,,,,,,,,,,,,,,
null,,black_cross(without_color),311299,green,,,,,null,US_Cities_List/nat_shreveport.png,US_Cities_List/mm_huntsville.png,,,,,,,,,,,,,,,,,,,,,,,,,,,,,,
471.8000001,,rt_plussign_withcolor,311803,green,,,,,50,US_Cities_List/nat_shreveport.png,US_Cities_List/mm_huntsville.png,,,,,,,,,,,,,,,,,,,,,,,,,,,,,,
null,,rt_thecrossant_black,313042,black_plus_sign,,,,,null,,,1,1,,,,,,,,,,,,,,,,,,,,,,,,,,,,
null,,color_black,313152,black_plus_sign,,,,,null,,,,,,,,,,,,,,,,,,,,,,,,,,,,,,,,
null,,learn_phase(without_color),315700,black_plus_sign,,,,,null,US_Cities_List/nat_peoria.png,US_Cities_List/nat_hanover.png,,,,,,,,,,,,,,,,,,,,,,,,,,,,,,
null,,black_cross(without_color),316180,green,,,,,null,US_Cities_List/nat_peoria.png,US_Cities_List/nat_hanover.png,,,,,,,,,,,,,,,,,,,,,,,,,,,,,,
null,,rt_plussign_withcolor,316683,green,,,,,null,US_Cities_List/nat_peoria.png,US_Cities_List/nat_hanover.png,,,,,,,,,,,,,,,,,,,,,,,,,,,,,,
977.2,,rt_thecrossant_black,318222,black_plus_sign,,,,,50,,,1,1,,,,,,,,,,,,,,,,,,,,,,,,,,,,
null,,color_black,318326,black_plus_sign,,,,,null,,,,,,,,,,,,,,,,,,,,,,,,,,,,,,,,
null,,learn_phase(without_color),320876,black_plus_sign,,,,,null,US_Cities_List/nat_shreveport.png,US_Cities_List/mm_huntsville.png,,,,,,,,,,,,,,,,,,,,,,,,,,,,,,
null,,black_cross(without_color),321776,green,,,,,null,US_Cities_List/nat_shreveport.png,US_Cities_List/mm_huntsville.png,,,,,,,,,,,,,,,,,,,,,,,,,,,,,,
478.5,,rt_plussign_withcolor,322278,green,,,,,50,US_Cities_List/nat_shreveport.png,US_Cities_List/mm_huntsville.png,,,,,,,,,,,,,,,,,,,,,,,,,,,,,,
null,,rt_thecrossant_black,323414,black_plus_sign,,,,,null,,,1,1,,,,,,,,,,,,,,,,,,,,,,,,,,,,
null,,color_black,323517,black_plus_sign,,,,,null,,,,,,,,,,,,,,,,,,,,,,,,,,,,,,,,
null,,learn_phase(without_color),326055,black_plus_sign,,,,,null,US_Cities_List/nat_peoria.png,US_Cities_List/nat_carmel.png,,,,,,,,,,,,,,,,,,,,,,,,,,,,,,
null,,black_cross(without_color),326826,green,,,,,null,US_Cities_List/nat_peoria.png,US_Cities_List/nat_carmel.png,,,,,,,,,,,,,,,,,,,,,,,,,,,,,,
473,,rt_plussign_withcolor,327327,green,,,,,50,US_Cities_List/nat_peoria.png,US_Cities_List/nat_carmel.png,,,,,,,,,,,,,,,,,,,,,,,,,,,,,,
null,,rt_thecrossant_black,328580,black_plus_sign,,,,,null,,,1,1,,,,,,,,,,,,,,,,,,,,,,,,,,,,
null,,color_black,328682,black_plus_sign,,,,,null,,,,,,,,,,,,,,,,,,,,,,,,,,,,,,,,
null,,learn_phase(without_color),331225,black_plus_sign,,,,,null,US_Cities_List/nat_peoria.png,US_Cities_List/nat_hanover.png,,,,,,,,,,,,,,,,,,,,,,,,,,,,,,
null,,black_cross(without_color),331768,green,,,,,null,US_Cities_List/nat_peoria.png,US_Cities_List/nat_hanover.png,,,,,,,,,,,,,,,,,,,,,,,,,,,,,,
null,,rt_plussign_withcolor,332269,green,,,,,null,US_Cities_List/nat_peoria.png,US_Cities_List/nat_hanover.png,,,,,,,,,,,,,,,,,,,,,,,,,,,,,,
925.0999999,,rt_thecrossant_black,333746,black_plus_sign,,,,,50,,,1,1,,,,,,,,,,,,,,,,,,,,,,,,,,,,
null,,color_black,333848,black_plus_sign,,,,,null,,,,,,,,,,,,,,,,,,,,,,,,,,,,,,,,
null,,learn_phase(without_color),336371,black_plus_sign,,,,,null,US_Cities_List/mm_gatlinburg.png,US_Cities_List/nat_boulder.png,,,,,,,,,,,,,,,,,,,,,,,,,,,,,,
null,,black_cross(without_color),336796,blue,,,,,null,US_Cities_List/mm_gatlinburg.png,US_Cities_List/nat_boulder.png,,,,,,,,,,,,,,,,,,,,,,,,,,,,,,
null,,rt_plussign_withcolor,337306,blue,,,,,null,US_Cities_List/mm_gatlinburg.png,US_Cities_List/nat_boulder.png,,,,,,,,,,,,,,,,,,,,,,,,,,,,,,
702.5,,rt_thecrossant_black,338891,black_plus_sign,,,,,49,,,1,1,,,,,,,,,,,,,,,,,,,,,,,,,,,,
null,,color_black,338995,black_plus_sign,,,,,null,,,,,,,,,,,,,,,,,,,,,,,,,,,,,,,,
null,,learn_phase(without_color),341529,black_plus_sign,,,,,null,US_Cities_List/mm_huntsville.png,US_Cities_List/nat_newhope.png,,,,,,,,,,,,,,,,,,,,,,,,,,,,,,
null,,black_cross(without_color),342615,green,,,,,null,US_Cities_List/mm_huntsville.png,US_Cities_List/nat_newhope.png,,,,,,,,,,,,,,,,,,,,,,,,,,,,,,
446,,rt_plussign_withcolor,343124,green,,,,,50,US_Cities_List/mm_huntsville.png,US_Cities_List/nat_newhope.png,,,,,,,,,,,,,,,,,,,,,,,,,,,,,,
null,,rt_thecrossant_black,344061,black_plus_sign,,,,,null,,,1,1,,,,,,,,,,,,,,,,,,,,,,,,,,,,
null,,color_black,344164,black_plus_sign,,,,,null,,,,,,,,,,,,,,,,,,,,,,,,,,,,,,,,
null,,learn_phase(without_color),346709,black_plus_sign,,,,,null,US_Cities_List/mm_racine.png,US_Cities_List/nat_cornwall.png,,,,,,,,,,,,,,,,,,,,,,,,,,,,,,
null,,black_cross(without_color),347610,blue,,,,,null,US_Cities_List/mm_racine.png,US_Cities_List/nat_cornwall.png,,,,,,,,,,,,,,,,,,,,,,,,,,,,,,
null,,rt_plussign_withcolor,348119,blue,,,,,null,US_Cities_List/mm_racine.png,US_Cities_List/nat_cornwall.png,,,,,,,,,,,,,,,,,,,,,,,,,,,,,,
1282.9,,rt_thecrossant_black,349247,black_plus_sign,,,,,49,,,1,1,,,,,,,,,,,,,,,,,,,,,,,,,,,,
null,,color_black,349349,black_plus_sign,,,,,null,,,,,,,,,,,,,,,,,,,,,,,,,,,,,,,,
null,,learn_phase(without_color),351882,black_plus_sign,,,,,null,US_Cities_List/nat_shreveport.png,US_Cities_List/mm_huntsville.png,,,,,,,,,,,,,,,,,,,,,,,,,,,,,,
null,,black_cross(without_color),352791,green,,,,,null,US_Cities_List/nat_shreveport.png,US_Cities_List/mm_huntsville.png,,,,,,,,,,,,,,,,,,,,,,,,,,,,,,
375.6999999,,rt_plussign_withcolor,353306,green,,,,,50,US_Cities_List/nat_shreveport.png,US_Cities_List/mm_huntsville.png,,,,,,,,,,,,,,,,,,,,,,,,,,,,,,
null,,rt_thecrossant_black,354422,black_plus_sign,,,,,null,,,1,1,,,,,,,,,,,,,,,,,,,,,,,,,,,,
null,,color_black,354535,black_plus_sign,,,,,null,,,,,,,,,,,,,,,,,,,,,,,,,,,,,,,,
null,,learn_phase(without_color),357082,black_plus_sign,,,,,null,US_Cities_List/nat_shreveport.png,US_Cities_List/nat_hotsprings.png,,,,,,,,,,,,,,,,,,,,,,,,,,,,,,
null,,black_cross(without_color),357617,green,,,,,null,US_Cities_List/nat_shreveport.png,US_Cities_List/nat_hotsprings.png,,,,,,,,,,,,,,,,,,,,,,,,,,,,,,
null,,rt_plussign_withcolor,358128,green,,,,,null,US_Cities_List/nat_shreveport.png,US_Cities_List/nat_hotsprings.png,,,,,,,,,,,,,,,,,,,,,,,,,,,,,,
1323.9,,rt_thecrossant_black,359614,black_plus_sign,,,,,50,,,1,1,,,,,,,,,,,,,,,,,,,,,,,,,,,,
null,,color_black,359716,black_plus_sign,,,,,null,,,,,,,,,,,,,,,,,,,,,,,,,,,,,,,,
null,,learn_phase(without_color),362259,black_plus_sign,,,,,null,US_Cities_List/mm_racine.png,US_Cities_List/nat_cornwall.png,,,,,,,,,,,,,,,,,,,,,,,,,,,,,,
null,,black_cross(without_color),362666,green,,,,,null,US_Cities_List/mm_racine.png,US_Cities_List/nat_cornwall.png,,,,,,,,,,,,,,,,,,,,,,,,,,,,,,
431.3000001,,rt_plussign_withcolor,363178,green,,,,,50,US_Cities_List/mm_racine.png,US_Cities_List/nat_cornwall.png,,,,,,,,,,,,,,,,,,,,,,,,,,,,,,
null,,rt_thecrossant_black,364778,black_plus_sign,,,,,null,,,1,1,,,,,,,,,,,,,,,,,,,,,,,,,,,,
null,,color_black,364881,black_plus_sign,,,,,null,,,,,,,,,,,,,,,,,,,,,,,,,,,,,,,,
null,,learn_phase(without_color),367429,black_plus_sign,,,,,null,US_Cities_List/mm_racine.png,US_Cities_List/nat_shreveport.png,,,,,,,,,,,,,,,,,,,,,,,,,,,,,,
null,,black_cross(without_color),367890,green,,,,,null,US_Cities_List/mm_racine.png,US_Cities_List/nat_shreveport.png,,,,,,,,,,,,,,,,,,,,,,,,,,,,,,
482.8,,rt_plussign_withcolor,368396,green,,,,,50,US_Cities_List/mm_racine.png,US_Cities_List/nat_shreveport.png,,,,,,,,,,,,,,,,,,,,,,,,,,,,,,
null,,rt_thecrossant_black,369952,black_plus_sign,,,,,null,,,1,1,,,,,,,,,,,,,,,,,,,,,,,,,,,,
null,,color_black,370066,black_plus_sign,,,,,null,,,,,,,,,,,,,,,,,,,,,,,,,,,,,,,,
null,,learn_phase(without_color),372607,black_plus_sign,,,,,null,US_Cities_List/mm_westpalmbeach.png,US_Cities_List/nat_carmel.png,,,,,,,,,,,,,,,,,,,,,,,,,,,,,,
null,,black_cross(without_color),373273,green,,,,,null,US_Cities_List/mm_westpalmbeach.png,US_Cities_List/nat_carmel.png,,,,,,,,,,,,,,,,,,,,,,,,,,,,,,
443.8,,rt_plussign_withcolor,373788,green,,,,,50,US_Cities_List/mm_westpalmbeach.png,US_Cities_List/nat_carmel.png,,,,,,,,,,,,,,,,,,,,,,,,,,,,,,
null,,rt_thecrossant_black,375137,black_plus_sign,,,,,null,,,1,1,,,,,,,,,,,,,,,,,,,,,,,,,,,,
null,,color_black,375249,black_plus_sign,,,,,null,,,,,,,,,,,,,,,,,,,,,,,,,,,,,,,,
null,,learn_phase(without_color),377803,black_plus_sign,,,,,null,US_Cities_List/nat_cornwall.png,US_Cities_List/mm_westpalmbeach.png,,,,,,,,,,,,,,,,,,,,,,,,,,,,,,
null,,black_cross(without_color),378436,green,,,,,null,US_Cities_List/nat_cornwall.png,US_Cities_List/mm_westpalmbeach.png,,,,,,,,,,,,,,,,,,,,,,,,,,,,,,
441.7,,rt_plussign_withcolor,378949,green,,,,,50,US_Cities_List/nat_cornwall.png,US_Cities_List/mm_westpalmbeach.png,,,,,,,,,,,,,,,,,,,,,,,,,,,,,,
null,,rt_thecrossant_black,380344,black_plus_sign,,,,,null,,,1,1,,,,,,,,,,,,,,,,,,,,,,,,,,,,
null,,color_black,380457,black_plus_sign,,,,,null,,,,,,,,,,,,,,,,,,,,,,,,,,,,,,,,
null,,learn_phase(without_color),382999,black_plus_sign,,,,,null,US_Cities_List/nat_peoria.png,US_Cities_List/nat_hanover.png,,,,,,,,,,,,,,,,,,,,,,,,,,,,,,
null,,black_cross(without_color),383552,blue,,,,,null,US_Cities_List/nat_peoria.png,US_Cities_List/nat_hanover.png,,,,,,,,,,,,,,,,,,,,,,,,,,,,,,
441.3000001,,rt_plussign_withcolor,384055,blue,,,,,49,US_Cities_List/nat_peoria.png,US_Cities_List/nat_hanover.png,,,,,,,,,,,,,,,,,,,,,,,,,,,,,,
null,,rt_thecrossant_black,385531,black_plus_sign,,,,,null,,,1,1,,,,,,,,,,,,,,,,,,,,,,,,,,,,
null,,color_black,385634,black_plus_sign,,,,,null,,,,,,,,,,,,,,,,,,,,,,,,,,,,,,,,
null,,learn_phase(without_color),388160,black_plus_sign,,,,,null,US_Cities_List/nat_boulder.png,US_Cities_List/nat_peoria.png,,,,,,,,,,,,,,,,,,,,,,,,,,,,,,
null,,black_cross(without_color),388840,green,,,,,null,US_Cities_List/nat_boulder.png,US_Cities_List/nat_peoria.png,,,,,,,,,,,,,,,,,,,,,,,,,,,,,,
351.3000001,,rt_plussign_withcolor,389344,green,,,,,49,US_Cities_List/nat_boulder.png,US_Cities_List/nat_peoria.png,,,,,,,,,,,,,,,,,,,,,,,,,,,,,,
null,,rt_thecrossant_black,390670,black_plus_sign,,,,,null,,,0,0.962962963,,,,,,,,,,,,,,,,,,,,,,,,,,,,
null,,color_black,390773,black_plus_sign,,,,,null,,,,,,,,,,,,,,,,,,,,,,,,,,,,,,,,
null,,learn_phase(without_color),393314,black_plus_sign,,,,,null,US_Cities_List/mm_huntsville.png,US_Cities_List/nat_newhope.png,,,,,,,,,,,,,,,,,,,,,,,,,,,,,,
null,,black_cross(without_color),394050,blue,,,,,null,US_Cities_List/mm_huntsville.png,US_Cities_List/nat_newhope.png,,,,,,,,,,,,,,,,,,,,,,,,,,,,,,
504.4,,rt_plussign_withcolor,394555,blue,,,,,49,US_Cities_List/mm_huntsville.png,US_Cities_List/nat_newhope.png,,,,,,,,,,,,,,,,,,,,,,,,,,,,,,
null,,rt_thecrossant_black,395845,black_plus_sign,,,,,null,,,1,0.964285714,,,,,,,,,,,,,,,,,,,,,,,,,,,,
null,,color_black,395960,black_plus_sign,,,,,null,,,,,,,,,,,,,,,,,,,,,,,,,,,,,,,,
null,,learn_phase(without_color),398488,black_plus_sign,,,,,null,US_Cities_List/nat_peoria.png,US_Cities_List/nat_hanover.png,,,,,,,,,,,,,,,,,,,,,,,,,,,,,,
null,,black_cross(without_color),399471,blue,,,,,null,US_Cities_List/nat_peoria.png,US_Cities_List/nat_hanover.png,,,,,,,,,,,,,,,,,,,,,,,,,,,,,,
425.4,,rt_plussign_withcolor,399983,blue,,,,,50,US_Cities_List/nat_peoria.png,US_Cities_List/nat_hanover.png,,,,,,,,,,,,,,,,,,,,,,,,,,,,,,
null,,rt_thecrossant_black,401015,black_plus_sign,,,,,null,,,0,0.931034483,,,,,,,,,,,,,,,,,,,,,,,,,,,,
null,,color_black,401118,black_plus_sign,,,,,null,,,,,,,,,,,,,,,,,,,,,,,,,,,,,,,,
null,,learn_phase(without_color),403645,black_plus_sign,,,,,null,US_Cities_List/mm_racine.png,US_Cities_List/nat_shreveport.png,,,,,,,,,,,,,,,,,,,,,,,,,,,,,,
null,,black_cross(without_color),404755,blue,,,,,null,US_Cities_List/mm_racine.png,US_Cities_List/nat_shreveport.png,,,,,,,,,,,,,,,,,,,,,,,,,,,,,,
489.8,,rt_plussign_withcolor,405256,blue,,,,,49,US_Cities_List/mm_racine.png,US_Cities_List/nat_shreveport.png,,,,,,,,,,,,,,,,,,,,,,,,,,,,,,
null,,rt_thecrossant_black,406178,black_plus_sign,,,,,null,,,1,0.933333333,,,,,,,,,,,,,,,,,,,,,,,,,,,,
null,,color_black,406283,black_plus_sign,,,,,null,,,,,,,,,,,,,,,,,,,,,,,,,,,,,,,,
null,,learn_phase(without_color),408809,black_plus_sign,,,,,null,US_Cities_List/mm_leesburg.png,US_Cities_List/mm_westpalmbeach.png,,,,,,,,,,,,,,,,,,,,,,,,,,,,,,
null,,black_cross(without_color),409845,green,,,,,null,US_Cities_List/mm_leesburg.png,US_Cities_List/mm_westpalmbeach.png,,,,,,,,,,,,,,,,,,,,,,,,,,,,,,
490.8,,rt_plussign_withcolor,410354,green,,,,,50,US_Cities_List/mm_leesburg.png,US_Cities_List/mm_westpalmbeach.png,,,,,,,,,,,,,,,,,,,,,,,,,,,,,,
null,,rt_thecrossant_black,411342,black_plus_sign,,,,,null,,,1,0.935483871,,,,,,,,,,,,,,,,,,,,,,,,,,,,
null,,color_black,411452,black_plus_sign,,,,,null,,,,,,,,,,,,,,,,,,,,,,,,,,,,,,,,
null,,learn_phase(without_color),413989,black_plus_sign,,,,,null,US_Cities_List/nat_boulder.png,US_Cities_List/mm_leesburg.png,,,,,,,,,,,,,,,,,,,,,,,,,,,,,,
null,,black_cross(without_color),414480,green,,,,,null,US_Cities_List/nat_boulder.png,US_Cities_List/mm_leesburg.png,,,,,,,,,,,,,,,,,,,,,,,,,,,,,,
null,,rt_plussign_withcolor,414985,green,,,,,null,US_Cities_List/nat_boulder.png,US_Cities_List/mm_leesburg.png,,,,,,,,,,,,,,,,,,,,,,,,,,,,,,
1157.9,,rt_thecrossant_black,416505,black_plus_sign,,,,,50,,,1,0.9375,,,,,,,,,,,,,,,,,,,,,,,,,,,,
null,,color_black,416618,black_plus_sign,,,,,null,,,,,,,,,,,,,,,,,,,,,,,,,,,,,,,,
null,,learn_phase(without_color),419154,black_plus_sign,,,,,null,US_Cities_List/mm_huntsville.png,US_Cities_List/nat_newhope.png,,,,,,,,,,,,,,,,,,,,,,,,,,,,,,
null,,black_cross(without_color),419569,green,,,,,null,US_Cities_List/mm_huntsville.png,US_Cities_List/nat_newhope.png,,,,,,,,,,,,,,,,,,,,,,,,,,,,,,
472.1,,rt_plussign_withcolor,420071,green,,,,,50,US_Cities_List/mm_huntsville.png,US_Cities_List/nat_newhope.png,,,,,,,,,,,,,,,,,,,,,,,,,,,,,,
null,,rt_thecrossant_black,421684,black_plus_sign,,,,,null,,,1,0.939393939,,,,,,,,,,,,,,,,,,,,,,,,,,,,
null,,color_black,421790,black_plus_sign,,,,,null,,,,,,,,,,,,,,,,,,,,,,,,,,,,,,,,
null,,learn_phase(without_color),424328,black_plus_sign,,,,,null,US_Cities_List/nat_peoria.png,US_Cities_List/nat_carmel.png,,,,,,,,,,,,,,,,,,,,,,,,,,,,,,
null,,black_cross(without_color),425314,green,,,,,null,US_Cities_List/nat_peoria.png,US_Cities_List/nat_carmel.png,,,,,,,,,,,,,,,,,,,,,,,,,,,,,,
436,,rt_plussign_withcolor,425826,green,,,,,50,US_Cities_List/nat_peoria.png,US_Cities_List/nat_carmel.png,,,,,,,,,,,,,,,,,,,,,,,,,,,,,,
null,,rt_thecrossant_black,426856,black_plus_sign,,,,,null,,,1,0.941176471,,,,,,,,,,,,,,,,,,,,,,,,,,,,
null,,color_black,426964,black_plus_sign,,,,,null,,,,,,,,,,,,,,,,,,,,,,,,,,,,,,,,
null,,learn_phase(without_color),429512,black_plus_sign,,,,,null,US_Cities_List/nat_shreveport.png,US_Cities_List/nat_cornwall.png,,,,,,,,,,,,,,,,,,,,,,,,,,,,,,
null,,black_cross(without_color),430108,blue,,,,,null,US_Cities_List/nat_shreveport.png,US_Cities_List/nat_cornwall.png,,,,,,,,,,,,,,,,,,,,,,,,,,,,,,
null,,rt_plussign_withcolor,430616,blue,,,,,null,US_Cities_List/nat_shreveport.png,US_Cities_List/nat_cornwall.png,,,,,,,,,,,,,,,,,,,,,,,,,,,,,,
1264.3,,rt_thecrossant_black,432049,black_plus_sign,,,,,49,,,1,0.942857143,,,,,,,,,,,,,,,,,,,,,,,,,,,,
null,,color_black,432152,black_plus_sign,,,,,null,,,,,,,,,,,,,,,,,,,,,,,,,,,,,,,,
null,,learn_phase(without_color),434696,black_plus_sign,,,,,null,US_Cities_List/nat_boulder.png,US_Cities_List/mm_leesburg.png,,,,,,,,,,,,,,,,,,,,,,,,,,,,,,
null,,black_cross(without_color),435191,green,,,,,null,US_Cities_List/nat_boulder.png,US_Cities_List/mm_leesburg.png,,,,,,,,,,,,,,,,,,,,,,,,,,,,,,
399.8,,rt_plussign_withcolor,435706,green,,,,,50,US_Cities_List/nat_boulder.png,US_Cities_List/mm_leesburg.png,,,,,,,,,,,,,,,,,,,,,,,,,,,,,,
null,,rt_thecrossant_black,437241,black_plus_sign,,,,,null,,,1,0.944444444,,,,,,,,,,,,,,,,,,,,,,,,,,,,
null,,color_black,437354,black_plus_sign,,,,,null,,,,,,,,,,,,,,,,,,,,,,,,,,,,,,,,
null,,learn_phase(without_color),439885,black_plus_sign,,,,,null,US_Cities_List/mm_leesburg.png,US_Cities_List/mm_racine.png,,,,,,,,,,,,,,,,,,,,,,,,,,,,,,
null,,black_cross(without_color),440862,green,,,,,null,US_Cities_List/mm_leesburg.png,US_Cities_List/mm_racine.png,,,,,,,,,,,,,,,,,,,,,,,,,,,,,,
443.6,,rt_plussign_withcolor,441372,green,,,,,50,US_Cities_List/mm_leesburg.png,US_Cities_List/mm_racine.png,,,,,,,,,,,,,,,,,,,,,,,,,,,,,,
null,,rt_thecrossant_black,442417,black_plus_sign,,,,,null,,,1,0.945945946,,,,,,,,,,,,,,,,,,,,,,,,,,,,
null,,color_black,442521,black_plus_sign,,,,,null,,,,,,,,,,,,,,,,,,,,,,,,,,,,,,,,
null,,learn_phase(without_color),445071,black_plus_sign,,,,,null,US_Cities_List/nat_shreveport.png,US_Cities_List/nat_cornwall.png,,,,,,,,,,,,,,,,,,,,,,,,,,,,,,
null,,black_cross(without_color),445622,blue,,,,,null,US_Cities_List/nat_shreveport.png,US_Cities_List/nat_cornwall.png,,,,,,,,,,,,,,,,,,,,,,,,,,,,,,
470.5,,rt_plussign_withcolor,446124,blue,,,,,49,US_Cities_List/nat_shreveport.png,US_Cities_List/nat_cornwall.png,,,,,,,,,,,,,,,,,,,,,,,,,,,,,,
null,,rt_thecrossant_black,447583,black_plus_sign,,,,,null,,,1,0.947368421,,,,,,,,,,,,,,,,,,,,,,,,,,,,
null,,color_black,447696,black_plus_sign,,,,,null,,,,,,,,,,,,,,,,,,,,,,,,,,,,,,,,
null,,learn_phase(without_color),450237,black_plus_sign,,,,,null,US_Cities_List/nat_peoria.png,US_Cities_List/nat_carmel.png,,,,,,,,,,,,,,,,,,,,,,,,,,,,,,
null,,black_cross(without_color),451137,blue,,,,,null,US_Cities_List/nat_peoria.png,US_Cities_List/nat_carmel.png,,,,,,,,,,,,,,,,,,,,,,,,,,,,,,
416,,rt_plussign_withcolor,451639,blue,,,,,49,US_Cities_List/nat_peoria.png,US_Cities_List/nat_carmel.png,,,,,,,,,,,,,,,,,,,,,,,,,,,,,,
null,,rt_thecrossant_black,452751,black_plus_sign,,,,,null,,,1,0.948717949,,,,,,,,,,,,,,,,,,,,,,,,,,,,
null,,color_black,452855,black_plus_sign,,,,,null,,,,,,,,,,,,,,,,,,,,,,,,,,,,,,,,
null,,learn_phase(without_color),455409,black_plus_sign,,,,,null,US_Cities_List/nat_shreveport.png,US_Cities_List/nat_cornwall.png,,,,,,,,,,,,,,,,,,,,,,,,,,,,,,
null,,black_cross(without_color),455911,green,,,,,null,US_Cities_List/nat_shreveport.png,US_Cities_List/nat_cornwall.png,,,,,,,,,,,,,,,,,,,,,,,,,,,,,,
478.8,,rt_plussign_withcolor,456412,green,,,,,50,US_Cities_List/nat_shreveport.png,US_Cities_List/nat_cornwall.png,,,,,,,,,,,,,,,,,,,,,,,,,,,,,,
null,,rt_thecrossant_black,457938,black_plus_sign,,,,,null,,,1,0.95,,,,,,,,,,,,,,,,,,,,,,,,,,,,
null,,color_black,458051,black_plus_sign,,,,,null,,,,,,,,,,,,,,,,,,,,,,,,,,,,,,,,
null,,learn_phase(without_color),460601,black_plus_sign,,,,,null,US_Cities_List/nat_boulder.png,US_Cities_List/mm_leesburg.png,,,,,,,,,,,,,,,,,,,,,,,,,,,,,,
null,,black_cross(without_color),461696,green,,,,,null,US_Cities_List/nat_boulder.png,US_Cities_List/mm_leesburg.png,,,,,,,,,,,,,,,,,,,,,,,,,,,,,,
447.6,,rt_plussign_withcolor,462198,green,,,,,50,US_Cities_List/nat_boulder.png,US_Cities_List/mm_leesburg.png,,,,,,,,,,,,,,,,,,,,,,,,,,,,,,
null,,rt_thecrossant_black,463113,black_plus_sign,,,,,null,,,1,0.951219512,,,,,,,,,,,,,,,,,,,,,,,,,,,,
null,,color_black,463216,black_plus_sign,,,,,null,,,,,,,,,,,,,,,,,,,,,,,,,,,,,,,,
null,,learn_phase(without_color),465754,black_plus_sign,,,,,null,US_Cities_List/nat_cornwall.png,US_Cities_List/mm_westpalmbeach.png,,,,,,,,,,,,,,,,,,,,,,,,,,,,,,
null,,black_cross(without_color),466317,blue,,,,,null,US_Cities_List/nat_cornwall.png,US_Cities_List/mm_westpalmbeach.png,,,,,,,,,,,,,,,,,,,,,,,,,,,,,,
422.2,,rt_plussign_withcolor,466821,blue,,,,,49,US_Cities_List/nat_cornwall.png,US_Cities_List/mm_westpalmbeach.png,,,,,,,,,,,,,,,,,,,,,,,,,,,,,,
null,,rt_thecrossant_black,468272,black_plus_sign,,,,,null,,,1,0.952380952,,,,,,,,,,,,,,,,,,,,,,,,,,,,
null,,color_black,468382,black_plus_sign,,,,,null,,,,,,,,,,,,,,,,,,,,,,,,,,,,,,,,
null,,learn_phase(without_color),470927,black_plus_sign,,,,,null,US_Cities_List/mm_racine.png,US_Cities_List/nat_shreveport.png,,,,,,,,,,,,,,,,,,,,,,,,,,,,,,
null,,black_cross(without_color),471491,green,,,,,null,US_Cities_List/mm_racine.png,US_Cities_List/nat_shreveport.png,,,,,,,,,,,,,,,,,,,,,,,,,,,,,,
458.2,,rt_plussign_withcolor,471998,green,,,,,50,US_Cities_List/mm_racine.png,US_Cities_List/nat_shreveport.png,,,,,,,,,,,,,,,,,,,,,,,,,,,,,,
null,,rt_thecrossant_black,473457,black_plus_sign,,,,,null,,,1,0.953488372,,,,,,,,,,,,,,,,,,,,,,,,,,,,
null,,color_black,473560,black_plus_sign,,,,,null,,,,,,,,,,,,,,,,,,,,,,,,,,,,,,,,
null,,learn_phase(without_color),476090,black_plus_sign,,,,,null,US_Cities_List/nat_cornwall.png,US_Cities_List/mm_westpalmbeach.png,,,,,,,,,,,,,,,,,,,,,,,,,,,,,,
null,,black_cross(without_color),476555,blue,,,,,null,US_Cities_List/nat_cornwall.png,US_Cities_List/mm_westpalmbeach.png,,,,,,,,,,,,,,,,,,,,,,,,,,,,,,
null,,rt_plussign_withcolor,477058,blue,,,,,null,US_Cities_List/nat_cornwall.png,US_Cities_List/mm_westpalmbeach.png,,,,,,,,,,,,,,,,,,,,,,,,,,,,,,
761.8,,rt_thecrossant_black,478605,black_plus_sign,,,,,49,,,1,0.954545455,,,,,,,,,,,,,,,,,,,,,,,,,,,,
null,,color_black,478716,black_plus_sign,,,,,null,,,,,,,,,,,,,,,,,,,,,,,,,,,,,,,,
null,,learn_phase(without_color),481262,black_plus_sign,,,,,null,US_Cities_List/nat_boulder.png,US_Cities_List/nat_peoria.png,,,,,,,,,,,,,,,,,,,,,,,,,,,,,,
null,,black_cross(without_color),482155,green,,,,,null,US_Cities_List/nat_boulder.png,US_Cities_List/nat_peoria.png,,,,,,,,,,,,,,,,,,,,,,,,,,,,,,
370.1999999,,rt_plussign_withcolor,482666,green,,,,,50,US_Cities_List/nat_boulder.png,US_Cities_List/nat_peoria.png,,,,,,,,,,,,,,,,,,,,,,,,,,,,,,
null,,rt_thecrossant_black,483802,black_plus_sign,,,,,null,,,1,0.955555556,,,,,,,,,,,,,,,,,,,,,,,,,,,,
null,,color_black,483911,black_plus_sign,,,,,null,,,,,,,,,,,,,,,,,,,,,,,,,,,,,,,,
null,,learn_phase(without_color),486467,black_plus_sign,,,,,null,US_Cities_List/nat_cornwall.png,US_Cities_List/mm_westpalmbeach.png,,,,,,,,,,,,,,,,,,,,,,,,,,,,,,
null,,black_cross(without_color),487411,green,,,,,null,US_Cities_List/nat_cornwall.png,US_Cities_List/mm_westpalmbeach.png,,,,,,,,,,,,,,,,,,,,,,,,,,,,,,
null,,rt_plussign_withcolor,487921,green,,,,,null,US_Cities_List/nat_cornwall.png,US_Cities_List/mm_westpalmbeach.png,,,,,,,,,,,,,,,,,,,,,,,,,,,,,,
1033.7,,rt_thecrossant_black,488997,black_plus_sign,,,,,50,,,1,0.956521739,,,,,,,,,,,,,,,,,,,,,,,,,,,,
null,,color_black,489107,black_plus_sign,,,,,null,,,,,,,,,,,,,,,,,,,,,,,,,,,,,,,,
null,,learn_phase(without_color),491647,black_plus_sign,,,,,null,US_Cities_List/mm_leesburg.png,US_Cities_List/mm_racine.png,,,,,,,,,,,,,,,,,,,,,,,,,,,,,,
null,,black_cross(without_color),492389,blue,,,,,null,US_Cities_List/mm_leesburg.png,US_Cities_List/mm_racine.png,,,,,,,,,,,,,,,,,,,,,,,,,,,,,,
null,,rt_plussign_withcolor,492892,blue,,,,,null,US_Cities_List/mm_leesburg.png,US_Cities_List/mm_racine.png,,,,,,,,,,,,,,,,,,,,,,,,,,,,,,
1108.7,,rt_thecrossant_black,494158,black_plus_sign,,,,,49,,,1,0.957446809,,,,,,,,,,,,,,,,,,,,,,,,,,,,
null,,color_black,494269,black_plus_sign,,,,,null,,,,,,,,,,,,,,,,,,,,,,,,,,,,,,,,
null,,learn_phase(without_color),496814,black_plus_sign,,,,,null,US_Cities_List/nat_boulder.png,US_Cities_List/mm_leesburg.png,,,,,,,,,,,,,,,,,,,,,,,,,,,,,,
null,,black_cross(without_color),497915,green,,,,,null,US_Cities_List/nat_boulder.png,US_Cities_List/mm_leesburg.png,,,,,,,,,,,,,,,,,,,,,,,,,,,,,,
480.1,,rt_plussign_withcolor,498418,green,,,,,50,US_Cities_List/nat_boulder.png,US_Cities_List/mm_leesburg.png,,,,,,,,,,,,,,,,,,,,,,,,,,,,,,
null,,rt_thecrossant_black,499333,black_plus_sign,,,,,null,,,1,0.958333333,,,,,,,,,,,,,,,,,,,,,,,,,,,,
null,,color_black,499436,black_plus_sign,,,,,null,,,,,,,,,,,,,,,,,,,,,,,,,,,,,,,,
null,,learn_phase(without_color),501956,black_plus_sign,,,,,null,US_Cities_List/mm_leesburg.png,US_Cities_List/mm_racine.png,,,,,,,,,,,,,,,,,,,,,,,,,,,,,,
null,,black_cross(without_color),502507,green,,,,,null,US_Cities_List/mm_leesburg.png,US_Cities_List/mm_racine.png,,,,,,,,,,,,,,,,,,,,,,,,,,,,,,
436.4,,rt_plussign_withcolor,503015,green,,,,,50,US_Cities_List/mm_leesburg.png,US_Cities_List/mm_racine.png,,,,,,,,,,,,,,,,,,,,,,,,,,,,,,
null,,rt_thecrossant_black,504475,black_plus_sign,,,,,null,,,1,0.959183673,,,,,,,,,,,,,,,,,,,,,,,,,,,,
null,,color_black,504580,black_plus_sign,,,,,null,,,,,,,,,,,,,,,,,,,,,,,,,,,,,,,,
null,,learn_phase(without_color),507120,black_plus_sign,,,,,null,US_Cities_List/nat_peoria.png,US_Cities_List/nat_carmel.png,,,,,,,,,,,,,,,,,,,,,,,,,,,,,,
null,,black_cross(without_color),508082,blue,,,,,null,US_Cities_List/nat_peoria.png,US_Cities_List/nat_carmel.png,,,,,,,,,,,,,,,,,,,,,,,,,,,,,,
457.3,,rt_plussign_withcolor,508592,blue,,,,,49,US_Cities_List/nat_peoria.png,US_Cities_List/nat_carmel.png,,,,,,,,,,,,,,,,,,,,,,,,,,,,,,
null,,rt_thecrossant_black,509644,black_plus_sign,,,,,null,,,1,0.96,,,,,,,,,,,,,,,,,,,,,,,,,,,,
null,,color_black,509757,black_plus_sign,,,,,null,,,,,,,,,,,,,,,,,,,,,,,,,,,,,,,,
null,,learn_phase(without_color),512298,black_plus_sign,,,,,null,US_Cities_List/mm_leesburg.png,US_Cities_List/mm_westpalmbeach.png,,,,,,,,,,,,,,,,,,,,,,,,,,,,,,
null,,black_cross(without_color),512882,blue,,,,,null,US_Cities_List/mm_leesburg.png,US_Cities_List/mm_westpalmbeach.png,,,,,,,,,,,,,,,,,,,,,,,,,,,,,,
411.6999999,,rt_plussign_withcolor,513389,blue,,,,,49,US_Cities_List/mm_leesburg.png,US_Cities_List/mm_westpalmbeach.png,,,,,,,,,,,,,,,,,,,,,,,,,,,,,,
null,,rt_thecrossant_black,514827,black_plus_sign,,,,,null,,,1,0.960784314,,,,,,,,,,,,,,,,,,,,,,,,,,,,
null,,color_black,514941,black_plus_sign,,,,,null,,,,,,,,,,,,,,,,,,,,,,,,,,,,,,,,
null,,learn_phase(without_color),517487,black_plus_sign,,,,,null,US_Cities_List/mm_leesburg.png,US_Cities_List/mm_racine.png,,,,,,,,,,,,,,,,,,,,,,,,,,,,,,
null,,black_cross(without_color),518398,blue,,,,,null,US_Cities_List/mm_leesburg.png,US_Cities_List/mm_racine.png,,,,,,,,,,,,,,,,,,,,,,,,,,,,,,
467.5,,rt_plussign_withcolor,518904,blue,,,,,49,US_Cities_List/mm_leesburg.png,US_Cities_List/mm_racine.png,,,,,,,,,,,,,,,,,,,,,,,,,,,,,,
null,,rt_thecrossant_black,520018,black_plus_sign,,,,,null,,,1,0.961538462,,,,,,,,,,,,,,,,,,,,,,,,,,,,
null,,color_black,520121,black_plus_sign,,,,,null,,,,,,,,,,,,,,,,,,,,,,,,,,,,,,,,
null,,learn_phase(without_color),522660,black_plus_sign,,,,,null,US_Cities_List/mm_racine.png,US_Cities_List/nat_cornwall.png,,,,,,,,,,,,,,,,,,,,,,,,,,,,,,
null,,black_cross(without_color),523219,green,,,,,null,US_Cities_List/mm_racine.png,US_Cities_List/nat_cornwall.png,,,,,,,,,,,,,,,,,,,,,,,,,,,,,,
null,,rt_plussign_withcolor,523736,green,,,,,null,US_Cities_List/mm_racine.png,US_Cities_List/nat_cornwall.png,,,,,,,,,,,,,,,,,,,,,,,,,,,,,,
1210,,rt_thecrossant_black,525192,black_plus_sign,,,,,50,,,1,0.962264151,,,,,,,,,,,,,,,,,,,,,,,,,,,,
null,,color_black,525294,black_plus_sign,,,,,null,,,,,,,,,,,,,,,,,,,,,,,,,,,,,,,,
null,,learn_phase(without_color),527831,black_plus_sign,,,,,null,US_Cities_List/mm_leesburg.png,US_Cities_List/mm_westpalmbeach.png,,,,,,,,,,,,,,,,,,,,,,,,,,,,,,
null,,black_cross(without_color),528753,green,,,,,null,US_Cities_List/mm_leesburg.png,US_Cities_List/mm_westpalmbeach.png,,,,,,,,,,,,,,,,,,,,,,,,,,,,,,
425.5,,rt_plussign_withcolor,529261,green,,,,,50,US_Cities_List/mm_leesburg.png,US_Cities_List/mm_westpalmbeach.png,,,,,,,,,,,,,,,,,,,,,,,,,,,,,,
null,,rt_thecrossant_black,530363,black_plus_sign,,,,,null,,,1,0.962962963,,,,,,,,,,,,,,,,,,,,,,,,,,,,
null,,color_black,530477,black_plus_sign,,,,,null,,,,,,,,,,,,,,,,,,,,,,,,,,,,,,,,
null,,learn_phase(without_color),533020,black_plus_sign,,,,,null,US_Cities_List/nat_boulder.png,US_Cities_List/mm_leesburg.png,,,,,,,,,,,,,,,,,,,,,,,,,,,,,,
null,,black_cross(without_color),533747,green,,,,,null,US_Cities_List/nat_boulder.png,US_Cities_List/mm_leesburg.png,,,,,,,,,,,,,,,,,,,,,,,,,,,,,,
458.3,,rt_plussign_withcolor,534250,green,,,,,50,US_Cities_List/nat_boulder.png,US_Cities_List/mm_leesburg.png,,,,,,,,,,,,,,,,,,,,,,,,,,,,,,
null,,rt_thecrossant_black,535539,black_plus_sign,,,,,null,,,1,0.963636364,,,,,,,,,,,,,,,,,,,,,,,,,,,,
null,,color_black,535660,black_plus_sign,,,,,null,,,,,,,,,,,,,,,,,,,,,,,,,,,,,,,,
null,,learn_phase(without_color),538198,black_plus_sign,,,,,null,US_Cities_List/mm_huntsville.png,US_Cities_List/nat_cornwall.png,,,,,,,,,,,,,,,,,,,,,,,,,,,,,,
null,,black_cross(without_color),539191,blue,,,,,null,US_Cities_List/mm_huntsville.png,US_Cities_List/nat_cornwall.png,,,,,,,,,,,,,,,,,,,,,,,,,,,,,,
338.6,,rt_plussign_withcolor,539697,blue,,,,,49,US_Cities_List/mm_huntsville.png,US_Cities_List/nat_cornwall.png,,,,,,,,,,,,,,,,,,,,,,,,,,,,,,
null,,rt_thecrossant_black,540725,black_plus_sign,,,,,null,,,1,0.964285714,,,,,,,,,,,,,,,,,,,,,,,,,,,,
null,,color_black,540828,black_plus_sign,,,,,null,,,,,,,,,,,,,,,,,,,,,,,,,,,,,,,,
null,,learn_phase(without_color),543347,black_plus_sign,,,,,null,US_Cities_List/mm_racine.png,US_Cities_List/nat_shreveport.png,,,,,,,,,,,,,,,,,,,,,,,,,,,,,,
null,,black_cross(without_color),543880,green,,,,,null,US_Cities_List/mm_racine.png,US_Cities_List/nat_shreveport.png,,,,,,,,,,,,,,,,,,,,,,,,,,,,,,
400.9,,rt_plussign_withcolor,544387,green,,,,,50,US_Cities_List/mm_racine.png,US_Cities_List/nat_shreveport.png,,,,,,,,,,,,,,,,,,,,,,,,,,,,,,
null,,rt_thecrossant_black,545861,black_plus_sign,,,,,null,,,1,0.964912281,,,,,,,,,,,,,,,,,,,,,,,,,,,,
null,,color_black,545968,black_plus_sign,,,,,null,,,,,,,,,,,,,,,,,,,,,,,,,,,,,,,,
null,,learn_phase(without_color),548526,black_plus_sign,,,,,null,US_Cities_List/nat_shreveport.png,US_Cities_List/nat_cornwall.png,,,,,,,,,,,,,,,,,,,,,,,,,,,,,,
null,,black_cross(without_color),549458,green,,,,,null,US_Cities_List/nat_shreveport.png,US_Cities_List/nat_cornwall.png,,,,,,,,,,,,,,,,,,,,,,,,,,,,,,
369.5,,rt_plussign_withcolor,549963,green,,,,,50,US_Cities_List/nat_shreveport.png,US_Cities_List/nat_cornwall.png,,,,,,,,,,,,,,,,,,,,,,,,,,,,,,
null,,rt_thecrossant_black,551058,black_plus_sign,,,,,null,,,1,0.965517241,,,,,,,,,,,,,,,,,,,,,,,,,,,,
null,,color_black,551160,black_plus_sign,,,,,null,,,,,,,,,,,,,,,,,,,,,,,,,,,,,,,,
null,,learn_phase(without_color),553696,black_plus_sign,,,,,null,US_Cities_List/nat_peoria.png,US_Cities_List/nat_hanover.png,,,,,,,,,,,,,,,,,,,,,,,,,,,,,,
null,,black_cross(without_color),554526,green,,,,,null,US_Cities_List/nat_peoria.png,US_Cities_List/nat_hanover.png,,,,,,,,,,,,,,,,,,,,,,,,,,,,,,
418.4,,rt_plussign_withcolor,555030,green,,,,,50,US_Cities_List/nat_peoria.png,US_Cities_List/nat_hanover.png,,,,,,,,,,,,,,,,,,,,,,,,,,,,,,
null,,rt_thecrossant_black,556217,black_plus_sign,,,,,null,,,1,0.966101695,,,,,,,,,,,,,,,,,,,,,,,,,,,,
null,,color_black,556320,black_plus_sign,,,,,null,,,,,,,,,,,,,,,,,,,,,,,,,,,,,,,,
null,,learn_phase(without_color),558859,black_plus_sign,,,,,null,US_Cities_List/mm_leesburg.png,US_Cities_List/mm_racine.png,,,,,,,,,,,,,,,,,,,,,,,,,,,,,,
null,,black_cross(without_color),559739,blue,,,,,null,US_Cities_List/mm_leesburg.png,US_Cities_List/mm_racine.png,,,,,,,,,,,,,,,,,,,,,,,,,,,,,,
423.4,,rt_plussign_withcolor,560244,blue,,,,,49,US_Cities_List/mm_leesburg.png,US_Cities_List/mm_racine.png,,,,,,,,,,,,,,,,,,,,,,,,,,,,,,
null,,rt_thecrossant_black,561382,black_plus_sign,,,,,null,,,1,0.966666667,,,,,,,,,,,,,,,,,,,,,,,,,,,,
null,,color_black,561495,black_plus_sign,,,,,null,,,,,,,,,,,,,,,,,,,,,,,,,,,,,,,,
null,,learn_phase(without_color),564023,black_plus_sign,,,,,null,US_Cities_List/mm_huntsville.png,US_Cities_List/nat_cornwall.png,,,,,,,,,,,,,,,,,,,,,,,,,,,,,,
null,,black_cross(without_color),564472,green,,,,,null,US_Cities_List/mm_huntsville.png,US_Cities_List/nat_cornwall.png,,,,,,,,,,,,,,,,,,,,,,,,,,,,,,
370.9,,rt_plussign_withcolor,564983,green,,,,,50,US_Cities_List/mm_huntsville.png,US_Cities_List/nat_cornwall.png,,,,,,,,,,,,,,,,,,,,,,,,,,,,,,
null,,rt_thecrossant_black,566545,black_plus_sign,,,,,null,,,1,0.967213115,,,,,,,,,,,,,,,,,,,,,,,,,,,,
null,,color_black,566656,black_plus_sign,,,,,null,,,,,,,,,,,,,,,,,,,,,,,,,,,,,,,,
null,,learn_phase(without_color),569185,black_plus_sign,,,,,null,US_Cities_List/mm_westpalmbeach.png,US_Cities_List/nat_carmel.png,,,,,,,,,,,,,,,,,,,,,,,,,,,,,,
null,,black_cross(without_color),569752,green,,,,,null,US_Cities_List/mm_westpalmbeach.png,US_Cities_List/nat_carmel.png,,,,,,,,,,,,,,,,,,,,,,,,,,,,,,
452.9,,rt_plussign_withcolor,570259,green,,,,,50,US_Cities_List/mm_westpalmbeach.png,US_Cities_List/nat_carmel.png,,,,,,,,,,,,,,,,,,,,,,,,,,,,,,
null,,rt_thecrossant_black,571705,black_plus_sign,,,,,null,,,1,0.967741935,,,,,,,,,,,,,,,,,,,,,,,,,,,,
null,,color_black,571808,black_plus_sign,,,,,null,,,,,,,,,,,,,,,,,,,,,,,,,,,,,,,,
null,,learn_phase(without_color),574352,black_plus_sign,,,,,null,US_Cities_List/nat_shreveport.png,US_Cities_List/nat_hotsprings.png,,,,,,,,,,,,,,,,,,,,,,,,,,,,,,
null,,black_cross(without_color),574987,blue,,,,,null,US_Cities_List/nat_shreveport.png,US_Cities_List/nat_hotsprings.png,,,,,,,,,,,,,,,,,,,,,,,,,,,,,,
461.7,,rt_plussign_withcolor,575493,blue,,,,,49,US_Cities_List/nat_shreveport.png,US_Cities_List/nat_hotsprings.png,,,,,,,,,,,,,,,,,,,,,,,,,,,,,,
null,,rt_thecrossant_black,576880,black_plus_sign,,,,,null,,,1,0.968253968,,,,,,,,,,,,,,,,,,,,,,,,,,,,
null,,color_black,576994,black_plus_sign,,,,,null,,,,,,,,,,,,,,,,,,,,,,,,,,,,,,,,
null,,learn_phase(without_color),579534,black_plus_sign,,,,,null,US_Cities_List/mm_gatlinburg.png,US_Cities_List/nat_boulder.png,,,,,,,,,,,,,,,,,,,,,,,,,,,,,,
null,,black_cross(without_color),580329,green,,,,,null,US_Cities_List/mm_gatlinburg.png,US_Cities_List/nat_boulder.png,,,,,,,,,,,,,,,,,,,,,,,,,,,,,,
416.1,,rt_plussign_withcolor,580838,green,,,,,50,US_Cities_List/mm_gatlinburg.png,US_Cities_List/nat_boulder.png,,,,,,,,,,,,,,,,,,,,,,,,,,,,,,
null,,rt_thecrossant_black,582064,black_plus_sign,,,,,null,,,1,0.96875,,,,,,,,,,,,,,,,,,,,,,,,,,,,
null,,color_black,582173,black_plus_sign,,,,,null,,,,,,,,,,,,,,,,,,,,,,,,,,,,,,,,
null,,learn_phase(without_color),584704,black_plus_sign,,,,,null,US_Cities_List/mm_leesburg.png,US_Cities_List/mm_westpalmbeach.png,,,,,,,,,,,,,,,,,,,,,,,,,,,,,,
null,,black_cross(without_color),585484,green,,,,,null,US_Cities_List/mm_leesburg.png,US_Cities_List/mm_westpalmbeach.png,,,,,,,,,,,,,,,,,,,,,,,,,,,,,,
431.1,,rt_plussign_withcolor,585992,green,,,,,50,US_Cities_List/mm_leesburg.png,US_Cities_List/mm_westpalmbeach.png,,,,,,,,,,,,,,,,,,,,,,,,,,,,,,
null,,rt_thecrossant_black,587232,black_plus_sign,,,,,null,,,1,0.969230769,,,,,,,,,,,,,,,,,,,,,,,,,,,,
null,,color_black,587345,black_plus_sign,,,,,null,,,,,,,,,,,,,,,,,,,,,,,,,,,,,,,,
null,,learn_phase(without_color),589871,black_plus_sign,,,,,null,US_Cities_List/mm_huntsville.png,US_Cities_List/nat_cornwall.png,,,,,,,,,,,,,,,,,,,,,,,,,,,,,,
null,,black_cross(without_color),590842,blue,,,,,null,US_Cities_List/mm_huntsville.png,US_Cities_List/nat_cornwall.png,,,,,,,,,,,,,,,,,,,,,,,,,,,,,,
391.3,,rt_plussign_withcolor,591347,blue,,,,,49,US_Cities_List/mm_huntsville.png,US_Cities_List/nat_cornwall.png,,,,,,,,,,,,,,,,,,,,,,,,,,,,,,
null,,rt_thecrossant_black,592386,black_plus_sign,,,,,null,,,1,0.96969697,,,,,,,,,,,,,,,,,,,,,,,,,,,,
null,,color_black,592490,black_plus_sign,,,,,null,,,,,,,,,,,,,,,,,,,,,,,,,,,,,,,,
null,,learn_phase(without_color),595015,black_plus_sign,,,,,null,US_Cities_List/nat_shreveport.png,US_Cities_List/mm_huntsville.png,,,,,,,,,,,,,,,,,,,,,,,,,,,,,,
null,,black_cross(without_color),595684,blue,,,,,null,US_Cities_List/nat_shreveport.png,US_Cities_List/mm_huntsville.png,,,,,,,,,,,,,,,,,,,,,,,,,,,,,,
481.5,,rt_plussign_withcolor,596191,blue,,,,,49,US_Cities_List/nat_shreveport.png,US_Cities_List/mm_huntsville.png,,,,,,,,,,,,,,,,,,,,,,,,,,,,,,
null,,rt_thecrossant_black,597540,black_plus_sign,,,,,null,,,1,0.970149254,,,,,,,,,,,,,,,,,,,,,,,,,,,,
null,,color_black,597649,black_plus_sign,,,,,null,,,,,,,,,,,,,,,,,,,,,,,,,,,,,,,,
null,,learn_phase(without_color),600202,black_plus_sign,,,,,null,US_Cities_List/mm_leesburg.png,US_Cities_List/mm_westpalmbeach.png,,,,,,,,,,,,,,,,,,,,,,,,,,,,,,
null,,black_cross(without_color),601176,blue,,,,,null,US_Cities_List/mm_leesburg.png,US_Cities_List/mm_westpalmbeach.png,,,,,,,,,,,,,,,,,,,,,,,,,,,,,,
363.4,,rt_plussign_withcolor,601680,blue,,,,,49,US_Cities_List/mm_leesburg.png,US_Cities_List/mm_westpalmbeach.png,,,,,,,,,,,,,,,,,,,,,,,,,,,,,,
null,,rt_thecrossant_black,602716,black_plus_sign,,,,,null,,,1,0.970588235,,,,,,,,,,,,,,,,,,,,,,,,,,,,
null,,color_black,602821,black_plus_sign,,,,,null,,,,,,,,,,,,,,,,,,,,,,,,,,,,,,,,
null,,learn_phase(without_color),605377,black_plus_sign,,,,,null,US_Cities_List/mm_huntsville.png,US_Cities_List/nat_cornwall.png,,,,,,,,,,,,,,,,,,,,,,,,,,,,,,
null,,black_cross(without_color),606326,blue,,,,,null,US_Cities_List/mm_huntsville.png,US_Cities_List/nat_cornwall.png,,,,,,,,,,,,,,,,,,,,,,,,,,,,,,
null,,rt_plussign_withcolor,606840,blue,,,,,null,US_Cities_List/mm_huntsville.png,US_Cities_List/nat_cornwall.png,,,,,,,,,,,,,,,,,,,,,,,,,,,,,,
1074.3,,rt_thecrossant_black,607908,black_plus_sign,,,,,49,,,1,0.971014493,,,,,,,,,,,,,,,,,,,,,,,,,,,,
null,,color_black,608013,black_plus_sign,,,,,null,,,,,,,,,,,,,,,,,,,,,,,,,,,,,,,,
null,,learn_phase(without_color),610578,black_plus_sign,,,,,null,US_Cities_List/nat_cornwall.png,US_Cities_List/mm_westpalmbeach.png,,,,,,,,,,,,,,,,,,,,,,,,,,,,,,
null,,black_cross(without_color),611499,green,,,,,null,US_Cities_List/nat_cornwall.png,US_Cities_List/mm_westpalmbeach.png,,,,,,,,,,,,,,,,,,,,,,,,,,,,,,
401.8,,rt_plussign_withcolor,612002,green,,,,,50,US_Cities_List/nat_cornwall.png,US_Cities_List/mm_westpalmbeach.png,,,,,,,,,,,,,,,,,,,,,,,,,,,,,,
null,,rt_thecrossant_black,613112,black_plus_sign,,,,,null,,,1,0.971428571,,,,,,,,,,,,,,,,,,,,,,,,,,,,
null,,color_black,613225,black_plus_sign,,,,,null,,,,,,,,,,,,,,,,,,,,,,,,,,,,,,,,
null,,learn_phase(without_color),615774,black_plus_sign,,,,,null,US_Cities_List/mm_westpalmbeach.png,US_Cities_List/nat_carmel.png,,,,,,,,,,,,,,,,,,,,,,,,,,,,,,
null,,black_cross(without_color),616527,blue,,,,,null,US_Cities_List/mm_westpalmbeach.png,US_Cities_List/nat_carmel.png,,,,,,,,,,,,,,,,,,,,,,,,,,,,,,
425.2,,rt_plussign_withcolor,617043,blue,,,,,49,US_Cities_List/mm_westpalmbeach.png,US_Cities_List/nat_carmel.png,,,,,,,,,,,,,,,,,,,,,,,,,,,,,,
null,,rt_thecrossant_black,618311,black_plus_sign,,,,,null,,,1,0.971830986,,,,,,,,,,,,,,,,,,,,,,,,,,,,
null,,color_black,618414,black_plus_sign,,,,,null,,,,,,,,,,,,,,,,,,,,,,,,,,,,,,,,
null,,learn_phase(without_color),620951,black_plus_sign,,,,,null,US_Cities_List/nat_boulder.png,US_Cities_List/nat_peoria.png,,,,,,,,,,,,,,,,,,,,,,,,,,,,,,
null,,black_cross(without_color),622033,blue,,,,,null,US_Cities_List/nat_boulder.png,US_Cities_List/nat_peoria.png,,,,,,,,,,,,,,,,,,,,,,,,,,,,,,
413.9,,rt_plussign_withcolor,622536,blue,,,,,49,US_Cities_List/nat_boulder.png,US_Cities_List/nat_peoria.png,,,,,,,,,,,,,,,,,,,,,,,,,,,,,,
null,,rt_thecrossant_black,623469,black_plus_sign,,,,,null,,,1,0.972222222,,,,,,,,,,,,,,,,,,,,,,,,,,,,
null,,color_black,623576,black_plus_sign,,,,,null,,,,,,,,,,,,,,,,,,,,,,,,,,,,,,,,
null,,learn_phase(without_color),626114,black_plus_sign,,,,,null,US_Cities_List/mm_leesburg.png,US_Cities_List/mm_racine.png,,,,,,,,,,,,,,,,,,,,,,,,,,,,,,
null,,black_cross(without_color),626946,blue,,,,,null,US_Cities_List/mm_leesburg.png,US_Cities_List/mm_racine.png,,,,,,,,,,,,,,,,,,,,,,,,,,,,,,
363.8,,rt_plussign_withcolor,627463,blue,,,,,49,US_Cities_List/mm_leesburg.png,US_Cities_List/mm_racine.png,,,,,,,,,,,,,,,,,,,,,,,,,,,,,,
null,,rt_thecrossant_black,628640,black_plus_sign,,,,,null,,,1,0.97260274,,,,,,,,,,,,,,,,,,,,,,,,,,,,
null,,color_black,628742,black_plus_sign,,,,,null,,,,,,,,,,,,,,,,,,,,,,,,,,,,,,,,
null,,learn_phase(without_color),631291,black_plus_sign,,,,,null,US_Cities_List/mm_racine.png,US_Cities_List/nat_shreveport.png,,,,,,,,,,,,,,,,,,,,,,,,,,,,,,
null,,black_cross(without_color),631867,green,,,,,null,US_Cities_List/mm_racine.png,US_Cities_List/nat_shreveport.png,,,,,,,,,,,,,,,,,,,,,,,,,,,,,,
null,,rt_plussign_withcolor,632374,green,,,,,null,US_Cities_List/mm_racine.png,US_Cities_List/nat_shreveport.png,,,,,,,,,,,,,,,,,,,,,,,,,,,,,,
1174.1,,rt_thecrossant_black,633815,black_plus_sign,,,,,50,,,1,0.972972973,,,,,,,,,,,,,,,,,,,,,,,,,,,,
null,,color_black,633932,black_plus_sign,,,,,null,,,,,,,,,,,,,,,,,,,,,,,,,,,,,,,,
null,,learn_phase(without_color),636486,black_plus_sign,,,,,null,US_Cities_List/mm_racine.png,US_Cities_List/nat_cornwall.png,,,,,,,,,,,,,,,,,,,,,,,,,,,,,,
null,,black_cross(without_color),636965,green,,,,,null,US_Cities_List/mm_racine.png,US_Cities_List/nat_cornwall.png,,,,,,,,,,,,,,,,,,,,,,,,,,,,,,
null,,rt_plussign_withcolor,637484,green,,,,,null,US_Cities_List/mm_racine.png,US_Cities_List/nat_cornwall.png,,,,,,,,,,,,,,,,,,,,,,,,,,,,,,
774.6,,rt_thecrossant_black,639026,black_plus_sign,,,,,50,,,1,0.973333333,,,,,,,,,,,,,,,,,,,,,,,,,,,,
null,,color_black,639129,black_plus_sign,,,,,null,,,,,,,,,,,,,,,,,,,,,,,,,,,,,,,,
null,,learn_phase(without_color),641675,black_plus_sign,,,,,null,US_Cities_List/mm_gatlinburg.png,US_Cities_List/nat_boulder.png,,,,,,,,,,,,,,,,,,,,,,,,,,,,,,
null,,black_cross(without_color),642281,blue,,,,,null,US_Cities_List/mm_gatlinburg.png,US_Cities_List/nat_boulder.png,,,,,,,,,,,,,,,,,,,,,,,,,,,,,,
null,,rt_plussign_withcolor,642795,blue,,,,,null,US_Cities_List/mm_gatlinburg.png,US_Cities_List/nat_boulder.png,,,,,,,,,,,,,,,,,,,,,,,,,,,,,,
591.4,,rt_thecrossant_black,644207,black_plus_sign,,,,,49,,,1,0.973684211,,,,,,,,,,,,,,,,,,,,,,,,,,,,
null,,color_black,644309,black_plus_sign,,,,,null,,,,,,,,,,,,,,,,,,,,,,,,,,,,,,,,
null,,learn_phase(without_color),646861,black_plus_sign,,,,,null,US_Cities_List/nat_boulder.png,US_Cities_List/mm_leesburg.png,,,,,,,,,,,,,,,,,,,,,,,,,,,,,,
null,,black_cross(without_color),647862,green,,,,,null,US_Cities_List/nat_boulder.png,US_Cities_List/mm_leesburg.png,,,,,,,,,,,,,,,,,,,,,,,,,,,,,,
435.4,,rt_plussign_withcolor,648364,green,,,,,50,US_Cities_List/nat_boulder.png,US_Cities_List/mm_leesburg.png,,,,,,,,,,,,,,,,,,,,,,,,,,,,,,
null,,rt_thecrossant_black,649378,black_plus_sign,,,,,null,,,1,0.974025974,,,,,,,,,,,,,,,,,,,,,,,,,,,,
null,,color_black,649482,black_plus_sign,,,,,null,,,,,,,,,,,,,,,,,,,,,,,,,,,,,,,,
null,,learn_phase(without_color),652031,black_plus_sign,,,,,null,US_Cities_List/nat_boulder.png,US_Cities_List/nat_peoria.png,,,,,,,,,,,,,,,,,,,,,,,,,,,,,,
null,,black_cross(without_color),652823,green,,,,,null,US_Cities_List/nat_boulder.png,US_Cities_List/nat_peoria.png,,,,,,,,,,,,,,,,,,,,,,,,,,,,,,
null,,rt_plussign_withcolor,653339,green,,,,,null,US_Cities_List/nat_boulder.png,US_Cities_List/nat_peoria.png,,,,,,,,,,,,,,,,,,,,,,,,,,,,,,
1124,,rt_thecrossant_black,654561,black_plus_sign,,,,,50,,,1,0.974358974,,,,,,,,,,,,,,,,,,,,,,,,,,,,
null,,color_black,654670,black_plus_sign,,,,,null,,,,,,,,,,,,,,,,,,,,,,,,,,,,,,,,
null,,learn_phase(without_color),657216,black_plus_sign,,,,,null,US_Cities_List/mm_gatlinburg.png,US_Cities_List/nat_boulder.png,,,,,,,,,,,,,,,,,,,,,,,,,,,,,,
null,,black_cross(without_color),657856,blue,,,,,null,US_Cities_List/mm_gatlinburg.png,US_Cities_List/nat_boulder.png,,,,,,,,,,,,,,,,,,,,,,,,,,,,,,
null,,rt_plussign_withcolor,658359,blue,,,,,null,US_Cities_List/mm_gatlinburg.png,US_Cities_List/nat_boulder.png,,,,,,,,,,,,,,,,,,,,,,,,,,,,,,
916.1999999,,rt_thecrossant_black,659740,black_plus_sign,,,,,49,,,1,0.974683544,,,,,,,,,,,,,,,,,,,,,,,,,,,,
null,,color_black,659853,black_plus_sign,,,,,null,,,,,,,,,,,,,,,,,,,,,,,,,,,,,,,,
null,,learn_phase(without_color),662399,black_plus_sign,,,,,null,US_Cities_List/nat_boulder.png,US_Cities_List/nat_peoria.png,,,,,,,,,,,,,,,,,,,,,,,,,,,,,,
null,,black_cross(without_color),663024,blue,,,,,null,US_Cities_List/nat_boulder.png,US_Cities_List/nat_peoria.png,,,,,,,,,,,,,,,,,,,,,,,,,,,,,,
454.8000001,,rt_plussign_withcolor,663532,blue,,,,,49,US_Cities_List/nat_boulder.png,US_Cities_List/nat_peoria.png,,,,,,,,,,,,,,,,,,,,,,,,,,,,,,
null,,rt_thecrossant_black,664916,black_plus_sign,,,,,null,,,1,0.975,,,,,,,,,,,,,,,,,,,,,,,,,,,,
null,,color_black,665021,black_plus_sign,,,,,null,,,,,,,,,,,,,,,,,,,,,,,,,,,,,,,,
null,,learn_phase(without_color),667548,black_plus_sign,,,,,null,US_Cities_List/mm_racine.png,US_Cities_List/nat_cornwall.png,,,,,,,,,,,,,,,,,,,,,,,,,,,,,,
null,,black_cross(without_color),668261,blue,,,,,null,US_Cities_List/mm_racine.png,US_Cities_List/nat_cornwall.png,,,,,,,,,,,,,,,,,,,,,,,,,,,,,,
null,,rt_plussign_withcolor,668763,blue,,,,,null,US_Cities_List/mm_racine.png,US_Cities_List/nat_cornwall.png,,,,,,,,,,,,,,,,,,,,,,,,,,,,,,
792.4,,rt_thecrossant_black,670074,black_plus_sign,,,,,49,,,1,0.975308642,,,,,,,,,,,,,,,,,,,,,,,,,,,,
null,,color_black,670185,black_plus_sign,,,,,null,,,,,,,,,,,,,,,,,,,,,,,,,,,,,,,,
null,,learn_phase(without_color),672733,black_plus_sign,,,,,null,US_Cities_List/mm_westpalmbeach.png,US_Cities_List/nat_carmel.png,,,,,,,,,,,,,,,,,,,,,,,,,,,,,,
null,,black_cross(without_color),673228,blue,,,,,null,US_Cities_List/mm_westpalmbeach.png,US_Cities_List/nat_carmel.png,,,,,,,,,,,,,,,,,,,,,,,,,,,,,,
null,,rt_plussign_withcolor,673746,blue,,,,,null,US_Cities_List/mm_westpalmbeach.png,US_Cities_List/nat_carmel.png,,,,,,,,,,,,,,,,,,,,,,,,,,,,,,
953.5,,rt_thecrossant_black,675267,black_plus_sign,,,,,49,,,1,0.975609756,,,,,,,,,,,,,,,,,,,,,,,,,,,,
null,,color_black,675385,black_plus_sign,,,,,null,,,,,,,,,,,,,,,,,,,,,,,,,,,,,,,,
null,,learn_phase(without_color),677926,black_plus_sign,,,,,null,US_Cities_List/mm_leesburg.png,US_Cities_List/mm_westpalmbeach.png,,,,,,,,,,,,,,,,,,,,,,,,,,,,,,
null,,black_cross(without_color),678986,green,,,,,null,US_Cities_List/mm_leesburg.png,US_Cities_List/mm_westpalmbeach.png,,,,,,,,,,,,,,,,,,,,,,,,,,,,,,
480.7,,rt_plussign_withcolor,679491,green,,,,,50,US_Cities_List/mm_leesburg.png,US_Cities_List/mm_westpalmbeach.png,,,,,,,,,,,,,,,,,,,,,,,,,,,,,,
null,,rt_thecrossant_black,680453,black_plus_sign,,,,,null,,,1,0.975903614,,,,,,,,,,,,,,,,,,,,,,,,,,,,
null,,color_black,680571,black_plus_sign,,,,,null,,,,,,,,,,,,,,,,,,,,,,,,,,,,,,,,
null,,learn_phase(without_color),683114,black_plus_sign,,,,,null,US_Cities_List/nat_shreveport.png,US_Cities_List/nat_hotsprings.png,,,,,,,,,,,,,,,,,,,,,,,,,,,,,,
null,,black_cross(without_color),683865,green,,,,,null,US_Cities_List/nat_shreveport.png,US_Cities_List/nat_hotsprings.png,,,,,,,,,,,,,,,,,,,,,,,,,,,,,,
402.8,,rt_plussign_withcolor,684378,green,,,,,50,US_Cities_List/nat_shreveport.png,US_Cities_List/nat_hotsprings.png,,,,,,,,,,,,,,,,,,,,,,,,,,,,,,
null,,rt_thecrossant_black,685650,black_plus_sign,,,,,null,,,1,0.976190476,,,,,,,,,,,,,,,,,,,,,,,,,,,,
null,,color_black,685770,black_plus_sign,,,,,null,,,,,,,,,,,,,,,,,,,,,,,,,,,,,,,,
null,,learn_phase(without_color),688323,black_plus_sign,,,,,null,US_Cities_List/mm_westpalmbeach.png,US_Cities_List/nat_carmel.png,,,,,,,,,,,,,,,,,,,,,,,,,,,,,,
null,,black_cross(without_color),688816,green,,,,,null,US_Cities_List/mm_westpalmbeach.png,US_Cities_List/nat_carmel.png,,,,,,,,,,,,,,,,,,,,,,,,,,,,,,
null,,rt_plussign_withcolor,689324,green,,,,,null,US_Cities_List/mm_westpalmbeach.png,US_Cities_List/nat_carmel.png,,,,,,,,,,,,,,,,,,,,,,,,,,,,,,
943.4,,rt_thecrossant_black,690842,black_plus_sign,,,,,50,,,1,0.976470588,,,,,,,,,,,,,,,,,,,,,,,,,,,,
null,,color_black,690944,black_plus_sign,,,,,null,,,,,,,,,,,,,,,,,,,,,,,,,,,,,,,,
null,,learn_phase(without_color),693491,black_plus_sign,,,,,null,US_Cities_List/mm_gatlinburg.png,US_Cities_List/nat_boulder.png,,,,,,,,,,,,,,,,,,,,,,,,,,,,,,
null,,black_cross(without_color),693984,blue,,,,,null,US_Cities_List/mm_gatlinburg.png,US_Cities_List/nat_boulder.png,,,,,,,,,,,,,,,,,,,,,,,,,,,,,,
null,,rt_plussign_withcolor,694487,blue,,,,,null,US_Cities_List/mm_gatlinburg.png,US_Cities_List/nat_boulder.png,,,,,,,,,,,,,,,,,,,,,,,,,,,,,,
661.6,,rt_thecrossant_black,696013,black_plus_sign,,,,,49,,,1,0.976744186,,,,,,,,,,,,,,,,,,,,,,,,,,,,
null,,color_black,696115,black_plus_sign,,,,,null,,,,,,,,,,,,,,,,,,,,,,,,,,,,,,,,
null,,learn_phase(without_color),698672,black_plus_sign,,,,,null,US_Cities_List/nat_cornwall.png,US_Cities_List/mm_westpalmbeach.png,,,,,,,,,,,,,,,,,,,,,,,,,,,,,,
null,,black_cross(without_color),699680,green,,,,,null,US_Cities_List/nat_cornwall.png,US_Cities_List/mm_westpalmbeach.png,,,,,,,,,,,,,,,,,,,,,,,,,,,,,,
null,,rt_plussign_withcolor,700182,green,,,,,null,US_Cities_List/nat_cornwall.png,US_Cities_List/mm_westpalmbeach.png,,,,,,,,,,,,,,,,,,,,,,,,,,,,,,
605.5,,rt_thecrossant_black,701192,black_plus_sign,,,,,50,,,1,0.977011494,,,,,,,,,,,,,,,,,,,,,,,,,,,,
null,,color_black,701304,black_plus_sign,,,,,null,,,,,,,,,,,,,,,,,,,,,,,,,,,,,,,,
null,,learn_phase(without_color),703837,black_plus_sign,,,,,null,US_Cities_List/nat_shreveport.png,US_Cities_List/nat_hotsprings.png,,,,,,,,,,,,,,,,,,,,,,,,,,,,,,
null,,black_cross(without_color),704742,blue,,,,,null,US_Cities_List/nat_shreveport.png,US_Cities_List/nat_hotsprings.png,,,,,,,,,,,,,,,,,,,,,,,,,,,,,,
null,,rt_plussign_withcolor,705245,blue,,,,,null,US_Cities_List/nat_shreveport.png,US_Cities_List/nat_hotsprings.png,,,,,,,,,,,,,,,,,,,,,,,,,,,,,,
1127.2,,rt_thecrossant_black,706359,black_plus_sign,,,,,49,,,1,0.977272727,,,,,,,,,,,,,,,,,,,,,,,,,,,,
null,,color_black,706462,black_plus_sign,,,,,null,,,,,,,,,,,,,,,,,,,,,,,,,,,,,,,,
null,,learn_phase(without_color),708999,black_plus_sign,,,,,null,US_Cities_List/nat_shreveport.png,US_Cities_List/nat_cornwall.png,,,,,,,,,,,,,,,,,,,,,,,,,,,,,,
null,,black_cross(without_color),709974,green,,,,,null,US_Cities_List/nat_shreveport.png,US_Cities_List/nat_cornwall.png,,,,,,,,,,,,,,,,,,,,,,,,,,,,,,
416.4,,rt_plussign_withcolor,710480,green,,,,,50,US_Cities_List/nat_shreveport.png,US_Cities_List/nat_cornwall.png,,,,,,,,,,,,,,,,,,,,,,,,,,,,,,
null,,rt_thecrossant_black,711526,black_plus_sign,,,,,null,,,1,0.97752809,,,,,,,,,,,,,,,,,,,,,,,,,,,,
null,,color_black,711629,black_plus_sign,,,,,null,,,,,,,,,,,,,,,,,,,,,,,,,,,,,,,,
null,,learn_phase(without_color),714155,black_plus_sign,,,,,null,US_Cities_List/mm_leesburg.png,US_Cities_List/mm_westpalmbeach.png,,,,,,,,,,,,,,,,,,,,,,,,,,,,,,
null,,black_cross(without_color),714923,blue,,,,,null,US_Cities_List/mm_leesburg.png,US_Cities_List/mm_westpalmbeach.png,,,,,,,,,,,,,,,,,,,,,,,,,,,,,,
492.9,,rt_plussign_withcolor,715428,blue,,,,,49,US_Cities_List/mm_leesburg.png,US_Cities_List/mm_westpalmbeach.png,,,,,,,,,,,,,,,,,,,,,,,,,,,,,,
null,,rt_thecrossant_black,716670,black_plus_sign,,,,,null,,,1,0.977777778,,,,,,,,,,,,,,,,,,,,,,,,,,,,
null,,color_black,716782,black_plus_sign,,,,,null,,,,,,,,,,,,,,,,,,,,,,,,,,,,,,,,
null,,learn_phase(without_color),719331,black_plus_sign,,,,,null,US_Cities_List/nat_shreveport.png,US_Cities_List/mm_huntsville.png,,,,,,,,,,,,,,,,,,,,,,,,,,,,,,
null,,black_cross(without_color),719897,blue,,,,,null,US_Cities_List/nat_shreveport.png,US_Cities_List/mm_huntsville.png,,,,,,,,,,,,,,,,,,,,,,,,,,,,,,
null,,rt_plussign_withcolor,720406,blue,,,,,null,US_Cities_List/nat_shreveport.png,US_Cities_List/mm_huntsville.png,,,,,,,,,,,,,,,,,,,,,,,,,,,,,,
893,,rt_thecrossant_black,721865,black_plus_sign,,,,,49,,,1,0.978021978,,,,,,,,,,,,,,,,,,,,,,,,,,,,
null,,color_black,721968,black_plus_sign,,,,,null,,,,,,,,,,,,,,,,,,,,,,,,,,,,,,,,
null,,learn_phase(without_color),724510,black_plus_sign,,,,,null,US_Cities_List/mm_huntsville.png,US_Cities_List/nat_cornwall.png,,,,,,,,,,,,,,,,,,,,,,,,,,,,,,
null,,black_cross(without_color),724923,blue,,,,,null,US_Cities_List/mm_huntsville.png,US_Cities_List/nat_cornwall.png,,,,,,,,,,,,,,,,,,,,,,,,,,,,,,
null,,rt_plussign_withcolor,725425,blue,,,,,null,US_Cities_List/mm_huntsville.png,US_Cities_List/nat_cornwall.png,,,,,,,,,,,,,,,,,,,,,,,,,,,,,,
652.1999999,,rt_thecrossant_black,727025,black_plus_sign,,,,,49,,,1,0.97826087,,,,,,,,,,,,,,,,,,,,,,,,,,,,
null,,color_black,727131,black_plus_sign,,,,,null,,,,,,,,,,,,,,,,,,,,,,,,,,,,,,,,
null,,learn_phase(without_color),729687,black_plus_sign,,,,,null,US_Cities_List/mm_westpalmbeach.png,US_Cities_List/nat_carmel.png,,,,,,,,,,,,,,,,,,,,,,,,,,,,,,
null,,black_cross(without_color),730697,green,,,,,null,US_Cities_List/mm_westpalmbeach.png,US_Cities_List/nat_carmel.png,,,,,,,,,,,,,,,,,,,,,,,,,,,,,,
null,,rt_plussign_withcolor,731199,green,,,,,null,US_Cities_List/mm_westpalmbeach.png,US_Cities_List/nat_carmel.png,,,,,,,,,,,,,,,,,,,,,,,,,,,,,,
505,,rt_thecrossant_black,732201,black_plus_sign,,,,,50,,,1,0.978494624,,,,,,,,,,,,,,,,,,,,,,,,,,,,
null,,color_black,732317,black_plus_sign,,,,,null,,,,,,,,,,,,,,,,,,,,,,,,,,,,,,,,
null,,learn_phase(without_color),734852,black_plus_sign,,,,,null,US_Cities_List/nat_cornwall.png,US_Cities_List/mm_westpalmbeach.png,,,,,,,,,,,,,,,,,,,,,,,,,,,,,,
null,,black_cross(without_color),735410,green,,,,,null,US_Cities_List/nat_cornwall.png,US_Cities_List/mm_westpalmbeach.png,,,,,,,,,,,,,,,,,,,,,,,,,,,,,,
null,,rt_plussign_withcolor,735911,green,,,,,null,US_Cities_List/nat_cornwall.png,US_Cities_List/mm_westpalmbeach.png,,,,,,,,,,,,,,,,,,,,,,,,,,,,,,
1166.9,,rt_thecrossant_black,737368,black_plus_sign,,,,,50,,,1,0.978723404,,,,,,,,,,,,,,,,,,,,,,,,,,,,
null,,color_black,737474,black_plus_sign,,,,,null,,,,,,,,,,,,,,,,,,,,,,,,,,,,,,,,
null,,learn_phase(without_color),740013,black_plus_sign,,,,,null,US_Cities_List/mm_gatlinburg.png,US_Cities_List/nat_boulder.png,,,,,,,,,,,,,,,,,,,,,,,,,,,,,,
null,,black_cross(without_color),740511,green,,,,,null,US_Cities_List/mm_gatlinburg.png,US_Cities_List/nat_boulder.png,,,,,,,,,,,,,,,,,,,,,,,,,,,,,,
null,,rt_plussign_withcolor,741031,green,,,,,null,US_Cities_List/mm_gatlinburg.png,US_Cities_List/nat_boulder.png,,,,,,,,,,,,,,,,,,,,,,,,,,,,,,
739,,rt_thecrossant_black,742548,black_plus_sign,,,,,50,,,1,0.978947368,,,,,,,,,,,,,,,,,,,,,,,,,,,,
null,,color_black,742661,black_plus_sign,,,,,null,,,,,,,,,,,,,,,,,,,,,,,,,,,,,,,,
null,,learn_phase(without_color),745212,black_plus_sign,,,,,null,US_Cities_List/nat_shreveport.png,US_Cities_List/nat_cornwall.png,,,,,,,,,,,,,,,,,,,,,,,,,,,,,,
null,,black_cross(without_color),745729,green,,,,,null,US_Cities_List/nat_shreveport.png,US_Cities_List/nat_cornwall.png,,,,,,,,,,,,,,,,,,,,,,,,,,,,,,
381.4000001,,rt_plussign_withcolor,746239,green,,,,,50,US_Cities_List/nat_shreveport.png,US_Cities_List/nat_cornwall.png,,,,,,,,,,,,,,,,,,,,,,,,,,,,,,
null,,rt_thecrossant_black,747750,black_plus_sign,,,,,null,,,1,0.979166667,,,,,,,,,,,,,,,,,,,,,,,,,,,,
null,,color_black,747852,black_plus_sign,,,,,null,,,,,,,,,,,,,,,,,,,,,,,,,,,,,,,,
null,,learn_phase(without_color),750382,black_plus_sign,,,,,null,US_Cities_List/mm_racine.png,US_Cities_List/nat_cornwall.png,,,,,,,,,,,,,,,,,,,,,,,,,,,,,,
null,,black_cross(without_color),751482,blue,,,,,null,US_Cities_List/mm_racine.png,US_Cities_List/nat_cornwall.png,,,,,,,,,,,,,,,,,,,,,,,,,,,,,,
431.6,,rt_plussign_withcolor,751996,blue,,,,,49,US_Cities_List/mm_racine.png,US_Cities_List/nat_cornwall.png,,,,,,,,,,,,,,,,,,,,,,,,,,,,,,
null,,rt_thecrossant_black,752905,black_plus_sign,,,,,null,,,1,0.979381443,,,,,,,,,,,,,,,,,,,,,,,,,,,,
null,,color_black,753008,black_plus_sign,,,,,null,,,,,,,,,,,,,,,,,,,,,,,,,,,,,,,,
null,,learn_phase(without_color),755537,black_plus_sign,,,,,null,US_Cities_List/nat_peoria.png,US_Cities_List/nat_carmel.png,,,,,,,,,,,,,,,,,,,,,,,,,,,,,,
null,,black_cross(without_color),756527,blue,,,,,null,US_Cities_List/nat_peoria.png,US_Cities_List/nat_carmel.png,,,,,,,,,,,,,,,,,,,,,,,,,,,,,,
456.5,,rt_plussign_withcolor,757030,blue,,,,,49,US_Cities_List/nat_peoria.png,US_Cities_List/nat_carmel.png,,,,,,,,,,,,,,,,,,,,,,,,,,,,,,
null,,rt_thecrossant_black,758058,black_plus_sign,,,,,null,,,1,0.979591837,,,,,,,,,,,,,,,,,,,,,,,,,,,,
null,,color_black,758161,black_plus_sign,,,,,null,,,,,,,,,,,,,,,,,,,,,,,,,,,,,,,,
null,,learn_phase(without_color),760701,black_plus_sign,,,,,null,US_Cities_List/mm_huntsville.png,US_Cities_List/nat_cornwall.png,,,,,,,,,,,,,,,,,,,,,,,,,,,,,,
null,,black_cross(without_color),761176,blue,,,,,null,US_Cities_List/mm_huntsville.png,US_Cities_List/nat_cornwall.png,,,,,,,,,,,,,,,,,,,,,,,,,,,,,,
null,,rt_plussign_withcolor,761681,blue,,,,,null,US_Cities_List/mm_huntsville.png,US_Cities_List/nat_cornwall.png,,,,,,,,,,,,,,,,,,,,,,,,,,,,,,
1118.6,,rt_thecrossant_black,763226,black_plus_sign,,,,,49,,,1,0.97979798,,,,,,,,,,,,,,,,,,,,,,,,,,,,
null,,color_black,763329,black_plus_sign,,,,,null,,,,,,,,,,,,,,,,,,,,,,,,,,,,,,,,
null,,learn_phase(without_color),765881,black_plus_sign,,,,,null,US_Cities_List/nat_boulder.png,US_Cities_List/nat_peoria.png,,,,,,,,,,,,,,,,,,,,,,,,,,,,,,
null,,black_cross(without_color),766584,blue,,,,,null,US_Cities_List/nat_boulder.png,US_Cities_List/nat_peoria.png,,,,,,,,,,,,,,,,,,,,,,,,,,,,,,
498.3000001,,rt_plussign_withcolor,767086,blue,,,,,49,US_Cities_List/nat_boulder.png,US_Cities_List/nat_peoria.png,,,,,,,,,,,,,,,,,,,,,,,,,,,,,,
null,,rt_thecrossant_black,768405,black_plus_sign,,,,,null,,,1,0.98,,,,,,,,,,,,,,,,,,,,,,,,,,,,
null,,color_black,768517,black_plus_sign,,,,,null,,,,,,,,,,,,,,,,,,,,,,,,,,,,,,,,
null,,learn_phase(without_color),771056,black_plus_sign,,,,,null,US_Cities_List/nat_shreveport.png,US_Cities_List/mm_huntsville.png,,,,,,,,,,,,,,,,,,,,,,,,,,,,,,
null,,black_cross(without_color),771994,blue,,,,,null,US_Cities_List/nat_shreveport.png,US_Cities_List/mm_huntsville.png,,,,,,,,,,,,,,,,,,,,,,,,,,,,,,
478.5,,rt_plussign_withcolor,772500,blue,,,,,49,US_Cities_List/nat_shreveport.png,US_Cities_List/mm_huntsville.png,,,,,,,,,,,,,,,,,,,,,,,,,,,,,,
null,,rt_thecrossant_black,773578,black_plus_sign,,,,,null,,,1,0.98019802,,,,,,,,,,,,,,,,,,,,,,,,,,,,
null,,color_black,773681,black_plus_sign,,,,,null,,,,,,,,,,,,,,,,,,,,,,,,,,,,,,,,
null,,learn_phase(without_color),776231,black_plus_sign,,,,,null,US_Cities_List/nat_peoria.png,US_Cities_List/nat_carmel.png,,,,,,,,,,,,,,,,,,,,,,,,,,,,,,
null,,black_cross(without_color),776671,blue,,,,,null,US_Cities_List/nat_peoria.png,US_Cities_List/nat_carmel.png,,,,,,,,,,,,,,,,,,,,,,,,,,,,,,
null,,rt_plussign_withcolor,777177,blue,,,,,null,US_Cities_List/nat_peoria.png,US_Cities_List/nat_carmel.png,,,,,,,,,,,,,,,,,,,,,,,,,,,,,,
1117,,rt_thecrossant_black,778750,black_plus_sign,,,,,49,,,1,0.980392157,,,,,,,,,,,,,,,,,,,,,,,,,,,,
null,,color_black,778854,black_plus_sign,,,,,null,,,,,,,,,,,,,,,,,,,,,,,,,,,,,,,,
null,,learn_phase(without_color),781400,black_plus_sign,,,,,null,US_Cities_List/mm_racine.png,US_Cities_List/nat_cornwall.png,,,,,,,,,,,,,,,,,,,,,,,,,,,,,,
null,,black_cross(without_color),782254,blue,,,,,null,US_Cities_List/mm_racine.png,US_Cities_List/nat_cornwall.png,,,,,,,,,,,,,,,,,,,,,,,,,,,,,,
457.9,,rt_plussign_withcolor,782771,blue,,,,,49,US_Cities_List/mm_racine.png,US_Cities_List/nat_cornwall.png,,,,,,,,,,,,,,,,,,,,,,,,,,,,,,
null,,rt_thecrossant_black,783938,black_plus_sign,,,,,null,,,1,0.980582524,,,,,,,,,,,,,,,,,,,,,,,,,,,,
null,,color_black,784042,black_plus_sign,,,,,null,,,,,,,,,,,,,,,,,,,,,,,,,,,,,,,,
null,,learn_phase(without_color),786561,black_plus_sign,,,,,null,US_Cities_List/nat_shreveport.png,US_Cities_List/nat_hotsprings.png,,,,,,,,,,,,,,,,,,,,,,,,,,,,,,
null,,black_cross(without_color),786999,blue,,,,,null,US_Cities_List/nat_shreveport.png,US_Cities_List/nat_hotsprings.png,,,,,,,,,,,,,,,,,,,,,,,,,,,,,,
395.3000001,,rt_plussign_withcolor,787505,blue,,,,,49,US_Cities_List/nat_shreveport.png,US_Cities_List/nat_hotsprings.png,,,,,,,,,,,,,,,,,,,,,,,,,,,,,,
null,,rt_thecrossant_black,789074,black_plus_sign,,,,,null,,,1,0.980769231,,,,,,,,,,,,,,,,,,,,,,,,,,,,
null,,color_black,789176,black_plus_sign,,,,,null,,,,,,,,,,,,,,,,,,,,,,,,,,,,,,,,
null,,learn_phase(without_color),791724,black_plus_sign,,,,,null,US_Cities_List/nat_peoria.png,US_Cities_List/nat_carmel.png,,,,,,,,,,,,,,,,,,,,,,,,,,,,,,
null,,black_cross(without_color),792625,blue,,,,,null,US_Cities_List/nat_peoria.png,US_Cities_List/nat_carmel.png,,,,,,,,,,,,,,,,,,,,,,,,,,,,,,
404.7,,rt_plussign_withcolor,793127,blue,,,,,49,US_Cities_List/nat_peoria.png,US_Cities_List/nat_carmel.png,,,,,,,,,,,,,,,,,,,,,,,,,,,,,,
null,,rt_thecrossant_black,794250,black_plus_sign,,,,,null,,,1,0.980952381,,,,,,,,,,,,,,,,,,,,,,,,,,,,
null,,color_black,794359,black_plus_sign,,,,,null,,,,,,,,,,,,,,,,,,,,,,,,,,,,,,,,
null,,learn_phase(without_color),796883,black_plus_sign,,,,,null,US_Cities_List/mm_gatlinburg.png,US_Cities_List/nat_boulder.png,,,,,,,,,,,,,,,,,,,,,,,,,,,,,,
null,,black_cross(without_color),797615,green,,,,,null,US_Cities_List/mm_gatlinburg.png,US_Cities_List/nat_boulder.png,,,,,,,,,,,,,,,,,,,,,,,,,,,,,,
472.8000001,,rt_plussign_withcolor,798117,green,,,,,50,US_Cities_List/mm_gatlinburg.png,US_Cities_List/nat_boulder.png,,,,,,,,,,,,,,,,,,,,,,,,,,,,,,
null,,rt_thecrossant_black,799406,black_plus_sign,,,,,null,,,1,0.981132075,,,,,,,,,,,,,,,,,,,,,,,,,,,,
null,,color_black,799513,black_plus_sign,,,,,null,,,,,,,,,,,,,,,,,,,,,,,,,,,,,,,,
null,,learn_phase(without_color),802054,black_plus_sign,,,,,null,US_Cities_List/nat_shreveport.png,US_Cities_List/mm_huntsville.png,,,,,,,,,,,,,,,,,,,,,,,,,,,,,,
null,,black_cross(without_color),802813,blue,,,,,null,US_Cities_List/nat_shreveport.png,US_Cities_List/mm_huntsville.png,,,,,,,,,,,,,,,,,,,,,,,,,,,,,,
497.7,,rt_plussign_withcolor,803315,blue,,,,,50,US_Cities_List/nat_shreveport.png,US_Cities_List/mm_huntsville.png,,,,,,,,,,,,,,,,,,,,,,,,,,,,,,
null,,rt_thecrossant_black,804586,black_plus_sign,,,,,null,,,0,0.971962617,,,,,,,,,,,,,,,,,,,,,,,,,,,,
null,,color_black,804690,black_plus_sign,,,,,null,,,,,,,,,,,,,,,,,,,,,,,,,,,,,,,,
null,,learn_phase(without_color),807220,black_plus_sign,,,,,null,US_Cities_List/nat_peoria.png,US_Cities_List/nat_hanover.png,,,,,,,,,,,,,,,,,,,,,,,,,,,,,,
null,,black_cross(without_color),807859,green,,,,,null,US_Cities_List/nat_peoria.png,US_Cities_List/nat_hanover.png,,,,,,,,,,,,,,,,,,,,,,,,,,,,,,
467.8,,rt_plussign_withcolor,808369,green,,,,,50,US_Cities_List/nat_peoria.png,US_Cities_List/nat_hanover.png,,,,,,,,,,,,,,,,,,,,,,,,,,,,,,
null,,rt_thecrossant_black,809745,black_plus_sign,,,,,null,,,1,0.972222222,,,,,,,,,,,,,,,,,,,,,,,,,,,,
null,,color_black,809856,black_plus_sign,,,,,null,,,,,,,,,,,,,,,,,,,,,,,,,,,,,,,,
null,,learn_phase(without_color),812393,black_plus_sign,,,,,null,US_Cities_List/mm_racine.png,US_Cities_List/nat_shreveport.png,,,,,,,,,,,,,,,,,,,,,,,,,,,,,,
null,,black_cross(without_color),812955,blue,,,,,null,US_Cities_List/mm_racine.png,US_Cities_List/nat_shreveport.png,,,,,,,,,,,,,,,,,,,,,,,,,,,,,,
406.3,,rt_plussign_withcolor,813456,blue,,,,,49,US_Cities_List/mm_racine.png,US_Cities_List/nat_shreveport.png,,,,,,,,,,,,,,,,,,,,,,,,,,,,,,
null,,rt_thecrossant_black,814921,black_plus_sign,,,,,null,,,1,0.972477064,,,,,,,,,,,,,,,,,,,,,,,,,,,,
null,,color_black,815029,black_plus_sign,,,,,null,,,,,,,,,,,,,,,,,,,,,,,,,,,,,,,,
null,,learn_phase(without_color),817553,black_plus_sign,,,,,null,US_Cities_List/nat_peoria.png,US_Cities_List/nat_hanover.png,,,,,,,,,,,,,,,,,,,,,,,,,,,,,,
null,,black_cross(without_color),818218,blue,,,,,null,US_Cities_List/nat_peoria.png,US_Cities_List/nat_hanover.png,,,,,,,,,,,,,,,,,,,,,,,,,,,,,,
452.8,,rt_plussign_withcolor,818723,blue,,,,,49,US_Cities_List/nat_peoria.png,US_Cities_List/nat_hanover.png,,,,,,,,,,,,,,,,,,,,,,,,,,,,,,
null,,rt_thecrossant_black,820067,black_plus_sign,,,,,null,,,1,0.972727273,,,,,,,,,,,,,,,,,,,,,,,,,,,,
null,,color_black,820170,black_plus_sign,,,,,null,,,,,,,,,,,,,,,,,,,,,,,,,,,,,,,,
null,,learn_phase(without_color),822712,black_plus_sign,,,,,null,US_Cities_List/nat_boulder.png,US_Cities_List/nat_peoria.png,,,,,,,,,,,,,,,,,,,,,,,,,,,,,,
null,,black_cross(without_color),823609,green,,,,,null,US_Cities_List/nat_boulder.png,US_Cities_List/nat_peoria.png,,,,,,,,,,,,,,,,,,,,,,,,,,,,,,
null,,rt_plussign_withcolor,824124,green,,,,,null,US_Cities_List/nat_boulder.png,US_Cities_List/nat_peoria.png,,,,,,,,,,,,,,,,,,,,,,,,,,,,,,
1109.8,,rt_thecrossant_black,825246,black_plus_sign,,,,,50,,,1,0.972972973,,,,,,,,,,,,,,,,,,,,,,,,,,,,
null,,color_black,825363,black_plus_sign,,,,,null,,,,,,,,,,,,,,,,,,,,,,,,,,,,,,,,
null,,learn_phase(without_color),827914,black_plus_sign,,,,,null,US_Cities_List/nat_peoria.png,US_Cities_List/nat_carmel.png,,,,,,,,,,,,,,,,,,,,,,,,,,,,,,
null,,black_cross(without_color),828817,green,,,,,null,US_Cities_List/nat_peoria.png,US_Cities_List/nat_carmel.png,,,,,,,,,,,,,,,,,,,,,,,,,,,,,,
null,,rt_plussign_withcolor,829319,green,,,,,null,US_Cities_List/nat_peoria.png,US_Cities_List/nat_carmel.png,,,,,,,,,,,,,,,,,,,,,,,,,,,,,,
998.4,,rt_thecrossant_black,830429,black_plus_sign,,,,,50,,,1,0.973214286,,,,,,,,,,,,,,,,,,,,,,,,,,,,
null,,color_black,830538,black_plus_sign,,,,,null,,,,,,,,,,,,,,,,,,,,,,,,,,,,,,,,
null,,learn_phase(without_color),833075,black_plus_sign,,,,,null,US_Cities_List/nat_shreveport.png,US_Cities_List/nat_hotsprings.png,,,,,,,,,,,,,,,,,,,,,,,,,,,,,,
null,,black_cross(without_color),833546,blue,,,,,null,US_Cities_List/nat_shreveport.png,US_Cities_List/nat_hotsprings.png,,,,,,,,,,,,,,,,,,,,,,,,,,,,,,
489.1,,rt_plussign_withcolor,834055,blue,,,,,49,US_Cities_List/nat_shreveport.png,US_Cities_List/nat_hotsprings.png,,,,,,,,,,,,,,,,,,,,,,,,,,,,,,
null,,rt_thecrossant_black,835602,black_plus_sign,,,,,null,,,1,0.973451327,,,,,,,,,,,,,,,,,,,,,,,,,,,,
null,,color_black,835708,black_plus_sign,,,,,null,,,,,,,,,,,,,,,,,,,,,,,,,,,,,,,,
null,,learn_phase(without_color),838230,black_plus_sign,,,,,null,US_Cities_List/mm_huntsville.png,US_Cities_List/nat_newhope.png,,,,,,,,,,,,,,,,,,,,,,,,,,,,,,
null,,black_cross(without_color),839155,blue,,,,,null,US_Cities_List/mm_huntsville.png,US_Cities_List/nat_newhope.png,,,,,,,,,,,,,,,,,,,,,,,,,,,,,,
null,,rt_plussign_withcolor,839665,blue,,,,,null,US_Cities_List/mm_huntsville.png,US_Cities_List/nat_newhope.png,,,,,,,,,,,,,,,,,,,,,,,,,,,,,,
660.1999999,,rt_thecrossant_black,840758,black_plus_sign,,,,,49,,,1,0.973684211,,,,,,,,,,,,,,,,,,,,,,,,,,,,
null,,color_black,840861,black_plus_sign,,,,,null,,,,,,,,,,,,,,,,,,,,,,,,,,,,,,,,
null,,learn_phase(without_color),843403,black_plus_sign,,,,,null,US_Cities_List/mm_racine.png,US_Cities_List/nat_shreveport.png,,,,,,,,,,,,,,,,,,,,,,,,,,,,,,
null,,black_cross(without_color),844321,green,,,,,null,US_Cities_List/mm_racine.png,US_Cities_List/nat_shreveport.png,,,,,,,,,,,,,,,,,,,,,,,,,,,,,,
379.2,,rt_plussign_withcolor,844824,green,,,,,50,US_Cities_List/mm_racine.png,US_Cities_List/nat_shreveport.png,,,,,,,,,,,,,,,,,,,,,,,,,,,,,,
null,,rt_thecrossant_black,845916,black_plus_sign,,,,,null,,,1,0.973913043,,,,,,,,,,,,,,,,,,,,,,,,,,,,
null,,color_black,846018,black_plus_sign,,,,,null,,,,,,,,,,,,,,,,,,,,,,,,,,,,,,,,
null,,learn_phase(without_color),848567,black_plus_sign,,,,,null,US_Cities_List/mm_gatlinburg.png,US_Cities_List/nat_boulder.png,,,,,,,,,,,,,,,,,,,,,,,,,,,,,,
null,,black_cross(without_color),849274,blue,,,,,null,US_Cities_List/mm_gatlinburg.png,US_Cities_List/nat_boulder.png,,,,,,,,,,,,,,,,,,,,,,,,,,,,,,
null,,rt_plussign_withcolor,849782,blue,,,,,null,US_Cities_List/mm_gatlinburg.png,US_Cities_List/nat_boulder.png,,,,,,,,,,,,,,,,,,,,,,,,,,,,,,
1020.5,,rt_thecrossant_black,851092,black_plus_sign,,,,,49,,,1,0.974137931,,,,,,,,,,,,,,,,,,,,,,,,,,,,
null,,color_black,851206,black_plus_sign,,,,,null,,,,,,,,,,,,,,,,,,,,,,,,,,,,,,,,
null,,learn_phase(without_color),853748,black_plus_sign,,,,,null,US_Cities_List/nat_cornwall.png,US_Cities_List/mm_westpalmbeach.png,,,,,,,,,,,,,,,,,,,,,,,,,,,,,,
null,,black_cross(without_color),854471,blue,,,,,null,US_Cities_List/nat_cornwall.png,US_Cities_List/mm_westpalmbeach.png,,,,,,,,,,,,,,,,,,,,,,,,,,,,,,
406.7,,rt_plussign_withcolor,854973,blue,,,,,49,US_Cities_List/nat_cornwall.png,US_Cities_List/mm_westpalmbeach.png,,,,,,,,,,,,,,,,,,,,,,,,,,,,,,
null,,rt_thecrossant_black,856281,black_plus_sign,,,,,null,,,1,0.974358974,,,,,,,,,,,,,,,,,,,,,,,,,,,,
null,,color_black,856389,black_plus_sign,,,,,null,,,,,,,,,,,,,,,,,,,,,,,,,,,,,,,,
null,,learn_phase(without_color),858920,black_plus_sign,,,,,null,US_Cities_List/nat_boulder.png,US_Cities_List/nat_peoria.png,,,,,,,,,,,,,,,,,,,,,,,,,,,,,,
null,,black_cross(without_color),860025,blue,,,,,null,US_Cities_List/nat_boulder.png,US_Cities_List/nat_peoria.png,,,,,,,,,,,,,,,,,,,,,,,,,,,,,,
408.1,,rt_plussign_withcolor,860534,blue,,,,,49,US_Cities_List/nat_boulder.png,US_Cities_List/nat_peoria.png,,,,,,,,,,,,,,,,,,,,,,,,,,,,,,
null,,rt_thecrossant_black,861447,black_plus_sign,,,,,null,,,1,0.974576271,,,,,,,,,,,,,,,,,,,,,,,,,,,,
null,,color_black,861550,black_plus_sign,,,,,null,,,,,,,,,,,,,,,,,,,,,,,,,,,,,,,,
null,,learn_phase(without_color),864097,black_plus_sign,,,,,null,US_Cities_List/mm_westpalmbeach.png,US_Cities_List/nat_carmel.png,,,,,,,,,,,,,,,,,,,,,,,,,,,,,,
null,,black_cross(without_color),864892,blue,,,,,null,US_Cities_List/mm_westpalmbeach.png,US_Cities_List/nat_carmel.png,,,,,,,,,,,,,,,,,,,,,,,,,,,,,,
380.0999999,,rt_plussign_withcolor,865400,blue,,,,,49,US_Cities_List/mm_westpalmbeach.png,US_Cities_List/nat_carmel.png,,,,,,,,,,,,,,,,,,,,,,,,,,,,,,
null,,rt_thecrossant_black,866610,black_plus_sign,,,,,null,,,1,0.974789916,,,,,,,,,,,,,,,,,,,,,,,,,,,,
null,,color_black,866721,black_plus_sign,,,,,null,,,,,,,,,,,,,,,,,,,,,,,,,,,,,,,,
null,,learn_phase(without_color),869271,black_plus_sign,,,,,null,US_Cities_List/mm_huntsville.png,US_Cities_List/nat_newhope.png,,,,,,,,,,,,,,,,,,,,,,,,,,,,,,
null,,black_cross(without_color),869712,green,,,,,null,US_Cities_List/mm_huntsville.png,US_Cities_List/nat_newhope.png,,,,,,,,,,,,,,,,,,,,,,,,,,,,,,
350.3,,rt_plussign_withcolor,870223,green,,,,,50,US_Cities_List/mm_huntsville.png,US_Cities_List/nat_newhope.png,,,,,,,,,,,,,,,,,,,,,,,,,,,,,,
null,,rt_thecrossant_black,871796,black_plus_sign,,,,,null,,,1,0.975,,,,,,,,,,,,,,,,,,,,,,,,,,,,
null,,color_black,871899,black_plus_sign,,,,,null,,,,,,,,,,,,,,,,,,,,,,,,,,,,,,,,
null,,learn_phase(without_color),874416,black_plus_sign,,,,,null,US_Cities_List/mm_leesburg.png,US_Cities_List/mm_racine.png,,,,,,,,,,,,,,,,,,,,,,,,,,,,,,
null,,black_cross(without_color),874855,green,,,,,null,US_Cities_List/mm_leesburg.png,US_Cities_List/mm_racine.png,,,,,,,,,,,,,,,,,,,,,,,,,,,,,,
null,,rt_plussign_withcolor,875357,green,,,,,null,US_Cities_List/mm_leesburg.png,US_Cities_List/mm_racine.png,,,,,,,,,,,,,,,,,,,,,,,,,,,,,,
704.6,,rt_thecrossant_black,876932,black_plus_sign,,,,,50,,,1,0.975206612,,,,,,,,,,,,,,,,,,,,,,,,,,,,
null,,color_black,877044,black_plus_sign,,,,,null,,,,,,,,,,,,,,,,,,,,,,,,,,,,,,,,
null,,learn_phase(without_color),879570,black_plus_sign,,,,,null,US_Cities_List/mm_huntsville.png,US_Cities_List/nat_newhope.png,,,,,,,,,,,,,,,,,,,,,,,,,,,,,,
null,,black_cross(without_color),880265,green,,,,,null,US_Cities_List/mm_huntsville.png,US_Cities_List/nat_newhope.png,,,,,,,,,,,,,,,,,,,,,,,,,,,,,,
454.1,,rt_plussign_withcolor,880772,green,,,,,50,US_Cities_List/mm_huntsville.png,US_Cities_List/nat_newhope.png,,,,,,,,,,,,,,,,,,,,,,,,,,,,,,
null,,rt_thecrossant_black,882096,black_plus_sign,,,,,null,,,1,0.975409836,,,,,,,,,,,,,,,,,,,,,,,,,,,,
null,,color_black,882199,black_plus_sign,,,,,null,,,,,,,,,,,,,,,,,,,,,,,,,,,,,,,,
null,,learn_phase(without_color),884748,black_plus_sign,,,,,null,US_Cities_List/nat_boulder.png,US_Cities_List/mm_leesburg.png,,,,,,,,,,,,,,,,,,,,,,,,,,,,,,
null,,black_cross(without_color),885724,blue,,,,,null,US_Cities_List/nat_boulder.png,US_Cities_List/mm_leesburg.png,,,,,,,,,,,,,,,,,,,,,,,,,,,,,,
499.7,,rt_plussign_withcolor,886226,blue,,,,,49,US_Cities_List/nat_boulder.png,US_Cities_List/mm_leesburg.png,,,,,,,,,,,,,,,,,,,,,,,,,,,,,,
null,,rt_thecrossant_black,887268,black_plus_sign,,,,,null,,,1,0.975609756,,,,,,,,,,,,,,,,,,,,,,,,,,,,
null,,color_black,887376,black_plus_sign,,,,,null,,,,,,,,,,,,,,,,,,,,,,,,,,,,,,,,
null,,learn_phase(without_color),889903,black_plus_sign,,,,,null,US_Cities_List/nat_shreveport.png,US_Cities_List/nat_cornwall.png,,,,,,,,,,,,,,,,,,,,,,,,,,,,,,
null,,black_cross(without_color),890756,green,,,,,null,US_Cities_List/nat_shreveport.png,US_Cities_List/nat_cornwall.png,,,,,,,,,,,,,,,,,,,,,,,,,,,,,,
null,,rt_plussign_withcolor,891263,green,,,,,null,US_Cities_List/nat_shreveport.png,US_Cities_List/nat_cornwall.png,,,,,,,,,,,,,,,,,,,,,,,,,,,,,,
1154.3,,rt_thecrossant_black,892426,black_plus_sign,,,,,50,,,1,0.975806452,,,,,,,,,,,,,,,,,,,,,,,,,,,,
null,,color_black,892538,black_plus_sign,,,,,null,,,,,,,,,,,,,,,,,,,,,,,,,,,,,,,,
null,,learn_phase(without_color),895093,black_plus_sign,,,,,null,US_Cities_List/mm_leesburg.png,US_Cities_List/mm_racine.png,,,,,,,,,,,,,,,,,,,,,,,,,,,,,,
null,,black_cross(without_color),895955,blue,,,,,null,US_Cities_List/mm_leesburg.png,US_Cities_List/mm_racine.png,,,,,,,,,,,,,,,,,,,,,,,,,,,,,,
null,,rt_plussign_withcolor,896466,blue,,,,,null,US_Cities_List/mm_leesburg.png,US_Cities_List/mm_racine.png,,,,,,,,,,,,,,,,,,,,,,,,,,,,,,
1076.2,,rt_thecrossant_black,897619,black_plus_sign,,,,,49,,,1,0.976,,,,,,,,,,,,,,,,,,,,,,,,,,,,
null,,color_black,897734,black_plus_sign,,,,,null,,,,,,,,,,,,,,,,,,,,,,,,,,,,,,,,
null,,learn_phase(without_color),900265,black_plus_sign,,,,,null,US_Cities_List/mm_westpalmbeach.png,US_Cities_List/nat_carmel.png,,,,,,,,,,,,,,,,,,,,,,,,,,,,,,
null,,black_cross(without_color),900949,blue,,,,,null,US_Cities_List/mm_westpalmbeach.png,US_Cities_List/nat_carmel.png,,,,,,,,,,,,,,,,,,,,,,,,,,,,,,
null,,rt_plussign_withcolor,901457,blue,,,,,null,US_Cities_List/mm_westpalmbeach.png,US_Cities_List/nat_carmel.png,,,,,,,,,,,,,,,,,,,,,,,,,,,,,,
1017.5,,rt_thecrossant_black,902786,black_plus_sign,,,,,49,,,1,0.976190476,,,,,,,,,,,,,,,,,,,,,,,,,,,,
null,,color_black,902888,black_plus_sign,,,,,null,,,,,,,,,,,,,,,,,,,,,,,,,,,,,,,,
null,,learn_phase(without_color),905441,black_plus_sign,,,,,null,US_Cities_List/mm_racine.png,US_Cities_List/nat_cornwall.png,,,,,,,,,,,,,,,,,,,,,,,,,,,,,,
null,,black_cross(without_color),906534,green,,,,,null,US_Cities_List/mm_racine.png,US_Cities_List/nat_cornwall.png,,,,,,,,,,,,,,,,,,,,,,,,,,,,,,
null,,rt_plussign_withcolor,907051,green,,,,,null,US_Cities_List/mm_racine.png,US_Cities_List/nat_cornwall.png,,,,,,,,,,,,,,,,,,,,,,,,,,,,,,
788.9,,rt_thecrossant_black,907987,black_plus_sign,,,,,50,,,1,0.976377953,,,,,,,,,,,,,,,,,,,,,,,,,,,,
null,,color_black,908091,black_plus_sign,,,,,null,,,,,,,,,,,,,,,,,,,,,,,,,,,,,,,,
null,,learn_phase(without_color),910638,black_plus_sign,,,,,null,US_Cities_List/mm_huntsville.png,US_Cities_List/nat_cornwall.png,,,,,,,,,,,,,,,,,,,,,,,,,,,,,,
null,,black_cross(without_color),911386,blue,,,,,null,US_Cities_List/mm_huntsville.png,US_Cities_List/nat_cornwall.png,,,,,,,,,,,,,,,,,,,,,,,,,,,,,,
451.4,,rt_plussign_withcolor,911891,blue,,,,,49,US_Cities_List/mm_huntsville.png,US_Cities_List/nat_cornwall.png,,,,,,,,,,,,,,,,,,,,,,,,,,,,,,
null,,rt_thecrossant_black,913162,black_plus_sign,,,,,null,,,1,0.9765625,,,,,,,,,,,,,,,,,,,,,,,,,,,,
null,,color_black,913265,black_plus_sign,,,,,null,,,,,,,,,,,,,,,,,,,,,,,,,,,,,,,,
137924.6,,intro_1,1051192,instruct,,,0,,,,,,,,,,,,,,,,,,,,,,,,,,,,,,,,,,
21206.1,,intro_2,1072401,instruct,,,1,Next,,,,,,,,,,,,,,,,,,,,,,,,,,,,,,,,,
3640.8,,directmemory_phase,1076106,../static/images/US_Cities_List/nat_newhope.png,,,,,49,,,1,1,../static/images/US_Cities_List/mm_huntsville.png,../static/images/US_Cities_List/mm_racine.png,../static/images/US_Cities_List/nat_cornwall.png,../static/images/US_Cities_List/mm_huntsville.png,../static/images/US_Cities_List/nat_cornwall.png,../static/images/US_Cities_List/mm_racine.png,1,,,,,,,,,,,,,,,,,,,,,
null,,html-keyboard-response,1077116,<p></p>,,,,,null,,,,,,,,,,,,,,,,,,,,,,,,,,,,,,,,
3913.6,,directmemory_phase,1081063,../static/images/US_Cities_List/mm_leesburg.png,,,,,50,,,0,0.5,../static/images/US_Cities_List/nat_boulder.png,../static/images/US_Cities_List/nat_hotsprings.png,../static/images/US_Cities_List/mm_gatlinburg.png,../static/images/US_Cities_List/nat_boulder.png,../static/images/US_Cities_List/mm_gatlinburg.png,../static/images/US_Cities_List/nat_hotsprings.png,0.5,closer,,,,,,,,,,,,,,,,,,,,
null,,html-keyboard-response,1082072,<p></p>,,,,,null,,,,,,,,,,,,,,,,,,,,,,,,,,,,,,,,
3360.5,,directmemory_phase,1085493,../static/images/US_Cities_List/mm_racine.png,,,,,51,,,0,0.333333333,../static/images/US_Cities_List/mm_huntsville.png,../static/images/US_Cities_List/nat_cornwall.png,../static/images/US_Cities_List/nat_carmel.png,../static/images/US_Cities_List/nat_cornwall.png,../static/images/US_Cities_List/mm_huntsville.png,../static/images/US_Cities_List/nat_carmel.png,0.5,closer,,,,,,,,,,,,,,,,,,,,
null,,html-keyboard-response,1086505,<p></p>,,,,,null,,,,,,,,,,,,,,,,,,,,,,,,,,,,,,,,
2062.3,,directmemory_phase,1088624,../static/images/US_Cities_List/mm_gatlinburg.png,,,,,49,,,1,0.5,../static/images/US_Cities_List/nat_boulder.png,../static/images/US_Cities_List/mm_racine.png,../static/images/US_Cities_List/nat_peoria.png,../static/images/US_Cities_List/nat_boulder.png,../static/images/US_Cities_List/nat_peoria.png,../static/images/US_Cities_List/mm_racine.png,1,,,,,,,,,,,,,,,,,,,,,
null,,html-keyboard-response,1089632,<p></p>,,,,,null,,,,,,,,,,,,,,,,,,,,,,,,,,,,,,,,
4396.8,,directmemory_phase,1094089,../static/images/US_Cities_List/mm_westpalmbeach.png,,,,,50,,,0,0.4,../static/images/US_Cities_List/mm_gatlinburg.png,../static/images/US_Cities_List/nat_shreveport.png,../static/images/US_Cities_List/mm_leesburg.png,../static/images/US_Cities_List/mm_leesburg.png,../static/images/US_Cities_List/nat_shreveport.png,../static/images/US_Cities_List/mm_gatlinburg.png,0.5,closer,,,,,,,,,,,,,,,,,,,,
null,,html-keyboard-response,1095105,<p></p>,,,,,null,,,,,,,,,,,,,,,,,,,,,,,,,,,,,,,,
2899.4,,directmemory_phase,1098044,../static/images/US_Cities_List/nat_hanover.png,,,,,51,,,0,0.333333333,../static/images/US_Cities_List/nat_peoria.png,../static/images/US_Cities_List/nat_cornwall.png,../static/images/US_Cities_List/nat_carmel.png,../static/images/US_Cities_List/nat_peoria.png,../static/images/US_Cities_List/nat_carmel.png,../static/images/US_Cities_List/nat_cornwall.png,0.5,closer,,,,,,,,,,,,,,,,,,,,
null,,html-keyboard-response,1099053,<p></p>,,,,,null,,,,,,,,,,,,,,,,,,,,,,,,,,,,,,,,
2603.9,,directmemory_phase,1101709,../static/images/US_Cities_List/mm_leesburg.png,,,,,50,,,0,0.285714286,../static/images/US_Cities_List/mm_racine.png,../static/images/US_Cities_List/nat_newhope.png,../static/images/US_Cities_List/mm_gatlinburg.png,../static/images/US_Cities_List/mm_racine.png,../static/images/US_Cities_List/mm_gatlinburg.png,../static/images/US_Cities_List/nat_newhope.png,0.5,closer,,,,,,,,,,,,,,,,,,,,
null,,html-keyboard-response,1102720,<p></p>,,,,,null,,,,,,,,,,,,,,,,,,,,,,,,,,,,,,,,
2445.4,,directmemory_phase,1105201,../static/images/US_Cities_List/nat_shreveport.png,,,,,51,,,0,0.25,../static/images/US_Cities_List/mm_leesburg.png,../static/images/US_Cities_List/nat_cornwall.png,../static/images/US_Cities_List/nat_peoria.png,../static/images/US_Cities_List/nat_cornwall.png,../static/images/US_Cities_List/mm_leesburg.png,../static/images/US_Cities_List/nat_peoria.png,0.5,closer,,,,,,,,,,,,,,,,,,,,
null,,html-keyboard-response,1106214,<p></p>,,,,,null,,,,,,,,,,,,,,,,,,,,,,,,,,,,,,,,
5668.4,,directmemory_phase,1111946,../static/images/US_Cities_List/nat_peoria.png,,,,,51,,,0,0.222222222,../static/images/US_Cities_List/mm_gatlinburg.png,../static/images/US_Cities_List/nat_hanover.png,../static/images/US_Cities_List/mm_racine.png,../static/images/US_Cities_List/nat_hanover.png,../static/images/US_Cities_List/mm_gatlinburg.png,../static/images/US_Cities_List/mm_racine.png,0.5,closer,,,,,,,,,,,,,,,,,,,,
null,,html-keyboard-response,1112963,<p></p>,,,,,null,,,,,,,,,,,,,,,,,,,,,,,,,,,,,,,,
3899.3,,directmemory_phase,1116912,../static/images/US_Cities_List/nat_shreveport.png,,,,,51,,,1,0.3,../static/images/US_Cities_List/nat_boulder.png,../static/images/US_Cities_List/mm_leesburg.png,../static/images/US_Cities_List/mm_huntsville.png,../static/images/US_Cities_List/mm_huntsville.png,../static/images/US_Cities_List/mm_leesburg.png,../static/images/US_Cities_List/nat_boulder.png,1,,,,,,,,,,,,,,,,,,,,,
null,,html-keyboard-response,1117920,<p></p>,,,,,null,,,,,,,,,,,,,,,,,,,,,,,,,,,,,,,,
2629.5,,directmemory_phase,1120615,../static/images/US_Cities_List/nat_cornwall.png,,,,,50,,,1,0.363636364,../static/images/US_Cities_List/nat_carmel.png,../static/images/US_Cities_List/mm_westpalmbeach.png,../static/images/US_Cities_List/mm_gatlinburg.png,../static/images/US_Cities_List/mm_westpalmbeach.png,../static/images/US_Cities_List/nat_carmel.png,../static/images/US_Cities_List/mm_gatlinburg.png,1,,,,,,,,,,,,,,,,,,,,,
null,,html-keyboard-response,1121630,<p></p>,,,,,null,,,,,,,,,,,,,,,,,,,,,,,,,,,,,,,,
3217.6,,directmemory_phase,1124883,../static/images/US_Cities_List/nat_hotsprings.png,,,,,50,,,0,0.333333333,../static/images/US_Cities_List/mm_leesburg.png,../static/images/US_Cities_List/nat_cornwall.png,../static/images/US_Cities_List/nat_shreveport.png,../static/images/US_Cities_List/nat_shreveport.png,../static/images/US_Cities_List/nat_cornwall.png,../static/images/US_Cities_List/mm_leesburg.png,0.5,closer,,,,,,,,,,,,,,,,,,,,
null,,html-keyboard-response,1125893,<p></p>,,,,,null,,,,,,,,,,,,,,,,,,,,,,,,,,,,,,,,
2481.2,,directmemory_phase,1128424,../static/images/US_Cities_List/nat_peoria.png,,,,,49,,,1,0.384615385,../static/images/US_Cities_List/nat_carmel.png,../static/images/US_Cities_List/mm_racine.png,../static/images/US_Cities_List/mm_westpalmbeach.png,../static/images/US_Cities_List/nat_carmel.png,../static/images/US_Cities_List/mm_westpalmbeach.png,../static/images/US_Cities_List/mm_racine.png,1,,,,,,,,,,,,,,,,,,,,,
null,,html-keyboard-response,1129432,<p></p>,,,,,null,,,,,,,,,,,,,,,,,,,,,,,,,,,,,,,,
4478.4,,directmemory_phase,1133964,../static/images/US_Cities_List/nat_shreveport.png,,,,,51,,,1,0.428571429,../static/images/US_Cities_List/mm_gatlinburg.png,../static/images/US_Cities_List/mm_leesburg.png,../static/images/US_Cities_List/nat_hotsprings.png,../static/images/US_Cities_List/nat_hotsprings.png,../static/images/US_Cities_List/mm_leesburg.png,../static/images/US_Cities_List/mm_gatlinburg.png,1,,,,,,,,,,,,,,,,,,,,,
null,,html-keyboard-response,1134981,<p></p>,,,,,null,,,,,,,,,,,,,,,,,,,,,,,,,,,,,,,,
4962.9,,directmemory_phase,1139978,../static/images/US_Cities_List/mm_racine.png,,,,,51,,,1,0.466666667,../static/images/US_Cities_List/nat_hanover.png,../static/images/US_Cities_List/nat_hotsprings.png,../static/images/US_Cities_List/mm_leesburg.png,../static/images/US_Cities_List/mm_leesburg.png,../static/images/US_Cities_List/nat_hotsprings.png,../static/images/US_Cities_List/nat_hanover.png,1,,,,,,,,,,,,,,,,,,,,,
null,,html-keyboard-response,1140992,<p></p>,,,,,null,,,,,,,,,,,,,,,,,,,,,,,,,,,,,,,,
3094.6,,directmemory_phase,1144145,../static/images/US_Cities_List/mm_huntsville.png,,,,,50,,,0,0.4375,../static/images/US_Cities_List/nat_shreveport.png,../static/images/US_Cities_List/nat_carmel.png,../static/images/US_Cities_List/nat_hotsprings.png,../static/images/US_Cities_List/nat_shreveport.png,../static/images/US_Cities_List/nat_hotsprings.png,../static/images/US_Cities_List/nat_carmel.png,0.5,closer,,,,,,,,,,,,,,,,,,,,
null,,html-keyboard-response,1145162,<p></p>,,,,,null,,,,,,,,,,,,,,,,,,,,,,,,,,,,,,,,
3389.6,,directmemory_phase,1148613,../static/images/US_Cities_List/nat_carmel.png,,,,,49,,,1,0.470588235,../static/images/US_Cities_List/mm_westpalmbeach.png,../static/images/US_Cities_List/mm_huntsville.png,../static/images/US_Cities_List/mm_leesburg.png,../static/images/US_Cities_List/mm_westpalmbeach.png,../static/images/US_Cities_List/mm_leesburg.png,../static/images/US_Cities_List/mm_huntsville.png,1,,,,,,,,,,,,,,,,,,,,,
null,,html-keyboard-response,1149617,<p></p>,,,,,null,,,,,,,,,,,,,,,,,,,,,,,,,,,,,,,,
3791.1,,directmemory_phase,1153464,../static/images/US_Cities_List/nat_boulder.png,,,,,51,,,1,0.5,../static/images/US_Cities_List/nat_cornwall.png,../static/images/US_Cities_List/nat_carmel.png,../static/images/US_Cities_List/nat_peoria.png,../static/images/US_Cities_List/nat_peoria.png,../static/images/US_Cities_List/nat_carmel.png,../static/images/US_Cities_List/nat_cornwall.png,1,,,,,,,,,,,,,,,,,,,,,
null,,html-keyboard-response,1154478,<p></p>,,,,,null,,,,,,,,,,,,,,,,,,,,,,,,,,,,,,,,
3325.7,,directmemory_phase,1157844,../static/images/US_Cities_List/mm_huntsville.png,,,,,51,,,0,0.473684211,../static/images/US_Cities_List/nat_newhope.png,../static/images/US_Cities_List/nat_carmel.png,../static/images/US_Cities_List/nat_hotsprings.png,../static/images/US_Cities_List/nat_newhope.png,../static/images/US_Cities_List/nat_hotsprings.png,../static/images/US_Cities_List/nat_carmel.png,0.5,closer,,,,,,,,,,,,,,,,,,,,
null,,html-keyboard-response,1158852,<p></p>,,,,,null,,,,,,,,,,,,,,,,,,,,,,,,,,,,,,,,
6216.5,,directmemory_phase,1165113,../static/images/US_Cities_List/nat_peoria.png,,,,,49,,,0,0.45,../static/images/US_Cities_List/mm_racine.png,../static/images/US_Cities_List/mm_gatlinburg.png,../static/images/US_Cities_List/nat_boulder.png,../static/images/US_Cities_List/nat_boulder.png,../static/images/US_Cities_List/mm_gatlinburg.png,../static/images/US_Cities_List/mm_racine.png,0.5,closer,,,,,,,,,,,,,,,,,,,,
null,,html-keyboard-response,1166133,<p></p>,,,,,null,,,,,,,,,,,,,,,,,,,,,,,,,,,,,,,,
4028.9,,directmemory_phase,1170222,../static/images/US_Cities_List/nat_cornwall.png,,,,,51,,,1,0.476190476,../static/images/US_Cities_List/mm_gatlinburg.png,../static/images/US_Cities_List/mm_leesburg.png,../static/images/US_Cities_List/mm_huntsville.png,../static/images/US_Cities_List/mm_huntsville.png,../static/images/US_Cities_List/mm_leesburg.png,../static/images/US_Cities_List/mm_gatlinburg.png,1,,,,,,,,,,,,,,,,,,,,,
null,,html-keyboard-response,1171232,<p></p>,,,,,null,,,,,,,,,,,,,,,,,,,,,,,,,,,,,,,,
3882.4,,directmemory_phase,1175185,../static/images/US_Cities_List/mm_westpalmbeach.png,,,,,51,,,1,0.5,../static/images/US_Cities_List/nat_hotsprings.png,../static/images/US_Cities_List/nat_shreveport.png,../static/images/US_Cities_List/nat_carmel.png,../static/images/US_Cities_List/nat_carmel.png,../static/images/US_Cities_List/nat_shreveport.png,../static/images/US_Cities_List/nat_hotsprings.png,1,,,,,,,,,,,,,,,,,,,,,
null,,html-keyboard-response,1176193,<p></p>,,,,,null,,,,,,,,,,,,,,,,,,,,,,,,,,,,,,,,
4592.3,,directmemory_phase,1180827,../static/images/US_Cities_List/mm_racine.png,,,,,51,,,1,0.52173913,../static/images/US_Cities_List/nat_peoria.png,../static/images/US_Cities_List/mm_westpalmbeach.png,../static/images/US_Cities_List/nat_shreveport.png,../static/images/US_Cities_List/nat_shreveport.png,../static/images/US_Cities_List/mm_westpalmbeach.png,../static/images/US_Cities_List/nat_peoria.png,1,,,,,,,,,,,,,,,,,,,,,
null,,html-keyboard-response,1181838,<p></p>,,,,,null,,,,,,,,,,,,,,,,,,,,,,,,,,,,,,,,
4477.9,,directmemory_phase,1186361,../static/images/US_Cities_List/mm_huntsville.png,,,,,50,,,1,0.541666667,../static/images/US_Cities_List/mm_racine.png,../static/images/US_Cities_List/nat_cornwall.png,../static/images/US_Cities_List/mm_leesburg.png,../static/images/US_Cities_List/nat_cornwall.png,../static/images/US_Cities_List/mm_racine.png,../static/images/US_Cities_List/mm_leesburg.png,1,,,,,,,,,,,,,,,,,,,,,
null,,html-keyboard-response,1187368,<p></p>,,,,,null,,,,,,,,,,,,,,,,,,,,,,,,,,,,,,,,
4720.1,,directmemory_phase,1192122,../static/images/US_Cities_List/nat_shreveport.png,,,,,50,,,1,0.56,../static/images/US_Cities_List/mm_leesburg.png,../static/images/US_Cities_List/mm_racine.png,../static/images/US_Cities_List/mm_gatlinburg.png,../static/images/US_Cities_List/mm_racine.png,../static/images/US_Cities_List/mm_leesburg.png,../static/images/US_Cities_List/mm_gatlinburg.png,1,,,,,,,,,,,,,,,,,,,,,
null,,html-keyboard-response,1193135,<p></p>,,,,,null,,,,,,,,,,,,,,,,,,,,,,,,,,,,,,,,
4106.5,,directmemory_phase,1197305,../static/images/US_Cities_List/mm_westpalmbeach.png,,,,,51,,,1,0.576923077,../static/images/US_Cities_List/nat_hotsprings.png,../static/images/US_Cities_List/mm_huntsville.png,../static/images/US_Cities_List/nat_cornwall.png,../static/images/US_Cities_List/nat_cornwall.png,../static/images/US_Cities_List/mm_huntsville.png,../static/images/US_Cities_List/nat_hotsprings.png,1,,,,,,,,,,,,,,,,,,,,,
null,,html-keyboard-response,1198316,<p></p>,,,,,null,,,,,,,,,,,,,,,,,,,,,,,,,,,,,,,,
