rt,responses,trial_type,time_elapsed,stimulus,cities,city_images,button_pressed,response,key_press,stimulus_left,stimulus_right,accuracy,cumulative_accuracy,stimulus_down_left,stimulus_down_mid,stimulus_down_right,stimulus_correct,stimulus_short,stimulus_far,weighted_accuracy,missedtrial,condition,specific_pairs,imgL_ID,imgR_ID,linedress,linedressed,image_position,unknowncity,testedstates,currentstate,otherstate,problems,smooth,distraction,strategies,easier,similar,comments
18564.79999999702,{worker_id:67414dcbcf89f6a633385d49},id_enter,18566,intro,Leesburg; Gatlinburg; Peoria; Racine; West Palm Beach; Hot Springs; Boulder; New Hope; Shreveport; Huntsville; Carmel; Hanover; Cornwall,US_Cities_List/mm_leesburg.png; US_Cities_List/mm_gatlinburg.png; US_Cities_List/mm_peoria.png; US_Cities_List/nat_racine.png; US_Cities_List/nat_westpalmbeach.png; US_Cities_List/nat_hotsprings.png; US_Cities_List/mm_boulder.png; US_Cities_List/mm_newhope.png; US_Cities_List/nat_shreveport.png; US_Cities_List/mm_huntsville.png; US_Cities_List/mm_carmel.png; US_Cities_List/nat_hanover.png; US_Cities_List/nat_cornwall.png,,,,,,,,,,,,,,,,,,,,,,,,,,,,,,,,,
14478.29999999702,,fullscreen,33048,make_fullscreen,,,0,,,,,,,,,,,,,,,,,,,,,,,,,,,,,,,,
7566.29999999702,,intro_1,40617,instruct,,,0,,,,,,,,,,,,,,,,,,,,,,,,,,,,,,,,
13562.09999999404,,intro_2,54180,instruct,,,1,Next,,,,,,,,,,,,,,,,,,,,,,,,,,,,,,,
10551.20000000298,,intro_3,64733,instruct,,,1,Next,,,,,,,,,,,,,,,,,,,,,,,,,,,,,,,
10892.79999999702,,intro_4,75627,instruct,,,1,Next,,,,,,,,,,,,,,,,,,,,,,,,,,,,,,,
10073,,intro_5,85701,instruct,,,1,Next,,,,,,,,,,,,,,,,,,,,,,,,,,,,,,,
19959.70000000298,,intro_6,105661,instruct,,,1,Next,,,,,,,,,,,,,,,,,,,,,,,,,,,,,,,
null,,prac_atten_color_black,106245,black_plus_sign,,,,,null,,,,,,,,,,,,,,,,,,,,,,,,,,,,,,
615.2999999970198,,prac_atten_color,107065,prac_stop_color,,,,,49,,,,,,,,,,,,,,,,,,,,,,,,,,,,,,
null,,prac_atten_color_black,109067,black_plus_sign,,,,,null,,,,,,,,,,,,,,,,,,,,,,,,,,,,,,
null,,prac_atten_color_black,109651,black_plus_sign,,,,,null,,,,,,,,,,,,,,,,,,,,,,,,,,,,,,
565.8999999910593,,prac_atten_color,110329,prac_stop_color,,,,,50,,,,,,,,,,,,,,,,,,,,,,,,,,,,,,
null,,prac_atten_color_black,112330,black_plus_sign,,,,,null,,,,,,,,,,,,,,,,,,,,,,,,,,,,,,
null,,prac_atten_color_black,113056,black_plus_sign,,,,,null,,,,,,,,,,,,,,,,,,,,,,,,,,,,,,
496.09999999403954,,prac_atten_color,113658,prac_stop_color,,,,,50,,,,,,,,,,,,,,,,,,,,,,,,,,,,,,
null,,prac_atten_color_black,115660,black_plus_sign,,,,,null,,,,,,,,,,,,,,,,,,,,,,,,,,,,,,
null,,prac_atten_color_black,116474,black_plus_sign,,,,,null,,,,,,,,,,,,,,,,,,,,,,,,,,,,,,
407.59999999403954,,prac_atten_color,117083,prac_stop_color,,,,,49,,,,,,,,,,,,,,,,,,,,,,,,,,,,,,
null,,prac_atten_color_black,119085,black_plus_sign,,,,,null,,,,,,,,,,,,,,,,,,,,,,,,,,,,,,
null,,prac_atten_color_black,119880,black_plus_sign,,,,,null,,,,,,,,,,,,,,,,,,,,,,,,,,,,,,
596.9000000059605,,prac_atten_color,120497,prac_stop_color,,,,,50,,,,,,,,,,,,,,,,,,,,,,,,,,,,,,
null,,prac_atten_color_black,122499,black_plus_sign,,,,,null,,,,,,,,,,,,,,,,,,,,,,,,,,,,,,
null,,prac_atten_color_black,123285,black_plus_sign,,,,,null,,,,,,,,,,,,,,,,,,,,,,,,,,,,,,
null,,prac_atten_color,123745,prac_stop_color,,,,,null,,,,,,,,,,,,,,,,,,,,,,,,,,,,,,
111.79999999701977,,prac_atten_color_black,125746,black_plus_sign,,,,,50,,,,,,,,,,,,,,,,,,,,,,,,,,,,,,
null,,prac_atten_color_black,126688,black_plus_sign,,,,,null,,,,,,,,,,,,,,,,,,,,,,,,,,,,,,
380.29999999701977,,prac_atten_color,127763,prac_stop_color,,,,,49,,,,,,,,,,,,,,,,,,,,,,,,,,,,,,
null,,prac_atten_color_black,129765,black_plus_sign,,,,,null,,,,,,,,,,,,,,,,,,,,,,,,,,,,,,
null,,prac_atten_color_black,130093,black_plus_sign,,,,,null,,,,,,,,,,,,,,,,,,,,,,,,,,,,,,
579.5,,prac_atten_color,131012,prac_stop_color,,,,,50,,,,,,,,,,,,,,,,,,,,,,,,,,,,,,
null,,prac_atten_color_black,133014,black_plus_sign,,,,,null,,,,,,,,,,,,,,,,,,,,,,,,,,,,,,
null,,prac_atten_color_black,133500,black_plus_sign,,,,,null,,,,,,,,,,,,,,,,,,,,,,,,,,,,,,
520.4000000059605,,prac_atten_color,134580,prac_stop_color,,,,,49,,,,,,,,,,,,,,,,,,,,,,,,,,,,,,
null,,prac_atten_color_black,136582,black_plus_sign,,,,,null,,,,,,,,,,,,,,,,,,,,,,,,,,,,,,
null,,prac_atten_color_black,136905,black_plus_sign,,,,,null,,,,,,,,,,,,,,,,,,,,,,,,,,,,,,
510.8999999910593,,prac_atten_color,137599,prac_stop_color,,,,,49,,,,,,,,,,,,,,,,,,,,,,,,,,,,,,
null,,prac_atten_color_black,139600,black_plus_sign,,,,,null,,,,,,,,,,,,,,,,,,,,,,,,,,,,,,
4980.399999991059,,attentioncheck_feedback,144582,cross_check_feedback,,,0,,,,,,,,,,,,,,,,,,,,,,,,,,,,,,,,
7449.0999999940395,,last_instruct,152031,instruct,,,,,32,,,,,,,,,,,,,,,,,,,,,,,,,,,,,,
null,,learn_phase(without_color),154049,black_plus_sign,,,,,null,US_Cities_List/mm_leesburg.png,US_Cities_List/mm_gatlinburg.png,,,,,,,,,,,,,,,,,,,,,,,,,,,,
null,,black_cross(without_color),154869,blue,,,,,null,US_Cities_List/mm_leesburg.png,US_Cities_List/mm_gatlinburg.png,,,,,,,,,,,,,,,,,,,,,,,,,,,,
null,,rt_plussign_withcolor,155370,blue,,,,,null,US_Cities_List/mm_leesburg.png,US_Cities_List/mm_gatlinburg.png,,,,,,,,,,,,,,,,,,,,,,,,,,,,
1297.3999999910593,,rt_thecrossant_black,156554,black_plus_sign,,,,,49,,,1,1,,,,,,,,,,,,,,,,,,,,,,,,,,
null,,color_black,156656,black_plus_sign,,,,,null,,,,,,,,,,,,,,,,,,,,,,,,,,,,,,
null,,learn_phase(without_color),159177,black_plus_sign,,,,,null,US_Cities_List/mm_boulder.png,US_Cities_List/mm_newhope.png,,,,,,,,,,,,,,,,,,,,,,,,,,,,
null,,black_cross(without_color),159939,green,,,,,null,US_Cities_List/mm_boulder.png,US_Cities_List/mm_newhope.png,,,,,,,,,,,,,,,,,,,,,,,,,,,,
464.70000000298023,,rt_plussign_withcolor,160441,green,,,,,50,US_Cities_List/mm_boulder.png,US_Cities_List/mm_newhope.png,,,,,,,,,,,,,,,,,,,,,,,,,,,,
null,,rt_thecrossant_black,161682,black_plus_sign,,,,,null,,,1,1,,,,,,,,,,,,,,,,,,,,,,,,,,
null,,color_black,161783,black_plus_sign,,,,,null,,,,,,,,,,,,,,,,,,,,,,,,,,,,,,
null,,learn_phase(without_color),164306,black_plus_sign,,,,,null,US_Cities_List/mm_carmel.png,US_Cities_List/nat_hanover.png,,,,,,,,,,,,,,,,,,,,,,,,,,,,
null,,black_cross(without_color),164717,blue,,,,,null,US_Cities_List/mm_carmel.png,US_Cities_List/nat_hanover.png,,,,,,,,,,,,,,,,,,,,,,,,,,,,
486.70000000298023,,rt_plussign_withcolor,165218,blue,,,,,49,US_Cities_List/mm_carmel.png,US_Cities_List/nat_hanover.png,,,,,,,,,,,,,,,,,,,,,,,,,,,,
null,,rt_thecrossant_black,166812,black_plus_sign,,,,,null,,,1,1,,,,,,,,,,,,,,,,,,,,,,,,,,
null,,color_black,166913,black_plus_sign,,,,,null,,,,,,,,,,,,,,,,,,,,,,,,,,,,,,
null,,learn_phase(without_color),169443,black_plus_sign,,,,,null,US_Cities_List/mm_newhope.png,US_Cities_List/nat_shreveport.png,,,,,,,,,,,,,,,,,,,,,,,,,,,,
null,,black_cross(without_color),170468,blue,,,,,null,US_Cities_List/mm_newhope.png,US_Cities_List/nat_shreveport.png,,,,,,,,,,,,,,,,,,,,,,,,,,,,
null,,rt_plussign_withcolor,170969,blue,,,,,null,US_Cities_List/mm_newhope.png,US_Cities_List/nat_shreveport.png,,,,,,,,,,,,,,,,,,,,,,,,,,,,
549.1000000089407,,rt_thecrossant_black,171947,black_plus_sign,,,,,49,,,1,1,,,,,,,,,,,,,,,,,,,,,,,,,,
null,,color_black,172048,black_plus_sign,,,,,null,,,,,,,,,,,,,,,,,,,,,,,,,,,,,,
null,,learn_phase(without_color),174580,black_plus_sign,,,,,null,US_Cities_List/nat_shreveport.png,US_Cities_List/mm_carmel.png,,,,,,,,,,,,,,,,,,,,,,,,,,,,
null,,black_cross(without_color),175229,blue,,,,,null,US_Cities_List/nat_shreveport.png,US_Cities_List/mm_carmel.png,,,,,,,,,,,,,,,,,,,,,,,,,,,,
464.20000000298023,,rt_plussign_withcolor,175731,blue,,,,,49,US_Cities_List/nat_shreveport.png,US_Cities_List/mm_carmel.png,,,,,,,,,,,,,,,,,,,,,,,,,,,,
null,,rt_thecrossant_black,177085,black_plus_sign,,,,,null,,,1,1,,,,,,,,,,,,,,,,,,,,,,,,,,
null,,color_black,177187,black_plus_sign,,,,,null,,,,,,,,,,,,,,,,,,,,,,,,,,,,,,
null,,learn_phase(without_color),179712,black_plus_sign,,,,,null,US_Cities_List/mm_boulder.png,US_Cities_List/nat_cornwall.png,,,,,,,,,,,,,,,,,,,,,,,,,,,,
null,,black_cross(without_color),180637,blue,,,,,null,US_Cities_List/mm_boulder.png,US_Cities_List/nat_cornwall.png,,,,,,,,,,,,,,,,,,,,,,,,,,,,
null,,rt_plussign_withcolor,181138,blue,,,,,null,US_Cities_List/mm_boulder.png,US_Cities_List/nat_cornwall.png,,,,,,,,,,,,,,,,,,,,,,,,,,,,
908.5,,rt_thecrossant_black,182216,black_plus_sign,,,,,49,,,1,1,,,,,,,,,,,,,,,,,,,,,,,,,,
null,,color_black,182317,black_plus_sign,,,,,null,,,,,,,,,,,,,,,,,,,,,,,,,,,,,,
null,,learn_phase(without_color),184839,black_plus_sign,,,,,null,US_Cities_List/nat_hotsprings.png,US_Cities_List/nat_shreveport.png,,,,,,,,,,,,,,,,,,,,,,,,,,,,
null,,black_cross(without_color),185258,green,,,,,null,US_Cities_List/nat_hotsprings.png,US_Cities_List/nat_shreveport.png,,,,,,,,,,,,,,,,,,,,,,,,,,,,
null,,rt_plussign_withcolor,185759,green,,,,,null,US_Cities_List/nat_hotsprings.png,US_Cities_List/nat_shreveport.png,,,,,,,,,,,,,,,,,,,,,,,,,,,,
1098.6000000089407,,rt_thecrossant_black,187343,black_plus_sign,,,,,50,,,1,1,,,,,,,,,,,,,,,,,,,,,,,,,,
null,,color_black,187445,black_plus_sign,,,,,null,,,,,,,,,,,,,,,,,,,,,,,,,,,,,,
null,,learn_phase(without_color),189968,black_plus_sign,,,,,null,US_Cities_List/mm_newhope.png,US_Cities_List/mm_huntsville.png,,,,,,,,,,,,,,,,,,,,,,,,,,,,
null,,black_cross(without_color),190675,green,,,,,null,US_Cities_List/mm_newhope.png,US_Cities_List/mm_huntsville.png,,,,,,,,,,,,,,,,,,,,,,,,,,,,
null,,rt_plussign_withcolor,191176,green,,,,,null,US_Cities_List/mm_newhope.png,US_Cities_List/mm_huntsville.png,,,,,,,,,,,,,,,,,,,,,,,,,,,,
753.5,,rt_thecrossant_black,192472,black_plus_sign,,,,,50,,,1,1,,,,,,,,,,,,,,,,,,,,,,,,,,
null,,color_black,192584,black_plus_sign,,,,,null,,,,,,,,,,,,,,,,,,,,,,,,,,,,,,
null,,learn_phase(without_color),195104,black_plus_sign,,,,,null,US_Cities_List/mm_leesburg.png,US_Cities_List/mm_gatlinburg.png,,,,,,,,,,,,,,,,,,,,,,,,,,,,
null,,black_cross(without_color),195679,green,,,,,null,US_Cities_List/mm_leesburg.png,US_Cities_List/mm_gatlinburg.png,,,,,,,,,,,,,,,,,,,,,,,,,,,,
null,,rt_plussign_withcolor,196180,green,,,,,null,US_Cities_List/mm_leesburg.png,US_Cities_List/mm_gatlinburg.png,,,,,,,,,,,,,,,,,,,,,,,,,,,,
1013.5999999940395,,rt_thecrossant_black,197609,black_plus_sign,,,,,50,,,1,1,,,,,,,,,,,,,,,,,,,,,,,,,,
null,,color_black,197710,black_plus_sign,,,,,null,,,,,,,,,,,,,,,,,,,,,,,,,,,,,,
null,,learn_phase(without_color),200233,black_plus_sign,,,,,null,US_Cities_List/mm_gatlinburg.png,US_Cities_List/nat_racine.png,,,,,,,,,,,,,,,,,,,,,,,,,,,,
null,,black_cross(without_color),200702,green,,,,,null,US_Cities_List/mm_gatlinburg.png,US_Cities_List/nat_racine.png,,,,,,,,,,,,,,,,,,,,,,,,,,,,
null,,rt_plussign_withcolor,201204,green,,,,,null,US_Cities_List/mm_gatlinburg.png,US_Cities_List/nat_racine.png,,,,,,,,,,,,,,,,,,,,,,,,,,,,
703.7999999970198,,rt_thecrossant_black,202738,black_plus_sign,,,,,50,,,1,1,,,,,,,,,,,,,,,,,,,,,,,,,,
null,,color_black,202839,black_plus_sign,,,,,null,,,,,,,,,,,,,,,,,,,,,,,,,,,,,,
null,,learn_phase(without_color),205367,black_plus_sign,,,,,null,US_Cities_List/mm_newhope.png,US_Cities_List/mm_huntsville.png,,,,,,,,,,,,,,,,,,,,,,,,,,,,
null,,black_cross(without_color),205768,green,,,,,null,US_Cities_List/mm_newhope.png,US_Cities_List/mm_huntsville.png,,,,,,,,,,,,,,,,,,,,,,,,,,,,
null,,rt_plussign_withcolor,206269,green,,,,,null,US_Cities_List/mm_newhope.png,US_Cities_List/mm_huntsville.png,,,,,,,,,,,,,,,,,,,,,,,,,,,,
591.5,,rt_thecrossant_black,207871,black_plus_sign,,,,,50,,,1,1,,,,,,,,,,,,,,,,,,,,,,,,,,
null,,color_black,207973,black_plus_sign,,,,,null,,,,,,,,,,,,,,,,,,,,,,,,,,,,,,
null,,learn_phase(without_color),210497,black_plus_sign,,,,,null,US_Cities_List/mm_newhope.png,US_Cities_List/nat_shreveport.png,,,,,,,,,,,,,,,,,,,,,,,,,,,,
null,,black_cross(without_color),211561,blue,,,,,null,US_Cities_List/mm_newhope.png,US_Cities_List/nat_shreveport.png,,,,,,,,,,,,,,,,,,,,,,,,,,,,
385.90000000596046,,rt_plussign_withcolor,212063,blue,,,,,49,US_Cities_List/mm_newhope.png,US_Cities_List/nat_shreveport.png,,,,,,,,,,,,,,,,,,,,,,,,,,,,
null,,rt_thecrossant_black,213003,black_plus_sign,,,,,null,,,1,1,,,,,,,,,,,,,,,,,,,,,,,,,,
null,,color_black,213105,black_plus_sign,,,,,null,,,,,,,,,,,,,,,,,,,,,,,,,,,,,,
null,,learn_phase(without_color),215624,black_plus_sign,,,,,null,US_Cities_List/nat_racine.png,US_Cities_List/nat_westpalmbeach.png,,,,,,,,,,,,,,,,,,,,,,,,,,,,
null,,black_cross(without_color),216383,green,,,,,null,US_Cities_List/nat_racine.png,US_Cities_List/nat_westpalmbeach.png,,,,,,,,,,,,,,,,,,,,,,,,,,,,
null,,rt_plussign_withcolor,216885,green,,,,,null,US_Cities_List/nat_racine.png,US_Cities_List/nat_westpalmbeach.png,,,,,,,,,,,,,,,,,,,,,,,,,,,,
1263.2000000029802,,rt_thecrossant_black,218130,black_plus_sign,,,,,50,,,1,1,,,,,,,,,,,,,,,,,,,,,,,,,,
null,,color_black,218232,black_plus_sign,,,,,null,,,,,,,,,,,,,,,,,,,,,,,,,,,,,,
null,,learn_phase(without_color),220752,black_plus_sign,,,,,null,US_Cities_List/nat_hotsprings.png,US_Cities_List/mm_boulder.png,,,,,,,,,,,,,,,,,,,,,,,,,,,,
null,,black_cross(without_color),221839,blue,,,,,null,US_Cities_List/nat_hotsprings.png,US_Cities_List/mm_boulder.png,,,,,,,,,,,,,,,,,,,,,,,,,,,,
357.40000000596046,,rt_plussign_withcolor,222340,blue,,,,,49,US_Cities_List/nat_hotsprings.png,US_Cities_List/mm_boulder.png,,,,,,,,,,,,,,,,,,,,,,,,,,,,
null,,rt_thecrossant_black,223256,black_plus_sign,,,,,null,,,1,1,,,,,,,,,,,,,,,,,,,,,,,,,,
null,,color_black,223357,black_plus_sign,,,,,null,,,,,,,,,,,,,,,,,,,,,,,,,,,,,,
null,,learn_phase(without_color),225880,black_plus_sign,,,,,null,US_Cities_List/mm_newhope.png,US_Cities_List/nat_shreveport.png,,,,,,,,,,,,,,,,,,,,,,,,,,,,
null,,black_cross(without_color),226437,green,,,,,null,US_Cities_List/mm_newhope.png,US_Cities_List/nat_shreveport.png,,,,,,,,,,,,,,,,,,,,,,,,,,,,
null,,rt_plussign_withcolor,226939,green,,,,,null,US_Cities_List/mm_newhope.png,US_Cities_List/nat_shreveport.png,,,,,,,,,,,,,,,,,,,,,,,,,,,,
1221.7999999970198,,rt_thecrossant_black,228386,black_plus_sign,,,,,50,,,1,1,,,,,,,,,,,,,,,,,,,,,,,,,,
null,,color_black,228488,black_plus_sign,,,,,null,,,,,,,,,,,,,,,,,,,,,,,,,,,,,,
null,,learn_phase(without_color),231016,black_plus_sign,,,,,null,US_Cities_List/nat_shreveport.png,US_Cities_List/mm_carmel.png,,,,,,,,,,,,,,,,,,,,,,,,,,,,
null,,black_cross(without_color),231539,blue,,,,,null,US_Cities_List/nat_shreveport.png,US_Cities_List/mm_carmel.png,,,,,,,,,,,,,,,,,,,,,,,,,,,,
null,,rt_plussign_withcolor,232040,blue,,,,,null,US_Cities_List/nat_shreveport.png,US_Cities_List/mm_carmel.png,,,,,,,,,,,,,,,,,,,,,,,,,,,,
930.9000000059605,,rt_thecrossant_black,233532,black_plus_sign,,,,,49,,,1,1,,,,,,,,,,,,,,,,,,,,,,,,,,
null,,color_black,233647,black_plus_sign,,,,,null,,,,,,,,,,,,,,,,,,,,,,,,,,,,,,
null,,learn_phase(without_color),236173,black_plus_sign,,,,,null,US_Cities_List/nat_hotsprings.png,US_Cities_List/nat_shreveport.png,,,,,,,,,,,,,,,,,,,,,,,,,,,,
null,,black_cross(without_color),236901,green,,,,,null,US_Cities_List/nat_hotsprings.png,US_Cities_List/nat_shreveport.png,,,,,,,,,,,,,,,,,,,,,,,,,,,,
333.79999999701977,,rt_plussign_withcolor,237402,green,,,,,50,US_Cities_List/nat_hotsprings.png,US_Cities_List/nat_shreveport.png,,,,,,,,,,,,,,,,,,,,,,,,,,,,
null,,rt_thecrossant_black,238679,black_plus_sign,,,,,null,,,1,1,,,,,,,,,,,,,,,,,,,,,,,,,,
null,,color_black,238781,black_plus_sign,,,,,null,,,,,,,,,,,,,,,,,,,,,,,,,,,,,,
null,,learn_phase(without_color),241305,black_plus_sign,,,,,null,US_Cities_List/mm_boulder.png,US_Cities_List/nat_shreveport.png,,,,,,,,,,,,,,,,,,,,,,,,,,,,
null,,black_cross(without_color),241756,green,,,,,null,US_Cities_List/mm_boulder.png,US_Cities_List/nat_shreveport.png,,,,,,,,,,,,,,,,,,,,,,,,,,,,
null,,rt_plussign_withcolor,242257,green,,,,,null,US_Cities_List/mm_boulder.png,US_Cities_List/nat_shreveport.png,,,,,,,,,,,,,,,,,,,,,,,,,,,,
862.4000000059605,,rt_thecrossant_black,243810,black_plus_sign,,,,,50,,,1,1,,,,,,,,,,,,,,,,,,,,,,,,,,
null,,color_black,243912,black_plus_sign,,,,,null,,,,,,,,,,,,,,,,,,,,,,,,,,,,,,
null,,learn_phase(without_color),246433,black_plus_sign,,,,,null,US_Cities_List/mm_newhope.png,US_Cities_List/mm_huntsville.png,,,,,,,,,,,,,,,,,,,,,,,,,,,,
null,,black_cross(without_color),247349,green,,,,,null,US_Cities_List/mm_newhope.png,US_Cities_List/mm_huntsville.png,,,,,,,,,,,,,,,,,,,,,,,,,,,,
471.79999999701977,,rt_plussign_withcolor,247850,green,,,,,50,US_Cities_List/mm_newhope.png,US_Cities_List/mm_huntsville.png,,,,,,,,,,,,,,,,,,,,,,,,,,,,
null,,rt_thecrossant_black,248936,black_plus_sign,,,,,null,,,1,1,,,,,,,,,,,,,,,,,,,,,,,,,,
null,,color_black,249038,black_plus_sign,,,,,null,,,,,,,,,,,,,,,,,,,,,,,,,,,,,,
null,,learn_phase(without_color),251564,black_plus_sign,,,,,null,US_Cities_List/nat_hotsprings.png,US_Cities_List/mm_boulder.png,,,,,,,,,,,,,,,,,,,,,,,,,,,,
null,,black_cross(without_color),252543,green,,,,,null,US_Cities_List/nat_hotsprings.png,US_Cities_List/mm_boulder.png,,,,,,,,,,,,,,,,,,,,,,,,,,,,
497.19999998807907,,rt_plussign_withcolor,253044,green,,,,,50,US_Cities_List/nat_hotsprings.png,US_Cities_List/mm_boulder.png,,,,,,,,,,,,,,,,,,,,,,,,,,,,
null,,rt_thecrossant_black,254068,black_plus_sign,,,,,null,,,1,1,,,,,,,,,,,,,,,,,,,,,,,,,,
null,,color_black,254170,black_plus_sign,,,,,null,,,,,,,,,,,,,,,,,,,,,,,,,,,,,,
null,,learn_phase(without_color),256692,black_plus_sign,,,,,null,US_Cities_List/mm_carmel.png,US_Cities_List/nat_hanover.png,,,,,,,,,,,,,,,,,,,,,,,,,,,,
null,,black_cross(without_color),257325,green,,,,,null,US_Cities_List/mm_carmel.png,US_Cities_List/nat_hanover.png,,,,,,,,,,,,,,,,,,,,,,,,,,,,
494.5,,rt_plussign_withcolor,257828,green,,,,,50,US_Cities_List/mm_carmel.png,US_Cities_List/nat_hanover.png,,,,,,,,,,,,,,,,,,,,,,,,,,,,
null,,rt_thecrossant_black,259197,black_plus_sign,,,,,null,,,1,1,,,,,,,,,,,,,,,,,,,,,,,,,,
null,,color_black,259299,black_plus_sign,,,,,null,,,,,,,,,,,,,,,,,,,,,,,,,,,,,,
null,,learn_phase(without_color),261831,black_plus_sign,,,,,null,US_Cities_List/nat_hotsprings.png,US_Cities_List/mm_boulder.png,,,,,,,,,,,,,,,,,,,,,,,,,,,,
null,,black_cross(without_color),262376,green,,,,,null,US_Cities_List/nat_hotsprings.png,US_Cities_List/mm_boulder.png,,,,,,,,,,,,,,,,,,,,,,,,,,,,
null,,rt_plussign_withcolor,262878,green,,,,,null,US_Cities_List/nat_hotsprings.png,US_Cities_List/mm_boulder.png,,,,,,,,,,,,,,,,,,,,,,,,,,,,
752.9000000059605,,rt_thecrossant_black,264335,black_plus_sign,,,,,50,,,1,1,,,,,,,,,,,,,,,,,,,,,,,,,,
null,,color_black,264437,black_plus_sign,,,,,null,,,,,,,,,,,,,,,,,,,,,,,,,,,,,,
null,,learn_phase(without_color),266963,black_plus_sign,,,,,null,US_Cities_List/mm_peoria.png,US_Cities_List/nat_hotsprings.png,,,,,,,,,,,,,,,,,,,,,,,,,,,,
null,,black_cross(without_color),267459,green,,,,,null,US_Cities_List/mm_peoria.png,US_Cities_List/nat_hotsprings.png,,,,,,,,,,,,,,,,,,,,,,,,,,,,
453,,rt_plussign_withcolor,267960,green,,,,,50,US_Cities_List/mm_peoria.png,US_Cities_List/nat_hotsprings.png,,,,,,,,,,,,,,,,,,,,,,,,,,,,
null,,rt_thecrossant_black,269468,black_plus_sign,,,,,null,,,1,1,,,,,,,,,,,,,,,,,,,,,,,,,,
null,,color_black,269570,black_plus_sign,,,,,null,,,,,,,,,,,,,,,,,,,,,,,,,,,,,,
null,,learn_phase(without_color),272093,black_plus_sign,,,,,null,US_Cities_List/nat_racine.png,US_Cities_List/nat_hanover.png,,,,,,,,,,,,,,,,,,,,,,,,,,,,
null,,black_cross(without_color),272979,blue,,,,,null,US_Cities_List/nat_racine.png,US_Cities_List/nat_hanover.png,,,,,,,,,,,,,,,,,,,,,,,,,,,,
402.59999999403954,,rt_plussign_withcolor,273480,blue,,,,,49,US_Cities_List/nat_racine.png,US_Cities_List/nat_hanover.png,,,,,,,,,,,,,,,,,,,,,,,,,,,,
null,,rt_thecrossant_black,274596,black_plus_sign,,,,,null,,,1,1,,,,,,,,,,,,,,,,,,,,,,,,,,
null,,color_black,274697,black_plus_sign,,,,,null,,,,,,,,,,,,,,,,,,,,,,,,,,,,,,
null,,learn_phase(without_color),277220,black_plus_sign,,,,,null,US_Cities_List/nat_hotsprings.png,US_Cities_List/nat_shreveport.png,,,,,,,,,,,,,,,,,,,,,,,,,,,,
null,,black_cross(without_color),278054,blue,,,,,null,US_Cities_List/nat_hotsprings.png,US_Cities_List/nat_shreveport.png,,,,,,,,,,,,,,,,,,,,,,,,,,,,
433,,rt_plussign_withcolor,278556,blue,,,,,50,US_Cities_List/nat_hotsprings.png,US_Cities_List/nat_shreveport.png,,,,,,,,,,,,,,,,,,,,,,,,,,,,
null,,rt_thecrossant_black,279727,black_plus_sign,,,,,null,,,0,0.96,,,,,,,,,,,,,,,,,,,,,,,,,,
null,,color_black,279828,black_plus_sign,,,,,null,,,,,,,,,,,,,,,,,,,,,,,,,,,,,,
null,,learn_phase(without_color),282354,black_plus_sign,,,,,null,US_Cities_List/mm_newhope.png,US_Cities_List/nat_shreveport.png,,,,,,,,,,,,,,,,,,,,,,,,,,,,
null,,black_cross(without_color),283020,blue,,,,,null,US_Cities_List/mm_newhope.png,US_Cities_List/nat_shreveport.png,,,,,,,,,,,,,,,,,,,,,,,,,,,,
null,,rt_plussign_withcolor,283521,blue,,,,,null,US_Cities_List/mm_newhope.png,US_Cities_List/nat_shreveport.png,,,,,,,,,,,,,,,,,,,,,,,,,,,,
932,,rt_thecrossant_black,284861,black_plus_sign,,,,,49,,,1,0.9615384615384616,,,,,,,,,,,,,,,,,,,,,,,,,,
null,,color_black,284962,black_plus_sign,,,,,null,,,,,,,,,,,,,,,,,,,,,,,,,,,,,,
null,,learn_phase(without_color),287486,black_plus_sign,,,,,null,US_Cities_List/mm_peoria.png,US_Cities_List/mm_carmel.png,,,,,,,,,,,,,,,,,,,,,,,,,,,,
null,,black_cross(without_color),287983,green,,,,,null,US_Cities_List/mm_peoria.png,US_Cities_List/mm_carmel.png,,,,,,,,,,,,,,,,,,,,,,,,,,,,
null,,rt_plussign_withcolor,288485,green,,,,,null,US_Cities_List/mm_peoria.png,US_Cities_List/mm_carmel.png,,,,,,,,,,,,,,,,,,,,,,,,,,,,
1040.9000000059605,,rt_thecrossant_black,289992,black_plus_sign,,,,,50,,,1,0.9629629629629629,,,,,,,,,,,,,,,,,,,,,,,,,,
null,,color_black,290094,black_plus_sign,,,,,null,,,,,,,,,,,,,,,,,,,,,,,,,,,,,,
null,,learn_phase(without_color),292616,black_plus_sign,,,,,null,US_Cities_List/mm_boulder.png,US_Cities_List/nat_cornwall.png,,,,,,,,,,,,,,,,,,,,,,,,,,,,
null,,black_cross(without_color),293204,green,,,,,null,US_Cities_List/mm_boulder.png,US_Cities_List/nat_cornwall.png,,,,,,,,,,,,,,,,,,,,,,,,,,,,
null,,rt_plussign_withcolor,293706,green,,,,,null,US_Cities_List/mm_boulder.png,US_Cities_List/nat_cornwall.png,,,,,,,,,,,,,,,,,,,,,,,,,,,,
617,,rt_thecrossant_black,295122,black_plus_sign,,,,,50,,,1,0.9642857142857143,,,,,,,,,,,,,,,,,,,,,,,,,,
null,,color_black,295224,black_plus_sign,,,,,null,,,,,,,,,,,,,,,,,,,,,,,,,,,,,,
null,,learn_phase(without_color),297747,black_plus_sign,,,,,null,US_Cities_List/nat_hotsprings.png,US_Cities_List/mm_boulder.png,,,,,,,,,,,,,,,,,,,,,,,,,,,,
null,,black_cross(without_color),298480,green,,,,,null,US_Cities_List/nat_hotsprings.png,US_Cities_List/mm_boulder.png,,,,,,,,,,,,,,,,,,,,,,,,,,,,
null,,rt_plussign_withcolor,298981,green,,,,,null,US_Cities_List/nat_hotsprings.png,US_Cities_List/mm_boulder.png,,,,,,,,,,,,,,,,,,,,,,,,,,,,
807.9000000059605,,rt_thecrossant_black,300251,black_plus_sign,,,,,50,,,1,0.9655172413793104,,,,,,,,,,,,,,,,,,,,,,,,,,
null,,color_black,300353,black_plus_sign,,,,,null,,,,,,,,,,,,,,,,,,,,,,,,,,,,,,
null,,learn_phase(without_color),302875,black_plus_sign,,,,,null,US_Cities_List/mm_newhope.png,US_Cities_List/nat_shreveport.png,,,,,,,,,,,,,,,,,,,,,,,,,,,,
null,,black_cross(without_color),303759,green,,,,,null,US_Cities_List/mm_newhope.png,US_Cities_List/nat_shreveport.png,,,,,,,,,,,,,,,,,,,,,,,,,,,,
null,,rt_plussign_withcolor,304262,green,,,,,null,US_Cities_List/mm_newhope.png,US_Cities_List/nat_shreveport.png,,,,,,,,,,,,,,,,,,,,,,,,,,,,
872.4000000059605,,rt_thecrossant_black,305382,black_plus_sign,,,,,50,,,1,0.9666666666666667,,,,,,,,,,,,,,,,,,,,,,,,,,
null,,color_black,305484,black_plus_sign,,,,,null,,,,,,,,,,,,,,,,,,,,,,,,,,,,,,
null,,learn_phase(without_color),308005,black_plus_sign,,,,,null,US_Cities_List/nat_racine.png,US_Cities_List/nat_westpalmbeach.png,,,,,,,,,,,,,,,,,,,,,,,,,,,,
null,,black_cross(without_color),308810,green,,,,,null,US_Cities_List/nat_racine.png,US_Cities_List/nat_westpalmbeach.png,,,,,,,,,,,,,,,,,,,,,,,,,,,,
383.40000000596046,,rt_plussign_withcolor,309312,green,,,,,50,US_Cities_List/nat_racine.png,US_Cities_List/nat_westpalmbeach.png,,,,,,,,,,,,,,,,,,,,,,,,,,,,
null,,rt_thecrossant_black,310510,black_plus_sign,,,,,null,,,1,0.967741935483871,,,,,,,,,,,,,,,,,,,,,,,,,,
null,,color_black,310612,black_plus_sign,,,,,null,,,,,,,,,,,,,,,,,,,,,,,,,,,,,,
null,,learn_phase(without_color),313140,black_plus_sign,,,,,null,US_Cities_List/nat_racine.png,US_Cities_List/nat_hanover.png,,,,,,,,,,,,,,,,,,,,,,,,,,,,
null,,black_cross(without_color),313598,blue,,,,,null,US_Cities_List/nat_racine.png,US_Cities_List/nat_hanover.png,,,,,,,,,,,,,,,,,,,,,,,,,,,,
null,,rt_plussign_withcolor,314114,blue,,,,,null,US_Cities_List/nat_racine.png,US_Cities_List/nat_hanover.png,,,,,,,,,,,,,,,,,,,,,,,,,,,,
921.7999999970198,,rt_thecrossant_black,315660,black_plus_sign,,,,,49,,,1,0.96875,,,,,,,,,,,,,,,,,,,,,,,,,,
null,,color_black,315762,black_plus_sign,,,,,null,,,,,,,,,,,,,,,,,,,,,,,,,,,,,,
null,,learn_phase(without_color),318291,black_plus_sign,,,,,null,US_Cities_List/nat_racine.png,US_Cities_List/nat_westpalmbeach.png,,,,,,,,,,,,,,,,,,,,,,,,,,,,
null,,black_cross(without_color),319169,green,,,,,null,US_Cities_List/nat_racine.png,US_Cities_List/nat_westpalmbeach.png,,,,,,,,,,,,,,,,,,,,,,,,,,,,
null,,rt_plussign_withcolor,319670,green,,,,,null,US_Cities_List/nat_racine.png,US_Cities_List/nat_westpalmbeach.png,,,,,,,,,,,,,,,,,,,,,,,,,,,,
592.4000000059605,,rt_thecrossant_black,320794,black_plus_sign,,,,,50,,,1,0.9696969696969697,,,,,,,,,,,,,,,,,,,,,,,,,,
null,,color_black,320896,black_plus_sign,,,,,null,,,,,,,,,,,,,,,,,,,,,,,,,,,,,,
null,,learn_phase(without_color),323417,black_plus_sign,,,,,null,US_Cities_List/mm_peoria.png,US_Cities_List/nat_hotsprings.png,,,,,,,,,,,,,,,,,,,,,,,,,,,,
null,,black_cross(without_color),324113,blue,,,,,null,US_Cities_List/mm_peoria.png,US_Cities_List/nat_hotsprings.png,,,,,,,,,,,,,,,,,,,,,,,,,,,,
null,,rt_plussign_withcolor,324614,blue,,,,,null,US_Cities_List/mm_peoria.png,US_Cities_List/nat_hotsprings.png,,,,,,,,,,,,,,,,,,,,,,,,,,,,
1002.9000000059605,,rt_thecrossant_black,325934,black_plus_sign,,,,,49,,,1,0.9705882352941176,,,,,,,,,,,,,,,,,,,,,,,,,,
null,,color_black,326035,black_plus_sign,,,,,null,,,,,,,,,,,,,,,,,,,,,,,,,,,,,,
null,,learn_phase(without_color),328557,black_plus_sign,,,,,null,US_Cities_List/mm_boulder.png,US_Cities_List/nat_cornwall.png,,,,,,,,,,,,,,,,,,,,,,,,,,,,
null,,black_cross(without_color),329200,green,,,,,null,US_Cities_List/mm_boulder.png,US_Cities_List/nat_cornwall.png,,,,,,,,,,,,,,,,,,,,,,,,,,,,
null,,rt_plussign_withcolor,329702,green,,,,,null,US_Cities_List/mm_boulder.png,US_Cities_List/nat_cornwall.png,,,,,,,,,,,,,,,,,,,,,,,,,,,,
909.2000000029802,,rt_thecrossant_black,331062,black_plus_sign,,,,,50,,,1,0.9714285714285714,,,,,,,,,,,,,,,,,,,,,,,,,,
null,,color_black,331176,black_plus_sign,,,,,null,,,,,,,,,,,,,,,,,,,,,,,,,,,,,,
null,,learn_phase(without_color),333696,black_plus_sign,,,,,null,US_Cities_List/mm_leesburg.png,US_Cities_List/mm_gatlinburg.png,,,,,,,,,,,,,,,,,,,,,,,,,,,,
null,,black_cross(without_color),334478,blue,,,,,null,US_Cities_List/mm_leesburg.png,US_Cities_List/mm_gatlinburg.png,,,,,,,,,,,,,,,,,,,,,,,,,,,,
461.09999999403954,,rt_plussign_withcolor,334979,blue,,,,,49,US_Cities_List/mm_leesburg.png,US_Cities_List/mm_gatlinburg.png,,,,,,,,,,,,,,,,,,,,,,,,,,,,
null,,rt_thecrossant_black,336200,black_plus_sign,,,,,null,,,1,0.9722222222222222,,,,,,,,,,,,,,,,,,,,,,,,,,
null,,color_black,336302,black_plus_sign,,,,,null,,,,,,,,,,,,,,,,,,,,,,,,,,,,,,
null,,learn_phase(without_color),338829,black_plus_sign,,,,,null,US_Cities_List/nat_hotsprings.png,US_Cities_List/mm_boulder.png,,,,,,,,,,,,,,,,,,,,,,,,,,,,
null,,black_cross(without_color),339685,green,,,,,null,US_Cities_List/nat_hotsprings.png,US_Cities_List/mm_boulder.png,,,,,,,,,,,,,,,,,,,,,,,,,,,,
null,,rt_plussign_withcolor,340186,green,,,,,null,US_Cities_List/nat_hotsprings.png,US_Cities_List/mm_boulder.png,,,,,,,,,,,,,,,,,,,,,,,,,,,,
987.8000000119209,,rt_thecrossant_black,341334,black_plus_sign,,,,,50,,,1,0.972972972972973,,,,,,,,,,,,,,,,,,,,,,,,,,
null,,color_black,341436,black_plus_sign,,,,,null,,,,,,,,,,,,,,,,,,,,,,,,,,,,,,
null,,learn_phase(without_color),343960,black_plus_sign,,,,,null,US_Cities_List/mm_peoria.png,US_Cities_List/nat_hotsprings.png,,,,,,,,,,,,,,,,,,,,,,,,,,,,
null,,black_cross(without_color),345061,green,,,,,null,US_Cities_List/mm_peoria.png,US_Cities_List/nat_hotsprings.png,,,,,,,,,,,,,,,,,,,,,,,,,,,,
427.79999999701977,,rt_plussign_withcolor,345562,green,,,,,50,US_Cities_List/mm_peoria.png,US_Cities_List/nat_hotsprings.png,,,,,,,,,,,,,,,,,,,,,,,,,,,,
null,,rt_thecrossant_black,346464,black_plus_sign,,,,,null,,,1,0.9736842105263158,,,,,,,,,,,,,,,,,,,,,,,,,,
null,,color_black,346566,black_plus_sign,,,,,null,,,,,,,,,,,,,,,,,,,,,,,,,,,,,,
null,,learn_phase(without_color),349096,black_plus_sign,,,,,null,US_Cities_List/nat_racine.png,US_Cities_List/nat_hanover.png,,,,,,,,,,,,,,,,,,,,,,,,,,,,
null,,black_cross(without_color),349582,green,,,,,null,US_Cities_List/nat_racine.png,US_Cities_List/nat_hanover.png,,,,,,,,,,,,,,,,,,,,,,,,,,,,
473.20000000298023,,rt_plussign_withcolor,350083,green,,,,,50,US_Cities_List/nat_racine.png,US_Cities_List/nat_hanover.png,,,,,,,,,,,,,,,,,,,,,,,,,,,,
null,,rt_thecrossant_black,351600,black_plus_sign,,,,,null,,,1,0.9743589743589743,,,,,,,,,,,,,,,,,,,,,,,,,,
null,,color_black,351703,black_plus_sign,,,,,null,,,,,,,,,,,,,,,,,,,,,,,,,,,,,,
null,,learn_phase(without_color),354227,black_plus_sign,,,,,null,US_Cities_List/nat_racine.png,US_Cities_List/nat_westpalmbeach.png,,,,,,,,,,,,,,,,,,,,,,,,,,,,
null,,black_cross(without_color),354987,green,,,,,null,US_Cities_List/nat_racine.png,US_Cities_List/nat_westpalmbeach.png,,,,,,,,,,,,,,,,,,,,,,,,,,,,
463.79999999701977,,rt_plussign_withcolor,355488,green,,,,,50,US_Cities_List/nat_racine.png,US_Cities_List/nat_westpalmbeach.png,,,,,,,,,,,,,,,,,,,,,,,,,,,,
null,,rt_thecrossant_black,356731,black_plus_sign,,,,,null,,,1,0.975,,,,,,,,,,,,,,,,,,,,,,,,,,
null,,color_black,356833,black_plus_sign,,,,,null,,,,,,,,,,,,,,,,,,,,,,,,,,,,,,
null,,learn_phase(without_color),359362,black_plus_sign,,,,,null,US_Cities_List/mm_boulder.png,US_Cities_List/nat_shreveport.png,,,,,,,,,,,,,,,,,,,,,,,,,,,,
null,,black_cross(without_color),360366,green,,,,,null,US_Cities_List/mm_boulder.png,US_Cities_List/nat_shreveport.png,,,,,,,,,,,,,,,,,,,,,,,,,,,,
null,,rt_plussign_withcolor,360868,green,,,,,null,US_Cities_List/mm_boulder.png,US_Cities_List/nat_shreveport.png,,,,,,,,,,,,,,,,,,,,,,,,,,,,
884.5,,rt_thecrossant_black,361868,black_plus_sign,,,,,50,,,1,0.975609756097561,,,,,,,,,,,,,,,,,,,,,,,,,,
null,,color_black,361969,black_plus_sign,,,,,null,,,,,,,,,,,,,,,,,,,,,,,,,,,,,,
null,,learn_phase(without_color),364505,black_plus_sign,,,,,null,US_Cities_List/nat_racine.png,US_Cities_List/nat_hanover.png,,,,,,,,,,,,,,,,,,,,,,,,,,,,
null,,black_cross(without_color),365446,green,,,,,null,US_Cities_List/nat_racine.png,US_Cities_List/nat_hanover.png,,,,,,,,,,,,,,,,,,,,,,,,,,,,
null,,rt_plussign_withcolor,365947,green,,,,,null,US_Cities_List/nat_racine.png,US_Cities_List/nat_hanover.png,,,,,,,,,,,,,,,,,,,,,,,,,,,,
1229.5,,rt_thecrossant_black,367009,black_plus_sign,,,,,50,,,1,0.9761904761904762,,,,,,,,,,,,,,,,,,,,,,,,,,
null,,color_black,367110,black_plus_sign,,,,,null,,,,,,,,,,,,,,,,,,,,,,,,,,,,,,
null,,learn_phase(without_color),369642,black_plus_sign,,,,,null,US_Cities_List/mm_gatlinburg.png,US_Cities_List/nat_racine.png,,,,,,,,,,,,,,,,,,,,,,,,,,,,
null,,black_cross(without_color),370721,green,,,,,null,US_Cities_List/mm_gatlinburg.png,US_Cities_List/nat_racine.png,,,,,,,,,,,,,,,,,,,,,,,,,,,,
null,,rt_plussign_withcolor,371222,green,,,,,null,US_Cities_List/mm_gatlinburg.png,US_Cities_List/nat_racine.png,,,,,,,,,,,,,,,,,,,,,,,,,,,,
1067.7999999970198,,rt_thecrossant_black,372148,black_plus_sign,,,,,50,,,1,0.9767441860465116,,,,,,,,,,,,,,,,,,,,,,,,,,
null,,color_black,372251,black_plus_sign,,,,,null,,,,,,,,,,,,,,,,,,,,,,,,,,,,,,
null,,learn_phase(without_color),374786,black_plus_sign,,,,,null,US_Cities_List/mm_boulder.png,US_Cities_List/nat_shreveport.png,,,,,,,,,,,,,,,,,,,,,,,,,,,,
null,,black_cross(without_color),375440,green,,,,,null,US_Cities_List/mm_boulder.png,US_Cities_List/nat_shreveport.png,,,,,,,,,,,,,,,,,,,,,,,,,,,,
null,,rt_plussign_withcolor,375943,green,,,,,null,US_Cities_List/mm_boulder.png,US_Cities_List/nat_shreveport.png,,,,,,,,,,,,,,,,,,,,,,,,,,,,
1180.9000000059605,,rt_thecrossant_black,377294,black_plus_sign,,,,,50,,,1,0.9772727272727273,,,,,,,,,,,,,,,,,,,,,,,,,,
null,,color_black,377397,black_plus_sign,,,,,null,,,,,,,,,,,,,,,,,,,,,,,,,,,,,,
null,,learn_phase(without_color),379931,black_plus_sign,,,,,null,US_Cities_List/nat_racine.png,US_Cities_List/nat_hanover.png,,,,,,,,,,,,,,,,,,,,,,,,,,,,
null,,black_cross(without_color),380806,green,,,,,null,US_Cities_List/nat_racine.png,US_Cities_List/nat_hanover.png,,,,,,,,,,,,,,,,,,,,,,,,,,,,
null,,rt_plussign_withcolor,381318,green,,,,,null,US_Cities_List/nat_racine.png,US_Cities_List/nat_hanover.png,,,,,,,,,,,,,,,,,,,,,,,,,,,,
855.6000000089407,,rt_thecrossant_black,382446,black_plus_sign,,,,,50,,,1,0.9777777777777777,,,,,,,,,,,,,,,,,,,,,,,,,,
null,,color_black,382548,black_plus_sign,,,,,null,,,,,,,,,,,,,,,,,,,,,,,,,,,,,,
null,,learn_phase(without_color),385071,black_plus_sign,,,,,null,US_Cities_List/nat_hotsprings.png,US_Cities_List/nat_shreveport.png,,,,,,,,,,,,,,,,,,,,,,,,,,,,
null,,black_cross(without_color),385922,blue,,,,,null,US_Cities_List/nat_hotsprings.png,US_Cities_List/nat_shreveport.png,,,,,,,,,,,,,,,,,,,,,,,,,,,,
null,,rt_plussign_withcolor,386423,blue,,,,,null,US_Cities_List/nat_hotsprings.png,US_Cities_List/nat_shreveport.png,,,,,,,,,,,,,,,,,,,,,,,,,,,,
1056.6000000089407,,rt_thecrossant_black,387576,black_plus_sign,,,,,49,,,1,0.9782608695652174,,,,,,,,,,,,,,,,,,,,,,,,,,
null,,color_black,387677,black_plus_sign,,,,,null,,,,,,,,,,,,,,,,,,,,,,,,,,,,,,
null,,learn_phase(without_color),390197,black_plus_sign,,,,,null,US_Cities_List/mm_gatlinburg.png,US_Cities_List/mm_peoria.png,,,,,,,,,,,,,,,,,,,,,,,,,,,,
null,,black_cross(without_color),390829,green,,,,,null,US_Cities_List/mm_gatlinburg.png,US_Cities_List/mm_peoria.png,,,,,,,,,,,,,,,,,,,,,,,,,,,,
null,,rt_plussign_withcolor,391330,green,,,,,null,US_Cities_List/mm_gatlinburg.png,US_Cities_List/mm_peoria.png,,,,,,,,,,,,,,,,,,,,,,,,,,,,
1001.1999999880791,,rt_thecrossant_black,392711,black_plus_sign,,,,,50,,,1,0.9787234042553191,,,,,,,,,,,,,,,,,,,,,,,,,,
null,,color_black,392814,black_plus_sign,,,,,null,,,,,,,,,,,,,,,,,,,,,,,,,,,,,,
null,,learn_phase(without_color),395340,black_plus_sign,,,,,null,US_Cities_List/nat_racine.png,US_Cities_List/nat_hanover.png,,,,,,,,,,,,,,,,,,,,,,,,,,,,
null,,black_cross(without_color),396419,blue,,,,,null,US_Cities_List/nat_racine.png,US_Cities_List/nat_hanover.png,,,,,,,,,,,,,,,,,,,,,,,,,,,,
358.19999998807907,,rt_plussign_withcolor,396921,blue,,,,,49,US_Cities_List/nat_racine.png,US_Cities_List/nat_hanover.png,,,,,,,,,,,,,,,,,,,,,,,,,,,,
null,,rt_thecrossant_black,397845,black_plus_sign,,,,,null,,,1,0.9791666666666666,,,,,,,,,,,,,,,,,,,,,,,,,,
null,,color_black,397947,black_plus_sign,,,,,null,,,,,,,,,,,,,,,,,,,,,,,,,,,,,,
null,,learn_phase(without_color),400473,black_plus_sign,,,,,null,US_Cities_List/mm_newhope.png,US_Cities_List/nat_shreveport.png,,,,,,,,,,,,,,,,,,,,,,,,,,,,
null,,black_cross(without_color),401506,blue,,,,,null,US_Cities_List/mm_newhope.png,US_Cities_List/nat_shreveport.png,,,,,,,,,,,,,,,,,,,,,,,,,,,,
null,,rt_plussign_withcolor,402008,blue,,,,,null,US_Cities_List/mm_newhope.png,US_Cities_List/nat_shreveport.png,,,,,,,,,,,,,,,,,,,,,,,,,,,,
1338.5,,rt_thecrossant_black,402981,black_plus_sign,,,,,49,,,1,0.9795918367346939,,,,,,,,,,,,,,,,,,,,,,,,,,
null,,color_black,403094,black_plus_sign,,,,,null,,,,,,,,,,,,,,,,,,,,,,,,,,,,,,
null,,learn_phase(without_color),405619,black_plus_sign,,,,,null,US_Cities_List/mm_boulder.png,US_Cities_List/mm_newhope.png,,,,,,,,,,,,,,,,,,,,,,,,,,,,
null,,black_cross(without_color),406712,green,,,,,null,US_Cities_List/mm_boulder.png,US_Cities_List/mm_newhope.png,,,,,,,,,,,,,,,,,,,,,,,,,,,,
null,,rt_plussign_withcolor,407214,green,,,,,null,US_Cities_List/mm_boulder.png,US_Cities_List/mm_newhope.png,,,,,,,,,,,,,,,,,,,,,,,,,,,,
1394.699999988079,,rt_thecrossant_black,408125,black_plus_sign,,,,,50,,,1,0.98,,,,,,,,,,,,,,,,,,,,,,,,,,
null,,color_black,408227,black_plus_sign,,,,,null,,,,,,,,,,,,,,,,,,,,,,,,,,,,,,
null,,learn_phase(without_color),410757,black_plus_sign,,,,,null,US_Cities_List/mm_newhope.png,US_Cities_List/nat_shreveport.png,,,,,,,,,,,,,,,,,,,,,,,,,,,,
null,,black_cross(without_color),411262,blue,,,,,null,US_Cities_List/mm_newhope.png,US_Cities_List/nat_shreveport.png,,,,,,,,,,,,,,,,,,,,,,,,,,,,
455.90000000596046,,rt_plussign_withcolor,411763,blue,,,,,49,US_Cities_List/mm_newhope.png,US_Cities_List/nat_shreveport.png,,,,,,,,,,,,,,,,,,,,,,,,,,,,
null,,rt_thecrossant_black,413261,black_plus_sign,,,,,null,,,1,0.9803921568627451,,,,,,,,,,,,,,,,,,,,,,,,,,
null,,color_black,413363,black_plus_sign,,,,,null,,,,,,,,,,,,,,,,,,,,,,,,,,,,,,
null,,learn_phase(without_color),415893,black_plus_sign,,,,,null,US_Cities_List/mm_boulder.png,US_Cities_List/mm_newhope.png,,,,,,,,,,,,,,,,,,,,,,,,,,,,
null,,black_cross(without_color),416505,green,,,,,null,US_Cities_List/mm_boulder.png,US_Cities_List/mm_newhope.png,,,,,,,,,,,,,,,,,,,,,,,,,,,,
null,,rt_plussign_withcolor,417007,green,,,,,null,US_Cities_List/mm_boulder.png,US_Cities_List/mm_newhope.png,,,,,,,,,,,,,,,,,,,,,,,,,,,,
649.5999999940395,,rt_thecrossant_black,418398,black_plus_sign,,,,,50,,,1,0.9807692307692307,,,,,,,,,,,,,,,,,,,,,,,,,,
null,,color_black,418499,black_plus_sign,,,,,null,,,,,,,,,,,,,,,,,,,,,,,,,,,,,,
null,,learn_phase(without_color),421020,black_plus_sign,,,,,null,US_Cities_List/nat_hotsprings.png,US_Cities_List/nat_shreveport.png,,,,,,,,,,,,,,,,,,,,,,,,,,,,
null,,black_cross(without_color),421671,blue,,,,,null,US_Cities_List/nat_hotsprings.png,US_Cities_List/nat_shreveport.png,,,,,,,,,,,,,,,,,,,,,,,,,,,,
null,,rt_plussign_withcolor,422173,blue,,,,,null,US_Cities_List/nat_hotsprings.png,US_Cities_List/nat_shreveport.png,,,,,,,,,,,,,,,,,,,,,,,,,,,,
737.3999999910593,,rt_thecrossant_black,423525,black_plus_sign,,,,,49,,,1,0.9811320754716981,,,,,,,,,,,,,,,,,,,,,,,,,,
null,,color_black,423626,black_plus_sign,,,,,null,,,,,,,,,,,,,,,,,,,,,,,,,,,,,,
null,,learn_phase(without_color),426151,black_plus_sign,,,,,null,US_Cities_List/mm_peoria.png,US_Cities_List/nat_hotsprings.png,,,,,,,,,,,,,,,,,,,,,,,,,,,,
null,,black_cross(without_color),427122,blue,,,,,null,US_Cities_List/mm_peoria.png,US_Cities_List/nat_hotsprings.png,,,,,,,,,,,,,,,,,,,,,,,,,,,,
null,,rt_plussign_withcolor,427623,blue,,,,,null,US_Cities_List/mm_peoria.png,US_Cities_List/nat_hotsprings.png,,,,,,,,,,,,,,,,,,,,,,,,,,,,
752.7999999970198,,rt_thecrossant_black,428655,black_plus_sign,,,,,49,,,1,0.9814814814814815,,,,,,,,,,,,,,,,,,,,,,,,,,
null,,color_black,428756,black_plus_sign,,,,,null,,,,,,,,,,,,,,,,,,,,,,,,,,,,,,
null,,learn_phase(without_color),431282,black_plus_sign,,,,,null,US_Cities_List/mm_boulder.png,US_Cities_List/mm_newhope.png,,,,,,,,,,,,,,,,,,,,,,,,,,,,
null,,black_cross(without_color),432042,blue,,,,,null,US_Cities_List/mm_boulder.png,US_Cities_List/mm_newhope.png,,,,,,,,,,,,,,,,,,,,,,,,,,,,
489,,rt_plussign_withcolor,432543,blue,,,,,49,US_Cities_List/mm_boulder.png,US_Cities_List/mm_newhope.png,,,,,,,,,,,,,,,,,,,,,,,,,,,,
null,,rt_thecrossant_black,433787,black_plus_sign,,,,,null,,,1,0.9818181818181818,,,,,,,,,,,,,,,,,,,,,,,,,,
null,,color_black,433889,black_plus_sign,,,,,null,,,,,,,,,,,,,,,,,,,,,,,,,,,,,,
null,,learn_phase(without_color),436412,black_plus_sign,,,,,null,US_Cities_List/mm_gatlinburg.png,US_Cities_List/nat_racine.png,,,,,,,,,,,,,,,,,,,,,,,,,,,,
null,,black_cross(without_color),437278,green,,,,,null,US_Cities_List/mm_gatlinburg.png,US_Cities_List/nat_racine.png,,,,,,,,,,,,,,,,,,,,,,,,,,,,
442.6000000089407,,rt_plussign_withcolor,437780,green,,,,,50,US_Cities_List/mm_gatlinburg.png,US_Cities_List/nat_racine.png,,,,,,,,,,,,,,,,,,,,,,,,,,,,
null,,rt_thecrossant_black,438917,black_plus_sign,,,,,null,,,1,0.9821428571428571,,,,,,,,,,,,,,,,,,,,,,,,,,
null,,color_black,439019,black_plus_sign,,,,,null,,,,,,,,,,,,,,,,,,,,,,,,,,,,,,
null,,learn_phase(without_color),441542,black_plus_sign,,,,,null,US_Cities_List/mm_newhope.png,US_Cities_List/mm_huntsville.png,,,,,,,,,,,,,,,,,,,,,,,,,,,,
null,,black_cross(without_color),442511,green,,,,,null,US_Cities_List/mm_newhope.png,US_Cities_List/mm_huntsville.png,,,,,,,,,,,,,,,,,,,,,,,,,,,,
null,,rt_plussign_withcolor,443022,green,,,,,null,US_Cities_List/mm_newhope.png,US_Cities_List/mm_huntsville.png,,,,,,,,,,,,,,,,,,,,,,,,,,,,
1088.9000000059605,,rt_thecrossant_black,444056,black_plus_sign,,,,,49,,,0,0.9649122807017544,,,,,,,,,,,,,,,,,,,,,,,,,,
null,,color_black,444159,black_plus_sign,,,,,null,,,,,,,,,,,,,,,,,,,,,,,,,,,,,,
null,,learn_phase(without_color),446683,black_plus_sign,,,,,null,US_Cities_List/nat_racine.png,US_Cities_List/nat_westpalmbeach.png,,,,,,,,,,,,,,,,,,,,,,,,,,,,
null,,black_cross(without_color),447201,green,,,,,null,US_Cities_List/nat_racine.png,US_Cities_List/nat_westpalmbeach.png,,,,,,,,,,,,,,,,,,,,,,,,,,,,
null,,rt_plussign_withcolor,447702,green,,,,,null,US_Cities_List/nat_racine.png,US_Cities_List/nat_westpalmbeach.png,,,,,,,,,,,,,,,,,,,,,,,,,,,,
1131.5,,rt_thecrossant_black,449189,black_plus_sign,,,,,50,,,1,0.9655172413793104,,,,,,,,,,,,,,,,,,,,,,,,,,
null,,color_black,449290,black_plus_sign,,,,,null,,,,,,,,,,,,,,,,,,,,,,,,,,,,,,
null,,learn_phase(without_color),451812,black_plus_sign,,,,,null,US_Cities_List/nat_hotsprings.png,US_Cities_List/mm_boulder.png,,,,,,,,,,,,,,,,,,,,,,,,,,,,
null,,black_cross(without_color),452711,green,,,,,null,US_Cities_List/nat_hotsprings.png,US_Cities_List/mm_boulder.png,,,,,,,,,,,,,,,,,,,,,,,,,,,,
null,,rt_plussign_withcolor,453213,green,,,,,null,US_Cities_List/nat_hotsprings.png,US_Cities_List/mm_boulder.png,,,,,,,,,,,,,,,,,,,,,,,,,,,,
618.2000000029802,,rt_thecrossant_black,454317,black_plus_sign,,,,,50,,,1,0.9661016949152542,,,,,,,,,,,,,,,,,,,,,,,,,,
null,,color_black,454419,black_plus_sign,,,,,null,,,,,,,,,,,,,,,,,,,,,,,,,,,,,,
null,,learn_phase(without_color),456941,black_plus_sign,,,,,null,US_Cities_List/mm_gatlinburg.png,US_Cities_List/mm_peoria.png,,,,,,,,,,,,,,,,,,,,,,,,,,,,
null,,black_cross(without_color),457862,blue,,,,,null,US_Cities_List/mm_gatlinburg.png,US_Cities_List/mm_peoria.png,,,,,,,,,,,,,,,,,,,,,,,,,,,,
491.59999999403954,,rt_plussign_withcolor,458363,blue,,,,,49,US_Cities_List/mm_gatlinburg.png,US_Cities_List/mm_peoria.png,,,,,,,,,,,,,,,,,,,,,,,,,,,,
null,,rt_thecrossant_black,459446,black_plus_sign,,,,,null,,,1,0.9666666666666667,,,,,,,,,,,,,,,,,,,,,,,,,,
null,,color_black,459548,black_plus_sign,,,,,null,,,,,,,,,,,,,,,,,,,,,,,,,,,,,,
null,,learn_phase(without_color),462067,black_plus_sign,,,,,null,US_Cities_List/mm_boulder.png,US_Cities_List/mm_newhope.png,,,,,,,,,,,,,,,,,,,,,,,,,,,,
null,,black_cross(without_color),462826,green,,,,,null,US_Cities_List/mm_boulder.png,US_Cities_List/mm_newhope.png,,,,,,,,,,,,,,,,,,,,,,,,,,,,
null,,rt_plussign_withcolor,463328,green,,,,,null,US_Cities_List/mm_boulder.png,US_Cities_List/mm_newhope.png,,,,,,,,,,,,,,,,,,,,,,,,,,,,
1163.699999988079,,rt_thecrossant_black,464571,black_plus_sign,,,,,50,,,1,0.9672131147540983,,,,,,,,,,,,,,,,,,,,,,,,,,
null,,color_black,464673,black_plus_sign,,,,,null,,,,,,,,,,,,,,,,,,,,,,,,,,,,,,
null,,learn_phase(without_color),467194,black_plus_sign,,,,,null,US_Cities_List/nat_hotsprings.png,US_Cities_List/nat_shreveport.png,,,,,,,,,,,,,,,,,,,,,,,,,,,,
null,,black_cross(without_color),467866,blue,,,,,null,US_Cities_List/nat_hotsprings.png,US_Cities_List/nat_shreveport.png,,,,,,,,,,,,,,,,,,,,,,,,,,,,
null,,rt_plussign_withcolor,468368,blue,,,,,null,US_Cities_List/nat_hotsprings.png,US_Cities_List/nat_shreveport.png,,,,,,,,,,,,,,,,,,,,,,,,,,,,
884.5,,rt_thecrossant_black,469698,black_plus_sign,,,,,49,,,1,0.967741935483871,,,,,,,,,,,,,,,,,,,,,,,,,,
null,,color_black,469800,black_plus_sign,,,,,null,,,,,,,,,,,,,,,,,,,,,,,,,,,,,,
null,,learn_phase(without_color),472330,black_plus_sign,,,,,null,US_Cities_List/mm_boulder.png,US_Cities_List/nat_shreveport.png,,,,,,,,,,,,,,,,,,,,,,,,,,,,
null,,black_cross(without_color),473365,blue,,,,,null,US_Cities_List/mm_boulder.png,US_Cities_List/nat_shreveport.png,,,,,,,,,,,,,,,,,,,,,,,,,,,,
482.8999999910593,,rt_plussign_withcolor,473867,blue,,,,,49,US_Cities_List/mm_boulder.png,US_Cities_List/nat_shreveport.png,,,,,,,,,,,,,,,,,,,,,,,,,,,,
null,,rt_thecrossant_black,474835,black_plus_sign,,,,,null,,,1,0.9682539682539683,,,,,,,,,,,,,,,,,,,,,,,,,,
null,,color_black,474937,black_plus_sign,,,,,null,,,,,,,,,,,,,,,,,,,,,,,,,,,,,,
null,,learn_phase(without_color),477462,black_plus_sign,,,,,null,US_Cities_List/mm_newhope.png,US_Cities_List/mm_huntsville.png,,,,,,,,,,,,,,,,,,,,,,,,,,,,
null,,black_cross(without_color),477972,green,,,,,null,US_Cities_List/mm_newhope.png,US_Cities_List/mm_huntsville.png,,,,,,,,,,,,,,,,,,,,,,,,,,,,
null,,rt_plussign_withcolor,478475,green,,,,,null,US_Cities_List/mm_newhope.png,US_Cities_List/mm_huntsville.png,,,,,,,,,,,,,,,,,,,,,,,,,,,,
1496,,rt_thecrossant_black,479968,black_plus_sign,,,,,50,,,1,0.96875,,,,,,,,,,,,,,,,,,,,,,,,,,
null,,color_black,480070,black_plus_sign,,,,,null,,,,,,,,,,,,,,,,,,,,,,,,,,,,,,
null,,learn_phase(without_color),482597,black_plus_sign,,,,,null,US_Cities_List/mm_leesburg.png,US_Cities_List/mm_gatlinburg.png,,,,,,,,,,,,,,,,,,,,,,,,,,,,
null,,black_cross(without_color),483417,blue,,,,,null,US_Cities_List/mm_leesburg.png,US_Cities_List/mm_gatlinburg.png,,,,,,,,,,,,,,,,,,,,,,,,,,,,
null,,rt_plussign_withcolor,483927,blue,,,,,null,US_Cities_List/mm_leesburg.png,US_Cities_List/mm_gatlinburg.png,,,,,,,,,,,,,,,,,,,,,,,,,,,,
671.8999999910593,,rt_thecrossant_black,485110,black_plus_sign,,,,,49,,,1,0.9692307692307692,,,,,,,,,,,,,,,,,,,,,,,,,,
null,,color_black,485212,black_plus_sign,,,,,null,,,,,,,,,,,,,,,,,,,,,,,,,,,,,,
null,,learn_phase(without_color),487739,black_plus_sign,,,,,null,US_Cities_List/mm_peoria.png,US_Cities_List/nat_hotsprings.png,,,,,,,,,,,,,,,,,,,,,,,,,,,,
null,,black_cross(without_color),488782,blue,,,,,null,US_Cities_List/mm_peoria.png,US_Cities_List/nat_hotsprings.png,,,,,,,,,,,,,,,,,,,,,,,,,,,,
359.19999998807907,,rt_plussign_withcolor,489284,blue,,,,,49,US_Cities_List/mm_peoria.png,US_Cities_List/nat_hotsprings.png,,,,,,,,,,,,,,,,,,,,,,,,,,,,
null,,rt_thecrossant_black,490245,black_plus_sign,,,,,null,,,1,0.9696969696969697,,,,,,,,,,,,,,,,,,,,,,,,,,
null,,color_black,490347,black_plus_sign,,,,,null,,,,,,,,,,,,,,,,,,,,,,,,,,,,,,
null,,learn_phase(without_color),492867,black_plus_sign,,,,,null,US_Cities_List/nat_racine.png,US_Cities_List/nat_westpalmbeach.png,,,,,,,,,,,,,,,,,,,,,,,,,,,,
null,,black_cross(without_color),493631,blue,,,,,null,US_Cities_List/nat_racine.png,US_Cities_List/nat_westpalmbeach.png,,,,,,,,,,,,,,,,,,,,,,,,,,,,
null,,rt_plussign_withcolor,494132,blue,,,,,null,US_Cities_List/nat_racine.png,US_Cities_List/nat_westpalmbeach.png,,,,,,,,,,,,,,,,,,,,,,,,,,,,
1168.8999999910593,,rt_thecrossant_black,495371,black_plus_sign,,,,,49,,,1,0.9701492537313433,,,,,,,,,,,,,,,,,,,,,,,,,,
null,,color_black,495472,black_plus_sign,,,,,null,,,,,,,,,,,,,,,,,,,,,,,,,,,,,,
null,,learn_phase(without_color),497994,black_plus_sign,,,,,null,US_Cities_List/mm_carmel.png,US_Cities_List/nat_hanover.png,,,,,,,,,,,,,,,,,,,,,,,,,,,,
null,,black_cross(without_color),498656,green,,,,,null,US_Cities_List/mm_carmel.png,US_Cities_List/nat_hanover.png,,,,,,,,,,,,,,,,,,,,,,,,,,,,
null,,rt_plussign_withcolor,499158,green,,,,,null,US_Cities_List/mm_carmel.png,US_Cities_List/nat_hanover.png,,,,,,,,,,,,,,,,,,,,,,,,,,,,
913.7999999970198,,rt_thecrossant_black,500498,black_plus_sign,,,,,49,,,0,0.9558823529411765,,,,,,,,,,,,,,,,,,,,,,,,,,
null,,color_black,500600,black_plus_sign,,,,,null,,,,,,,,,,,,,,,,,,,,,,,,,,,,,,
null,,learn_phase(without_color),503123,black_plus_sign,,,,,null,US_Cities_List/mm_boulder.png,US_Cities_List/nat_shreveport.png,,,,,,,,,,,,,,,,,,,,,,,,,,,,
null,,black_cross(without_color),503600,green,,,,,null,US_Cities_List/mm_boulder.png,US_Cities_List/nat_shreveport.png,,,,,,,,,,,,,,,,,,,,,,,,,,,,
null,,rt_plussign_withcolor,504101,green,,,,,null,US_Cities_List/mm_boulder.png,US_Cities_List/nat_shreveport.png,,,,,,,,,,,,,,,,,,,,,,,,,,,,
794.8999999910593,,rt_thecrossant_black,505627,black_plus_sign,,,,,50,,,1,0.9565217391304348,,,,,,,,,,,,,,,,,,,,,,,,,,
null,,color_black,505730,black_plus_sign,,,,,null,,,,,,,,,,,,,,,,,,,,,,,,,,,,,,
null,,learn_phase(without_color),508254,black_plus_sign,,,,,null,US_Cities_List/mm_peoria.png,US_Cities_List/nat_hotsprings.png,,,,,,,,,,,,,,,,,,,,,,,,,,,,
null,,black_cross(without_color),508733,blue,,,,,null,US_Cities_List/mm_peoria.png,US_Cities_List/nat_hotsprings.png,,,,,,,,,,,,,,,,,,,,,,,,,,,,
461.19999998807907,,rt_plussign_withcolor,509234,blue,,,,,49,US_Cities_List/mm_peoria.png,US_Cities_List/nat_hotsprings.png,,,,,,,,,,,,,,,,,,,,,,,,,,,,
null,,rt_thecrossant_black,510757,black_plus_sign,,,,,null,,,1,0.9571428571428572,,,,,,,,,,,,,,,,,,,,,,,,,,
null,,color_black,510858,black_plus_sign,,,,,null,,,,,,,,,,,,,,,,,,,,,,,,,,,,,,
null,,learn_phase(without_color),513390,black_plus_sign,,,,,null,US_Cities_List/mm_boulder.png,US_Cities_List/nat_cornwall.png,,,,,,,,,,,,,,,,,,,,,,,,,,,,
null,,black_cross(without_color),514342,green,,,,,null,US_Cities_List/mm_boulder.png,US_Cities_List/nat_cornwall.png,,,,,,,,,,,,,,,,,,,,,,,,,,,,
482.70000000298023,,rt_plussign_withcolor,514843,green,,,,,50,US_Cities_List/mm_boulder.png,US_Cities_List/nat_cornwall.png,,,,,,,,,,,,,,,,,,,,,,,,,,,,
null,,rt_thecrossant_black,515897,black_plus_sign,,,,,null,,,1,0.9577464788732394,,,,,,,,,,,,,,,,,,,,,,,,,,
null,,color_black,515998,black_plus_sign,,,,,null,,,,,,,,,,,,,,,,,,,,,,,,,,,,,,
null,,learn_phase(without_color),518522,black_plus_sign,,,,,null,US_Cities_List/mm_gatlinburg.png,US_Cities_List/mm_peoria.png,,,,,,,,,,,,,,,,,,,,,,,,,,,,
null,,black_cross(without_color),519161,green,,,,,null,US_Cities_List/mm_gatlinburg.png,US_Cities_List/mm_peoria.png,,,,,,,,,,,,,,,,,,,,,,,,,,,,
452.5,,rt_plussign_withcolor,519663,green,,,,,50,US_Cities_List/mm_gatlinburg.png,US_Cities_List/mm_peoria.png,,,,,,,,,,,,,,,,,,,,,,,,,,,,
null,,rt_thecrossant_black,521028,black_plus_sign,,,,,null,,,1,0.9583333333333334,,,,,,,,,,,,,,,,,,,,,,,,,,
null,,color_black,521129,black_plus_sign,,,,,null,,,,,,,,,,,,,,,,,,,,,,,,,,,,,,
null,,learn_phase(without_color),523657,black_plus_sign,,,,,null,US_Cities_List/mm_boulder.png,US_Cities_List/nat_shreveport.png,,,,,,,,,,,,,,,,,,,,,,,,,,,,
null,,black_cross(without_color),524114,green,,,,,null,US_Cities_List/mm_boulder.png,US_Cities_List/nat_shreveport.png,,,,,,,,,,,,,,,,,,,,,,,,,,,,
null,,rt_plussign_withcolor,524616,green,,,,,null,US_Cities_List/mm_boulder.png,US_Cities_List/nat_shreveport.png,,,,,,,,,,,,,,,,,,,,,,,,,,,,
846.7999999970198,,rt_thecrossant_black,526162,black_plus_sign,,,,,50,,,1,0.958904109589041,,,,,,,,,,,,,,,,,,,,,,,,,,
null,,color_black,526271,black_plus_sign,,,,,null,,,,,,,,,,,,,,,,,,,,,,,,,,,,,,
null,,learn_phase(without_color),528794,black_plus_sign,,,,,null,US_Cities_List/mm_carmel.png,US_Cities_List/nat_hanover.png,,,,,,,,,,,,,,,,,,,,,,,,,,,,
null,,black_cross(without_color),529412,blue,,,,,null,US_Cities_List/mm_carmel.png,US_Cities_List/nat_hanover.png,,,,,,,,,,,,,,,,,,,,,,,,,,,,
391.29999999701977,,rt_plussign_withcolor,529913,blue,,,,,49,US_Cities_List/mm_carmel.png,US_Cities_List/nat_hanover.png,,,,,,,,,,,,,,,,,,,,,,,,,,,,
null,,rt_thecrossant_black,531297,black_plus_sign,,,,,null,,,1,0.9594594594594594,,,,,,,,,,,,,,,,,,,,,,,,,,
null,,color_black,531398,black_plus_sign,,,,,null,,,,,,,,,,,,,,,,,,,,,,,,,,,,,,
null,,learn_phase(without_color),533922,black_plus_sign,,,,,null,US_Cities_List/mm_leesburg.png,US_Cities_List/mm_gatlinburg.png,,,,,,,,,,,,,,,,,,,,,,,,,,,,
null,,black_cross(without_color),534800,blue,,,,,null,US_Cities_List/mm_leesburg.png,US_Cities_List/mm_gatlinburg.png,,,,,,,,,,,,,,,,,,,,,,,,,,,,
null,,rt_plussign_withcolor,535306,blue,,,,,null,US_Cities_List/mm_leesburg.png,US_Cities_List/mm_gatlinburg.png,,,,,,,,,,,,,,,,,,,,,,,,,,,,
730.2999999970198,,rt_thecrossant_black,536432,black_plus_sign,,,,,49,,,1,0.96,,,,,,,,,,,,,,,,,,,,,,,,,,
null,,color_black,536546,black_plus_sign,,,,,null,,,,,,,,,,,,,,,,,,,,,,,,,,,,,,
null,,learn_phase(without_color),539074,black_plus_sign,,,,,null,US_Cities_List/mm_newhope.png,US_Cities_List/nat_shreveport.png,,,,,,,,,,,,,,,,,,,,,,,,,,,,
null,,black_cross(without_color),539497,blue,,,,,null,US_Cities_List/mm_newhope.png,US_Cities_List/nat_shreveport.png,,,,,,,,,,,,,,,,,,,,,,,,,,,,
462.70000000298023,,rt_plussign_withcolor,539998,blue,,,,,49,US_Cities_List/mm_newhope.png,US_Cities_List/nat_shreveport.png,,,,,,,,,,,,,,,,,,,,,,,,,,,,
null,,rt_thecrossant_black,541578,black_plus_sign,,,,,null,,,1,0.9605263157894737,,,,,,,,,,,,,,,,,,,,,,,,,,
null,,color_black,541680,black_plus_sign,,,,,null,,,,,,,,,,,,,,,,,,,,,,,,,,,,,,
null,,learn_phase(without_color),544203,black_plus_sign,,,,,null,US_Cities_List/mm_gatlinburg.png,US_Cities_List/nat_racine.png,,,,,,,,,,,,,,,,,,,,,,,,,,,,
null,,black_cross(without_color),544877,blue,,,,,null,US_Cities_List/mm_gatlinburg.png,US_Cities_List/nat_racine.png,,,,,,,,,,,,,,,,,,,,,,,,,,,,
null,,rt_plussign_withcolor,545380,blue,,,,,null,US_Cities_List/mm_gatlinburg.png,US_Cities_List/nat_racine.png,,,,,,,,,,,,,,,,,,,,,,,,,,,,
522.6000000089407,,rt_thecrossant_black,546710,black_plus_sign,,,,,49,,,1,0.961038961038961,,,,,,,,,,,,,,,,,,,,,,,,,,
null,,color_black,546811,black_plus_sign,,,,,null,,,,,,,,,,,,,,,,,,,,,,,,,,,,,,
null,,learn_phase(without_color),549329,black_plus_sign,,,,,null,US_Cities_List/nat_racine.png,US_Cities_List/nat_westpalmbeach.png,,,,,,,,,,,,,,,,,,,,,,,,,,,,
null,,black_cross(without_color),549811,green,,,,,null,US_Cities_List/nat_racine.png,US_Cities_List/nat_westpalmbeach.png,,,,,,,,,,,,,,,,,,,,,,,,,,,,
null,,rt_plussign_withcolor,550314,green,,,,,null,US_Cities_List/nat_racine.png,US_Cities_List/nat_westpalmbeach.png,,,,,,,,,,,,,,,,,,,,,,,,,,,,
776.7000000029802,,rt_thecrossant_black,551835,black_plus_sign,,,,,50,,,1,0.9615384615384616,,,,,,,,,,,,,,,,,,,,,,,,,,
null,,color_black,551936,black_plus_sign,,,,,null,,,,,,,,,,,,,,,,,,,,,,,,,,,,,,
null,,learn_phase(without_color),554458,black_plus_sign,,,,,null,US_Cities_List/nat_shreveport.png,US_Cities_List/mm_carmel.png,,,,,,,,,,,,,,,,,,,,,,,,,,,,
null,,black_cross(without_color),555328,green,,,,,null,US_Cities_List/nat_shreveport.png,US_Cities_List/mm_carmel.png,,,,,,,,,,,,,,,,,,,,,,,,,,,,
460.29999999701977,,rt_plussign_withcolor,555829,green,,,,,50,US_Cities_List/nat_shreveport.png,US_Cities_List/mm_carmel.png,,,,,,,,,,,,,,,,,,,,,,,,,,,,
null,,rt_thecrossant_black,556963,black_plus_sign,,,,,null,,,1,0.9620253164556962,,,,,,,,,,,,,,,,,,,,,,,,,,
null,,color_black,557066,black_plus_sign,,,,,null,,,,,,,,,,,,,,,,,,,,,,,,,,,,,,
null,,learn_phase(without_color),559591,black_plus_sign,,,,,null,US_Cities_List/mm_gatlinburg.png,US_Cities_List/nat_racine.png,,,,,,,,,,,,,,,,,,,,,,,,,,,,
null,,black_cross(without_color),560586,blue,,,,,null,US_Cities_List/mm_gatlinburg.png,US_Cities_List/nat_racine.png,,,,,,,,,,,,,,,,,,,,,,,,,,,,
394.59999999403954,,rt_plussign_withcolor,561087,blue,,,,,49,US_Cities_List/mm_gatlinburg.png,US_Cities_List/nat_racine.png,,,,,,,,,,,,,,,,,,,,,,,,,,,,
null,,rt_thecrossant_black,562095,black_plus_sign,,,,,null,,,1,0.9625,,,,,,,,,,,,,,,,,,,,,,,,,,
null,,color_black,562197,black_plus_sign,,,,,null,,,,,,,,,,,,,,,,,,,,,,,,,,,,,,
null,,learn_phase(without_color),564723,black_plus_sign,,,,,null,US_Cities_List/nat_racine.png,US_Cities_List/nat_hanover.png,,,,,,,,,,,,,,,,,,,,,,,,,,,,
null,,black_cross(without_color),565691,blue,,,,,null,US_Cities_List/nat_racine.png,US_Cities_List/nat_hanover.png,,,,,,,,,,,,,,,,,,,,,,,,,,,,
null,,rt_plussign_withcolor,566192,blue,,,,,null,US_Cities_List/nat_racine.png,US_Cities_List/nat_hanover.png,,,,,,,,,,,,,,,,,,,,,,,,,,,,
1124,,rt_thecrossant_black,567229,black_plus_sign,,,,,49,,,1,0.9629629629629629,,,,,,,,,,,,,,,,,,,,,,,,,,
null,,color_black,567330,black_plus_sign,,,,,null,,,,,,,,,,,,,,,,,,,,,,,,,,,,,,
null,,learn_phase(without_color),569863,black_plus_sign,,,,,null,US_Cities_List/mm_carmel.png,US_Cities_List/nat_hanover.png,,,,,,,,,,,,,,,,,,,,,,,,,,,,
null,,black_cross(without_color),570675,blue,,,,,null,US_Cities_List/mm_carmel.png,US_Cities_List/nat_hanover.png,,,,,,,,,,,,,,,,,,,,,,,,,,,,
494.19999998807907,,rt_plussign_withcolor,571176,blue,,,,,49,US_Cities_List/mm_carmel.png,US_Cities_List/nat_hanover.png,,,,,,,,,,,,,,,,,,,,,,,,,,,,
null,,rt_thecrossant_black,572368,black_plus_sign,,,,,null,,,1,0.9634146341463414,,,,,,,,,,,,,,,,,,,,,,,,,,
null,,color_black,572469,black_plus_sign,,,,,null,,,,,,,,,,,,,,,,,,,,,,,,,,,,,,
null,,learn_phase(without_color),575000,black_plus_sign,,,,,null,US_Cities_List/nat_shreveport.png,US_Cities_List/mm_carmel.png,,,,,,,,,,,,,,,,,,,,,,,,,,,,
null,,black_cross(without_color),575604,blue,,,,,null,US_Cities_List/nat_shreveport.png,US_Cities_List/mm_carmel.png,,,,,,,,,,,,,,,,,,,,,,,,,,,,
472.90000000596046,,rt_plussign_withcolor,576105,blue,,,,,49,US_Cities_List/nat_shreveport.png,US_Cities_List/mm_carmel.png,,,,,,,,,,,,,,,,,,,,,,,,,,,,
null,,rt_thecrossant_black,577505,black_plus_sign,,,,,null,,,1,0.963855421686747,,,,,,,,,,,,,,,,,,,,,,,,,,
null,,color_black,577606,black_plus_sign,,,,,null,,,,,,,,,,,,,,,,,,,,,,,,,,,,,,
null,,learn_phase(without_color),580129,black_plus_sign,,,,,null,US_Cities_List/mm_boulder.png,US_Cities_List/mm_newhope.png,,,,,,,,,,,,,,,,,,,,,,,,,,,,
null,,black_cross(without_color),580712,green,,,,,null,US_Cities_List/mm_boulder.png,US_Cities_List/mm_newhope.png,,,,,,,,,,,,,,,,,,,,,,,,,,,,
null,,rt_plussign_withcolor,581214,green,,,,,null,US_Cities_List/mm_boulder.png,US_Cities_List/mm_newhope.png,,,,,,,,,,,,,,,,,,,,,,,,,,,,
730,,rt_thecrossant_black,582636,black_plus_sign,,,,,50,,,1,0.9642857142857143,,,,,,,,,,,,,,,,,,,,,,,,,,
null,,color_black,582737,black_plus_sign,,,,,null,,,,,,,,,,,,,,,,,,,,,,,,,,,,,,
null,,learn_phase(without_color),585266,black_plus_sign,,,,,null,US_Cities_List/mm_carmel.png,US_Cities_List/nat_hanover.png,,,,,,,,,,,,,,,,,,,,,,,,,,,,
null,,black_cross(without_color),586169,green,,,,,null,US_Cities_List/mm_carmel.png,US_Cities_List/nat_hanover.png,,,,,,,,,,,,,,,,,,,,,,,,,,,,
481.20000000298023,,rt_plussign_withcolor,586670,green,,,,,50,US_Cities_List/mm_carmel.png,US_Cities_List/nat_hanover.png,,,,,,,,,,,,,,,,,,,,,,,,,,,,
null,,rt_thecrossant_black,587772,black_plus_sign,,,,,null,,,1,0.9647058823529412,,,,,,,,,,,,,,,,,,,,,,,,,,
null,,color_black,587875,black_plus_sign,,,,,null,,,,,,,,,,,,,,,,,,,,,,,,,,,,,,
null,,learn_phase(without_color),590394,black_plus_sign,,,,,null,US_Cities_List/mm_newhope.png,US_Cities_List/mm_huntsville.png,,,,,,,,,,,,,,,,,,,,,,,,,,,,
null,,black_cross(without_color),591146,blue,,,,,null,US_Cities_List/mm_newhope.png,US_Cities_List/mm_huntsville.png,,,,,,,,,,,,,,,,,,,,,,,,,,,,
367.1000000089407,,rt_plussign_withcolor,591648,blue,,,,,49,US_Cities_List/mm_newhope.png,US_Cities_List/mm_huntsville.png,,,,,,,,,,,,,,,,,,,,,,,,,,,,
null,,rt_thecrossant_black,592900,black_plus_sign,,,,,null,,,1,0.9651162790697675,,,,,,,,,,,,,,,,,,,,,,,,,,
null,,color_black,593002,black_plus_sign,,,,,null,,,,,,,,,,,,,,,,,,,,,,,,,,,,,,
null,,learn_phase(without_color),595522,black_plus_sign,,,,,null,US_Cities_List/mm_boulder.png,US_Cities_List/nat_shreveport.png,,,,,,,,,,,,,,,,,,,,,,,,,,,,
null,,black_cross(without_color),596008,green,,,,,null,US_Cities_List/mm_boulder.png,US_Cities_List/nat_shreveport.png,,,,,,,,,,,,,,,,,,,,,,,,,,,,
499.70000000298023,,rt_plussign_withcolor,596509,green,,,,,50,US_Cities_List/mm_boulder.png,US_Cities_List/nat_shreveport.png,,,,,,,,,,,,,,,,,,,,,,,,,,,,
null,,rt_thecrossant_black,598027,black_plus_sign,,,,,null,,,1,0.9655172413793104,,,,,,,,,,,,,,,,,,,,,,,,,,
null,,color_black,598129,black_plus_sign,,,,,null,,,,,,,,,,,,,,,,,,,,,,,,,,,,,,
null,,learn_phase(without_color),600654,black_plus_sign,,,,,null,US_Cities_List/nat_hotsprings.png,US_Cities_List/nat_shreveport.png,,,,,,,,,,,,,,,,,,,,,,,,,,,,
null,,black_cross(without_color),601076,blue,,,,,null,US_Cities_List/nat_hotsprings.png,US_Cities_List/nat_shreveport.png,,,,,,,,,,,,,,,,,,,,,,,,,,,,
null,,rt_plussign_withcolor,601578,blue,,,,,null,US_Cities_List/nat_hotsprings.png,US_Cities_List/nat_shreveport.png,,,,,,,,,,,,,,,,,,,,,,,,,,,,
667.3000000119209,,rt_thecrossant_black,603161,black_plus_sign,,,,,49,,,1,0.9659090909090909,,,,,,,,,,,,,,,,,,,,,,,,,,
null,,color_black,603263,black_plus_sign,,,,,null,,,,,,,,,,,,,,,,,,,,,,,,,,,,,,
null,,learn_phase(without_color),605782,black_plus_sign,,,,,null,US_Cities_List/mm_newhope.png,US_Cities_List/mm_huntsville.png,,,,,,,,,,,,,,,,,,,,,,,,,,,,
null,,black_cross(without_color),606220,green,,,,,null,US_Cities_List/mm_newhope.png,US_Cities_List/mm_huntsville.png,,,,,,,,,,,,,,,,,,,,,,,,,,,,
null,,rt_plussign_withcolor,606722,green,,,,,null,US_Cities_List/mm_newhope.png,US_Cities_List/mm_huntsville.png,,,,,,,,,,,,,,,,,,,,,,,,,,,,
610.1000000089407,,rt_thecrossant_black,608288,black_plus_sign,,,,,50,,,1,0.9662921348314607,,,,,,,,,,,,,,,,,,,,,,,,,,
null,,color_black,608390,black_plus_sign,,,,,null,,,,,,,,,,,,,,,,,,,,,,,,,,,,,,
null,,learn_phase(without_color),610916,black_plus_sign,,,,,null,US_Cities_List/nat_hotsprings.png,US_Cities_List/mm_boulder.png,,,,,,,,,,,,,,,,,,,,,,,,,,,,
null,,black_cross(without_color),611574,blue,,,,,null,US_Cities_List/nat_hotsprings.png,US_Cities_List/mm_boulder.png,,,,,,,,,,,,,,,,,,,,,,,,,,,,
null,,rt_plussign_withcolor,612076,blue,,,,,null,US_Cities_List/nat_hotsprings.png,US_Cities_List/mm_boulder.png,,,,,,,,,,,,,,,,,,,,,,,,,,,,
549.5,,rt_thecrossant_black,613422,black_plus_sign,,,,,49,,,1,0.9666666666666667,,,,,,,,,,,,,,,,,,,,,,,,,,
null,,color_black,613524,black_plus_sign,,,,,null,,,,,,,,,,,,,,,,,,,,,,,,,,,,,,
null,,learn_phase(without_color),616051,black_plus_sign,,,,,null,US_Cities_List/mm_boulder.png,US_Cities_List/mm_newhope.png,,,,,,,,,,,,,,,,,,,,,,,,,,,,
null,,black_cross(without_color),616622,blue,,,,,null,US_Cities_List/mm_boulder.png,US_Cities_List/mm_newhope.png,,,,,,,,,,,,,,,,,,,,,,,,,,,,
null,,rt_plussign_withcolor,617123,blue,,,,,null,US_Cities_List/mm_boulder.png,US_Cities_List/mm_newhope.png,,,,,,,,,,,,,,,,,,,,,,,,,,,,
980.1000000089407,,rt_thecrossant_black,618565,black_plus_sign,,,,,49,,,1,0.967032967032967,,,,,,,,,,,,,,,,,,,,,,,,,,
null,,color_black,618666,black_plus_sign,,,,,null,,,,,,,,,,,,,,,,,,,,,,,,,,,,,,
null,,learn_phase(without_color),621193,black_plus_sign,,,,,null,US_Cities_List/nat_shreveport.png,US_Cities_List/mm_carmel.png,,,,,,,,,,,,,,,,,,,,,,,,,,,,
null,,black_cross(without_color),621847,blue,,,,,null,US_Cities_List/nat_shreveport.png,US_Cities_List/mm_carmel.png,,,,,,,,,,,,,,,,,,,,,,,,,,,,
491.09999999403954,,rt_plussign_withcolor,622348,blue,,,,,49,US_Cities_List/nat_shreveport.png,US_Cities_List/mm_carmel.png,,,,,,,,,,,,,,,,,,,,,,,,,,,,
null,,rt_thecrossant_black,623698,black_plus_sign,,,,,null,,,1,0.967391304347826,,,,,,,,,,,,,,,,,,,,,,,,,,
null,,color_black,623800,black_plus_sign,,,,,null,,,,,,,,,,,,,,,,,,,,,,,,,,,,,,
null,,learn_phase(without_color),626320,black_plus_sign,,,,,null,US_Cities_List/mm_leesburg.png,US_Cities_List/mm_gatlinburg.png,,,,,,,,,,,,,,,,,,,,,,,,,,,,
null,,black_cross(without_color),627014,blue,,,,,null,US_Cities_List/mm_leesburg.png,US_Cities_List/mm_gatlinburg.png,,,,,,,,,,,,,,,,,,,,,,,,,,,,
343.19999998807907,,rt_plussign_withcolor,627515,blue,,,,,49,US_Cities_List/mm_leesburg.png,US_Cities_List/mm_gatlinburg.png,,,,,,,,,,,,,,,,,,,,,,,,,,,,
null,,rt_thecrossant_black,628824,black_plus_sign,,,,,null,,,1,0.967741935483871,,,,,,,,,,,,,,,,,,,,,,,,,,
null,,color_black,628927,black_plus_sign,,,,,null,,,,,,,,,,,,,,,,,,,,,,,,,,,,,,
null,,learn_phase(without_color),631454,black_plus_sign,,,,,null,US_Cities_List/mm_boulder.png,US_Cities_List/nat_cornwall.png,,,,,,,,,,,,,,,,,,,,,,,,,,,,
null,,black_cross(without_color),632047,blue,,,,,null,US_Cities_List/mm_boulder.png,US_Cities_List/nat_cornwall.png,,,,,,,,,,,,,,,,,,,,,,,,,,,,
null,,rt_plussign_withcolor,632554,blue,,,,,null,US_Cities_List/mm_boulder.png,US_Cities_List/nat_cornwall.png,,,,,,,,,,,,,,,,,,,,,,,,,,,,
827.9000000059605,,rt_thecrossant_black,633964,black_plus_sign,,,,,49,,,1,0.9680851063829787,,,,,,,,,,,,,,,,,,,,,,,,,,
null,,color_black,634065,black_plus_sign,,,,,null,,,,,,,,,,,,,,,,,,,,,,,,,,,,,,
null,,learn_phase(without_color),636593,black_plus_sign,,,,,null,US_Cities_List/mm_peoria.png,US_Cities_List/mm_carmel.png,,,,,,,,,,,,,,,,,,,,,,,,,,,,
null,,black_cross(without_color),637569,green,,,,,null,US_Cities_List/mm_peoria.png,US_Cities_List/mm_carmel.png,,,,,,,,,,,,,,,,,,,,,,,,,,,,
443.70000000298023,,rt_plussign_withcolor,638070,green,,,,,50,US_Cities_List/mm_peoria.png,US_Cities_List/mm_carmel.png,,,,,,,,,,,,,,,,,,,,,,,,,,,,
null,,rt_thecrossant_black,639097,black_plus_sign,,,,,null,,,1,0.968421052631579,,,,,,,,,,,,,,,,,,,,,,,,,,
null,,color_black,639199,black_plus_sign,,,,,null,,,,,,,,,,,,,,,,,,,,,,,,,,,,,,
null,,learn_phase(without_color),641729,black_plus_sign,,,,,null,US_Cities_List/nat_shreveport.png,US_Cities_List/mm_carmel.png,,,,,,,,,,,,,,,,,,,,,,,,,,,,
null,,black_cross(without_color),642555,blue,,,,,null,US_Cities_List/nat_shreveport.png,US_Cities_List/mm_carmel.png,,,,,,,,,,,,,,,,,,,,,,,,,,,,
381.69999998807907,,rt_plussign_withcolor,643067,blue,,,,,49,US_Cities_List/nat_shreveport.png,US_Cities_List/mm_carmel.png,,,,,,,,,,,,,,,,,,,,,,,,,,,,
null,,rt_thecrossant_black,644244,black_plus_sign,,,,,null,,,1,0.96875,,,,,,,,,,,,,,,,,,,,,,,,,,
null,,color_black,644345,black_plus_sign,,,,,null,,,,,,,,,,,,,,,,,,,,,,,,,,,,,,
null,,learn_phase(without_color),646879,black_plus_sign,,,,,null,US_Cities_List/mm_peoria.png,US_Cities_List/mm_carmel.png,,,,,,,,,,,,,,,,,,,,,,,,,,,,
null,,black_cross(without_color),647588,green,,,,,null,US_Cities_List/mm_peoria.png,US_Cities_List/mm_carmel.png,,,,,,,,,,,,,,,,,,,,,,,,,,,,
null,,rt_plussign_withcolor,648090,green,,,,,null,US_Cities_List/mm_peoria.png,US_Cities_List/mm_carmel.png,,,,,,,,,,,,,,,,,,,,,,,,,,,,
1109.7999999970198,,rt_thecrossant_black,649385,black_plus_sign,,,,,50,,,1,0.9690721649484536,,,,,,,,,,,,,,,,,,,,,,,,,,
null,,color_black,649487,black_plus_sign,,,,,null,,,,,,,,,,,,,,,,,,,,,,,,,,,,,,
null,,learn_phase(without_color),652011,black_plus_sign,,,,,null,US_Cities_List/mm_gatlinburg.png,US_Cities_List/mm_peoria.png,,,,,,,,,,,,,,,,,,,,,,,,,,,,
null,,black_cross(without_color),652647,green,,,,,null,US_Cities_List/mm_gatlinburg.png,US_Cities_List/mm_peoria.png,,,,,,,,,,,,,,,,,,,,,,,,,,,,
477.79999999701977,,rt_plussign_withcolor,653148,green,,,,,50,US_Cities_List/mm_gatlinburg.png,US_Cities_List/mm_peoria.png,,,,,,,,,,,,,,,,,,,,,,,,,,,,
null,,rt_thecrossant_black,654517,black_plus_sign,,,,,null,,,1,0.9693877551020408,,,,,,,,,,,,,,,,,,,,,,,,,,
null,,color_black,654618,black_plus_sign,,,,,null,,,,,,,,,,,,,,,,,,,,,,,,,,,,,,
null,,learn_phase(without_color),657143,black_plus_sign,,,,,null,US_Cities_List/mm_gatlinburg.png,US_Cities_List/nat_racine.png,,,,,,,,,,,,,,,,,,,,,,,,,,,,
null,,black_cross(without_color),657705,green,,,,,null,US_Cities_List/mm_gatlinburg.png,US_Cities_List/nat_racine.png,,,,,,,,,,,,,,,,,,,,,,,,,,,,
null,,rt_plussign_withcolor,658214,green,,,,,null,US_Cities_List/mm_gatlinburg.png,US_Cities_List/nat_racine.png,,,,,,,,,,,,,,,,,,,,,,,,,,,,
880.7000000029802,,rt_thecrossant_black,659655,black_plus_sign,,,,,50,,,1,0.9696969696969697,,,,,,,,,,,,,,,,,,,,,,,,,,
null,,color_black,659757,black_plus_sign,,,,,null,,,,,,,,,,,,,,,,,,,,,,,,,,,,,,
null,,learn_phase(without_color),662284,black_plus_sign,,,,,null,US_Cities_List/mm_carmel.png,US_Cities_List/nat_hanover.png,,,,,,,,,,,,,,,,,,,,,,,,,,,,
null,,black_cross(without_color),662699,blue,,,,,null,US_Cities_List/mm_carmel.png,US_Cities_List/nat_hanover.png,,,,,,,,,,,,,,,,,,,,,,,,,,,,
338.5,,rt_plussign_withcolor,663200,blue,,,,,49,US_Cities_List/mm_carmel.png,US_Cities_List/nat_hanover.png,,,,,,,,,,,,,,,,,,,,,,,,,,,,
null,,rt_thecrossant_black,664789,black_plus_sign,,,,,null,,,1,0.97,,,,,,,,,,,,,,,,,,,,,,,,,,
null,,color_black,664891,black_plus_sign,,,,,null,,,,,,,,,,,,,,,,,,,,,,,,,,,,,,
null,,learn_phase(without_color),667420,black_plus_sign,,,,,null,US_Cities_List/mm_peoria.png,US_Cities_List/mm_carmel.png,,,,,,,,,,,,,,,,,,,,,,,,,,,,
null,,black_cross(without_color),668247,blue,,,,,null,US_Cities_List/mm_peoria.png,US_Cities_List/mm_carmel.png,,,,,,,,,,,,,,,,,,,,,,,,,,,,
null,,rt_plussign_withcolor,668749,blue,,,,,null,US_Cities_List/mm_peoria.png,US_Cities_List/mm_carmel.png,,,,,,,,,,,,,,,,,,,,,,,,,,,,
546.0999999940395,,rt_thecrossant_black,669924,black_plus_sign,,,,,49,,,1,0.9702970297029703,,,,,,,,,,,,,,,,,,,,,,,,,,
null,,color_black,670025,black_plus_sign,,,,,null,,,,,,,,,,,,,,,,,,,,,,,,,,,,,,
null,,learn_phase(without_color),672554,black_plus_sign,,,,,null,US_Cities_List/mm_gatlinburg.png,US_Cities_List/nat_racine.png,,,,,,,,,,,,,,,,,,,,,,,,,,,,
null,,black_cross(without_color),673346,blue,,,,,null,US_Cities_List/mm_gatlinburg.png,US_Cities_List/nat_racine.png,,,,,,,,,,,,,,,,,,,,,,,,,,,,
499,,rt_plussign_withcolor,673848,blue,,,,,49,US_Cities_List/mm_gatlinburg.png,US_Cities_List/nat_racine.png,,,,,,,,,,,,,,,,,,,,,,,,,,,,
null,,rt_thecrossant_black,675059,black_plus_sign,,,,,null,,,1,0.9705882352941176,,,,,,,,,,,,,,,,,,,,,,,,,,
null,,color_black,675160,black_plus_sign,,,,,null,,,,,,,,,,,,,,,,,,,,,,,,,,,,,,
null,,learn_phase(without_color),677691,black_plus_sign,,,,,null,US_Cities_List/mm_peoria.png,US_Cities_List/mm_carmel.png,,,,,,,,,,,,,,,,,,,,,,,,,,,,
null,,black_cross(without_color),678132,green,,,,,null,US_Cities_List/mm_peoria.png,US_Cities_List/mm_carmel.png,,,,,,,,,,,,,,,,,,,,,,,,,,,,
null,,rt_plussign_withcolor,678634,green,,,,,null,US_Cities_List/mm_peoria.png,US_Cities_List/mm_carmel.png,,,,,,,,,,,,,,,,,,,,,,,,,,,,
1185.3999999910593,,rt_thecrossant_black,680196,black_plus_sign,,,,,50,,,1,0.970873786407767,,,,,,,,,,,,,,,,,,,,,,,,,,
null,,color_black,680298,black_plus_sign,,,,,null,,,,,,,,,,,,,,,,,,,,,,,,,,,,,,
null,,learn_phase(without_color),682825,black_plus_sign,,,,,null,US_Cities_List/mm_gatlinburg.png,US_Cities_List/mm_peoria.png,,,,,,,,,,,,,,,,,,,,,,,,,,,,
null,,black_cross(without_color),683351,blue,,,,,null,US_Cities_List/mm_gatlinburg.png,US_Cities_List/mm_peoria.png,,,,,,,,,,,,,,,,,,,,,,,,,,,,
362.79999999701977,,rt_plussign_withcolor,683852,blue,,,,,49,US_Cities_List/mm_gatlinburg.png,US_Cities_List/mm_peoria.png,,,,,,,,,,,,,,,,,,,,,,,,,,,,
null,,rt_thecrossant_black,685329,black_plus_sign,,,,,null,,,1,0.9711538461538461,,,,,,,,,,,,,,,,,,,,,,,,,,
null,,color_black,685432,black_plus_sign,,,,,null,,,,,,,,,,,,,,,,,,,,,,,,,,,,,,
null,,learn_phase(without_color),687958,black_plus_sign,,,,,null,US_Cities_List/mm_boulder.png,US_Cities_List/nat_shreveport.png,,,,,,,,,,,,,,,,,,,,,,,,,,,,
null,,black_cross(without_color),688870,green,,,,,null,US_Cities_List/mm_boulder.png,US_Cities_List/nat_shreveport.png,,,,,,,,,,,,,,,,,,,,,,,,,,,,
415.29999999701977,,rt_plussign_withcolor,689372,green,,,,,50,US_Cities_List/mm_boulder.png,US_Cities_List/nat_shreveport.png,,,,,,,,,,,,,,,,,,,,,,,,,,,,
null,,rt_thecrossant_black,690463,black_plus_sign,,,,,null,,,1,0.9714285714285714,,,,,,,,,,,,,,,,,,,,,,,,,,
null,,color_black,690565,black_plus_sign,,,,,null,,,,,,,,,,,,,,,,,,,,,,,,,,,,,,
null,,learn_phase(without_color),693092,black_plus_sign,,,,,null,US_Cities_List/nat_hotsprings.png,US_Cities_List/mm_boulder.png,,,,,,,,,,,,,,,,,,,,,,,,,,,,
null,,black_cross(without_color),693875,green,,,,,null,US_Cities_List/nat_hotsprings.png,US_Cities_List/mm_boulder.png,,,,,,,,,,,,,,,,,,,,,,,,,,,,
null,,rt_plussign_withcolor,694377,green,,,,,null,US_Cities_List/nat_hotsprings.png,US_Cities_List/mm_boulder.png,,,,,,,,,,,,,,,,,,,,,,,,,,,,
1014.7000000029802,,rt_thecrossant_black,695597,black_plus_sign,,,,,50,,,1,0.9716981132075472,,,,,,,,,,,,,,,,,,,,,,,,,,
null,,color_black,695699,black_plus_sign,,,,,null,,,,,,,,,,,,,,,,,,,,,,,,,,,,,,
null,,learn_phase(without_color),698218,black_plus_sign,,,,,null,US_Cities_List/mm_newhope.png,US_Cities_List/mm_huntsville.png,,,,,,,,,,,,,,,,,,,,,,,,,,,,
null,,black_cross(without_color),698673,green,,,,,null,US_Cities_List/mm_newhope.png,US_Cities_List/mm_huntsville.png,,,,,,,,,,,,,,,,,,,,,,,,,,,,
436.79999999701977,,rt_plussign_withcolor,699175,green,,,,,50,US_Cities_List/mm_newhope.png,US_Cities_List/mm_huntsville.png,,,,,,,,,,,,,,,,,,,,,,,,,,,,
null,,rt_thecrossant_black,700733,black_plus_sign,,,,,null,,,1,0.9719626168224299,,,,,,,,,,,,,,,,,,,,,,,,,,
null,,color_black,700835,black_plus_sign,,,,,null,,,,,,,,,,,,,,,,,,,,,,,,,,,,,,
null,,learn_phase(without_color),703359,black_plus_sign,,,,,null,US_Cities_List/nat_shreveport.png,US_Cities_List/mm_carmel.png,,,,,,,,,,,,,,,,,,,,,,,,,,,,
null,,black_cross(without_color),704154,blue,,,,,null,US_Cities_List/nat_shreveport.png,US_Cities_List/mm_carmel.png,,,,,,,,,,,,,,,,,,,,,,,,,,,,
426.09999999403954,,rt_plussign_withcolor,704656,blue,,,,,49,US_Cities_List/nat_shreveport.png,US_Cities_List/mm_carmel.png,,,,,,,,,,,,,,,,,,,,,,,,,,,,
null,,rt_thecrossant_black,705869,black_plus_sign,,,,,null,,,1,0.9722222222222222,,,,,,,,,,,,,,,,,,,,,,,,,,
null,,color_black,705970,black_plus_sign,,,,,null,,,,,,,,,,,,,,,,,,,,,,,,,,,,,,
null,,learn_phase(without_color),708494,black_plus_sign,,,,,null,US_Cities_List/mm_peoria.png,US_Cities_List/nat_hotsprings.png,,,,,,,,,,,,,,,,,,,,,,,,,,,,
null,,black_cross(without_color),709001,blue,,,,,null,US_Cities_List/mm_peoria.png,US_Cities_List/nat_hotsprings.png,,,,,,,,,,,,,,,,,,,,,,,,,,,,
419.8999999910593,,rt_plussign_withcolor,709502,blue,,,,,49,US_Cities_List/mm_peoria.png,US_Cities_List/nat_hotsprings.png,,,,,,,,,,,,,,,,,,,,,,,,,,,,
null,,rt_thecrossant_black,710998,black_plus_sign,,,,,null,,,1,0.9724770642201835,,,,,,,,,,,,,,,,,,,,,,,,,,
null,,color_black,711100,black_plus_sign,,,,,null,,,,,,,,,,,,,,,,,,,,,,,,,,,,,,
null,,learn_phase(without_color),713625,black_plus_sign,,,,,null,US_Cities_List/mm_gatlinburg.png,US_Cities_List/mm_peoria.png,,,,,,,,,,,,,,,,,,,,,,,,,,,,
null,,black_cross(without_color),714260,green,,,,,null,US_Cities_List/mm_gatlinburg.png,US_Cities_List/mm_peoria.png,,,,,,,,,,,,,,,,,,,,,,,,,,,,
469.8999999910593,,rt_plussign_withcolor,714762,green,,,,,50,US_Cities_List/mm_gatlinburg.png,US_Cities_List/mm_peoria.png,,,,,,,,,,,,,,,,,,,,,,,,,,,,
null,,rt_thecrossant_black,716130,black_plus_sign,,,,,null,,,1,0.9727272727272728,,,,,,,,,,,,,,,,,,,,,,,,,,
null,,color_black,716232,black_plus_sign,,,,,null,,,,,,,,,,,,,,,,,,,,,,,,,,,,,,
null,,learn_phase(without_color),718755,black_plus_sign,,,,,null,US_Cities_List/mm_leesburg.png,US_Cities_List/mm_gatlinburg.png,,,,,,,,,,,,,,,,,,,,,,,,,,,,
null,,black_cross(without_color),719850,blue,,,,,null,US_Cities_List/mm_leesburg.png,US_Cities_List/mm_gatlinburg.png,,,,,,,,,,,,,,,,,,,,,,,,,,,,
487.5,,rt_plussign_withcolor,720351,blue,,,,,49,US_Cities_List/mm_leesburg.png,US_Cities_List/mm_gatlinburg.png,,,,,,,,,,,,,,,,,,,,,,,,,,,,
null,,rt_thecrossant_black,721269,black_plus_sign,,,,,null,,,1,0.972972972972973,,,,,,,,,,,,,,,,,,,,,,,,,,
null,,color_black,721372,black_plus_sign,,,,,null,,,,,,,,,,,,,,,,,,,,,,,,,,,,,,
null,,learn_phase(without_color),723902,black_plus_sign,,,,,null,US_Cities_List/nat_hotsprings.png,US_Cities_List/nat_shreveport.png,,,,,,,,,,,,,,,,,,,,,,,,,,,,
null,,black_cross(without_color),724845,blue,,,,,null,US_Cities_List/nat_hotsprings.png,US_Cities_List/nat_shreveport.png,,,,,,,,,,,,,,,,,,,,,,,,,,,,
411.8999999910593,,rt_plussign_withcolor,725346,blue,,,,,49,US_Cities_List/nat_hotsprings.png,US_Cities_List/nat_shreveport.png,,,,,,,,,,,,,,,,,,,,,,,,,,,,
null,,rt_thecrossant_black,726407,black_plus_sign,,,,,null,,,1,0.9732142857142857,,,,,,,,,,,,,,,,,,,,,,,,,,
null,,color_black,726508,black_plus_sign,,,,,null,,,,,,,,,,,,,,,,,,,,,,,,,,,,,,
null,,learn_phase(without_color),729036,black_plus_sign,,,,,null,US_Cities_List/mm_peoria.png,US_Cities_List/mm_carmel.png,,,,,,,,,,,,,,,,,,,,,,,,,,,,
null,,black_cross(without_color),729699,blue,,,,,null,US_Cities_List/mm_peoria.png,US_Cities_List/mm_carmel.png,,,,,,,,,,,,,,,,,,,,,,,,,,,,
446.5,,rt_plussign_withcolor,730200,blue,,,,,49,US_Cities_List/mm_peoria.png,US_Cities_List/mm_carmel.png,,,,,,,,,,,,,,,,,,,,,,,,,,,,
null,,rt_thecrossant_black,731541,black_plus_sign,,,,,null,,,1,0.9734513274336283,,,,,,,,,,,,,,,,,,,,,,,,,,
null,,color_black,731642,black_plus_sign,,,,,null,,,,,,,,,,,,,,,,,,,,,,,,,,,,,,
null,,learn_phase(without_color),734171,black_plus_sign,,,,,null,US_Cities_List/nat_shreveport.png,US_Cities_List/mm_carmel.png,,,,,,,,,,,,,,,,,,,,,,,,,,,,
null,,black_cross(without_color),734610,blue,,,,,null,US_Cities_List/nat_shreveport.png,US_Cities_List/mm_carmel.png,,,,,,,,,,,,,,,,,,,,,,,,,,,,
470.20000000298023,,rt_plussign_withcolor,735111,blue,,,,,49,US_Cities_List/nat_shreveport.png,US_Cities_List/mm_carmel.png,,,,,,,,,,,,,,,,,,,,,,,,,,,,
null,,rt_thecrossant_black,736676,black_plus_sign,,,,,null,,,1,0.9736842105263158,,,,,,,,,,,,,,,,,,,,,,,,,,
null,,color_black,736778,black_plus_sign,,,,,null,,,,,,,,,,,,,,,,,,,,,,,,,,,,,,
null,,learn_phase(without_color),739308,black_plus_sign,,,,,null,US_Cities_List/mm_leesburg.png,US_Cities_List/mm_gatlinburg.png,,,,,,,,,,,,,,,,,,,,,,,,,,,,
null,,black_cross(without_color),739933,green,,,,,null,US_Cities_List/mm_leesburg.png,US_Cities_List/mm_gatlinburg.png,,,,,,,,,,,,,,,,,,,,,,,,,,,,
385.8999999910593,,rt_plussign_withcolor,740435,green,,,,,50,US_Cities_List/mm_leesburg.png,US_Cities_List/mm_gatlinburg.png,,,,,,,,,,,,,,,,,,,,,,,,,,,,
null,,rt_thecrossant_black,741814,black_plus_sign,,,,,null,,,1,0.9739130434782609,,,,,,,,,,,,,,,,,,,,,,,,,,
null,,color_black,741916,black_plus_sign,,,,,null,,,,,,,,,,,,,,,,,,,,,,,,,,,,,,
null,,learn_phase(without_color),744446,black_plus_sign,,,,,null,US_Cities_List/mm_peoria.png,US_Cities_List/mm_carmel.png,,,,,,,,,,,,,,,,,,,,,,,,,,,,
null,,black_cross(without_color),744990,blue,,,,,null,US_Cities_List/mm_peoria.png,US_Cities_List/mm_carmel.png,,,,,,,,,,,,,,,,,,,,,,,,,,,,
332,,rt_plussign_withcolor,745491,blue,,,,,49,US_Cities_List/mm_peoria.png,US_Cities_List/mm_carmel.png,,,,,,,,,,,,,,,,,,,,,,,,,,,,
null,,rt_thecrossant_black,746952,black_plus_sign,,,,,null,,,1,0.9741379310344828,,,,,,,,,,,,,,,,,,,,,,,,,,
null,,color_black,747068,black_plus_sign,,,,,null,,,,,,,,,,,,,,,,,,,,,,,,,,,,,,
null,,learn_phase(without_color),749593,black_plus_sign,,,,,null,US_Cities_List/mm_boulder.png,US_Cities_List/mm_newhope.png,,,,,,,,,,,,,,,,,,,,,,,,,,,,
null,,black_cross(without_color),750095,green,,,,,null,US_Cities_List/mm_boulder.png,US_Cities_List/mm_newhope.png,,,,,,,,,,,,,,,,,,,,,,,,,,,,
390.70000000298023,,rt_plussign_withcolor,750596,green,,,,,50,US_Cities_List/mm_boulder.png,US_Cities_List/mm_newhope.png,,,,,,,,,,,,,,,,,,,,,,,,,,,,
null,,rt_thecrossant_black,752098,black_plus_sign,,,,,null,,,1,0.9743589743589743,,,,,,,,,,,,,,,,,,,,,,,,,,
null,,color_black,752200,black_plus_sign,,,,,null,,,,,,,,,,,,,,,,,,,,,,,,,,,,,,
null,,learn_phase(without_color),754723,black_plus_sign,,,,,null,US_Cities_List/mm_peoria.png,US_Cities_List/mm_carmel.png,,,,,,,,,,,,,,,,,,,,,,,,,,,,
null,,black_cross(without_color),755372,blue,,,,,null,US_Cities_List/mm_peoria.png,US_Cities_List/mm_carmel.png,,,,,,,,,,,,,,,,,,,,,,,,,,,,
333.1000000089407,,rt_plussign_withcolor,755874,blue,,,,,49,US_Cities_List/mm_peoria.png,US_Cities_List/mm_carmel.png,,,,,,,,,,,,,,,,,,,,,,,,,,,,
null,,rt_thecrossant_black,757229,black_plus_sign,,,,,null,,,1,0.9745762711864406,,,,,,,,,,,,,,,,,,,,,,,,,,
null,,color_black,757330,black_plus_sign,,,,,null,,,,,,,,,,,,,,,,,,,,,,,,,,,,,,
null,,learn_phase(without_color),759853,black_plus_sign,,,,,null,US_Cities_List/mm_boulder.png,US_Cities_List/nat_cornwall.png,,,,,,,,,,,,,,,,,,,,,,,,,,,,
null,,black_cross(without_color),760445,blue,,,,,null,US_Cities_List/mm_boulder.png,US_Cities_List/nat_cornwall.png,,,,,,,,,,,,,,,,,,,,,,,,,,,,
494.40000000596046,,rt_plussign_withcolor,760947,blue,,,,,49,US_Cities_List/mm_boulder.png,US_Cities_List/nat_cornwall.png,,,,,,,,,,,,,,,,,,,,,,,,,,,,
null,,rt_thecrossant_black,762359,black_plus_sign,,,,,null,,,1,0.9747899159663865,,,,,,,,,,,,,,,,,,,,,,,,,,
null,,color_black,762461,black_plus_sign,,,,,null,,,,,,,,,,,,,,,,,,,,,,,,,,,,,,
null,,learn_phase(without_color),764984,black_plus_sign,,,,,null,US_Cities_List/mm_peoria.png,US_Cities_List/nat_hotsprings.png,,,,,,,,,,,,,,,,,,,,,,,,,,,,
null,,black_cross(without_color),765611,blue,,,,,null,US_Cities_List/mm_peoria.png,US_Cities_List/nat_hotsprings.png,,,,,,,,,,,,,,,,,,,,,,,,,,,,
467.5,,rt_plussign_withcolor,766114,blue,,,,,49,US_Cities_List/mm_peoria.png,US_Cities_List/nat_hotsprings.png,,,,,,,,,,,,,,,,,,,,,,,,,,,,
null,,rt_thecrossant_black,767491,black_plus_sign,,,,,null,,,1,0.975,,,,,,,,,,,,,,,,,,,,,,,,,,
null,,color_black,767594,black_plus_sign,,,,,null,,,,,,,,,,,,,,,,,,,,,,,,,,,,,,
null,,learn_phase(without_color),770119,black_plus_sign,,,,,null,US_Cities_List/mm_carmel.png,US_Cities_List/nat_hanover.png,,,,,,,,,,,,,,,,,,,,,,,,,,,,
null,,black_cross(without_color),770578,blue,,,,,null,US_Cities_List/mm_carmel.png,US_Cities_List/nat_hanover.png,,,,,,,,,,,,,,,,,,,,,,,,,,,,
null,,rt_plussign_withcolor,771080,blue,,,,,null,US_Cities_List/mm_carmel.png,US_Cities_List/nat_hanover.png,,,,,,,,,,,,,,,,,,,,,,,,,,,,
801.8000000119209,,rt_thecrossant_black,772623,black_plus_sign,,,,,49,,,1,0.9752066115702479,,,,,,,,,,,,,,,,,,,,,,,,,,
null,,color_black,772726,black_plus_sign,,,,,null,,,,,,,,,,,,,,,,,,,,,,,,,,,,,,
null,,learn_phase(without_color),775253,black_plus_sign,,,,,null,US_Cities_List/mm_boulder.png,US_Cities_List/nat_cornwall.png,,,,,,,,,,,,,,,,,,,,,,,,,,,,
null,,black_cross(without_color),775781,green,,,,,null,US_Cities_List/mm_boulder.png,US_Cities_List/nat_cornwall.png,,,,,,,,,,,,,,,,,,,,,,,,,,,,
null,,rt_plussign_withcolor,776290,green,,,,,null,US_Cities_List/mm_boulder.png,US_Cities_List/nat_cornwall.png,,,,,,,,,,,,,,,,,,,,,,,,,,,,
568.9000000059605,,rt_thecrossant_black,777768,black_plus_sign,,,,,50,,,1,0.9754098360655737,,,,,,,,,,,,,,,,,,,,,,,,,,
null,,color_black,777869,black_plus_sign,,,,,null,,,,,,,,,,,,,,,,,,,,,,,,,,,,,,
null,,learn_phase(without_color),780391,black_plus_sign,,,,,null,US_Cities_List/nat_racine.png,US_Cities_List/nat_westpalmbeach.png,,,,,,,,,,,,,,,,,,,,,,,,,,,,
null,,black_cross(without_color),780844,green,,,,,null,US_Cities_List/nat_racine.png,US_Cities_List/nat_westpalmbeach.png,,,,,,,,,,,,,,,,,,,,,,,,,,,,
355.90000000596046,,rt_plussign_withcolor,781346,green,,,,,50,US_Cities_List/nat_racine.png,US_Cities_List/nat_westpalmbeach.png,,,,,,,,,,,,,,,,,,,,,,,,,,,,
null,,rt_thecrossant_black,782897,black_plus_sign,,,,,null,,,1,0.975609756097561,,,,,,,,,,,,,,,,,,,,,,,,,,
null,,color_black,782998,black_plus_sign,,,,,null,,,,,,,,,,,,,,,,,,,,,,,,,,,,,,
null,,learn_phase(without_color),785524,black_plus_sign,,,,,null,US_Cities_List/mm_gatlinburg.png,US_Cities_List/mm_peoria.png,,,,,,,,,,,,,,,,,,,,,,,,,,,,
null,,black_cross(without_color),786106,blue,,,,,null,US_Cities_List/mm_gatlinburg.png,US_Cities_List/mm_peoria.png,,,,,,,,,,,,,,,,,,,,,,,,,,,,
432.70000000298023,,rt_plussign_withcolor,786608,blue,,,,,49,US_Cities_List/mm_gatlinburg.png,US_Cities_List/mm_peoria.png,,,,,,,,,,,,,,,,,,,,,,,,,,,,
null,,rt_thecrossant_black,788029,black_plus_sign,,,,,null,,,1,0.9758064516129032,,,,,,,,,,,,,,,,,,,,,,,,,,
null,,color_black,788130,black_plus_sign,,,,,null,,,,,,,,,,,,,,,,,,,,,,,,,,,,,,
null,,learn_phase(without_color),790661,black_plus_sign,,,,,null,US_Cities_List/nat_racine.png,US_Cities_List/nat_hanover.png,,,,,,,,,,,,,,,,,,,,,,,,,,,,
null,,black_cross(without_color),791185,green,,,,,null,US_Cities_List/nat_racine.png,US_Cities_List/nat_hanover.png,,,,,,,,,,,,,,,,,,,,,,,,,,,,
442.70000000298023,,rt_plussign_withcolor,791686,green,,,,,50,US_Cities_List/nat_racine.png,US_Cities_List/nat_hanover.png,,,,,,,,,,,,,,,,,,,,,,,,,,,,
null,,rt_thecrossant_black,793164,black_plus_sign,,,,,null,,,1,0.976,,,,,,,,,,,,,,,,,,,,,,,,,,
null,,color_black,793266,black_plus_sign,,,,,null,,,,,,,,,,,,,,,,,,,,,,,,,,,,,,
null,,learn_phase(without_color),795795,black_plus_sign,,,,,null,US_Cities_List/mm_gatlinburg.png,US_Cities_List/nat_racine.png,,,,,,,,,,,,,,,,,,,,,,,,,,,,
null,,black_cross(without_color),796303,green,,,,,null,US_Cities_List/mm_gatlinburg.png,US_Cities_List/nat_racine.png,,,,,,,,,,,,,,,,,,,,,,,,,,,,
452.40000000596046,,rt_plussign_withcolor,796804,green,,,,,50,US_Cities_List/mm_gatlinburg.png,US_Cities_List/nat_racine.png,,,,,,,,,,,,,,,,,,,,,,,,,,,,
null,,rt_thecrossant_black,798300,black_plus_sign,,,,,null,,,1,0.9761904761904762,,,,,,,,,,,,,,,,,,,,,,,,,,
null,,color_black,798402,black_plus_sign,,,,,null,,,,,,,,,,,,,,,,,,,,,,,,,,,,,,
null,,learn_phase(without_color),800928,black_plus_sign,,,,,null,US_Cities_List/mm_gatlinburg.png,US_Cities_List/mm_peoria.png,,,,,,,,,,,,,,,,,,,,,,,,,,,,
null,,black_cross(without_color),801775,green,,,,,null,US_Cities_List/mm_gatlinburg.png,US_Cities_List/mm_peoria.png,,,,,,,,,,,,,,,,,,,,,,,,,,,,
481.90000000596046,,rt_plussign_withcolor,802276,green,,,,,50,US_Cities_List/mm_gatlinburg.png,US_Cities_List/mm_peoria.png,,,,,,,,,,,,,,,,,,,,,,,,,,,,
null,,rt_thecrossant_black,803432,black_plus_sign,,,,,null,,,1,0.9763779527559056,,,,,,,,,,,,,,,,,,,,,,,,,,
null,,color_black,803545,black_plus_sign,,,,,null,,,,,,,,,,,,,,,,,,,,,,,,,,,,,,
null,,learn_phase(without_color),806073,black_plus_sign,,,,,null,US_Cities_List/mm_boulder.png,US_Cities_List/nat_cornwall.png,,,,,,,,,,,,,,,,,,,,,,,,,,,,
null,,black_cross(without_color),807045,green,,,,,null,US_Cities_List/mm_boulder.png,US_Cities_List/nat_cornwall.png,,,,,,,,,,,,,,,,,,,,,,,,,,,,
null,,rt_plussign_withcolor,807554,green,,,,,null,US_Cities_List/mm_boulder.png,US_Cities_List/nat_cornwall.png,,,,,,,,,,,,,,,,,,,,,,,,,,,,
991.7999999970198,,rt_thecrossant_black,808586,black_plus_sign,,,,,50,,,1,0.9765625,,,,,,,,,,,,,,,,,,,,,,,,,,
null,,color_black,808688,black_plus_sign,,,,,null,,,,,,,,,,,,,,,,,,,,,,,,,,,,,,
9015.29999999702,,intro_1,817704,instruct,,,0,,,,,,,,,,,,,,,,,,,,,,,,,,,,,,,,
21030.20000000298,,intro_2,838736,instruct,,,1,Next,,,,,,,,,,,,,,,,,,,,,,,,,,,,,,,
5501.5999999940395,,directmemory_phase,844288,../static/images/US_Cities_List/mm_peoria.png,,,,,50,,,0,0,../static/images/US_Cities_List/mm_newhope.png,../static/images/US_Cities_List/nat_hanover.png,../static/images/US_Cities_List/mm_carmel.png,../static/images/US_Cities_List/mm_carmel.png,../static/images/US_Cities_List/nat_hanover.png,../static/images/US_Cities_List/mm_newhope.png,0.5,closer,,,,,,,,,,,,,,,,,,
null,,html-keyboard-response,845292,<p></p>,,,,,null,,,,,,,,,,,,,,,,,,,,,,,,,,,,,,
4232,,directmemory_phase,849561,../static/images/US_Cities_List/nat_racine.png,,,,,49,,,0,0,../static/images/US_Cities_List/nat_shreveport.png,../static/images/US_Cities_List/mm_peoria.png,../static/images/US_Cities_List/mm_gatlinburg.png,../static/images/US_Cities_List/mm_gatlinburg.png,../static/images/US_Cities_List/mm_peoria.png,../static/images/US_Cities_List/nat_shreveport.png,0.5,closer,,,,,,,,,,,,,,,,,,
null,,html-keyboard-response,850566,<p></p>,,,,,null,,,,,,,,,,,,,,,,,,,,,,,,,,,,,,
5469,,directmemory_phase,856071,../static/images/US_Cities_List/mm_newhope.png,,,,,51,,,0,0,../static/images/US_Cities_List/mm_huntsville.png,../static/images/US_Cities_List/nat_hanover.png,../static/images/US_Cities_List/nat_hotsprings.png,../static/images/US_Cities_List/mm_huntsville.png,../static/images/US_Cities_List/nat_hotsprings.png,../static/images/US_Cities_List/nat_hanover.png,0.5,closer,,,,,,,,,,,,,,,,,,
null,,html-keyboard-response,857076,<p></p>,,,,,null,,,,,,,,,,,,,,,,,,,,,,,,,,,,,,
5400.5999999940395,,directmemory_phase,862524,../static/images/US_Cities_List/mm_gatlinburg.png,,,,,49,,,0,0,../static/images/US_Cities_List/mm_carmel.png,../static/images/US_Cities_List/nat_racine.png,../static/images/US_Cities_List/mm_newhope.png,../static/images/US_Cities_List/nat_racine.png,../static/images/US_Cities_List/mm_carmel.png,../static/images/US_Cities_List/mm_newhope.png,0.5,closer,,,,,,,,,,,,,,,,,,
null,,html-keyboard-response,863529,<p></p>,,,,,null,,,,,,,,,,,,,,,,,,,,,,,,,,,,,,
6421.20000000298,,directmemory_phase,870000,../static/images/US_Cities_List/nat_shreveport.png,,,,,50,,,0,0,../static/images/US_Cities_List/mm_boulder.png,../static/images/US_Cities_List/nat_racine.png,../static/images/US_Cities_List/mm_peoria.png,../static/images/US_Cities_List/mm_boulder.png,../static/images/US_Cities_List/mm_peoria.png,../static/images/US_Cities_List/nat_racine.png,0.5,closer,,,,,,,,,,,,,,,,,,
null,,html-keyboard-response,871004,<p></p>,,,,,null,,,,,,,,,,,,,,,,,,,,,,,,,,,,,,
1790.0999999940395,,directmemory_phase,872836,../static/images/US_Cities_List/mm_gatlinburg.png,,,,,49,,,1,0.16666666666666666,../static/images/US_Cities_List/mm_leesburg.png,../static/images/US_Cities_List/mm_newhope.png,../static/images/US_Cities_List/nat_westpalmbeach.png,../static/images/US_Cities_List/mm_leesburg.png,../static/images/US_Cities_List/nat_westpalmbeach.png,../static/images/US_Cities_List/mm_newhope.png,1,,,,,,,,,,,,,,,,,,,
null,,html-keyboard-response,873841,<p></p>,,,,,null,,,,,,,,,,,,,,,,,,,,,,,,,,,,,,
5665.600000008941,,directmemory_phase,879561,../static/images/US_Cities_List/nat_hotsprings.png,,,,,49,,,1,0.2857142857142857,../static/images/US_Cities_List/mm_boulder.png,../static/images/US_Cities_List/nat_hanover.png,../static/images/US_Cities_List/mm_gatlinburg.png,../static/images/US_Cities_List/mm_boulder.png,../static/images/US_Cities_List/mm_gatlinburg.png,../static/images/US_Cities_List/nat_hanover.png,1,,,,,,,,,,,,,,,,,,,
null,,html-keyboard-response,880565,<p></p>,,,,,null,,,,,,,,,,,,,,,,,,,,,,,,,,,,,,
2792.0999999940395,,directmemory_phase,883415,../static/images/US_Cities_List/nat_racine.png,,,,,49,,,1,0.375,../static/images/US_Cities_List/nat_westpalmbeach.png,../static/images/US_Cities_List/nat_shreveport.png,../static/images/US_Cities_List/mm_peoria.png,../static/images/US_Cities_List/nat_westpalmbeach.png,../static/images/US_Cities_List/mm_peoria.png,../static/images/US_Cities_List/nat_shreveport.png,1,,,,,,,,,,,,,,,,,,,
null,,html-keyboard-response,884420,<p></p>,,,,,null,,,,,,,,,,,,,,,,,,,,,,,,,,,,,,
2947.7999999970198,,directmemory_phase,887420,../static/images/US_Cities_List/nat_hotsprings.png,,,,,50,,,0,0.3333333333333333,../static/images/US_Cities_List/mm_leesburg.png,../static/images/US_Cities_List/mm_carmel.png,../static/images/US_Cities_List/mm_peoria.png,../static/images/US_Cities_List/mm_peoria.png,../static/images/US_Cities_List/mm_carmel.png,../static/images/US_Cities_List/mm_leesburg.png,0.5,closer,,,,,,,,,,,,,,,,,,
null,,html-keyboard-response,888427,<p></p>,,,,,null,,,,,,,,,,,,,,,,,,,,,,,,,,,,,,
2329.2000000029802,,directmemory_phase,890806,../static/images/US_Cities_List/mm_newhope.png,,,,,49,,,0,0.3,../static/images/US_Cities_List/mm_peoria.png,../static/images/US_Cities_List/mm_carmel.png,../static/images/US_Cities_List/mm_boulder.png,../static/images/US_Cities_List/mm_boulder.png,../static/images/US_Cities_List/mm_carmel.png,../static/images/US_Cities_List/mm_peoria.png,0.5,closer,,,,,,,,,,,,,,,,,,
null,,html-keyboard-response,891810,<p></p>,,,,,null,,,,,,,,,,,,,,,,,,,,,,,,,,,,,,
4140.300000011921,,directmemory_phase,895993,../static/images/US_Cities_List/mm_carmel.png,,,,,51,,,1,0.36363636363636365,../static/images/US_Cities_List/nat_westpalmbeach.png,../static/images/US_Cities_List/mm_gatlinburg.png,../static/images/US_Cities_List/mm_peoria.png,../static/images/US_Cities_List/mm_peoria.png,../static/images/US_Cities_List/mm_gatlinburg.png,../static/images/US_Cities_List/nat_westpalmbeach.png,1,,,,,,,,,,,,,,,,,,,
null,,html-keyboard-response,896997,<p></p>,,,,,null,,,,,,,,,,,,,,,,,,,,,,,,,,,,,,
4999.20000000298,,directmemory_phase,902032,../static/images/US_Cities_List/nat_westpalmbeach.png,,,,,49,,,1,0.4166666666666667,../static/images/US_Cities_List/nat_racine.png,../static/images/US_Cities_List/nat_hotsprings.png,../static/images/US_Cities_List/mm_gatlinburg.png,../static/images/US_Cities_List/nat_racine.png,../static/images/US_Cities_List/mm_gatlinburg.png,../static/images/US_Cities_List/nat_hotsprings.png,1,,,,,,,,,,,,,,,,,,,
null,,html-keyboard-response,903037,<p></p>,,,,,null,,,,,,,,,,,,,,,,,,,,,,,,,,,,,,
4258.300000011921,,directmemory_phase,907337,../static/images/US_Cities_List/mm_boulder.png,,,,,49,,,1,0.46153846153846156,../static/images/US_Cities_List/mm_newhope.png,../static/images/US_Cities_List/mm_gatlinburg.png,../static/images/US_Cities_List/mm_carmel.png,../static/images/US_Cities_List/mm_newhope.png,../static/images/US_Cities_List/mm_carmel.png,../static/images/US_Cities_List/mm_gatlinburg.png,1,,,,,,,,,,,,,,,,,,,
null,,html-keyboard-response,908349,<p></p>,,,,,null,,,,,,,,,,,,,,,,,,,,,,,,,,,,,,
6058.79999999702,,directmemory_phase,914454,../static/images/US_Cities_List/mm_carmel.png,,,,,50,,,0,0.42857142857142855,../static/images/US_Cities_List/mm_huntsville.png,../static/images/US_Cities_List/nat_hotsprings.png,../static/images/US_Cities_List/nat_shreveport.png,../static/images/US_Cities_List/nat_shreveport.png,../static/images/US_Cities_List/nat_hotsprings.png,../static/images/US_Cities_List/mm_huntsville.png,0.5,closer,,,,,,,,,,,,,,,,,,
null,,html-keyboard-response,915459,<p></p>,,,,,null,,,,,,,,,,,,,,,,,,,,,,,,,,,,,,
4229.5999999940395,,directmemory_phase,919732,../static/images/US_Cities_List/mm_huntsville.png,,,,,49,,,0,0.4,../static/images/US_Cities_List/nat_hanover.png,../static/images/US_Cities_List/nat_shreveport.png,../static/images/US_Cities_List/mm_newhope.png,../static/images/US_Cities_List/mm_newhope.png,../static/images/US_Cities_List/nat_shreveport.png,../static/images/US_Cities_List/nat_hanover.png,0.5,closer,,,,,,,,,,,,,,,,,,
null,,html-keyboard-response,920736,<p></p>,,,,,null,,,,,,,,,,,,,,,,,,,,,,,,,,,,,,
2277.5999999940395,,directmemory_phase,923059,../static/images/US_Cities_List/mm_boulder.png,,,,,51,,,1,0.4375,../static/images/US_Cities_List/nat_racine.png,../static/images/US_Cities_List/mm_huntsville.png,../static/images/US_Cities_List/nat_shreveport.png,../static/images/US_Cities_List/nat_shreveport.png,../static/images/US_Cities_List/mm_huntsville.png,../static/images/US_Cities_List/nat_racine.png,1,,,,,,,,,,,,,,,,,,,
null,,html-keyboard-response,924064,<p></p>,,,,,null,,,,,,,,,,,,,,,,,,,,,,,,,,,,,,
3695.6000000089407,,directmemory_phase,927807,../static/images/US_Cities_List/nat_racine.png,,,,,49,,,0,0.4117647058823529,../static/images/US_Cities_List/nat_hotsprings.png,../static/images/US_Cities_List/mm_leesburg.png,../static/images/US_Cities_List/nat_hanover.png,../static/images/US_Cities_List/nat_hanover.png,../static/images/US_Cities_List/mm_leesburg.png,../static/images/US_Cities_List/nat_hotsprings.png,0.5,closer,,,,,,,,,,,,,,,,,,
null,,html-keyboard-response,928811,<p></p>,,,,,null,,,,,,,,,,,,,,,,,,,,,,,,,,,,,,
1558.5999999940395,,directmemory_phase,930415,../static/images/US_Cities_List/nat_shreveport.png,,,,,49,,,0,0.3888888888888889,../static/images/US_Cities_List/nat_westpalmbeach.png,../static/images/US_Cities_List/mm_peoria.png,../static/images/US_Cities_List/mm_newhope.png,../static/images/US_Cities_List/mm_newhope.png,../static/images/US_Cities_List/mm_peoria.png,../static/images/US_Cities_List/nat_westpalmbeach.png,0.5,closer,,,,,,,,,,,,,,,,,,
null,,html-keyboard-response,931419,<p></p>,,,,,null,,,,,,,,,,,,,,,,,,,,,,,,,,,,,,
1886.9000000059605,,directmemory_phase,933353,../static/images/US_Cities_List/mm_gatlinburg.png,,,,,50,,,1,0.42105263157894735,../static/images/US_Cities_List/nat_hanover.png,../static/images/US_Cities_List/mm_peoria.png,../static/images/US_Cities_List/nat_shreveport.png,../static/images/US_Cities_List/mm_peoria.png,../static/images/US_Cities_List/nat_hanover.png,../static/images/US_Cities_List/nat_shreveport.png,1,,,,,,,,,,,,,,,,,,,
null,,html-keyboard-response,934357,<p></p>,,,,,null,,,,,,,,,,,,,,,,,,,,,,,,,,,,,,
3009.7999999970198,,directmemory_phase,937403,../static/images/US_Cities_List/nat_hotsprings.png,,,,,50,,,0,0.4,../static/images/US_Cities_List/nat_shreveport.png,../static/images/US_Cities_List/nat_racine.png,../static/images/US_Cities_List/nat_cornwall.png,../static/images/US_Cities_List/nat_shreveport.png,../static/images/US_Cities_List/nat_cornwall.png,../static/images/US_Cities_List/nat_racine.png,0.5,closer,,,,,,,,,,,,,,,,,,
null,,html-keyboard-response,938407,<p></p>,,,,,null,,,,,,,,,,,,,,,,,,,,,,,,,,,,,,
5105.5,,directmemory_phase,943551,../static/images/US_Cities_List/mm_boulder.png,,,,,49,,,1,0.42857142857142855,../static/images/US_Cities_List/nat_cornwall.png,../static/images/US_Cities_List/mm_leesburg.png,../static/images/US_Cities_List/mm_carmel.png,../static/images/US_Cities_List/nat_cornwall.png,../static/images/US_Cities_List/mm_carmel.png,../static/images/US_Cities_List/mm_leesburg.png,1,,,,,,,,,,,,,,,,,,,
null,,html-keyboard-response,944555,<p></p>,,,,,null,,,,,,,,,,,,,,,,,,,,,,,,,,,,,,
null,,directmemory_phase,951092,../static/images/US_Cities_List/mm_newhope.png,,,,,null,,,0,0.4090909090909091,../static/images/US_Cities_List/nat_hanover.png,../static/images/US_Cities_List/nat_hotsprings.png,../static/images/US_Cities_List/nat_shreveport.png,../static/images/US_Cities_List/nat_shreveport.png,../static/images/US_Cities_List/nat_hotsprings.png,../static/images/US_Cities_List/nat_hanover.png,0,,,,,,,,,,,,,,,,,,,
null,,html-keyboard-response,952098,<p></p>,,,,,null,,,,,,,,,,,,,,,,,,,,,,,,,,,,,,
2507.5999999940395,,directmemory_phase,954642,../static/images/US_Cities_List/mm_boulder.png,,,,,51,,,1,0.43478260869565216,../static/images/US_Cities_List/mm_gatlinburg.png,../static/images/US_Cities_List/mm_huntsville.png,../static/images/US_Cities_List/nat_hotsprings.png,../static/images/US_Cities_List/nat_hotsprings.png,../static/images/US_Cities_List/mm_huntsville.png,../static/images/US_Cities_List/mm_gatlinburg.png,1,,,,,,,,,,,,,,,,,,,
null,,html-keyboard-response,955648,<p></p>,,,,,null,,,,,,,,,,,,,,,,,,,,,,,,,,,,,,
2720.4000000059605,,directmemory_phase,958411,../static/images/US_Cities_List/nat_hanover.png,,,,,51,,,1,0.4583333333333333,../static/images/US_Cities_List/nat_hotsprings.png,../static/images/US_Cities_List/nat_westpalmbeach.png,../static/images/US_Cities_List/mm_carmel.png,../static/images/US_Cities_List/mm_carmel.png,../static/images/US_Cities_List/nat_westpalmbeach.png,../static/images/US_Cities_List/nat_hotsprings.png,1,,,,,,,,,,,,,,,,,,,
null,,html-keyboard-response,959415,<p></p>,,,,,null,,,,,,,,,,,,,,,,,,,,,,,,,,,,,,
3356.699999988079,,directmemory_phase,962814,../static/images/US_Cities_List/nat_shreveport.png,,,,,49,,,1,0.48,../static/images/US_Cities_List/nat_hotsprings.png,../static/images/US_Cities_List/nat_racine.png,../static/images/US_Cities_List/mm_peoria.png,../static/images/US_Cities_List/nat_hotsprings.png,../static/images/US_Cities_List/mm_peoria.png,../static/images/US_Cities_List/nat_racine.png,1,,,,,,,,,,,,,,,,,,,
null,,html-keyboard-response,963818,<p></p>,,,,,null,,,,,,,,,,,,,,,,,,,,,,,,,,,,,,
