rt,responses,trial_type,time_elapsed,stimulus,cities,city_images,button_pressed,response,key_press,stimulus_left,stimulus_right,accuracy,cumulative_accuracy,stimulus_down_left,stimulus_down_mid,stimulus_down_right,stimulus_correct,stimulus_short,stimulus_far,weighted_accuracy,missedtrial,condition,specific_pairs,imgL_ID,imgR_ID,linedress,linedressed,image_position,unknowncity,testedstates,currentstate,otherstate,problems,smooth,distraction,strategies,easier,similar,comments
6453.70000000298,{worker_id:56e60e39f7957b000b18e37b},id_enter,6455,intro,Boulder; Hanover; Hot Springs; Peoria; Gatlinburg; New Hope; Shreveport; Cornwall; West Palm Beach; Huntsville; Leesburg; Racine; Carmel,US_Cities_List/nat_boulder.png; US_Cities_List/nat_hanover.png; US_Cities_List/mm_hotsprings.png; US_Cities_List/nat_peoria.png; US_Cities_List/nat_gatlinburg.png; US_Cities_List/mm_newhope.png; US_Cities_List/nat_shreveport.png; US_Cities_List/nat_cornwall.png; US_Cities_List/mm_westpalmbeach.png; US_Cities_List/mm_huntsville.png; US_Cities_List/nat_leesburg.png; US_Cities_List/nat_racine.png; US_Cities_List/nat_carmel.png,,,,,,,,,,,,,,,,,,,,,,,,,,,,,,,,,
2761.5,,fullscreen,9218,make_fullscreen,,,0,,,,,,,,,,,,,,,,,,,,,,,,,,,,,,,,
4374.29999999702,,intro_1,13594,instruct,,,0,,,,,,,,,,,,,,,,,,,,,,,,,,,,,,,,
8865.09999999404,,intro_2,22465,instruct,,,1,Next,,,,,,,,,,,,,,,,,,,,,,,,,,,,,,,
29087.79999999702,,intro_3,51553,instruct,,,1,Next,,,,,,,,,,,,,,,,,,,,,,,,,,,,,,,
6510.29999999702,,intro_4,58064,instruct,,,1,Next,,,,,,,,,,,,,,,,,,,,,,,,,,,,,,,
4072.7999999970198,,intro_5,62137,instruct,,,1,Next,,,,,,,,,,,,,,,,,,,,,,,,,,,,,,,
17714.70000000298,,intro_6,79853,instruct,,,1,Next,,,,,,,,,,,,,,,,,,,,,,,,,,,,,,,
null,,prac_atten_color_black,80359,black_plus_sign,,,,,null,,,,,,,,,,,,,,,,,,,,,,,,,,,,,,
null,,prac_atten_color,81257,prac_stop_color,,,,,null,,,,,,,,,,,,,,,,,,,,,,,,,,,,,,
1110.2000000029802,,prac_atten_color_black,83258,black_plus_sign,,,,,49,,,,,,,,,,,,,,,,,,,,,,,,,,,,,,
null,,prac_atten_color_black,83763,black_plus_sign,,,,,null,,,,,,,,,,,,,,,,,,,,,,,,,,,,,,
597.7000000029802,,prac_atten_color,84703,prac_stop_color,,,,,50,,,,,,,,,,,,,,,,,,,,,,,,,,,,,,
null,,prac_atten_color_black,86705,black_plus_sign,,,,,null,,,,,,,,,,,,,,,,,,,,,,,,,,,,,,
null,,prac_atten_color_black,87168,black_plus_sign,,,,,null,,,,,,,,,,,,,,,,,,,,,,,,,,,,,,
null,,prac_atten_color,87593,prac_stop_color,,,,,null,,,,,,,,,,,,,,,,,,,,,,,,,,,,,,
12.199999988079071,,prac_atten_color_black,89594,black_plus_sign,,,,,50,,,,,,,,,,,,,,,,,,,,,,,,,,,,,,
null,,prac_atten_color_black,90571,black_plus_sign,,,,,null,,,,,,,,,,,,,,,,,,,,,,,,,,,,,,
358.09999999403954,,prac_atten_color,91645,prac_stop_color,,,,,49,,,,,,,,,,,,,,,,,,,,,,,,,,,,,,
null,,prac_atten_color_black,93646,black_plus_sign,,,,,null,,,,,,,,,,,,,,,,,,,,,,,,,,,,,,
null,,prac_atten_color_black,93976,black_plus_sign,,,,,null,,,,,,,,,,,,,,,,,,,,,,,,,,,,,,
327.20000000298023,,prac_atten_color,94555,prac_stop_color,,,,,50,,,,,,,,,,,,,,,,,,,,,,,,,,,,,,
null,,prac_atten_color_black,96557,black_plus_sign,,,,,null,,,,,,,,,,,,,,,,,,,,,,,,,,,,,,
null,,prac_atten_color_black,97381,black_plus_sign,,,,,null,,,,,,,,,,,,,,,,,,,,,,,,,,,,,,
477.40000000596046,,prac_atten_color,98389,prac_stop_color,,,,,50,,,,,,,,,,,,,,,,,,,,,,,,,,,,,,
null,,prac_atten_color_black,100391,black_plus_sign,,,,,null,,,,,,,,,,,,,,,,,,,,,,,,,,,,,,
null,,prac_atten_color_black,100785,black_plus_sign,,,,,null,,,,,,,,,,,,,,,,,,,,,,,,,,,,,,
null,,prac_atten_color,101252,prac_stop_color,,,,,null,,,,,,,,,,,,,,,,,,,,,,,,,,,,,,
56.5,,prac_atten_color_black,103254,black_plus_sign,,,,,49,,,,,,,,,,,,,,,,,,,,,,,,,,,,,,
null,,prac_atten_color_black,104189,black_plus_sign,,,,,null,,,,,,,,,,,,,,,,,,,,,,,,,,,,,,
346.20000000298023,,prac_atten_color,104995,prac_stop_color,,,,,50,,,,,,,,,,,,,,,,,,,,,,,,,,,,,,
null,,prac_atten_color_black,106997,black_plus_sign,,,,,null,,,,,,,,,,,,,,,,,,,,,,,,,,,,,,
null,,prac_atten_color_black,107594,black_plus_sign,,,,,null,,,,,,,,,,,,,,,,,,,,,,,,,,,,,,
456.1000000089407,,prac_atten_color,108082,prac_stop_color,,,,,50,,,,,,,,,,,,,,,,,,,,,,,,,,,,,,
21.900000005960464,,prac_atten_color_black,110083,black_plus_sign,,,,,49,,,,,,,,,,,,,,,,,,,,,,,,,,,,,,
null,,prac_atten_color_black,110997,black_plus_sign,,,,,null,,,,,,,,,,,,,,,,,,,,,,,,,,,,,,
421,,prac_atten_color,111563,prac_stop_color,,,,,49,,,,,,,,,,,,,,,,,,,,,,,,,,,,,,
null,,prac_atten_color_black,113564,black_plus_sign,,,,,null,,,,,,,,,,,,,,,,,,,,,,,,,,,,,,
2793.7000000029802,,attentioncheck_feedback,116359,cross_check_feedback,,,0,,,,,,,,,,,,,,,,,,,,,,,,,,,,,,,,
6221.5999999940395,,last_instruct,122581,instruct,,,,,32,,,,,,,,,,,,,,,,,,,,,,,,,,,,,,
null,,learn_phase(without_color),124589,black_plus_sign,,,,,null,US_Cities_List/nat_cornwall.png,US_Cities_List/mm_huntsville.png,,,,,,,,,,,,,,,,,,,,,,,,,,,,
null,,black_cross(without_color),125486,blue,,,,,null,US_Cities_List/nat_cornwall.png,US_Cities_List/mm_huntsville.png,,,,,,,,,,,,,,,,,,,,,,,,,,,,
null,,rt_plussign_withcolor,125988,blue,,,,,null,US_Cities_List/nat_cornwall.png,US_Cities_List/mm_huntsville.png,,,,,,,,,,,,,,,,,,,,,,,,,,,,
1140,,rt_thecrossant_black,127093,black_plus_sign,,,,,50,,,0,0,,,,,,,,,,,,,,,,,,,,,,,,,,
null,,color_black,127195,black_plus_sign,,,,,null,,,,,,,,,,,,,,,,,,,,,,,,,,,,,,
null,,learn_phase(without_color),129706,black_plus_sign,,,,,null,US_Cities_List/nat_shreveport.png,US_Cities_List/nat_cornwall.png,,,,,,,,,,,,,,,,,,,,,,,,,,,,
null,,black_cross(without_color),130590,blue,,,,,null,US_Cities_List/nat_shreveport.png,US_Cities_List/nat_cornwall.png,,,,,,,,,,,,,,,,,,,,,,,,,,,,
456.20000000298023,,rt_plussign_withcolor,131091,blue,,,,,49,US_Cities_List/nat_shreveport.png,US_Cities_List/nat_cornwall.png,,,,,,,,,,,,,,,,,,,,,,,,,,,,
null,,rt_thecrossant_black,132210,black_plus_sign,,,,,null,,,1,0.5,,,,,,,,,,,,,,,,,,,,,,,,,,
null,,color_black,132311,black_plus_sign,,,,,null,,,,,,,,,,,,,,,,,,,,,,,,,,,,,,
null,,learn_phase(without_color),134821,black_plus_sign,,,,,null,US_Cities_List/nat_peoria.png,US_Cities_List/nat_racine.png,,,,,,,,,,,,,,,,,,,,,,,,,,,,
null,,black_cross(without_color),135540,blue,,,,,null,US_Cities_List/nat_peoria.png,US_Cities_List/nat_racine.png,,,,,,,,,,,,,,,,,,,,,,,,,,,,
476,,rt_plussign_withcolor,136042,blue,,,,,49,US_Cities_List/nat_peoria.png,US_Cities_List/nat_racine.png,,,,,,,,,,,,,,,,,,,,,,,,,,,,
null,,rt_thecrossant_black,137325,black_plus_sign,,,,,null,,,1,0.6666666666666666,,,,,,,,,,,,,,,,,,,,,,,,,,
null,,color_black,137438,black_plus_sign,,,,,null,,,,,,,,,,,,,,,,,,,,,,,,,,,,,,
null,,learn_phase(without_color),139948,black_plus_sign,,,,,null,US_Cities_List/mm_hotsprings.png,US_Cities_List/mm_newhope.png,,,,,,,,,,,,,,,,,,,,,,,,,,,,
null,,black_cross(without_color),140787,blue,,,,,null,US_Cities_List/mm_hotsprings.png,US_Cities_List/mm_newhope.png,,,,,,,,,,,,,,,,,,,,,,,,,,,,
492.3999999910593,,rt_plussign_withcolor,141288,blue,,,,,49,US_Cities_List/mm_hotsprings.png,US_Cities_List/mm_newhope.png,,,,,,,,,,,,,,,,,,,,,,,,,,,,
null,,rt_thecrossant_black,142451,black_plus_sign,,,,,null,,,1,0.75,,,,,,,,,,,,,,,,,,,,,,,,,,
null,,color_black,142552,black_plus_sign,,,,,null,,,,,,,,,,,,,,,,,,,,,,,,,,,,,,
null,,learn_phase(without_color),145066,black_plus_sign,,,,,null,US_Cities_List/nat_shreveport.png,US_Cities_List/mm_westpalmbeach.png,,,,,,,,,,,,,,,,,,,,,,,,,,,,
null,,black_cross(without_color),145761,green,,,,,null,US_Cities_List/nat_shreveport.png,US_Cities_List/mm_westpalmbeach.png,,,,,,,,,,,,,,,,,,,,,,,,,,,,
null,,rt_plussign_withcolor,146275,green,,,,,null,US_Cities_List/nat_shreveport.png,US_Cities_List/mm_westpalmbeach.png,,,,,,,,,,,,,,,,,,,,,,,,,,,,
980.1000000089407,,rt_thecrossant_black,147581,black_plus_sign,,,,,50,,,1,0.8,,,,,,,,,,,,,,,,,,,,,,,,,,
null,,color_black,147683,black_plus_sign,,,,,null,,,,,,,,,,,,,,,,,,,,,,,,,,,,,,
null,,learn_phase(without_color),150197,black_plus_sign,,,,,null,US_Cities_List/nat_peoria.png,US_Cities_List/nat_racine.png,,,,,,,,,,,,,,,,,,,,,,,,,,,,
null,,black_cross(without_color),150671,green,,,,,null,US_Cities_List/nat_peoria.png,US_Cities_List/nat_racine.png,,,,,,,,,,,,,,,,,,,,,,,,,,,,
null,,rt_plussign_withcolor,151174,green,,,,,null,US_Cities_List/nat_peoria.png,US_Cities_List/nat_racine.png,,,,,,,,,,,,,,,,,,,,,,,,,,,,
818.0999999940395,,rt_thecrossant_black,152703,black_plus_sign,,,,,50,,,1,0.8333333333333334,,,,,,,,,,,,,,,,,,,,,,,,,,
null,,color_black,152804,black_plus_sign,,,,,null,,,,,,,,,,,,,,,,,,,,,,,,,,,,,,
null,,learn_phase(without_color),155316,black_plus_sign,,,,,null,US_Cities_List/nat_peoria.png,US_Cities_List/nat_gatlinburg.png,,,,,,,,,,,,,,,,,,,,,,,,,,,,
null,,black_cross(without_color),156143,blue,,,,,null,US_Cities_List/nat_peoria.png,US_Cities_List/nat_gatlinburg.png,,,,,,,,,,,,,,,,,,,,,,,,,,,,
null,,rt_plussign_withcolor,156644,blue,,,,,null,US_Cities_List/nat_peoria.png,US_Cities_List/nat_gatlinburg.png,,,,,,,,,,,,,,,,,,,,,,,,,,,,
658.2000000029802,,rt_thecrossant_black,157819,black_plus_sign,,,,,49,,,1,0.8571428571428571,,,,,,,,,,,,,,,,,,,,,,,,,,
null,,color_black,157921,black_plus_sign,,,,,null,,,,,,,,,,,,,,,,,,,,,,,,,,,,,,
null,,learn_phase(without_color),160430,black_plus_sign,,,,,null,US_Cities_List/nat_cornwall.png,US_Cities_List/mm_huntsville.png,,,,,,,,,,,,,,,,,,,,,,,,,,,,
null,,black_cross(without_color),160985,green,,,,,null,US_Cities_List/nat_cornwall.png,US_Cities_List/mm_huntsville.png,,,,,,,,,,,,,,,,,,,,,,,,,,,,
null,,rt_plussign_withcolor,161487,green,,,,,null,US_Cities_List/nat_cornwall.png,US_Cities_List/mm_huntsville.png,,,,,,,,,,,,,,,,,,,,,,,,,,,,
959,,rt_thecrossant_black,162935,black_plus_sign,,,,,50,,,1,0.875,,,,,,,,,,,,,,,,,,,,,,,,,,
null,,color_black,163036,black_plus_sign,,,,,null,,,,,,,,,,,,,,,,,,,,,,,,,,,,,,
null,,learn_phase(without_color),165550,black_plus_sign,,,,,null,US_Cities_List/nat_peoria.png,US_Cities_List/nat_gatlinburg.png,,,,,,,,,,,,,,,,,,,,,,,,,,,,
null,,black_cross(without_color),166420,blue,,,,,null,US_Cities_List/nat_peoria.png,US_Cities_List/nat_gatlinburg.png,,,,,,,,,,,,,,,,,,,,,,,,,,,,
null,,rt_plussign_withcolor,166921,blue,,,,,null,US_Cities_List/nat_peoria.png,US_Cities_List/nat_gatlinburg.png,,,,,,,,,,,,,,,,,,,,,,,,,,,,
740.0999999940395,,rt_thecrossant_black,168054,black_plus_sign,,,,,49,,,1,0.8888888888888888,,,,,,,,,,,,,,,,,,,,,,,,,,
null,,color_black,168156,black_plus_sign,,,,,null,,,,,,,,,,,,,,,,,,,,,,,,,,,,,,
null,,learn_phase(without_color),170669,black_plus_sign,,,,,null,US_Cities_List/nat_cornwall.png,US_Cities_List/mm_westpalmbeach.png,,,,,,,,,,,,,,,,,,,,,,,,,,,,
null,,black_cross(without_color),171201,blue,,,,,null,US_Cities_List/nat_cornwall.png,US_Cities_List/mm_westpalmbeach.png,,,,,,,,,,,,,,,,,,,,,,,,,,,,
489.69999998807907,,rt_plussign_withcolor,171703,blue,,,,,49,US_Cities_List/nat_cornwall.png,US_Cities_List/mm_westpalmbeach.png,,,,,,,,,,,,,,,,,,,,,,,,,,,,
null,,rt_thecrossant_black,173173,black_plus_sign,,,,,null,,,1,0.9,,,,,,,,,,,,,,,,,,,,,,,,,,
null,,color_black,173275,black_plus_sign,,,,,null,,,,,,,,,,,,,,,,,,,,,,,,,,,,,,
null,,learn_phase(without_color),175787,black_plus_sign,,,,,null,US_Cities_List/nat_cornwall.png,US_Cities_List/mm_huntsville.png,,,,,,,,,,,,,,,,,,,,,,,,,,,,
null,,black_cross(without_color),176804,green,,,,,null,US_Cities_List/nat_cornwall.png,US_Cities_List/mm_huntsville.png,,,,,,,,,,,,,,,,,,,,,,,,,,,,
496.40000000596046,,rt_plussign_withcolor,177306,green,,,,,50,US_Cities_List/nat_cornwall.png,US_Cities_List/mm_huntsville.png,,,,,,,,,,,,,,,,,,,,,,,,,,,,
null,,rt_thecrossant_black,178292,black_plus_sign,,,,,null,,,1,0.9090909090909091,,,,,,,,,,,,,,,,,,,,,,,,,,
null,,color_black,178393,black_plus_sign,,,,,null,,,,,,,,,,,,,,,,,,,,,,,,,,,,,,
null,,learn_phase(without_color),180903,black_plus_sign,,,,,null,US_Cities_List/nat_boulder.png,US_Cities_List/nat_hanover.png,,,,,,,,,,,,,,,,,,,,,,,,,,,,
null,,black_cross(without_color),181413,blue,,,,,null,US_Cities_List/nat_boulder.png,US_Cities_List/nat_hanover.png,,,,,,,,,,,,,,,,,,,,,,,,,,,,
446.30000001192093,,rt_plussign_withcolor,181915,blue,,,,,49,US_Cities_List/nat_boulder.png,US_Cities_List/nat_hanover.png,,,,,,,,,,,,,,,,,,,,,,,,,,,,
null,,rt_thecrossant_black,183408,black_plus_sign,,,,,null,,,1,0.9166666666666666,,,,,,,,,,,,,,,,,,,,,,,,,,
null,,color_black,183510,black_plus_sign,,,,,null,,,,,,,,,,,,,,,,,,,,,,,,,,,,,,
null,,learn_phase(without_color),186019,black_plus_sign,,,,,null,US_Cities_List/nat_shreveport.png,US_Cities_List/nat_carmel.png,,,,,,,,,,,,,,,,,,,,,,,,,,,,
null,,black_cross(without_color),186763,blue,,,,,null,US_Cities_List/nat_shreveport.png,US_Cities_List/nat_carmel.png,,,,,,,,,,,,,,,,,,,,,,,,,,,,
null,,rt_plussign_withcolor,187264,blue,,,,,null,US_Cities_List/nat_shreveport.png,US_Cities_List/nat_carmel.png,,,,,,,,,,,,,,,,,,,,,,,,,,,,
646,,rt_thecrossant_black,188523,black_plus_sign,,,,,49,,,1,0.9230769230769231,,,,,,,,,,,,,,,,,,,,,,,,,,
null,,color_black,188624,black_plus_sign,,,,,null,,,,,,,,,,,,,,,,,,,,,,,,,,,,,,
null,,learn_phase(without_color),191134,black_plus_sign,,,,,null,US_Cities_List/nat_hanover.png,US_Cities_List/mm_hotsprings.png,,,,,,,,,,,,,,,,,,,,,,,,,,,,
null,,black_cross(without_color),191587,blue,,,,,null,US_Cities_List/nat_hanover.png,US_Cities_List/mm_hotsprings.png,,,,,,,,,,,,,,,,,,,,,,,,,,,,
497.29999999701977,,rt_plussign_withcolor,192089,blue,,,,,49,US_Cities_List/nat_hanover.png,US_Cities_List/mm_hotsprings.png,,,,,,,,,,,,,,,,,,,,,,,,,,,,
null,,rt_thecrossant_black,193638,black_plus_sign,,,,,null,,,1,0.9285714285714286,,,,,,,,,,,,,,,,,,,,,,,,,,
null,,color_black,193740,black_plus_sign,,,,,null,,,,,,,,,,,,,,,,,,,,,,,,,,,,,,
null,,learn_phase(without_color),196251,black_plus_sign,,,,,null,US_Cities_List/nat_hanover.png,US_Cities_List/nat_peoria.png,,,,,,,,,,,,,,,,,,,,,,,,,,,,
null,,black_cross(without_color),197219,blue,,,,,null,US_Cities_List/nat_hanover.png,US_Cities_List/nat_peoria.png,,,,,,,,,,,,,,,,,,,,,,,,,,,,
387.40000000596046,,rt_plussign_withcolor,197720,blue,,,,,49,US_Cities_List/nat_hanover.png,US_Cities_List/nat_peoria.png,,,,,,,,,,,,,,,,,,,,,,,,,,,,
null,,rt_thecrossant_black,198756,black_plus_sign,,,,,null,,,1,0.9333333333333333,,,,,,,,,,,,,,,,,,,,,,,,,,
null,,color_black,198868,black_plus_sign,,,,,null,,,,,,,,,,,,,,,,,,,,,,,,,,,,,,
null,,learn_phase(without_color),201381,black_plus_sign,,,,,null,US_Cities_List/nat_shreveport.png,US_Cities_List/nat_carmel.png,,,,,,,,,,,,,,,,,,,,,,,,,,,,
null,,black_cross(without_color),202000,green,,,,,null,US_Cities_List/nat_shreveport.png,US_Cities_List/nat_carmel.png,,,,,,,,,,,,,,,,,,,,,,,,,,,,
443.1000000089407,,rt_plussign_withcolor,202501,green,,,,,50,US_Cities_List/nat_shreveport.png,US_Cities_List/nat_carmel.png,,,,,,,,,,,,,,,,,,,,,,,,,,,,
null,,rt_thecrossant_black,203884,black_plus_sign,,,,,null,,,1,0.9375,,,,,,,,,,,,,,,,,,,,,,,,,,
null,,color_black,203985,black_plus_sign,,,,,null,,,,,,,,,,,,,,,,,,,,,,,,,,,,,,
null,,learn_phase(without_color),206497,black_plus_sign,,,,,null,US_Cities_List/nat_hanover.png,US_Cities_List/nat_peoria.png,,,,,,,,,,,,,,,,,,,,,,,,,,,,
null,,black_cross(without_color),207575,green,,,,,null,US_Cities_List/nat_hanover.png,US_Cities_List/nat_peoria.png,,,,,,,,,,,,,,,,,,,,,,,,,,,,
null,,rt_plussign_withcolor,208077,green,,,,,null,US_Cities_List/nat_hanover.png,US_Cities_List/nat_peoria.png,,,,,,,,,,,,,,,,,,,,,,,,,,,,
928,,rt_thecrossant_black,209002,black_plus_sign,,,,,50,,,1,0.9411764705882353,,,,,,,,,,,,,,,,,,,,,,,,,,
null,,color_black,209104,black_plus_sign,,,,,null,,,,,,,,,,,,,,,,,,,,,,,,,,,,,,
null,,learn_phase(without_color),211614,black_plus_sign,,,,,null,US_Cities_List/mm_hotsprings.png,US_Cities_List/nat_leesburg.png,,,,,,,,,,,,,,,,,,,,,,,,,,,,
null,,black_cross(without_color),212648,blue,,,,,null,US_Cities_List/mm_hotsprings.png,US_Cities_List/nat_leesburg.png,,,,,,,,,,,,,,,,,,,,,,,,,,,,
474.29999999701977,,rt_plussign_withcolor,213149,blue,,,,,49,US_Cities_List/mm_hotsprings.png,US_Cities_List/nat_leesburg.png,,,,,,,,,,,,,,,,,,,,,,,,,,,,
null,,rt_thecrossant_black,214133,black_plus_sign,,,,,null,,,1,0.9444444444444444,,,,,,,,,,,,,,,,,,,,,,,,,,
null,,color_black,214234,black_plus_sign,,,,,null,,,,,,,,,,,,,,,,,,,,,,,,,,,,,,
null,,learn_phase(without_color),216744,black_plus_sign,,,,,null,US_Cities_List/nat_shreveport.png,US_Cities_List/nat_carmel.png,,,,,,,,,,,,,,,,,,,,,,,,,,,,
null,,black_cross(without_color),217424,green,,,,,null,US_Cities_List/nat_shreveport.png,US_Cities_List/nat_carmel.png,,,,,,,,,,,,,,,,,,,,,,,,,,,,
440.29999999701977,,rt_plussign_withcolor,217925,green,,,,,50,US_Cities_List/nat_shreveport.png,US_Cities_List/nat_carmel.png,,,,,,,,,,,,,,,,,,,,,,,,,,,,
null,,rt_thecrossant_black,219260,black_plus_sign,,,,,null,,,1,0.9473684210526315,,,,,,,,,,,,,,,,,,,,,,,,,,
null,,color_black,219362,black_plus_sign,,,,,null,,,,,,,,,,,,,,,,,,,,,,,,,,,,,,
null,,learn_phase(without_color),221874,black_plus_sign,,,,,null,US_Cities_List/nat_shreveport.png,US_Cities_List/nat_cornwall.png,,,,,,,,,,,,,,,,,,,,,,,,,,,,
null,,black_cross(without_color),222487,green,,,,,null,US_Cities_List/nat_shreveport.png,US_Cities_List/nat_cornwall.png,,,,,,,,,,,,,,,,,,,,,,,,,,,,
464.30000001192093,,rt_plussign_withcolor,222989,green,,,,,50,US_Cities_List/nat_shreveport.png,US_Cities_List/nat_cornwall.png,,,,,,,,,,,,,,,,,,,,,,,,,,,,
null,,rt_thecrossant_black,224389,black_plus_sign,,,,,null,,,1,0.95,,,,,,,,,,,,,,,,,,,,,,,,,,
null,,color_black,224490,black_plus_sign,,,,,null,,,,,,,,,,,,,,,,,,,,,,,,,,,,,,
null,,learn_phase(without_color),227002,black_plus_sign,,,,,null,US_Cities_List/nat_boulder.png,US_Cities_List/nat_hanover.png,,,,,,,,,,,,,,,,,,,,,,,,,,,,
null,,black_cross(without_color),227495,blue,,,,,null,US_Cities_List/nat_boulder.png,US_Cities_List/nat_hanover.png,,,,,,,,,,,,,,,,,,,,,,,,,,,,
479.19999998807907,,rt_plussign_withcolor,227997,blue,,,,,50,US_Cities_List/nat_boulder.png,US_Cities_List/nat_hanover.png,,,,,,,,,,,,,,,,,,,,,,,,,,,,
null,,rt_thecrossant_black,229507,black_plus_sign,,,,,49,,,0,0.9047619047619048,,,,,,,,,,,,,,,,,,,,,,,,,,
null,,color_black,229608,black_plus_sign,,,,,null,,,,,,,,,,,,,,,,,,,,,,,,,,,,,,
null,,learn_phase(without_color),232121,black_plus_sign,,,,,null,US_Cities_List/nat_shreveport.png,US_Cities_List/nat_cornwall.png,,,,,,,,,,,,,,,,,,,,,,,,,,,,
null,,black_cross(without_color),233195,blue,,,,,null,US_Cities_List/nat_shreveport.png,US_Cities_List/nat_cornwall.png,,,,,,,,,,,,,,,,,,,,,,,,,,,,
472.29999999701977,,rt_plussign_withcolor,233695,blue,,,,,49,US_Cities_List/nat_shreveport.png,US_Cities_List/nat_cornwall.png,,,,,,,,,,,,,,,,,,,,,,,,,,,,
null,,rt_thecrossant_black,234624,black_plus_sign,,,,,null,,,1,0.9090909090909091,,,,,,,,,,,,,,,,,,,,,,,,,,
null,,color_black,234726,black_plus_sign,,,,,null,,,,,,,,,,,,,,,,,,,,,,,,,,,,,,
null,,learn_phase(without_color),237236,black_plus_sign,,,,,null,US_Cities_List/nat_leesburg.png,US_Cities_List/nat_racine.png,,,,,,,,,,,,,,,,,,,,,,,,,,,,
null,,black_cross(without_color),237839,green,,,,,null,US_Cities_List/nat_leesburg.png,US_Cities_List/nat_racine.png,,,,,,,,,,,,,,,,,,,,,,,,,,,,
440.5,,rt_plussign_withcolor,238339,green,,,,,50,US_Cities_List/nat_leesburg.png,US_Cities_List/nat_racine.png,,,,,,,,,,,,,,,,,,,,,,,,,,,,
null,,rt_thecrossant_black,239739,black_plus_sign,,,,,null,,,1,0.9130434782608695,,,,,,,,,,,,,,,,,,,,,,,,,,
null,,color_black,239841,black_plus_sign,,,,,null,,,,,,,,,,,,,,,,,,,,,,,,,,,,,,
null,,learn_phase(without_color),242350,black_plus_sign,,,,,null,US_Cities_List/nat_shreveport.png,US_Cities_List/nat_carmel.png,,,,,,,,,,,,,,,,,,,,,,,,,,,,
null,,black_cross(without_color),242761,blue,,,,,null,US_Cities_List/nat_shreveport.png,US_Cities_List/nat_carmel.png,,,,,,,,,,,,,,,,,,,,,,,,,,,,
null,,rt_plussign_withcolor,243262,blue,,,,,null,US_Cities_List/nat_shreveport.png,US_Cities_List/nat_carmel.png,,,,,,,,,,,,,,,,,,,,,,,,,,,,
878.3000000119209,,rt_thecrossant_black,244855,black_plus_sign,,,,,49,,,1,0.9166666666666666,,,,,,,,,,,,,,,,,,,,,,,,,,
null,,color_black,244966,black_plus_sign,,,,,null,,,,,,,,,,,,,,,,,,,,,,,,,,,,,,
null,,learn_phase(without_color),247479,black_plus_sign,,,,,null,US_Cities_List/nat_shreveport.png,US_Cities_List/mm_westpalmbeach.png,,,,,,,,,,,,,,,,,,,,,,,,,,,,
null,,black_cross(without_color),248408,blue,,,,,null,US_Cities_List/nat_shreveport.png,US_Cities_List/mm_westpalmbeach.png,,,,,,,,,,,,,,,,,,,,,,,,,,,,
466.29999999701977,,rt_plussign_withcolor,248909,blue,,,,,49,US_Cities_List/nat_shreveport.png,US_Cities_List/mm_westpalmbeach.png,,,,,,,,,,,,,,,,,,,,,,,,,,,,
null,,rt_thecrossant_black,249983,black_plus_sign,,,,,null,,,1,0.92,,,,,,,,,,,,,,,,,,,,,,,,,,
null,,color_black,250084,black_plus_sign,,,,,null,,,,,,,,,,,,,,,,,,,,,,,,,,,,,,
null,,learn_phase(without_color),252595,black_plus_sign,,,,,null,US_Cities_List/nat_leesburg.png,US_Cities_List/nat_racine.png,,,,,,,,,,,,,,,,,,,,,,,,,,,,
null,,black_cross(without_color),253703,green,,,,,null,US_Cities_List/nat_leesburg.png,US_Cities_List/nat_racine.png,,,,,,,,,,,,,,,,,,,,,,,,,,,,
484,,rt_plussign_withcolor,254204,green,,,,,49,US_Cities_List/nat_leesburg.png,US_Cities_List/nat_racine.png,,,,,,,,,,,,,,,,,,,,,,,,,,,,
null,,rt_thecrossant_black,255111,black_plus_sign,,,,,50,,,0,0.8846153846153846,,,,,,,,,,,,,,,,,,,,,,,,,,
null,,color_black,255213,black_plus_sign,,,,,null,,,,,,,,,,,,,,,,,,,,,,,,,,,,,,
null,,learn_phase(without_color),257724,black_plus_sign,,,,,null,US_Cities_List/mm_newhope.png,US_Cities_List/nat_shreveport.png,,,,,,,,,,,,,,,,,,,,,,,,,,,,
null,,black_cross(without_color),258788,green,,,,,null,US_Cities_List/mm_newhope.png,US_Cities_List/nat_shreveport.png,,,,,,,,,,,,,,,,,,,,,,,,,,,,
null,,rt_plussign_withcolor,259289,green,,,,,null,US_Cities_List/mm_newhope.png,US_Cities_List/nat_shreveport.png,,,,,,,,,,,,,,,,,,,,,,,,,,,,
1244.7000000029802,,rt_thecrossant_black,260243,black_plus_sign,,,,,50,,,1,0.8888888888888888,,,,,,,,,,,,,,,,,,,,,,,,,,
null,,color_black,260345,black_plus_sign,,,,,null,,,,,,,,,,,,,,,,,,,,,,,,,,,,,,
null,,learn_phase(without_color),262857,black_plus_sign,,,,,null,US_Cities_List/mm_hotsprings.png,US_Cities_List/nat_leesburg.png,,,,,,,,,,,,,,,,,,,,,,,,,,,,
null,,black_cross(without_color),263919,green,,,,,null,US_Cities_List/mm_hotsprings.png,US_Cities_List/nat_leesburg.png,,,,,,,,,,,,,,,,,,,,,,,,,,,,
null,,rt_plussign_withcolor,264420,green,,,,,null,US_Cities_List/mm_hotsprings.png,US_Cities_List/nat_leesburg.png,,,,,,,,,,,,,,,,,,,,,,,,,,,,
1171.2999999970198,,rt_thecrossant_black,265360,black_plus_sign,,,,,50,,,1,0.8928571428571429,,,,,,,,,,,,,,,,,,,,,,,,,,
null,,color_black,265462,black_plus_sign,,,,,null,,,,,,,,,,,,,,,,,,,,,,,,,,,,,,
null,,learn_phase(without_color),267972,black_plus_sign,,,,,null,US_Cities_List/nat_boulder.png,US_Cities_List/nat_hanover.png,,,,,,,,,,,,,,,,,,,,,,,,,,,,
null,,black_cross(without_color),268898,green,,,,,null,US_Cities_List/nat_boulder.png,US_Cities_List/nat_hanover.png,,,,,,,,,,,,,,,,,,,,,,,,,,,,
491.8999999910593,,rt_plussign_withcolor,269399,green,,,,,50,US_Cities_List/nat_boulder.png,US_Cities_List/nat_hanover.png,,,,,,,,,,,,,,,,,,,,,,,,,,,,
null,,rt_thecrossant_black,270475,black_plus_sign,,,,,null,,,1,0.896551724137931,,,,,,,,,,,,,,,,,,,,,,,,,,
null,,color_black,270580,black_plus_sign,,,,,null,,,,,,,,,,,,,,,,,,,,,,,,,,,,,,
null,,learn_phase(without_color),273090,black_plus_sign,,,,,null,US_Cities_List/nat_shreveport.png,US_Cities_List/nat_carmel.png,,,,,,,,,,,,,,,,,,,,,,,,,,,,
null,,black_cross(without_color),274137,green,,,,,null,US_Cities_List/nat_shreveport.png,US_Cities_List/nat_carmel.png,,,,,,,,,,,,,,,,,,,,,,,,,,,,
null,,rt_plussign_withcolor,274639,green,,,,,null,US_Cities_List/nat_shreveport.png,US_Cities_List/nat_carmel.png,,,,,,,,,,,,,,,,,,,,,,,,,,,,
1051.3999999910593,,rt_thecrossant_black,275598,black_plus_sign,,,,,50,,,1,0.9,,,,,,,,,,,,,,,,,,,,,,,,,,
null,,color_black,275699,black_plus_sign,,,,,null,,,,,,,,,,,,,,,,,,,,,,,,,,,,,,
null,,learn_phase(without_color),278211,black_plus_sign,,,,,null,US_Cities_List/nat_cornwall.png,US_Cities_List/mm_westpalmbeach.png,,,,,,,,,,,,,,,,,,,,,,,,,,,,
null,,black_cross(without_color),278648,blue,,,,,null,US_Cities_List/nat_cornwall.png,US_Cities_List/mm_westpalmbeach.png,,,,,,,,,,,,,,,,,,,,,,,,,,,,
null,,rt_plussign_withcolor,279150,blue,,,,,null,US_Cities_List/nat_cornwall.png,US_Cities_List/mm_westpalmbeach.png,,,,,,,,,,,,,,,,,,,,,,,,,,,,
1248.1000000089407,,rt_thecrossant_black,280717,black_plus_sign,,,,,49,,,1,0.9032258064516129,,,,,,,,,,,,,,,,,,,,,,,,,,
null,,color_black,280819,black_plus_sign,,,,,null,,,,,,,,,,,,,,,,,,,,,,,,,,,,,,
null,,learn_phase(without_color),283334,black_plus_sign,,,,,null,US_Cities_List/nat_shreveport.png,US_Cities_List/mm_westpalmbeach.png,,,,,,,,,,,,,,,,,,,,,,,,,,,,
null,,black_cross(without_color),284095,blue,,,,,null,US_Cities_List/nat_shreveport.png,US_Cities_List/mm_westpalmbeach.png,,,,,,,,,,,,,,,,,,,,,,,,,,,,
null,,rt_plussign_withcolor,284596,blue,,,,,null,US_Cities_List/nat_shreveport.png,US_Cities_List/mm_westpalmbeach.png,,,,,,,,,,,,,,,,,,,,,,,,,,,,
609.0999999940395,,rt_thecrossant_black,285837,black_plus_sign,,,,,49,,,1,0.90625,,,,,,,,,,,,,,,,,,,,,,,,,,
null,,color_black,285939,black_plus_sign,,,,,null,,,,,,,,,,,,,,,,,,,,,,,,,,,,,,
null,,learn_phase(without_color),288450,black_plus_sign,,,,,null,US_Cities_List/nat_peoria.png,US_Cities_List/nat_gatlinburg.png,,,,,,,,,,,,,,,,,,,,,,,,,,,,
null,,black_cross(without_color),288882,blue,,,,,null,US_Cities_List/nat_peoria.png,US_Cities_List/nat_gatlinburg.png,,,,,,,,,,,,,,,,,,,,,,,,,,,,
458.19999998807907,,rt_plussign_withcolor,289383,blue,,,,,49,US_Cities_List/nat_peoria.png,US_Cities_List/nat_gatlinburg.png,,,,,,,,,,,,,,,,,,,,,,,,,,,,
null,,rt_thecrossant_black,290964,black_plus_sign,,,,,null,,,1,0.9090909090909091,,,,,,,,,,,,,,,,,,,,,,,,,,
null,,color_black,291065,black_plus_sign,,,,,null,,,,,,,,,,,,,,,,,,,,,,,,,,,,,,
null,,learn_phase(without_color),293575,black_plus_sign,,,,,null,US_Cities_List/nat_hanover.png,US_Cities_List/mm_hotsprings.png,,,,,,,,,,,,,,,,,,,,,,,,,,,,
null,,black_cross(without_color),294268,green,,,,,null,US_Cities_List/nat_hanover.png,US_Cities_List/mm_hotsprings.png,,,,,,,,,,,,,,,,,,,,,,,,,,,,
464.40000000596046,,rt_plussign_withcolor,294769,green,,,,,50,US_Cities_List/nat_hanover.png,US_Cities_List/mm_hotsprings.png,,,,,,,,,,,,,,,,,,,,,,,,,,,,
null,,rt_thecrossant_black,296080,black_plus_sign,,,,,null,,,1,0.9117647058823529,,,,,,,,,,,,,,,,,,,,,,,,,,
null,,color_black,296182,black_plus_sign,,,,,null,,,,,,,,,,,,,,,,,,,,,,,,,,,,,,
null,,learn_phase(without_color),298692,black_plus_sign,,,,,null,US_Cities_List/nat_peoria.png,US_Cities_List/nat_gatlinburg.png,,,,,,,,,,,,,,,,,,,,,,,,,,,,
null,,black_cross(without_color),299112,green,,,,,null,US_Cities_List/nat_peoria.png,US_Cities_List/nat_gatlinburg.png,,,,,,,,,,,,,,,,,,,,,,,,,,,,
null,,rt_plussign_withcolor,299614,green,,,,,null,US_Cities_List/nat_peoria.png,US_Cities_List/nat_gatlinburg.png,,,,,,,,,,,,,,,,,,,,,,,,,,,,
802.1000000089407,,rt_thecrossant_black,301195,black_plus_sign,,,,,50,,,1,0.9142857142857143,,,,,,,,,,,,,,,,,,,,,,,,,,
null,,color_black,301297,black_plus_sign,,,,,null,,,,,,,,,,,,,,,,,,,,,,,,,,,,,,
null,,learn_phase(without_color),303807,black_plus_sign,,,,,null,US_Cities_List/mm_newhope.png,US_Cities_List/nat_shreveport.png,,,,,,,,,,,,,,,,,,,,,,,,,,,,
null,,black_cross(without_color),304215,blue,,,,,null,US_Cities_List/mm_newhope.png,US_Cities_List/nat_shreveport.png,,,,,,,,,,,,,,,,,,,,,,,,,,,,
null,,rt_plussign_withcolor,304717,blue,,,,,null,US_Cities_List/mm_newhope.png,US_Cities_List/nat_shreveport.png,,,,,,,,,,,,,,,,,,,,,,,,,,,,
545.0999999940395,,rt_thecrossant_black,306311,black_plus_sign,,,,,49,,,1,0.9166666666666666,,,,,,,,,,,,,,,,,,,,,,,,,,
null,,color_black,306412,black_plus_sign,,,,,null,,,,,,,,,,,,,,,,,,,,,,,,,,,,,,
null,,learn_phase(without_color),308924,black_plus_sign,,,,,null,US_Cities_List/nat_peoria.png,US_Cities_List/nat_racine.png,,,,,,,,,,,,,,,,,,,,,,,,,,,,
null,,black_cross(without_color),309412,blue,,,,,null,US_Cities_List/nat_peoria.png,US_Cities_List/nat_racine.png,,,,,,,,,,,,,,,,,,,,,,,,,,,,
null,,rt_plussign_withcolor,309922,blue,,,,,null,US_Cities_List/nat_peoria.png,US_Cities_List/nat_racine.png,,,,,,,,,,,,,,,,,,,,,,,,,,,,
696.2000000029802,,rt_thecrossant_black,311437,black_plus_sign,,,,,49,,,1,0.918918918918919,,,,,,,,,,,,,,,,,,,,,,,,,,
null,,color_black,311539,black_plus_sign,,,,,null,,,,,,,,,,,,,,,,,,,,,,,,,,,,,,
null,,learn_phase(without_color),314050,black_plus_sign,,,,,null,US_Cities_List/nat_hanover.png,US_Cities_List/nat_peoria.png,,,,,,,,,,,,,,,,,,,,,,,,,,,,
null,,black_cross(without_color),314544,blue,,,,,null,US_Cities_List/nat_hanover.png,US_Cities_List/nat_peoria.png,,,,,,,,,,,,,,,,,,,,,,,,,,,,
466.30000001192093,,rt_plussign_withcolor,315045,blue,,,,,49,US_Cities_List/nat_hanover.png,US_Cities_List/nat_peoria.png,,,,,,,,,,,,,,,,,,,,,,,,,,,,
null,,rt_thecrossant_black,316553,black_plus_sign,,,,,null,,,1,0.9210526315789473,,,,,,,,,,,,,,,,,,,,,,,,,,
null,,color_black,316655,black_plus_sign,,,,,null,,,,,,,,,,,,,,,,,,,,,,,,,,,,,,
null,,learn_phase(without_color),319167,black_plus_sign,,,,,null,US_Cities_List/nat_cornwall.png,US_Cities_List/mm_westpalmbeach.png,,,,,,,,,,,,,,,,,,,,,,,,,,,,
null,,black_cross(without_color),319705,blue,,,,,null,US_Cities_List/nat_cornwall.png,US_Cities_List/mm_westpalmbeach.png,,,,,,,,,,,,,,,,,,,,,,,,,,,,
null,,rt_plussign_withcolor,320206,blue,,,,,null,US_Cities_List/nat_cornwall.png,US_Cities_List/mm_westpalmbeach.png,,,,,,,,,,,,,,,,,,,,,,,,,,,,
627.7999999970198,,rt_thecrossant_black,321673,black_plus_sign,,,,,49,,,1,0.9230769230769231,,,,,,,,,,,,,,,,,,,,,,,,,,
null,,color_black,321774,black_plus_sign,,,,,null,,,,,,,,,,,,,,,,,,,,,,,,,,,,,,
null,,learn_phase(without_color),324284,black_plus_sign,,,,,null,US_Cities_List/nat_leesburg.png,US_Cities_List/nat_racine.png,,,,,,,,,,,,,,,,,,,,,,,,,,,,
null,,black_cross(without_color),325264,blue,,,,,null,US_Cities_List/nat_leesburg.png,US_Cities_List/nat_racine.png,,,,,,,,,,,,,,,,,,,,,,,,,,,,
458.20000000298023,,rt_plussign_withcolor,325765,blue,,,,,49,US_Cities_List/nat_leesburg.png,US_Cities_List/nat_racine.png,,,,,,,,,,,,,,,,,,,,,,,,,,,,
null,,rt_thecrossant_black,326786,black_plus_sign,,,,,null,,,1,0.925,,,,,,,,,,,,,,,,,,,,,,,,,,
null,,color_black,326887,black_plus_sign,,,,,null,,,,,,,,,,,,,,,,,,,,,,,,,,,,,,
null,,learn_phase(without_color),329400,black_plus_sign,,,,,null,US_Cities_List/nat_hanover.png,US_Cities_List/nat_peoria.png,,,,,,,,,,,,,,,,,,,,,,,,,,,,
null,,black_cross(without_color),330439,green,,,,,null,US_Cities_List/nat_hanover.png,US_Cities_List/nat_peoria.png,,,,,,,,,,,,,,,,,,,,,,,,,,,,
null,,rt_plussign_withcolor,330940,green,,,,,null,US_Cities_List/nat_hanover.png,US_Cities_List/nat_peoria.png,,,,,,,,,,,,,,,,,,,,,,,,,,,,
1151.2999999970198,,rt_thecrossant_black,331905,black_plus_sign,,,,,50,,,1,0.926829268292683,,,,,,,,,,,,,,,,,,,,,,,,,,
null,,color_black,332006,black_plus_sign,,,,,null,,,,,,,,,,,,,,,,,,,,,,,,,,,,,,
null,,learn_phase(without_color),334518,black_plus_sign,,,,,null,US_Cities_List/nat_peoria.png,US_Cities_List/nat_gatlinburg.png,,,,,,,,,,,,,,,,,,,,,,,,,,,,
null,,black_cross(without_color),335180,green,,,,,null,US_Cities_List/nat_peoria.png,US_Cities_List/nat_gatlinburg.png,,,,,,,,,,,,,,,,,,,,,,,,,,,,
484.29999999701977,,rt_plussign_withcolor,335681,green,,,,,50,US_Cities_List/nat_peoria.png,US_Cities_List/nat_gatlinburg.png,,,,,,,,,,,,,,,,,,,,,,,,,,,,
null,,rt_thecrossant_black,337021,black_plus_sign,,,,,null,,,1,0.9285714285714286,,,,,,,,,,,,,,,,,,,,,,,,,,
null,,color_black,337122,black_plus_sign,,,,,null,,,,,,,,,,,,,,,,,,,,,,,,,,,,,,
null,,learn_phase(without_color),339637,black_plus_sign,,,,,null,US_Cities_List/nat_cornwall.png,US_Cities_List/mm_westpalmbeach.png,,,,,,,,,,,,,,,,,,,,,,,,,,,,
null,,black_cross(without_color),340209,green,,,,,null,US_Cities_List/nat_cornwall.png,US_Cities_List/mm_westpalmbeach.png,,,,,,,,,,,,,,,,,,,,,,,,,,,,
472.29999999701977,,rt_plussign_withcolor,340709,green,,,,,50,US_Cities_List/nat_cornwall.png,US_Cities_List/mm_westpalmbeach.png,,,,,,,,,,,,,,,,,,,,,,,,,,,,
null,,rt_thecrossant_black,342142,black_plus_sign,,,,,null,,,1,0.9302325581395349,,,,,,,,,,,,,,,,,,,,,,,,,,
null,,color_black,342243,black_plus_sign,,,,,null,,,,,,,,,,,,,,,,,,,,,,,,,,,,,,
null,,learn_phase(without_color),344753,black_plus_sign,,,,,null,US_Cities_List/mm_hotsprings.png,US_Cities_List/mm_newhope.png,,,,,,,,,,,,,,,,,,,,,,,,,,,,
null,,black_cross(without_color),345200,blue,,,,,null,US_Cities_List/mm_hotsprings.png,US_Cities_List/mm_newhope.png,,,,,,,,,,,,,,,,,,,,,,,,,,,,
null,,rt_plussign_withcolor,345712,blue,,,,,null,US_Cities_List/mm_hotsprings.png,US_Cities_List/mm_newhope.png,,,,,,,,,,,,,,,,,,,,,,,,,,,,
838.2000000029802,,rt_thecrossant_black,347268,black_plus_sign,,,,,49,,,1,0.9318181818181818,,,,,,,,,,,,,,,,,,,,,,,,,,
null,,color_black,347369,black_plus_sign,,,,,null,,,,,,,,,,,,,,,,,,,,,,,,,,,,,,
null,,learn_phase(without_color),349880,black_plus_sign,,,,,null,US_Cities_List/mm_newhope.png,US_Cities_List/nat_shreveport.png,,,,,,,,,,,,,,,,,,,,,,,,,,,,
null,,black_cross(without_color),350560,blue,,,,,null,US_Cities_List/mm_newhope.png,US_Cities_List/nat_shreveport.png,,,,,,,,,,,,,,,,,,,,,,,,,,,,
null,,rt_plussign_withcolor,351063,blue,,,,,null,US_Cities_List/mm_newhope.png,US_Cities_List/nat_shreveport.png,,,,,,,,,,,,,,,,,,,,,,,,,,,,
588.1000000089407,,rt_thecrossant_black,352385,black_plus_sign,,,,,49,,,1,0.9333333333333333,,,,,,,,,,,,,,,,,,,,,,,,,,
null,,color_black,352486,black_plus_sign,,,,,null,,,,,,,,,,,,,,,,,,,,,,,,,,,,,,
null,,learn_phase(without_color),354998,black_plus_sign,,,,,null,US_Cities_List/nat_shreveport.png,US_Cities_List/nat_carmel.png,,,,,,,,,,,,,,,,,,,,,,,,,,,,
null,,black_cross(without_color),355749,green,,,,,null,US_Cities_List/nat_shreveport.png,US_Cities_List/nat_carmel.png,,,,,,,,,,,,,,,,,,,,,,,,,,,,
null,,rt_plussign_withcolor,356250,green,,,,,null,US_Cities_List/nat_shreveport.png,US_Cities_List/nat_carmel.png,,,,,,,,,,,,,,,,,,,,,,,,,,,,
1130.0999999940395,,rt_thecrossant_black,357501,black_plus_sign,,,,,50,,,1,0.9347826086956522,,,,,,,,,,,,,,,,,,,,,,,,,,
null,,color_black,357603,black_plus_sign,,,,,null,,,,,,,,,,,,,,,,,,,,,,,,,,,,,,
null,,learn_phase(without_color),360114,black_plus_sign,,,,,null,US_Cities_List/mm_westpalmbeach.png,US_Cities_List/nat_leesburg.png,,,,,,,,,,,,,,,,,,,,,,,,,,,,
null,,black_cross(without_color),360850,blue,,,,,null,US_Cities_List/mm_westpalmbeach.png,US_Cities_List/nat_leesburg.png,,,,,,,,,,,,,,,,,,,,,,,,,,,,
null,,rt_plussign_withcolor,361351,blue,,,,,null,US_Cities_List/mm_westpalmbeach.png,US_Cities_List/nat_leesburg.png,,,,,,,,,,,,,,,,,,,,,,,,,,,,
931.7000000029802,,rt_thecrossant_black,362618,black_plus_sign,,,,,49,,,1,0.9361702127659575,,,,,,,,,,,,,,,,,,,,,,,,,,
null,,color_black,362719,black_plus_sign,,,,,null,,,,,,,,,,,,,,,,,,,,,,,,,,,,,,
null,,learn_phase(without_color),365231,black_plus_sign,,,,,null,US_Cities_List/nat_peoria.png,US_Cities_List/nat_gatlinburg.png,,,,,,,,,,,,,,,,,,,,,,,,,,,,
null,,black_cross(without_color),365807,green,,,,,null,US_Cities_List/nat_peoria.png,US_Cities_List/nat_gatlinburg.png,,,,,,,,,,,,,,,,,,,,,,,,,,,,
null,,rt_plussign_withcolor,366308,green,,,,,null,US_Cities_List/nat_peoria.png,US_Cities_List/nat_gatlinburg.png,,,,,,,,,,,,,,,,,,,,,,,,,,,,
849.8999999910593,,rt_thecrossant_black,367741,black_plus_sign,,,,,50,,,1,0.9375,,,,,,,,,,,,,,,,,,,,,,,,,,
null,,color_black,367842,black_plus_sign,,,,,null,,,,,,,,,,,,,,,,,,,,,,,,,,,,,,
null,,learn_phase(without_color),370372,black_plus_sign,,,,,null,US_Cities_List/nat_shreveport.png,US_Cities_List/mm_westpalmbeach.png,,,,,,,,,,,,,,,,,,,,,,,,,,,,
null,,black_cross(without_color),371186,blue,,,,,null,US_Cities_List/nat_shreveport.png,US_Cities_List/mm_westpalmbeach.png,,,,,,,,,,,,,,,,,,,,,,,,,,,,
null,,rt_plussign_withcolor,371687,blue,,,,,null,US_Cities_List/nat_shreveport.png,US_Cities_List/mm_westpalmbeach.png,,,,,,,,,,,,,,,,,,,,,,,,,,,,
789.1000000089407,,rt_thecrossant_black,372878,black_plus_sign,,,,,49,,,1,0.9387755102040817,,,,,,,,,,,,,,,,,,,,,,,,,,
null,,color_black,372979,black_plus_sign,,,,,null,,,,,,,,,,,,,,,,,,,,,,,,,,,,,,
null,,learn_phase(without_color),375494,black_plus_sign,,,,,null,US_Cities_List/mm_westpalmbeach.png,US_Cities_List/nat_leesburg.png,,,,,,,,,,,,,,,,,,,,,,,,,,,,
null,,black_cross(without_color),376327,green,,,,,null,US_Cities_List/mm_westpalmbeach.png,US_Cities_List/nat_leesburg.png,,,,,,,,,,,,,,,,,,,,,,,,,,,,
null,,rt_plussign_withcolor,376828,green,,,,,null,US_Cities_List/mm_westpalmbeach.png,US_Cities_List/nat_leesburg.png,,,,,,,,,,,,,,,,,,,,,,,,,,,,
956.9000000059605,,rt_thecrossant_black,377997,black_plus_sign,,,,,50,,,1,0.94,,,,,,,,,,,,,,,,,,,,,,,,,,
null,,color_black,378099,black_plus_sign,,,,,null,,,,,,,,,,,,,,,,,,,,,,,,,,,,,,
null,,learn_phase(without_color),380610,black_plus_sign,,,,,null,US_Cities_List/nat_peoria.png,US_Cities_List/nat_racine.png,,,,,,,,,,,,,,,,,,,,,,,,,,,,
null,,black_cross(without_color),381331,blue,,,,,null,US_Cities_List/nat_peoria.png,US_Cities_List/nat_racine.png,,,,,,,,,,,,,,,,,,,,,,,,,,,,
496.29999999701977,,rt_plussign_withcolor,381833,blue,,,,,49,US_Cities_List/nat_peoria.png,US_Cities_List/nat_racine.png,,,,,,,,,,,,,,,,,,,,,,,,,,,,
null,,rt_thecrossant_black,383116,black_plus_sign,,,,,null,,,1,0.9411764705882353,,,,,,,,,,,,,,,,,,,,,,,,,,
null,,color_black,383231,black_plus_sign,,,,,null,,,,,,,,,,,,,,,,,,,,,,,,,,,,,,
null,,learn_phase(without_color),385746,black_plus_sign,,,,,null,US_Cities_List/mm_westpalmbeach.png,US_Cities_List/nat_leesburg.png,,,,,,,,,,,,,,,,,,,,,,,,,,,,
null,,black_cross(without_color),386754,green,,,,,null,US_Cities_List/mm_westpalmbeach.png,US_Cities_List/nat_leesburg.png,,,,,,,,,,,,,,,,,,,,,,,,,,,,
470.09999999403954,,rt_plussign_withcolor,387255,green,,,,,50,US_Cities_List/mm_westpalmbeach.png,US_Cities_List/nat_leesburg.png,,,,,,,,,,,,,,,,,,,,,,,,,,,,
null,,rt_thecrossant_black,388250,black_plus_sign,,,,,null,,,1,0.9423076923076923,,,,,,,,,,,,,,,,,,,,,,,,,,
null,,color_black,388351,black_plus_sign,,,,,null,,,,,,,,,,,,,,,,,,,,,,,,,,,,,,
null,,learn_phase(without_color),390861,black_plus_sign,,,,,null,US_Cities_List/nat_peoria.png,US_Cities_List/nat_racine.png,,,,,,,,,,,,,,,,,,,,,,,,,,,,
null,,black_cross(without_color),391285,blue,,,,,null,US_Cities_List/nat_peoria.png,US_Cities_List/nat_racine.png,,,,,,,,,,,,,,,,,,,,,,,,,,,,
null,,rt_plussign_withcolor,391786,blue,,,,,null,US_Cities_List/nat_peoria.png,US_Cities_List/nat_racine.png,,,,,,,,,,,,,,,,,,,,,,,,,,,,
1242.3999999910593,,rt_thecrossant_black,393379,black_plus_sign,,,,,49,,,1,0.9433962264150944,,,,,,,,,,,,,,,,,,,,,,,,,,
null,,color_black,393481,black_plus_sign,,,,,null,,,,,,,,,,,,,,,,,,,,,,,,,,,,,,
null,,learn_phase(without_color),395993,black_plus_sign,,,,,null,US_Cities_List/mm_newhope.png,US_Cities_List/mm_westpalmbeach.png,,,,,,,,,,,,,,,,,,,,,,,,,,,,
null,,black_cross(without_color),396632,green,,,,,null,US_Cities_List/mm_newhope.png,US_Cities_List/mm_westpalmbeach.png,,,,,,,,,,,,,,,,,,,,,,,,,,,,
null,,rt_plussign_withcolor,397134,green,,,,,null,US_Cities_List/mm_newhope.png,US_Cities_List/mm_westpalmbeach.png,,,,,,,,,,,,,,,,,,,,,,,,,,,,
537.2999999970198,,rt_thecrossant_black,398498,black_plus_sign,,,,,50,,,1,0.9444444444444444,,,,,,,,,,,,,,,,,,,,,,,,,,
null,,color_black,398599,black_plus_sign,,,,,null,,,,,,,,,,,,,,,,,,,,,,,,,,,,,,
null,,learn_phase(without_color),401112,black_plus_sign,,,,,null,US_Cities_List/mm_westpalmbeach.png,US_Cities_List/nat_leesburg.png,,,,,,,,,,,,,,,,,,,,,,,,,,,,
null,,black_cross(without_color),401560,green,,,,,null,US_Cities_List/mm_westpalmbeach.png,US_Cities_List/nat_leesburg.png,,,,,,,,,,,,,,,,,,,,,,,,,,,,
null,,rt_plussign_withcolor,402060,green,,,,,null,US_Cities_List/mm_westpalmbeach.png,US_Cities_List/nat_leesburg.png,,,,,,,,,,,,,,,,,,,,,,,,,,,,
750.7999999970198,,rt_thecrossant_black,403616,black_plus_sign,,,,,50,,,1,0.9454545454545454,,,,,,,,,,,,,,,,,,,,,,,,,,
null,,color_black,403732,black_plus_sign,,,,,null,,,,,,,,,,,,,,,,,,,,,,,,,,,,,,
null,,learn_phase(without_color),406241,black_plus_sign,,,,,null,US_Cities_List/nat_hanover.png,US_Cities_List/nat_peoria.png,,,,,,,,,,,,,,,,,,,,,,,,,,,,
null,,black_cross(without_color),406747,blue,,,,,null,US_Cities_List/nat_hanover.png,US_Cities_List/nat_peoria.png,,,,,,,,,,,,,,,,,,,,,,,,,,,,
null,,rt_plussign_withcolor,407248,blue,,,,,null,US_Cities_List/nat_hanover.png,US_Cities_List/nat_peoria.png,,,,,,,,,,,,,,,,,,,,,,,,,,,,
623.1000000089407,,rt_thecrossant_black,408745,black_plus_sign,,,,,49,,,1,0.9464285714285714,,,,,,,,,,,,,,,,,,,,,,,,,,
null,,color_black,408847,black_plus_sign,,,,,null,,,,,,,,,,,,,,,,,,,,,,,,,,,,,,
null,,learn_phase(without_color),411362,black_plus_sign,,,,,null,US_Cities_List/nat_shreveport.png,US_Cities_List/mm_westpalmbeach.png,,,,,,,,,,,,,,,,,,,,,,,,,,,,
null,,black_cross(without_color),412425,green,,,,,null,US_Cities_List/nat_shreveport.png,US_Cities_List/mm_westpalmbeach.png,,,,,,,,,,,,,,,,,,,,,,,,,,,,
null,,rt_plussign_withcolor,412927,green,,,,,null,US_Cities_List/nat_shreveport.png,US_Cities_List/mm_westpalmbeach.png,,,,,,,,,,,,,,,,,,,,,,,,,,,,
649,,rt_thecrossant_black,413867,black_plus_sign,,,,,50,,,1,0.9473684210526315,,,,,,,,,,,,,,,,,,,,,,,,,,
null,,color_black,413969,black_plus_sign,,,,,null,,,,,,,,,,,,,,,,,,,,,,,,,,,,,,
null,,learn_phase(without_color),416482,black_plus_sign,,,,,null,US_Cities_List/mm_newhope.png,US_Cities_List/nat_shreveport.png,,,,,,,,,,,,,,,,,,,,,,,,,,,,
null,,black_cross(without_color),417069,blue,,,,,null,US_Cities_List/mm_newhope.png,US_Cities_List/nat_shreveport.png,,,,,,,,,,,,,,,,,,,,,,,,,,,,
459.40000000596046,,rt_plussign_withcolor,417570,blue,,,,,49,US_Cities_List/mm_newhope.png,US_Cities_List/nat_shreveport.png,,,,,,,,,,,,,,,,,,,,,,,,,,,,
null,,rt_thecrossant_black,418986,black_plus_sign,,,,,49,,,1,0.9482758620689655,,,,,,,,,,,,,,,,,,,,,,,,,,
null,,color_black,419088,black_plus_sign,,,,,null,,,,,,,,,,,,,,,,,,,,,,,,,,,,,,
null,,learn_phase(without_color),421603,black_plus_sign,,,,,null,US_Cities_List/mm_westpalmbeach.png,US_Cities_List/nat_leesburg.png,,,,,,,,,,,,,,,,,,,,,,,,,,,,
null,,black_cross(without_color),422504,blue,,,,,null,US_Cities_List/mm_westpalmbeach.png,US_Cities_List/nat_leesburg.png,,,,,,,,,,,,,,,,,,,,,,,,,,,,
483.29999999701977,,rt_plussign_withcolor,423006,blue,,,,,49,US_Cities_List/mm_westpalmbeach.png,US_Cities_List/nat_leesburg.png,,,,,,,,,,,,,,,,,,,,,,,,,,,,
null,,rt_thecrossant_black,424107,black_plus_sign,,,,,null,,,1,0.9491525423728814,,,,,,,,,,,,,,,,,,,,,,,,,,
null,,color_black,424209,black_plus_sign,,,,,null,,,,,,,,,,,,,,,,,,,,,,,,,,,,,,
null,,learn_phase(without_color),426722,black_plus_sign,,,,,null,US_Cities_List/mm_hotsprings.png,US_Cities_List/nat_leesburg.png,,,,,,,,,,,,,,,,,,,,,,,,,,,,
null,,black_cross(without_color),427503,green,,,,,null,US_Cities_List/mm_hotsprings.png,US_Cities_List/nat_leesburg.png,,,,,,,,,,,,,,,,,,,,,,,,,,,,
482.09999999403954,,rt_plussign_withcolor,428004,green,,,,,50,US_Cities_List/mm_hotsprings.png,US_Cities_List/nat_leesburg.png,,,,,,,,,,,,,,,,,,,,,,,,,,,,
null,,rt_thecrossant_black,429225,black_plus_sign,,,,,null,,,1,0.95,,,,,,,,,,,,,,,,,,,,,,,,,,
null,,color_black,429326,black_plus_sign,,,,,null,,,,,,,,,,,,,,,,,,,,,,,,,,,,,,
null,,learn_phase(without_color),431835,black_plus_sign,,,,,null,US_Cities_List/nat_boulder.png,US_Cities_List/nat_hanover.png,,,,,,,,,,,,,,,,,,,,,,,,,,,,
null,,black_cross(without_color),432467,green,,,,,null,US_Cities_List/nat_boulder.png,US_Cities_List/nat_hanover.png,,,,,,,,,,,,,,,,,,,,,,,,,,,,
null,,rt_plussign_withcolor,432969,green,,,,,null,US_Cities_List/nat_boulder.png,US_Cities_List/nat_hanover.png,,,,,,,,,,,,,,,,,,,,,,,,,,,,
943.2999999970198,,rt_thecrossant_black,434339,black_plus_sign,,,,,50,,,1,0.9508196721311475,,,,,,,,,,,,,,,,,,,,,,,,,,
null,,color_black,434440,black_plus_sign,,,,,null,,,,,,,,,,,,,,,,,,,,,,,,,,,,,,
null,,learn_phase(without_color),436950,black_plus_sign,,,,,null,US_Cities_List/mm_newhope.png,US_Cities_List/mm_westpalmbeach.png,,,,,,,,,,,,,,,,,,,,,,,,,,,,
null,,black_cross(without_color),437903,green,,,,,null,US_Cities_List/mm_newhope.png,US_Cities_List/mm_westpalmbeach.png,,,,,,,,,,,,,,,,,,,,,,,,,,,,
485.1000000089407,,rt_plussign_withcolor,438405,green,,,,,50,US_Cities_List/mm_newhope.png,US_Cities_List/mm_westpalmbeach.png,,,,,,,,,,,,,,,,,,,,,,,,,,,,
null,,rt_thecrossant_black,439453,black_plus_sign,,,,,null,,,1,0.9516129032258065,,,,,,,,,,,,,,,,,,,,,,,,,,
null,,color_black,439554,black_plus_sign,,,,,null,,,,,,,,,,,,,,,,,,,,,,,,,,,,,,
null,,learn_phase(without_color),442064,black_plus_sign,,,,,null,US_Cities_List/mm_hotsprings.png,US_Cities_List/nat_leesburg.png,,,,,,,,,,,,,,,,,,,,,,,,,,,,
null,,black_cross(without_color),442989,green,,,,,null,US_Cities_List/mm_hotsprings.png,US_Cities_List/nat_leesburg.png,,,,,,,,,,,,,,,,,,,,,,,,,,,,
null,,rt_plussign_withcolor,443490,green,,,,,null,US_Cities_List/mm_hotsprings.png,US_Cities_List/nat_leesburg.png,,,,,,,,,,,,,,,,,,,,,,,,,,,,
1136.2000000029802,,rt_thecrossant_black,444567,black_plus_sign,,,,,50,,,1,0.9523809523809523,,,,,,,,,,,,,,,,,,,,,,,,,,
null,,color_black,444668,black_plus_sign,,,,,null,,,,,,,,,,,,,,,,,,,,,,,,,,,,,,
null,,learn_phase(without_color),447181,black_plus_sign,,,,,null,US_Cities_List/nat_hanover.png,US_Cities_List/mm_hotsprings.png,,,,,,,,,,,,,,,,,,,,,,,,,,,,
null,,black_cross(without_color),447840,blue,,,,,null,US_Cities_List/nat_hanover.png,US_Cities_List/mm_hotsprings.png,,,,,,,,,,,,,,,,,,,,,,,,,,,,
null,,rt_plussign_withcolor,448341,blue,,,,,null,US_Cities_List/nat_hanover.png,US_Cities_List/mm_hotsprings.png,,,,,,,,,,,,,,,,,,,,,,,,,,,,
1062.6000000089407,,rt_thecrossant_black,449697,black_plus_sign,,,,,49,,,1,0.953125,,,,,,,,,,,,,,,,,,,,,,,,,,
null,,color_black,449798,black_plus_sign,,,,,null,,,,,,,,,,,,,,,,,,,,,,,,,,,,,,
null,,learn_phase(without_color),452313,black_plus_sign,,,,,null,US_Cities_List/mm_hotsprings.png,US_Cities_List/mm_newhope.png,,,,,,,,,,,,,,,,,,,,,,,,,,,,
null,,black_cross(without_color),453250,blue,,,,,null,US_Cities_List/mm_hotsprings.png,US_Cities_List/mm_newhope.png,,,,,,,,,,,,,,,,,,,,,,,,,,,,
null,,rt_plussign_withcolor,453751,blue,,,,,null,US_Cities_List/mm_hotsprings.png,US_Cities_List/mm_newhope.png,,,,,,,,,,,,,,,,,,,,,,,,,,,,
774,,rt_thecrossant_black,454817,black_plus_sign,,,,,49,,,1,0.9538461538461539,,,,,,,,,,,,,,,,,,,,,,,,,,
null,,color_black,454919,black_plus_sign,,,,,null,,,,,,,,,,,,,,,,,,,,,,,,,,,,,,
null,,learn_phase(without_color),457430,black_plus_sign,,,,,null,US_Cities_List/nat_shreveport.png,US_Cities_List/nat_carmel.png,,,,,,,,,,,,,,,,,,,,,,,,,,,,
null,,black_cross(without_color),458289,green,,,,,null,US_Cities_List/nat_shreveport.png,US_Cities_List/nat_carmel.png,,,,,,,,,,,,,,,,,,,,,,,,,,,,
385.90000000596046,,rt_plussign_withcolor,458790,green,,,,,50,US_Cities_List/nat_shreveport.png,US_Cities_List/nat_carmel.png,,,,,,,,,,,,,,,,,,,,,,,,,,,,
null,,rt_thecrossant_black,459936,black_plus_sign,,,,,null,,,1,0.9545454545454546,,,,,,,,,,,,,,,,,,,,,,,,,,
null,,color_black,460038,black_plus_sign,,,,,null,,,,,,,,,,,,,,,,,,,,,,,,,,,,,,
null,,learn_phase(without_color),462558,black_plus_sign,,,,,null,US_Cities_List/mm_newhope.png,US_Cities_List/mm_westpalmbeach.png,,,,,,,,,,,,,,,,,,,,,,,,,,,,
null,,black_cross(without_color),463122,green,,,,,null,US_Cities_List/mm_newhope.png,US_Cities_List/mm_westpalmbeach.png,,,,,,,,,,,,,,,,,,,,,,,,,,,,
null,,rt_plussign_withcolor,463623,green,,,,,null,US_Cities_List/mm_newhope.png,US_Cities_List/mm_westpalmbeach.png,,,,,,,,,,,,,,,,,,,,,,,,,,,,
1035.6000000089407,,rt_thecrossant_black,465061,black_plus_sign,,,,,50,,,1,0.9552238805970149,,,,,,,,,,,,,,,,,,,,,,,,,,
null,,color_black,465163,black_plus_sign,,,,,null,,,,,,,,,,,,,,,,,,,,,,,,,,,,,,
null,,learn_phase(without_color),467678,black_plus_sign,,,,,null,US_Cities_List/mm_hotsprings.png,US_Cities_List/mm_newhope.png,,,,,,,,,,,,,,,,,,,,,,,,,,,,
null,,black_cross(without_color),468695,green,,,,,null,US_Cities_List/mm_hotsprings.png,US_Cities_List/mm_newhope.png,,,,,,,,,,,,,,,,,,,,,,,,,,,,
null,,rt_plussign_withcolor,469197,green,,,,,null,US_Cities_List/mm_hotsprings.png,US_Cities_List/mm_newhope.png,,,,,,,,,,,,,,,,,,,,,,,,,,,,
758.5999999940395,,rt_thecrossant_black,470183,black_plus_sign,,,,,50,,,1,0.9558823529411765,,,,,,,,,,,,,,,,,,,,,,,,,,
null,,color_black,470284,black_plus_sign,,,,,null,,,,,,,,,,,,,,,,,,,,,,,,,,,,,,
null,,learn_phase(without_color),472794,black_plus_sign,,,,,null,US_Cities_List/nat_hanover.png,US_Cities_List/nat_peoria.png,,,,,,,,,,,,,,,,,,,,,,,,,,,,
null,,black_cross(without_color),473694,blue,,,,,null,US_Cities_List/nat_hanover.png,US_Cities_List/nat_peoria.png,,,,,,,,,,,,,,,,,,,,,,,,,,,,
null,,rt_plussign_withcolor,474196,blue,,,,,null,US_Cities_List/nat_hanover.png,US_Cities_List/nat_peoria.png,,,,,,,,,,,,,,,,,,,,,,,,,,,,
1297,,rt_thecrossant_black,475298,black_plus_sign,,,,,49,,,1,0.9565217391304348,,,,,,,,,,,,,,,,,,,,,,,,,,
null,,color_black,475399,black_plus_sign,,,,,null,,,,,,,,,,,,,,,,,,,,,,,,,,,,,,
null,,learn_phase(without_color),477909,black_plus_sign,,,,,null,US_Cities_List/mm_newhope.png,US_Cities_List/nat_shreveport.png,,,,,,,,,,,,,,,,,,,,,,,,,,,,
null,,black_cross(without_color),478489,blue,,,,,null,US_Cities_List/mm_newhope.png,US_Cities_List/nat_shreveport.png,,,,,,,,,,,,,,,,,,,,,,,,,,,,
null,,rt_plussign_withcolor,478993,blue,,,,,null,US_Cities_List/mm_newhope.png,US_Cities_List/nat_shreveport.png,,,,,,,,,,,,,,,,,,,,,,,,,,,,
1103,,rt_thecrossant_black,480417,black_plus_sign,,,,,49,,,1,0.9571428571428572,,,,,,,,,,,,,,,,,,,,,,,,,,
null,,color_black,480519,black_plus_sign,,,,,null,,,,,,,,,,,,,,,,,,,,,,,,,,,,,,
null,,learn_phase(without_color),483029,black_plus_sign,,,,,null,US_Cities_List/nat_leesburg.png,US_Cities_List/nat_racine.png,,,,,,,,,,,,,,,,,,,,,,,,,,,,
null,,black_cross(without_color),484021,green,,,,,null,US_Cities_List/nat_leesburg.png,US_Cities_List/nat_racine.png,,,,,,,,,,,,,,,,,,,,,,,,,,,,
null,,rt_plussign_withcolor,484522,green,,,,,null,US_Cities_List/nat_leesburg.png,US_Cities_List/nat_racine.png,,,,,,,,,,,,,,,,,,,,,,,,,,,,
845.0999999940395,,rt_thecrossant_black,485533,black_plus_sign,,,,,49,,,0,0.9436619718309859,,,,,,,,,,,,,,,,,,,,,,,,,,
null,,color_black,485635,black_plus_sign,,,,,null,,,,,,,,,,,,,,,,,,,,,,,,,,,,,,
null,,learn_phase(without_color),488146,black_plus_sign,,,,,null,US_Cities_List/nat_cornwall.png,US_Cities_List/mm_westpalmbeach.png,,,,,,,,,,,,,,,,,,,,,,,,,,,,
null,,black_cross(without_color),489127,green,,,,,null,US_Cities_List/nat_cornwall.png,US_Cities_List/mm_westpalmbeach.png,,,,,,,,,,,,,,,,,,,,,,,,,,,,
null,,rt_plussign_withcolor,489630,green,,,,,null,US_Cities_List/nat_cornwall.png,US_Cities_List/mm_westpalmbeach.png,,,,,,,,,,,,,,,,,,,,,,,,,,,,
1093.2000000029802,,rt_thecrossant_black,490652,black_plus_sign,,,,,50,,,1,0.9444444444444444,,,,,,,,,,,,,,,,,,,,,,,,,,
null,,color_black,490753,black_plus_sign,,,,,null,,,,,,,,,,,,,,,,,,,,,,,,,,,,,,
null,,learn_phase(without_color),493265,black_plus_sign,,,,,null,US_Cities_List/nat_hanover.png,US_Cities_List/mm_hotsprings.png,,,,,,,,,,,,,,,,,,,,,,,,,,,,
null,,black_cross(without_color),493781,green,,,,,null,US_Cities_List/nat_hanover.png,US_Cities_List/mm_hotsprings.png,,,,,,,,,,,,,,,,,,,,,,,,,,,,
null,,rt_plussign_withcolor,494282,green,,,,,null,US_Cities_List/nat_hanover.png,US_Cities_List/mm_hotsprings.png,,,,,,,,,,,,,,,,,,,,,,,,,,,,
1082,,rt_thecrossant_black,495768,black_plus_sign,,,,,50,,,1,0.9452054794520548,,,,,,,,,,,,,,,,,,,,,,,,,,
null,,color_black,495870,black_plus_sign,,,,,null,,,,,,,,,,,,,,,,,,,,,,,,,,,,,,
null,,learn_phase(without_color),498382,black_plus_sign,,,,,null,US_Cities_List/nat_leesburg.png,US_Cities_List/nat_racine.png,,,,,,,,,,,,,,,,,,,,,,,,,,,,
null,,black_cross(without_color),499378,green,,,,,null,US_Cities_List/nat_leesburg.png,US_Cities_List/nat_racine.png,,,,,,,,,,,,,,,,,,,,,,,,,,,,
null,,rt_plussign_withcolor,499879,green,,,,,null,US_Cities_List/nat_leesburg.png,US_Cities_List/nat_racine.png,,,,,,,,,,,,,,,,,,,,,,,,,,,,
641,,rt_thecrossant_black,500899,black_plus_sign,,,,,50,,,1,0.9459459459459459,,,,,,,,,,,,,,,,,,,,,,,,,,
null,,color_black,501000,black_plus_sign,,,,,null,,,,,,,,,,,,,,,,,,,,,,,,,,,,,,
null,,learn_phase(without_color),503510,black_plus_sign,,,,,null,US_Cities_List/nat_cornwall.png,US_Cities_List/mm_huntsville.png,,,,,,,,,,,,,,,,,,,,,,,,,,,,
null,,black_cross(without_color),504173,blue,,,,,null,US_Cities_List/nat_cornwall.png,US_Cities_List/mm_huntsville.png,,,,,,,,,,,,,,,,,,,,,,,,,,,,
null,,rt_plussign_withcolor,504674,blue,,,,,null,US_Cities_List/nat_cornwall.png,US_Cities_List/mm_huntsville.png,,,,,,,,,,,,,,,,,,,,,,,,,,,,
1317.6000000089407,,rt_thecrossant_black,506013,black_plus_sign,,,,,49,,,1,0.9466666666666667,,,,,,,,,,,,,,,,,,,,,,,,,,
null,,color_black,506114,black_plus_sign,,,,,null,,,,,,,,,,,,,,,,,,,,,,,,,,,,,,
null,,learn_phase(without_color),508628,black_plus_sign,,,,,null,US_Cities_List/nat_leesburg.png,US_Cities_List/nat_racine.png,,,,,,,,,,,,,,,,,,,,,,,,,,,,
null,,black_cross(without_color),509237,blue,,,,,null,US_Cities_List/nat_leesburg.png,US_Cities_List/nat_racine.png,,,,,,,,,,,,,,,,,,,,,,,,,,,,
null,,rt_plussign_withcolor,509738,blue,,,,,null,US_Cities_List/nat_leesburg.png,US_Cities_List/nat_racine.png,,,,,,,,,,,,,,,,,,,,,,,,,,,,
959.2000000029802,,rt_thecrossant_black,511132,black_plus_sign,,,,,49,,,1,0.9473684210526315,,,,,,,,,,,,,,,,,,,,,,,,,,
null,,color_black,511233,black_plus_sign,,,,,null,,,,,,,,,,,,,,,,,,,,,,,,,,,,,,
null,,learn_phase(without_color),513744,black_plus_sign,,,,,null,US_Cities_List/mm_hotsprings.png,US_Cities_List/mm_newhope.png,,,,,,,,,,,,,,,,,,,,,,,,,,,,
null,,black_cross(without_color),514733,blue,,,,,null,US_Cities_List/mm_hotsprings.png,US_Cities_List/mm_newhope.png,,,,,,,,,,,,,,,,,,,,,,,,,,,,
484.5,,rt_plussign_withcolor,515235,blue,,,,,49,US_Cities_List/mm_hotsprings.png,US_Cities_List/mm_newhope.png,,,,,,,,,,,,,,,,,,,,,,,,,,,,
null,,rt_thecrossant_black,516249,black_plus_sign,,,,,null,,,1,0.948051948051948,,,,,,,,,,,,,,,,,,,,,,,,,,
null,,color_black,516350,black_plus_sign,,,,,null,,,,,,,,,,,,,,,,,,,,,,,,,,,,,,
null,,learn_phase(without_color),518860,black_plus_sign,,,,,null,US_Cities_List/nat_peoria.png,US_Cities_List/nat_racine.png,,,,,,,,,,,,,,,,,,,,,,,,,,,,
null,,black_cross(without_color),519447,blue,,,,,null,US_Cities_List/nat_peoria.png,US_Cities_List/nat_racine.png,,,,,,,,,,,,,,,,,,,,,,,,,,,,
null,,rt_plussign_withcolor,519948,blue,,,,,null,US_Cities_List/nat_peoria.png,US_Cities_List/nat_racine.png,,,,,,,,,,,,,,,,,,,,,,,,,,,,
1102,,rt_thecrossant_black,521364,black_plus_sign,,,,,49,,,1,0.9487179487179487,,,,,,,,,,,,,,,,,,,,,,,,,,
null,,color_black,521466,black_plus_sign,,,,,null,,,,,,,,,,,,,,,,,,,,,,,,,,,,,,
null,,learn_phase(without_color),523978,black_plus_sign,,,,,null,US_Cities_List/nat_leesburg.png,US_Cities_List/nat_racine.png,,,,,,,,,,,,,,,,,,,,,,,,,,,,
null,,black_cross(without_color),524760,blue,,,,,null,US_Cities_List/nat_leesburg.png,US_Cities_List/nat_racine.png,,,,,,,,,,,,,,,,,,,,,,,,,,,,
null,,rt_plussign_withcolor,525263,blue,,,,,null,US_Cities_List/nat_leesburg.png,US_Cities_List/nat_racine.png,,,,,,,,,,,,,,,,,,,,,,,,,,,,
722.7000000029802,,rt_thecrossant_black,526483,black_plus_sign,,,,,49,,,1,0.9493670886075949,,,,,,,,,,,,,,,,,,,,,,,,,,
null,,color_black,526584,black_plus_sign,,,,,null,,,,,,,,,,,,,,,,,,,,,,,,,,,,,,
null,,learn_phase(without_color),529094,black_plus_sign,,,,,null,US_Cities_List/mm_hotsprings.png,US_Cities_List/mm_newhope.png,,,,,,,,,,,,,,,,,,,,,,,,,,,,
null,,black_cross(without_color),529809,green,,,,,null,US_Cities_List/mm_hotsprings.png,US_Cities_List/mm_newhope.png,,,,,,,,,,,,,,,,,,,,,,,,,,,,
null,,rt_plussign_withcolor,530311,green,,,,,null,US_Cities_List/mm_hotsprings.png,US_Cities_List/mm_newhope.png,,,,,,,,,,,,,,,,,,,,,,,,,,,,
882.0999999940395,,rt_thecrossant_black,531599,black_plus_sign,,,,,50,,,1,0.95,,,,,,,,,,,,,,,,,,,,,,,,,,
null,,color_black,531700,black_plus_sign,,,,,null,,,,,,,,,,,,,,,,,,,,,,,,,,,,,,
null,,learn_phase(without_color),534210,black_plus_sign,,,,,null,US_Cities_List/nat_boulder.png,US_Cities_List/nat_hanover.png,,,,,,,,,,,,,,,,,,,,,,,,,,,,
null,,black_cross(without_color),534815,green,,,,,null,US_Cities_List/nat_boulder.png,US_Cities_List/nat_hanover.png,,,,,,,,,,,,,,,,,,,,,,,,,,,,
null,,rt_plussign_withcolor,535316,green,,,,,null,US_Cities_List/nat_boulder.png,US_Cities_List/nat_hanover.png,,,,,,,,,,,,,,,,,,,,,,,,,,,,
849.9000000059605,,rt_thecrossant_black,536714,black_plus_sign,,,,,50,,,1,0.9506172839506173,,,,,,,,,,,,,,,,,,,,,,,,,,
null,,color_black,536816,black_plus_sign,,,,,null,,,,,,,,,,,,,,,,,,,,,,,,,,,,,,
null,,learn_phase(without_color),539330,black_plus_sign,,,,,null,US_Cities_List/nat_peoria.png,US_Cities_List/nat_racine.png,,,,,,,,,,,,,,,,,,,,,,,,,,,,
null,,black_cross(without_color),540306,blue,,,,,null,US_Cities_List/nat_peoria.png,US_Cities_List/nat_racine.png,,,,,,,,,,,,,,,,,,,,,,,,,,,,
null,,rt_plussign_withcolor,540807,blue,,,,,null,US_Cities_List/nat_peoria.png,US_Cities_List/nat_racine.png,,,,,,,,,,,,,,,,,,,,,,,,,,,,
738.0999999940395,,rt_thecrossant_black,541835,black_plus_sign,,,,,49,,,1,0.9512195121951219,,,,,,,,,,,,,,,,,,,,,,,,,,
null,,color_black,541936,black_plus_sign,,,,,null,,,,,,,,,,,,,,,,,,,,,,,,,,,,,,
null,,learn_phase(without_color),544449,black_plus_sign,,,,,null,US_Cities_List/mm_newhope.png,US_Cities_List/mm_westpalmbeach.png,,,,,,,,,,,,,,,,,,,,,,,,,,,,
null,,black_cross(without_color),544944,blue,,,,,null,US_Cities_List/mm_newhope.png,US_Cities_List/mm_westpalmbeach.png,,,,,,,,,,,,,,,,,,,,,,,,,,,,
null,,rt_plussign_withcolor,545446,blue,,,,,null,US_Cities_List/mm_newhope.png,US_Cities_List/mm_westpalmbeach.png,,,,,,,,,,,,,,,,,,,,,,,,,,,,
1116,,rt_thecrossant_black,546954,black_plus_sign,,,,,49,,,1,0.9518072289156626,,,,,,,,,,,,,,,,,,,,,,,,,,
null,,color_black,547054,black_plus_sign,,,,,null,,,,,,,,,,,,,,,,,,,,,,,,,,,,,,
null,,learn_phase(without_color),549567,black_plus_sign,,,,,null,US_Cities_List/nat_hanover.png,US_Cities_List/mm_hotsprings.png,,,,,,,,,,,,,,,,,,,,,,,,,,,,
null,,black_cross(without_color),550403,green,,,,,null,US_Cities_List/nat_hanover.png,US_Cities_List/mm_hotsprings.png,,,,,,,,,,,,,,,,,,,,,,,,,,,,
null,,rt_plussign_withcolor,550905,green,,,,,null,US_Cities_List/nat_hanover.png,US_Cities_List/mm_hotsprings.png,,,,,,,,,,,,,,,,,,,,,,,,,,,,
659.8999999910593,,rt_thecrossant_black,552072,black_plus_sign,,,,,50,,,1,0.9523809523809523,,,,,,,,,,,,,,,,,,,,,,,,,,
null,,color_black,552174,black_plus_sign,,,,,null,,,,,,,,,,,,,,,,,,,,,,,,,,,,,,
null,,learn_phase(without_color),554684,black_plus_sign,,,,,null,US_Cities_List/nat_shreveport.png,US_Cities_List/nat_cornwall.png,,,,,,,,,,,,,,,,,,,,,,,,,,,,
null,,black_cross(without_color),555787,green,,,,,null,US_Cities_List/nat_shreveport.png,US_Cities_List/nat_cornwall.png,,,,,,,,,,,,,,,,,,,,,,,,,,,,
488.09999999403954,,rt_plussign_withcolor,556289,green,,,,,50,US_Cities_List/nat_shreveport.png,US_Cities_List/nat_cornwall.png,,,,,,,,,,,,,,,,,,,,,,,,,,,,
null,,rt_thecrossant_black,557202,black_plus_sign,,,,,null,,,1,0.9529411764705882,,,,,,,,,,,,,,,,,,,,,,,,,,
null,,color_black,557304,black_plus_sign,,,,,null,,,,,,,,,,,,,,,,,,,,,,,,,,,,,,
null,,learn_phase(without_color),559818,black_plus_sign,,,,,null,US_Cities_List/nat_hanover.png,US_Cities_List/mm_hotsprings.png,,,,,,,,,,,,,,,,,,,,,,,,,,,,
null,,black_cross(without_color),560342,green,,,,,null,US_Cities_List/nat_hanover.png,US_Cities_List/mm_hotsprings.png,,,,,,,,,,,,,,,,,,,,,,,,,,,,
null,,rt_plussign_withcolor,560844,green,,,,,null,US_Cities_List/nat_hanover.png,US_Cities_List/mm_hotsprings.png,,,,,,,,,,,,,,,,,,,,,,,,,,,,
1207,,rt_thecrossant_black,562322,black_plus_sign,,,,,50,,,1,0.9534883720930233,,,,,,,,,,,,,,,,,,,,,,,,,,
null,,color_black,562423,black_plus_sign,,,,,null,,,,,,,,,,,,,,,,,,,,,,,,,,,,,,
null,,learn_phase(without_color),564936,black_plus_sign,,,,,null,US_Cities_List/mm_hotsprings.png,US_Cities_List/nat_leesburg.png,,,,,,,,,,,,,,,,,,,,,,,,,,,,
null,,black_cross(without_color),565832,blue,,,,,null,US_Cities_List/mm_hotsprings.png,US_Cities_List/nat_leesburg.png,,,,,,,,,,,,,,,,,,,,,,,,,,,,
null,,rt_plussign_withcolor,566333,blue,,,,,null,US_Cities_List/mm_hotsprings.png,US_Cities_List/nat_leesburg.png,,,,,,,,,,,,,,,,,,,,,,,,,,,,
662.2000000029802,,rt_thecrossant_black,567439,black_plus_sign,,,,,49,,,1,0.9540229885057471,,,,,,,,,,,,,,,,,,,,,,,,,,
null,,color_black,567540,black_plus_sign,,,,,null,,,,,,,,,,,,,,,,,,,,,,,,,,,,,,
null,,learn_phase(without_color),570052,black_plus_sign,,,,,null,US_Cities_List/nat_shreveport.png,US_Cities_List/mm_westpalmbeach.png,,,,,,,,,,,,,,,,,,,,,,,,,,,,
null,,black_cross(without_color),570637,blue,,,,,null,US_Cities_List/nat_shreveport.png,US_Cities_List/mm_westpalmbeach.png,,,,,,,,,,,,,,,,,,,,,,,,,,,,
null,,rt_plussign_withcolor,571138,blue,,,,,null,US_Cities_List/nat_shreveport.png,US_Cities_List/mm_westpalmbeach.png,,,,,,,,,,,,,,,,,,,,,,,,,,,,
1238.4000000059605,,rt_thecrossant_black,572557,black_plus_sign,,,,,49,,,1,0.9545454545454546,,,,,,,,,,,,,,,,,,,,,,,,,,
null,,color_black,572659,black_plus_sign,,,,,null,,,,,,,,,,,,,,,,,,,,,,,,,,,,,,
null,,learn_phase(without_color),575168,black_plus_sign,,,,,null,US_Cities_List/mm_hotsprings.png,US_Cities_List/nat_leesburg.png,,,,,,,,,,,,,,,,,,,,,,,,,,,,
null,,black_cross(without_color),575819,green,,,,,null,US_Cities_List/mm_hotsprings.png,US_Cities_List/nat_leesburg.png,,,,,,,,,,,,,,,,,,,,,,,,,,,,
null,,rt_plussign_withcolor,576321,green,,,,,null,US_Cities_List/mm_hotsprings.png,US_Cities_List/nat_leesburg.png,,,,,,,,,,,,,,,,,,,,,,,,,,,,
766.4000000059605,,rt_thecrossant_black,577672,black_plus_sign,,,,,50,,,1,0.9550561797752809,,,,,,,,,,,,,,,,,,,,,,,,,,
null,,color_black,577774,black_plus_sign,,,,,null,,,,,,,,,,,,,,,,,,,,,,,,,,,,,,
null,,learn_phase(without_color),580290,black_plus_sign,,,,,null,US_Cities_List/nat_shreveport.png,US_Cities_List/mm_westpalmbeach.png,,,,,,,,,,,,,,,,,,,,,,,,,,,,
null,,black_cross(without_color),581027,green,,,,,null,US_Cities_List/nat_shreveport.png,US_Cities_List/mm_westpalmbeach.png,,,,,,,,,,,,,,,,,,,,,,,,,,,,
null,,rt_plussign_withcolor,581528,green,,,,,null,US_Cities_List/nat_shreveport.png,US_Cities_List/mm_westpalmbeach.png,,,,,,,,,,,,,,,,,,,,,,,,,,,,
874,,rt_thecrossant_black,582793,black_plus_sign,,,,,50,,,1,0.9555555555555556,,,,,,,,,,,,,,,,,,,,,,,,,,
null,,color_black,582894,black_plus_sign,,,,,null,,,,,,,,,,,,,,,,,,,,,,,,,,,,,,
null,,learn_phase(without_color),585405,black_plus_sign,,,,,null,US_Cities_List/nat_peoria.png,US_Cities_List/nat_racine.png,,,,,,,,,,,,,,,,,,,,,,,,,,,,
null,,black_cross(without_color),586153,green,,,,,null,US_Cities_List/nat_peoria.png,US_Cities_List/nat_racine.png,,,,,,,,,,,,,,,,,,,,,,,,,,,,
null,,rt_plussign_withcolor,586656,green,,,,,null,US_Cities_List/nat_peoria.png,US_Cities_List/nat_racine.png,,,,,,,,,,,,,,,,,,,,,,,,,,,,
852.1000000089407,,rt_thecrossant_black,587920,black_plus_sign,,,,,50,,,1,0.9560439560439561,,,,,,,,,,,,,,,,,,,,,,,,,,
null,,color_black,588021,black_plus_sign,,,,,null,,,,,,,,,,,,,,,,,,,,,,,,,,,,,,
null,,learn_phase(without_color),590529,black_plus_sign,,,,,null,US_Cities_List/nat_cornwall.png,US_Cities_List/mm_huntsville.png,,,,,,,,,,,,,,,,,,,,,,,,,,,,
null,,black_cross(without_color),591010,blue,,,,,null,US_Cities_List/nat_cornwall.png,US_Cities_List/mm_huntsville.png,,,,,,,,,,,,,,,,,,,,,,,,,,,,
null,,rt_plussign_withcolor,591510,blue,,,,,null,US_Cities_List/nat_cornwall.png,US_Cities_List/mm_huntsville.png,,,,,,,,,,,,,,,,,,,,,,,,,,,,
1025.4000000059605,,rt_thecrossant_black,593032,black_plus_sign,,,,,49,,,1,0.9565217391304348,,,,,,,,,,,,,,,,,,,,,,,,,,
null,,color_black,593134,black_plus_sign,,,,,null,,,,,,,,,,,,,,,,,,,,,,,,,,,,,,
null,,learn_phase(without_color),595645,black_plus_sign,,,,,null,US_Cities_List/nat_hanover.png,US_Cities_List/nat_peoria.png,,,,,,,,,,,,,,,,,,,,,,,,,,,,
null,,black_cross(without_color),596708,green,,,,,null,US_Cities_List/nat_hanover.png,US_Cities_List/nat_peoria.png,,,,,,,,,,,,,,,,,,,,,,,,,,,,
null,,rt_plussign_withcolor,597209,green,,,,,null,US_Cities_List/nat_hanover.png,US_Cities_List/nat_peoria.png,,,,,,,,,,,,,,,,,,,,,,,,,,,,
634.6000000089407,,rt_thecrossant_black,598148,black_plus_sign,,,,,50,,,1,0.956989247311828,,,,,,,,,,,,,,,,,,,,,,,,,,
null,,color_black,598250,black_plus_sign,,,,,null,,,,,,,,,,,,,,,,,,,,,,,,,,,,,,
null,,learn_phase(without_color),600761,black_plus_sign,,,,,null,US_Cities_List/mm_newhope.png,US_Cities_List/nat_shreveport.png,,,,,,,,,,,,,,,,,,,,,,,,,,,,
null,,black_cross(without_color),601297,blue,,,,,null,US_Cities_List/mm_newhope.png,US_Cities_List/nat_shreveport.png,,,,,,,,,,,,,,,,,,,,,,,,,,,,
null,,rt_plussign_withcolor,601798,blue,,,,,null,US_Cities_List/mm_newhope.png,US_Cities_List/nat_shreveport.png,,,,,,,,,,,,,,,,,,,,,,,,,,,,
1215.5999999940395,,rt_thecrossant_black,603266,black_plus_sign,,,,,49,,,1,0.9574468085106383,,,,,,,,,,,,,,,,,,,,,,,,,,
null,,color_black,603367,black_plus_sign,,,,,null,,,,,,,,,,,,,,,,,,,,,,,,,,,,,,
null,,learn_phase(without_color),605881,black_plus_sign,,,,,null,US_Cities_List/nat_shreveport.png,US_Cities_List/nat_cornwall.png,,,,,,,,,,,,,,,,,,,,,,,,,,,,
null,,black_cross(without_color),606696,blue,,,,,null,US_Cities_List/nat_shreveport.png,US_Cities_List/nat_cornwall.png,,,,,,,,,,,,,,,,,,,,,,,,,,,,
null,,rt_plussign_withcolor,607197,blue,,,,,null,US_Cities_List/nat_shreveport.png,US_Cities_List/nat_cornwall.png,,,,,,,,,,,,,,,,,,,,,,,,,,,,
819.7999999970198,,rt_thecrossant_black,608391,black_plus_sign,,,,,49,,,1,0.9578947368421052,,,,,,,,,,,,,,,,,,,,,,,,,,
null,,color_black,608493,black_plus_sign,,,,,null,,,,,,,,,,,,,,,,,,,,,,,,,,,,,,
null,,learn_phase(without_color),611005,black_plus_sign,,,,,null,US_Cities_List/nat_boulder.png,US_Cities_List/nat_hanover.png,,,,,,,,,,,,,,,,,,,,,,,,,,,,
null,,black_cross(without_color),611493,green,,,,,null,US_Cities_List/nat_boulder.png,US_Cities_List/nat_hanover.png,,,,,,,,,,,,,,,,,,,,,,,,,,,,
447,,rt_plussign_withcolor,611994,green,,,,,50,US_Cities_List/nat_boulder.png,US_Cities_List/nat_hanover.png,,,,,,,,,,,,,,,,,,,,,,,,,,,,
null,,rt_thecrossant_black,613508,black_plus_sign,,,,,null,,,1,0.9583333333333334,,,,,,,,,,,,,,,,,,,,,,,,,,
null,,color_black,613610,black_plus_sign,,,,,null,,,,,,,,,,,,,,,,,,,,,,,,,,,,,,
null,,learn_phase(without_color),616126,black_plus_sign,,,,,null,US_Cities_List/mm_newhope.png,US_Cities_List/mm_westpalmbeach.png,,,,,,,,,,,,,,,,,,,,,,,,,,,,
null,,black_cross(without_color),617009,blue,,,,,null,US_Cities_List/mm_newhope.png,US_Cities_List/mm_westpalmbeach.png,,,,,,,,,,,,,,,,,,,,,,,,,,,,
485.29999999701977,,rt_plussign_withcolor,617510,blue,,,,,49,US_Cities_List/mm_newhope.png,US_Cities_List/mm_westpalmbeach.png,,,,,,,,,,,,,,,,,,,,,,,,,,,,
null,,rt_thecrossant_black,618628,black_plus_sign,,,,,null,,,1,0.9587628865979382,,,,,,,,,,,,,,,,,,,,,,,,,,
null,,color_black,618730,black_plus_sign,,,,,null,,,,,,,,,,,,,,,,,,,,,,,,,,,,,,
null,,learn_phase(without_color),621244,black_plus_sign,,,,,null,US_Cities_List/nat_hanover.png,US_Cities_List/mm_hotsprings.png,,,,,,,,,,,,,,,,,,,,,,,,,,,,
null,,black_cross(without_color),622258,green,,,,,null,US_Cities_List/nat_hanover.png,US_Cities_List/mm_hotsprings.png,,,,,,,,,,,,,,,,,,,,,,,,,,,,
464,,rt_plussign_withcolor,622760,green,,,,,50,US_Cities_List/nat_hanover.png,US_Cities_List/mm_hotsprings.png,,,,,,,,,,,,,,,,,,,,,,,,,,,,
null,,rt_thecrossant_black,623757,black_plus_sign,,,,,null,,,1,0.9591836734693877,,,,,,,,,,,,,,,,,,,,,,,,,,
null,,color_black,623858,black_plus_sign,,,,,null,,,,,,,,,,,,,,,,,,,,,,,,,,,,,,
null,,learn_phase(without_color),626369,black_plus_sign,,,,,null,US_Cities_List/nat_hanover.png,US_Cities_List/nat_peoria.png,,,,,,,,,,,,,,,,,,,,,,,,,,,,
null,,black_cross(without_color),626820,blue,,,,,null,US_Cities_List/nat_hanover.png,US_Cities_List/nat_peoria.png,,,,,,,,,,,,,,,,,,,,,,,,,,,,
null,,rt_plussign_withcolor,627322,blue,,,,,null,US_Cities_List/nat_hanover.png,US_Cities_List/nat_peoria.png,,,,,,,,,,,,,,,,,,,,,,,,,,,,
1145.2000000029802,,rt_thecrossant_black,628872,black_plus_sign,,,,,49,,,1,0.9595959595959596,,,,,,,,,,,,,,,,,,,,,,,,,,
null,,color_black,628974,black_plus_sign,,,,,null,,,,,,,,,,,,,,,,,,,,,,,,,,,,,,
null,,learn_phase(without_color),631485,black_plus_sign,,,,,null,US_Cities_List/nat_cornwall.png,US_Cities_List/mm_westpalmbeach.png,,,,,,,,,,,,,,,,,,,,,,,,,,,,
null,,black_cross(without_color),632084,blue,,,,,null,US_Cities_List/nat_cornwall.png,US_Cities_List/mm_westpalmbeach.png,,,,,,,,,,,,,,,,,,,,,,,,,,,,
null,,rt_plussign_withcolor,632586,blue,,,,,null,US_Cities_List/nat_cornwall.png,US_Cities_List/mm_westpalmbeach.png,,,,,,,,,,,,,,,,,,,,,,,,,,,,
572.2000000029802,,rt_thecrossant_black,633989,black_plus_sign,,,,,49,,,1,0.96,,,,,,,,,,,,,,,,,,,,,,,,,,
null,,color_black,634091,black_plus_sign,,,,,null,,,,,,,,,,,,,,,,,,,,,,,,,,,,,,
null,,learn_phase(without_color),636604,black_plus_sign,,,,,null,US_Cities_List/mm_newhope.png,US_Cities_List/mm_westpalmbeach.png,,,,,,,,,,,,,,,,,,,,,,,,,,,,
null,,black_cross(without_color),637563,green,,,,,null,US_Cities_List/mm_newhope.png,US_Cities_List/mm_westpalmbeach.png,,,,,,,,,,,,,,,,,,,,,,,,,,,,
null,,rt_plussign_withcolor,638064,green,,,,,null,US_Cities_List/mm_newhope.png,US_Cities_List/mm_westpalmbeach.png,,,,,,,,,,,,,,,,,,,,,,,,,,,,
861,,rt_thecrossant_black,639108,black_plus_sign,,,,,50,,,1,0.9603960396039604,,,,,,,,,,,,,,,,,,,,,,,,,,
null,,color_black,639210,black_plus_sign,,,,,null,,,,,,,,,,,,,,,,,,,,,,,,,,,,,,
null,,learn_phase(without_color),641722,black_plus_sign,,,,,null,US_Cities_List/nat_shreveport.png,US_Cities_List/nat_cornwall.png,,,,,,,,,,,,,,,,,,,,,,,,,,,,
null,,black_cross(without_color),642201,green,,,,,null,US_Cities_List/nat_shreveport.png,US_Cities_List/nat_cornwall.png,,,,,,,,,,,,,,,,,,,,,,,,,,,,
null,,rt_plussign_withcolor,642702,green,,,,,null,US_Cities_List/nat_shreveport.png,US_Cities_List/nat_cornwall.png,,,,,,,,,,,,,,,,,,,,,,,,,,,,
1152.2000000029802,,rt_thecrossant_black,644226,black_plus_sign,,,,,50,,,1,0.9607843137254902,,,,,,,,,,,,,,,,,,,,,,,,,,
null,,color_black,644339,black_plus_sign,,,,,null,,,,,,,,,,,,,,,,,,,,,,,,,,,,,,
null,,learn_phase(without_color),646849,black_plus_sign,,,,,null,US_Cities_List/nat_cornwall.png,US_Cities_List/mm_huntsville.png,,,,,,,,,,,,,,,,,,,,,,,,,,,,
null,,black_cross(without_color),647721,blue,,,,,null,US_Cities_List/nat_cornwall.png,US_Cities_List/mm_huntsville.png,,,,,,,,,,,,,,,,,,,,,,,,,,,,
null,,rt_plussign_withcolor,648222,blue,,,,,null,US_Cities_List/nat_cornwall.png,US_Cities_List/mm_huntsville.png,,,,,,,,,,,,,,,,,,,,,,,,,,,,
703,,rt_thecrossant_black,649354,black_plus_sign,,,,,49,,,1,0.9611650485436893,,,,,,,,,,,,,,,,,,,,,,,,,,
null,,color_black,649454,black_plus_sign,,,,,null,,,,,,,,,,,,,,,,,,,,,,,,,,,,,,
null,,learn_phase(without_color),651966,black_plus_sign,,,,,null,US_Cities_List/nat_peoria.png,US_Cities_List/nat_gatlinburg.png,,,,,,,,,,,,,,,,,,,,,,,,,,,,
null,,black_cross(without_color),652395,blue,,,,,null,US_Cities_List/nat_peoria.png,US_Cities_List/nat_gatlinburg.png,,,,,,,,,,,,,,,,,,,,,,,,,,,,
484.29999999701977,,rt_plussign_withcolor,652896,blue,,,,,49,US_Cities_List/nat_peoria.png,US_Cities_List/nat_gatlinburg.png,,,,,,,,,,,,,,,,,,,,,,,,,,,,
null,,rt_thecrossant_black,654470,black_plus_sign,,,,,null,,,1,0.9615384615384616,,,,,,,,,,,,,,,,,,,,,,,,,,
null,,color_black,654572,black_plus_sign,,,,,null,,,,,,,,,,,,,,,,,,,,,,,,,,,,,,
null,,learn_phase(without_color),657087,black_plus_sign,,,,,null,US_Cities_List/nat_cornwall.png,US_Cities_List/mm_westpalmbeach.png,,,,,,,,,,,,,,,,,,,,,,,,,,,,
null,,black_cross(without_color),658189,blue,,,,,null,US_Cities_List/nat_cornwall.png,US_Cities_List/mm_westpalmbeach.png,,,,,,,,,,,,,,,,,,,,,,,,,,,,
null,,rt_plussign_withcolor,658690,blue,,,,,null,US_Cities_List/nat_cornwall.png,US_Cities_List/mm_westpalmbeach.png,,,,,,,,,,,,,,,,,,,,,,,,,,,,
623.1000000089407,,rt_thecrossant_black,659591,black_plus_sign,,,,,49,,,1,0.9619047619047619,,,,,,,,,,,,,,,,,,,,,,,,,,
null,,color_black,659691,black_plus_sign,,,,,null,,,,,,,,,,,,,,,,,,,,,,,,,,,,,,
null,,learn_phase(without_color),662204,black_plus_sign,,,,,null,US_Cities_List/nat_cornwall.png,US_Cities_List/mm_huntsville.png,,,,,,,,,,,,,,,,,,,,,,,,,,,,
null,,black_cross(without_color),662994,blue,,,,,null,US_Cities_List/nat_cornwall.png,US_Cities_List/mm_huntsville.png,,,,,,,,,,,,,,,,,,,,,,,,,,,,
482.79999999701977,,rt_plussign_withcolor,663495,blue,,,,,49,US_Cities_List/nat_cornwall.png,US_Cities_List/mm_huntsville.png,,,,,,,,,,,,,,,,,,,,,,,,,,,,
null,,rt_thecrossant_black,664709,black_plus_sign,,,,,null,,,1,0.9622641509433962,,,,,,,,,,,,,,,,,,,,,,,,,,
null,,color_black,664812,black_plus_sign,,,,,null,,,,,,,,,,,,,,,,,,,,,,,,,,,,,,
null,,learn_phase(without_color),667326,black_plus_sign,,,,,null,US_Cities_List/nat_shreveport.png,US_Cities_List/nat_cornwall.png,,,,,,,,,,,,,,,,,,,,,,,,,,,,
null,,black_cross(without_color),668232,green,,,,,null,US_Cities_List/nat_shreveport.png,US_Cities_List/nat_cornwall.png,,,,,,,,,,,,,,,,,,,,,,,,,,,,
null,,rt_plussign_withcolor,668733,green,,,,,null,US_Cities_List/nat_shreveport.png,US_Cities_List/nat_cornwall.png,,,,,,,,,,,,,,,,,,,,,,,,,,,,
993.4000000059605,,rt_thecrossant_black,669831,black_plus_sign,,,,,50,,,1,0.9626168224299065,,,,,,,,,,,,,,,,,,,,,,,,,,
null,,color_black,669934,black_plus_sign,,,,,null,,,,,,,,,,,,,,,,,,,,,,,,,,,,,,
null,,learn_phase(without_color),672450,black_plus_sign,,,,,null,US_Cities_List/mm_newhope.png,US_Cities_List/mm_westpalmbeach.png,,,,,,,,,,,,,,,,,,,,,,,,,,,,
null,,black_cross(without_color),673285,blue,,,,,null,US_Cities_List/mm_newhope.png,US_Cities_List/mm_westpalmbeach.png,,,,,,,,,,,,,,,,,,,,,,,,,,,,
428.70000000298023,,rt_plussign_withcolor,673787,blue,,,,,49,US_Cities_List/mm_newhope.png,US_Cities_List/mm_westpalmbeach.png,,,,,,,,,,,,,,,,,,,,,,,,,,,,
null,,rt_thecrossant_black,674954,black_plus_sign,,,,,null,,,1,0.9629629629629629,,,,,,,,,,,,,,,,,,,,,,,,,,
null,,color_black,675056,black_plus_sign,,,,,null,,,,,,,,,,,,,,,,,,,,,,,,,,,,,,
null,,learn_phase(without_color),677571,black_plus_sign,,,,,null,US_Cities_List/nat_hanover.png,US_Cities_List/mm_hotsprings.png,,,,,,,,,,,,,,,,,,,,,,,,,,,,
null,,black_cross(without_color),678588,blue,,,,,null,US_Cities_List/nat_hanover.png,US_Cities_List/mm_hotsprings.png,,,,,,,,,,,,,,,,,,,,,,,,,,,,
null,,rt_plussign_withcolor,679089,blue,,,,,null,US_Cities_List/nat_hanover.png,US_Cities_List/mm_hotsprings.png,,,,,,,,,,,,,,,,,,,,,,,,,,,,
1001.9000000059605,,rt_thecrossant_black,680076,black_plus_sign,,,,,49,,,1,0.963302752293578,,,,,,,,,,,,,,,,,,,,,,,,,,
null,,color_black,680178,black_plus_sign,,,,,null,,,,,,,,,,,,,,,,,,,,,,,,,,,,,,
null,,learn_phase(without_color),682689,black_plus_sign,,,,,null,US_Cities_List/mm_westpalmbeach.png,US_Cities_List/nat_leesburg.png,,,,,,,,,,,,,,,,,,,,,,,,,,,,
null,,black_cross(without_color),683176,green,,,,,null,US_Cities_List/mm_westpalmbeach.png,US_Cities_List/nat_leesburg.png,,,,,,,,,,,,,,,,,,,,,,,,,,,,
null,,rt_plussign_withcolor,683678,green,,,,,null,US_Cities_List/mm_westpalmbeach.png,US_Cities_List/nat_leesburg.png,,,,,,,,,,,,,,,,,,,,,,,,,,,,
1224.9000000059605,,rt_thecrossant_black,685194,black_plus_sign,,,,,50,,,1,0.9636363636363636,,,,,,,,,,,,,,,,,,,,,,,,,,
null,,color_black,685295,black_plus_sign,,,,,null,,,,,,,,,,,,,,,,,,,,,,,,,,,,,,
null,,learn_phase(without_color),687805,black_plus_sign,,,,,null,US_Cities_List/nat_boulder.png,US_Cities_List/nat_hanover.png,,,,,,,,,,,,,,,,,,,,,,,,,,,,
null,,black_cross(without_color),688339,green,,,,,null,US_Cities_List/nat_boulder.png,US_Cities_List/nat_hanover.png,,,,,,,,,,,,,,,,,,,,,,,,,,,,
null,,rt_plussign_withcolor,688845,green,,,,,null,US_Cities_List/nat_boulder.png,US_Cities_List/nat_hanover.png,,,,,,,,,,,,,,,,,,,,,,,,,,,,
692.7999999970198,,rt_thecrossant_black,690315,black_plus_sign,,,,,50,,,1,0.963963963963964,,,,,,,,,,,,,,,,,,,,,,,,,,
null,,color_black,690422,black_plus_sign,,,,,null,,,,,,,,,,,,,,,,,,,,,,,,,,,,,,
null,,learn_phase(without_color),692932,black_plus_sign,,,,,null,US_Cities_List/mm_newhope.png,US_Cities_List/nat_shreveport.png,,,,,,,,,,,,,,,,,,,,,,,,,,,,
null,,black_cross(without_color),693399,green,,,,,null,US_Cities_List/mm_newhope.png,US_Cities_List/nat_shreveport.png,,,,,,,,,,,,,,,,,,,,,,,,,,,,
null,,rt_plussign_withcolor,693912,green,,,,,null,US_Cities_List/mm_newhope.png,US_Cities_List/nat_shreveport.png,,,,,,,,,,,,,,,,,,,,,,,,,,,,
820.0999999940395,,rt_thecrossant_black,695452,black_plus_sign,,,,,49,,,0,0.9553571428571429,,,,,,,,,,,,,,,,,,,,,,,,,,
null,,color_black,695554,black_plus_sign,,,,,null,,,,,,,,,,,,,,,,,,,,,,,,,,,,,,
null,,learn_phase(without_color),698066,black_plus_sign,,,,,null,US_Cities_List/mm_hotsprings.png,US_Cities_List/mm_newhope.png,,,,,,,,,,,,,,,,,,,,,,,,,,,,
null,,black_cross(without_color),698890,green,,,,,null,US_Cities_List/mm_hotsprings.png,US_Cities_List/mm_newhope.png,,,,,,,,,,,,,,,,,,,,,,,,,,,,
null,,rt_plussign_withcolor,699391,green,,,,,null,US_Cities_List/mm_hotsprings.png,US_Cities_List/mm_newhope.png,,,,,,,,,,,,,,,,,,,,,,,,,,,,
610.9000000059605,,rt_thecrossant_black,700570,black_plus_sign,,,,,50,,,1,0.9557522123893806,,,,,,,,,,,,,,,,,,,,,,,,,,
null,,color_black,700671,black_plus_sign,,,,,null,,,,,,,,,,,,,,,,,,,,,,,,,,,,,,
null,,learn_phase(without_color),703179,black_plus_sign,,,,,null,US_Cities_List/nat_cornwall.png,US_Cities_List/mm_huntsville.png,,,,,,,,,,,,,,,,,,,,,,,,,,,,
null,,black_cross(without_color),704261,green,,,,,null,US_Cities_List/nat_cornwall.png,US_Cities_List/mm_huntsville.png,,,,,,,,,,,,,,,,,,,,,,,,,,,,
null,,rt_plussign_withcolor,704762,green,,,,,null,US_Cities_List/nat_cornwall.png,US_Cities_List/mm_huntsville.png,,,,,,,,,,,,,,,,,,,,,,,,,,,,
941.2999999970198,,rt_thecrossant_black,705684,black_plus_sign,,,,,50,,,1,0.956140350877193,,,,,,,,,,,,,,,,,,,,,,,,,,
null,,color_black,705786,black_plus_sign,,,,,null,,,,,,,,,,,,,,,,,,,,,,,,,,,,,,
null,,learn_phase(without_color),708299,black_plus_sign,,,,,null,US_Cities_List/nat_boulder.png,US_Cities_List/nat_hanover.png,,,,,,,,,,,,,,,,,,,,,,,,,,,,
null,,black_cross(without_color),709031,green,,,,,null,US_Cities_List/nat_boulder.png,US_Cities_List/nat_hanover.png,,,,,,,,,,,,,,,,,,,,,,,,,,,,
null,,rt_plussign_withcolor,709533,green,,,,,null,US_Cities_List/nat_boulder.png,US_Cities_List/nat_hanover.png,,,,,,,,,,,,,,,,,,,,,,,,,,,,
1189.9000000059605,,rt_thecrossant_black,710805,black_plus_sign,,,,,50,,,1,0.9565217391304348,,,,,,,,,,,,,,,,,,,,,,,,,,
null,,color_black,710922,black_plus_sign,,,,,null,,,,,,,,,,,,,,,,,,,,,,,,,,,,,,
null,,learn_phase(without_color),713434,black_plus_sign,,,,,null,US_Cities_List/nat_shreveport.png,US_Cities_List/mm_westpalmbeach.png,,,,,,,,,,,,,,,,,,,,,,,,,,,,
null,,black_cross(without_color),714498,green,,,,,null,US_Cities_List/nat_shreveport.png,US_Cities_List/mm_westpalmbeach.png,,,,,,,,,,,,,,,,,,,,,,,,,,,,
null,,rt_plussign_withcolor,715000,green,,,,,null,US_Cities_List/nat_shreveport.png,US_Cities_List/mm_westpalmbeach.png,,,,,,,,,,,,,,,,,,,,,,,,,,,,
868.1000000089407,,rt_thecrossant_black,715948,black_plus_sign,,,,,50,,,1,0.9568965517241379,,,,,,,,,,,,,,,,,,,,,,,,,,
null,,color_black,716048,black_plus_sign,,,,,null,,,,,,,,,,,,,,,,,,,,,,,,,,,,,,
null,,learn_phase(without_color),718561,black_plus_sign,,,,,null,US_Cities_List/mm_hotsprings.png,US_Cities_List/nat_leesburg.png,,,,,,,,,,,,,,,,,,,,,,,,,,,,
null,,black_cross(without_color),719449,green,,,,,null,US_Cities_List/mm_hotsprings.png,US_Cities_List/nat_leesburg.png,,,,,,,,,,,,,,,,,,,,,,,,,,,,
490.1000000089407,,rt_plussign_withcolor,719950,green,,,,,50,US_Cities_List/mm_hotsprings.png,US_Cities_List/nat_leesburg.png,,,,,,,,,,,,,,,,,,,,,,,,,,,,
null,,rt_thecrossant_black,721080,black_plus_sign,,,,,null,,,1,0.9572649572649573,,,,,,,,,,,,,,,,,,,,,,,,,,
null,,color_black,721182,black_plus_sign,,,,,null,,,,,,,,,,,,,,,,,,,,,,,,,,,,,,
null,,learn_phase(without_color),723698,black_plus_sign,,,,,null,US_Cities_List/nat_cornwall.png,US_Cities_List/mm_westpalmbeach.png,,,,,,,,,,,,,,,,,,,,,,,,,,,,
null,,black_cross(without_color),724530,blue,,,,,null,US_Cities_List/nat_cornwall.png,US_Cities_List/mm_westpalmbeach.png,,,,,,,,,,,,,,,,,,,,,,,,,,,,
null,,rt_plussign_withcolor,725032,blue,,,,,null,US_Cities_List/nat_cornwall.png,US_Cities_List/mm_westpalmbeach.png,,,,,,,,,,,,,,,,,,,,,,,,,,,,
1031.0999999940395,,rt_thecrossant_black,726203,black_plus_sign,,,,,49,,,1,0.9576271186440678,,,,,,,,,,,,,,,,,,,,,,,,,,
null,,color_black,726304,black_plus_sign,,,,,null,,,,,,,,,,,,,,,,,,,,,,,,,,,,,,
null,,learn_phase(without_color),728818,black_plus_sign,,,,,null,US_Cities_List/mm_hotsprings.png,US_Cities_List/nat_leesburg.png,,,,,,,,,,,,,,,,,,,,,,,,,,,,
null,,black_cross(without_color),729787,green,,,,,null,US_Cities_List/mm_hotsprings.png,US_Cities_List/nat_leesburg.png,,,,,,,,,,,,,,,,,,,,,,,,,,,,
null,,rt_plussign_withcolor,730288,green,,,,,null,US_Cities_List/mm_hotsprings.png,US_Cities_List/nat_leesburg.png,,,,,,,,,,,,,,,,,,,,,,,,,,,,
966.0999999940395,,rt_thecrossant_black,731322,black_plus_sign,,,,,50,,,1,0.957983193277311,,,,,,,,,,,,,,,,,,,,,,,,,,
null,,color_black,731424,black_plus_sign,,,,,null,,,,,,,,,,,,,,,,,,,,,,,,,,,,,,
null,,learn_phase(without_color),733938,black_plus_sign,,,,,null,US_Cities_List/mm_westpalmbeach.png,US_Cities_List/nat_leesburg.png,,,,,,,,,,,,,,,,,,,,,,,,,,,,
null,,black_cross(without_color),734414,blue,,,,,null,US_Cities_List/mm_westpalmbeach.png,US_Cities_List/nat_leesburg.png,,,,,,,,,,,,,,,,,,,,,,,,,,,,
null,,rt_plussign_withcolor,734916,blue,,,,,null,US_Cities_List/mm_westpalmbeach.png,US_Cities_List/nat_leesburg.png,,,,,,,,,,,,,,,,,,,,,,,,,,,,
1079.5999999940395,,rt_thecrossant_black,736443,black_plus_sign,,,,,49,,,1,0.9583333333333334,,,,,,,,,,,,,,,,,,,,,,,,,,
null,,color_black,736544,black_plus_sign,,,,,null,,,,,,,,,,,,,,,,,,,,,,,,,,,,,,
null,,learn_phase(without_color),739057,black_plus_sign,,,,,null,US_Cities_List/nat_shreveport.png,US_Cities_List/nat_carmel.png,,,,,,,,,,,,,,,,,,,,,,,,,,,,
null,,black_cross(without_color),739952,blue,,,,,null,US_Cities_List/nat_shreveport.png,US_Cities_List/nat_carmel.png,,,,,,,,,,,,,,,,,,,,,,,,,,,,
null,,rt_plussign_withcolor,740453,blue,,,,,null,US_Cities_List/nat_shreveport.png,US_Cities_List/nat_carmel.png,,,,,,,,,,,,,,,,,,,,,,,,,,,,
606.6000000089407,,rt_thecrossant_black,741561,black_plus_sign,,,,,49,,,1,0.9586776859504132,,,,,,,,,,,,,,,,,,,,,,,,,,
null,,color_black,741662,black_plus_sign,,,,,null,,,,,,,,,,,,,,,,,,,,,,,,,,,,,,
null,,learn_phase(without_color),744176,black_plus_sign,,,,,null,US_Cities_List/mm_newhope.png,US_Cities_List/nat_shreveport.png,,,,,,,,,,,,,,,,,,,,,,,,,,,,
null,,black_cross(without_color),744818,blue,,,,,null,US_Cities_List/mm_newhope.png,US_Cities_List/nat_shreveport.png,,,,,,,,,,,,,,,,,,,,,,,,,,,,
null,,rt_plussign_withcolor,745320,blue,,,,,null,US_Cities_List/mm_newhope.png,US_Cities_List/nat_shreveport.png,,,,,,,,,,,,,,,,,,,,,,,,,,,,
1010.9000000059605,,rt_thecrossant_black,746681,black_plus_sign,,,,,49,,,1,0.9590163934426229,,,,,,,,,,,,,,,,,,,,,,,,,,
null,,color_black,746783,black_plus_sign,,,,,null,,,,,,,,,,,,,,,,,,,,,,,,,,,,,,
null,,learn_phase(without_color),749293,black_plus_sign,,,,,null,US_Cities_List/nat_leesburg.png,US_Cities_List/nat_racine.png,,,,,,,,,,,,,,,,,,,,,,,,,,,,
null,,black_cross(without_color),750022,green,,,,,null,US_Cities_List/nat_leesburg.png,US_Cities_List/nat_racine.png,,,,,,,,,,,,,,,,,,,,,,,,,,,,
501.1000000089407,,rt_plussign_withcolor,750524,green,,,,,50,US_Cities_List/nat_leesburg.png,US_Cities_List/nat_racine.png,,,,,,,,,,,,,,,,,,,,,,,,,,,,
null,,rt_thecrossant_black,751798,black_plus_sign,,,,,null,,,1,0.959349593495935,,,,,,,,,,,,,,,,,,,,,,,,,,
null,,color_black,751900,black_plus_sign,,,,,null,,,,,,,,,,,,,,,,,,,,,,,,,,,,,,
null,,learn_phase(without_color),754412,black_plus_sign,,,,,null,US_Cities_List/nat_shreveport.png,US_Cities_List/nat_cornwall.png,,,,,,,,,,,,,,,,,,,,,,,,,,,,
null,,black_cross(without_color),755387,green,,,,,null,US_Cities_List/nat_shreveport.png,US_Cities_List/nat_cornwall.png,,,,,,,,,,,,,,,,,,,,,,,,,,,,
null,,rt_plussign_withcolor,755889,green,,,,,null,US_Cities_List/nat_shreveport.png,US_Cities_List/nat_cornwall.png,,,,,,,,,,,,,,,,,,,,,,,,,,,,
902.1000000089407,,rt_thecrossant_black,756920,black_plus_sign,,,,,50,,,1,0.9596774193548387,,,,,,,,,,,,,,,,,,,,,,,,,,
null,,color_black,757022,black_plus_sign,,,,,null,,,,,,,,,,,,,,,,,,,,,,,,,,,,,,
null,,learn_phase(without_color),759533,black_plus_sign,,,,,null,US_Cities_List/mm_hotsprings.png,US_Cities_List/mm_newhope.png,,,,,,,,,,,,,,,,,,,,,,,,,,,,
null,,black_cross(without_color),760109,green,,,,,null,US_Cities_List/mm_hotsprings.png,US_Cities_List/mm_newhope.png,,,,,,,,,,,,,,,,,,,,,,,,,,,,
null,,rt_plussign_withcolor,760611,green,,,,,null,US_Cities_List/mm_hotsprings.png,US_Cities_List/mm_newhope.png,,,,,,,,,,,,,,,,,,,,,,,,,,,,
1084,,rt_thecrossant_black,762038,black_plus_sign,,,,,50,,,1,0.96,,,,,,,,,,,,,,,,,,,,,,,,,,
null,,color_black,762139,black_plus_sign,,,,,null,,,,,,,,,,,,,,,,,,,,,,,,,,,,,,
null,,learn_phase(without_color),764651,black_plus_sign,,,,,null,US_Cities_List/mm_westpalmbeach.png,US_Cities_List/nat_leesburg.png,,,,,,,,,,,,,,,,,,,,,,,,,,,,
null,,black_cross(without_color),765641,blue,,,,,null,US_Cities_List/mm_westpalmbeach.png,US_Cities_List/nat_leesburg.png,,,,,,,,,,,,,,,,,,,,,,,,,,,,
null,,rt_plussign_withcolor,766142,blue,,,,,null,US_Cities_List/mm_westpalmbeach.png,US_Cities_List/nat_leesburg.png,,,,,,,,,,,,,,,,,,,,,,,,,,,,
893,,rt_thecrossant_black,767156,black_plus_sign,,,,,49,,,1,0.9603174603174603,,,,,,,,,,,,,,,,,,,,,,,,,,
null,,color_black,767269,black_plus_sign,,,,,null,,,,,,,,,,,,,,,,,,,,,,,,,,,,,,
null,,learn_phase(without_color),769785,black_plus_sign,,,,,null,US_Cities_List/mm_newhope.png,US_Cities_List/mm_westpalmbeach.png,,,,,,,,,,,,,,,,,,,,,,,,,,,,
null,,black_cross(without_color),770413,green,,,,,null,US_Cities_List/mm_newhope.png,US_Cities_List/mm_westpalmbeach.png,,,,,,,,,,,,,,,,,,,,,,,,,,,,
441.29999999701977,,rt_plussign_withcolor,770928,green,,,,,50,US_Cities_List/mm_newhope.png,US_Cities_List/mm_westpalmbeach.png,,,,,,,,,,,,,,,,,,,,,,,,,,,,
null,,rt_thecrossant_black,772303,black_plus_sign,,,,,null,,,1,0.9606299212598425,,,,,,,,,,,,,,,,,,,,,,,,,,
null,,color_black,772404,black_plus_sign,,,,,null,,,,,,,,,,,,,,,,,,,,,,,,,,,,,,
null,,learn_phase(without_color),774914,black_plus_sign,,,,,null,US_Cities_List/nat_peoria.png,US_Cities_List/nat_gatlinburg.png,,,,,,,,,,,,,,,,,,,,,,,,,,,,
null,,black_cross(without_color),775598,green,,,,,null,US_Cities_List/nat_peoria.png,US_Cities_List/nat_gatlinburg.png,,,,,,,,,,,,,,,,,,,,,,,,,,,,
null,,rt_plussign_withcolor,776099,green,,,,,null,US_Cities_List/nat_peoria.png,US_Cities_List/nat_gatlinburg.png,,,,,,,,,,,,,,,,,,,,,,,,,,,,
759.2000000029802,,rt_thecrossant_black,777419,black_plus_sign,,,,,50,,,1,0.9609375,,,,,,,,,,,,,,,,,,,,,,,,,,
null,,color_black,777520,black_plus_sign,,,,,null,,,,,,,,,,,,,,,,,,,,,,,,,,,,,,
7541.5,,intro_1,785063,instruct,,,0,,,,,,,,,,,,,,,,,,,,,,,,,,,,,,,,
7648.5,,intro_2,792712,instruct,,,1,Next,,,,,,,,,,,,,,,,,,,,,,,,,,,,,,,
2341.7000000029802,,directmemory_phase,795076,../static/images/US_Cities_List/mm_westpalmbeach.png,,,,,49,,,1,1,../static/images/US_Cities_List/nat_shreveport.png,../static/images/US_Cities_List/nat_peoria.png,../static/images/US_Cities_List/mm_huntsville.png,../static/images/US_Cities_List/nat_shreveport.png,../static/images/US_Cities_List/mm_huntsville.png,../static/images/US_Cities_List/nat_peoria.png,1,,,,,,,,,,,,,,,,,,,
null,,html-keyboard-response,796079,<p></p>,,,,,null,,,,,,,,,,,,,,,,,,,,,,,,,,,,,,
1544,,directmemory_phase,797644,../static/images/US_Cities_List/nat_racine.png,,,,,51,,,1,1,../static/images/US_Cities_List/mm_huntsville.png,../static/images/US_Cities_List/mm_westpalmbeach.png,../static/images/US_Cities_List/nat_peoria.png,../static/images/US_Cities_List/nat_peoria.png,../static/images/US_Cities_List/mm_westpalmbeach.png,../static/images/US_Cities_List/mm_huntsville.png,1,,,,,,,,,,,,,,,,,,,
null,,html-keyboard-response,798646,<p></p>,,,,,null,,,,,,,,,,,,,,,,,,,,,,,,,,,,,,
1684.2000000029802,,directmemory_phase,800349,../static/images/US_Cities_List/nat_shreveport.png,,,,,49,,,1,1,../static/images/US_Cities_List/nat_carmel.png,../static/images/US_Cities_List/nat_boulder.png,../static/images/US_Cities_List/nat_leesburg.png,../static/images/US_Cities_List/nat_carmel.png,../static/images/US_Cities_List/nat_leesburg.png,../static/images/US_Cities_List/nat_boulder.png,1,,,,,,,,,,,,,,,,,,,
null,,html-keyboard-response,801357,<p></p>,,,,,null,,,,,,,,,,,,,,,,,,,,,,,,,,,,,,
2706.7000000029802,,directmemory_phase,804085,../static/images/US_Cities_List/nat_cornwall.png,,,,,51,,,0,0.75,../static/images/US_Cities_List/nat_carmel.png,../static/images/US_Cities_List/mm_huntsville.png,../static/images/US_Cities_List/nat_racine.png,../static/images/US_Cities_List/mm_huntsville.png,../static/images/US_Cities_List/nat_carmel.png,../static/images/US_Cities_List/nat_racine.png,0.5,closer,,,,,,,,,,,,,,,,,,
null,,html-keyboard-response,805088,<p></p>,,,,,null,,,,,,,,,,,,,,,,,,,,,,,,,,,,,,
1410.5999999940395,,directmemory_phase,806515,../static/images/US_Cities_List/nat_peoria.png,,,,,49,,,1,0.8,../static/images/US_Cities_List/nat_gatlinburg.png,../static/images/US_Cities_List/nat_shreveport.png,../static/images/US_Cities_List/nat_leesburg.png,../static/images/US_Cities_List/nat_gatlinburg.png,../static/images/US_Cities_List/nat_leesburg.png,../static/images/US_Cities_List/nat_shreveport.png,1,,,,,,,,,,,,,,,,,,,
null,,html-keyboard-response,807517,<p></p>,,,,,null,,,,,,,,,,,,,,,,,,,,,,,,,,,,,,
2190.5,,directmemory_phase,809726,../static/images/US_Cities_List/nat_shreveport.png,,,,,50,,,0,0.6666666666666666,../static/images/US_Cities_List/nat_peoria.png,../static/images/US_Cities_List/mm_hotsprings.png,../static/images/US_Cities_List/mm_newhope.png,../static/images/US_Cities_List/mm_newhope.png,../static/images/US_Cities_List/mm_hotsprings.png,../static/images/US_Cities_List/nat_peoria.png,0.5,closer,,,,,,,,,,,,,,,,,,
null,,html-keyboard-response,810729,<p></p>,,,,,null,,,,,,,,,,,,,,,,,,,,,,,,,,,,,,
2307.2000000029802,,directmemory_phase,813056,../static/images/US_Cities_List/mm_hotsprings.png,,,,,51,,,0,0.5714285714285714,../static/images/US_Cities_List/nat_peoria.png,../static/images/US_Cities_List/nat_hanover.png,../static/images/US_Cities_List/mm_huntsville.png,../static/images/US_Cities_List/nat_hanover.png,../static/images/US_Cities_List/nat_peoria.png,../static/images/US_Cities_List/mm_huntsville.png,0.5,closer,,,,,,,,,,,,,,,,,,
null,,html-keyboard-response,814059,<p></p>,,,,,null,,,,,,,,,,,,,,,,,,,,,,,,,,,,,,
1718.2000000029802,,directmemory_phase,815800,../static/images/US_Cities_List/mm_newhope.png,,,,,50,,,1,0.625,../static/images/US_Cities_List/nat_hanover.png,../static/images/US_Cities_List/nat_shreveport.png,../static/images/US_Cities_List/nat_racine.png,../static/images/US_Cities_List/nat_shreveport.png,../static/images/US_Cities_List/nat_hanover.png,../static/images/US_Cities_List/nat_racine.png,1,,,,,,,,,,,,,,,,,,,
null,,html-keyboard-response,816802,<p></p>,,,,,null,,,,,,,,,,,,,,,,,,,,,,,,,,,,,,
1997.5,,directmemory_phase,818820,../static/images/US_Cities_List/nat_leesburg.png,,,,,49,,,0,0.5555555555555556,../static/images/US_Cities_List/mm_huntsville.png,../static/images/US_Cities_List/mm_newhope.png,../static/images/US_Cities_List/mm_westpalmbeach.png,../static/images/US_Cities_List/mm_westpalmbeach.png,../static/images/US_Cities_List/mm_newhope.png,../static/images/US_Cities_List/mm_huntsville.png,0.5,closer,,,,,,,,,,,,,,,,,,
null,,html-keyboard-response,819822,<p></p>,,,,,null,,,,,,,,,,,,,,,,,,,,,,,,,,,,,,
2999.5,,directmemory_phase,822843,../static/images/US_Cities_List/mm_huntsville.png,,,,,51,,,0,0.5,../static/images/US_Cities_List/nat_cornwall.png,../static/images/US_Cities_List/nat_carmel.png,../static/images/US_Cities_List/nat_shreveport.png,../static/images/US_Cities_List/nat_cornwall.png,../static/images/US_Cities_List/nat_shreveport.png,../static/images/US_Cities_List/nat_carmel.png,0.5,closer,,,,,,,,,,,,,,,,,,
null,,html-keyboard-response,823845,<p></p>,,,,,null,,,,,,,,,,,,,,,,,,,,,,,,,,,,,,
2088.5,,directmemory_phase,825960,../static/images/US_Cities_List/nat_gatlinburg.png,,,,,50,,,1,0.5454545454545454,../static/images/US_Cities_List/nat_hanover.png,../static/images/US_Cities_List/nat_peoria.png,../static/images/US_Cities_List/mm_westpalmbeach.png,../static/images/US_Cities_List/nat_peoria.png,../static/images/US_Cities_List/nat_hanover.png,../static/images/US_Cities_List/mm_westpalmbeach.png,1,,,,,,,,,,,,,,,,,,,
null,,html-keyboard-response,826963,<p></p>,,,,,null,,,,,,,,,,,,,,,,,,,,,,,,,,,,,,
2315.0999999940395,,directmemory_phase,829301,../static/images/US_Cities_List/nat_carmel.png,,,,,51,,,1,0.5833333333333334,../static/images/US_Cities_List/mm_huntsville.png,../static/images/US_Cities_List/mm_westpalmbeach.png,../static/images/US_Cities_List/nat_shreveport.png,../static/images/US_Cities_List/nat_shreveport.png,../static/images/US_Cities_List/mm_westpalmbeach.png,../static/images/US_Cities_List/mm_huntsville.png,1,,,,,,,,,,,,,,,,,,,
null,,html-keyboard-response,830304,<p></p>,,,,,null,,,,,,,,,,,,,,,,,,,,,,,,,,,,,,
2150.2999999970198,,directmemory_phase,832472,../static/images/US_Cities_List/nat_hanover.png,,,,,49,,,0,0.5384615384615384,../static/images/US_Cities_List/mm_westpalmbeach.png,../static/images/US_Cities_List/nat_racine.png,../static/images/US_Cities_List/mm_hotsprings.png,../static/images/US_Cities_List/mm_hotsprings.png,../static/images/US_Cities_List/nat_racine.png,../static/images/US_Cities_List/mm_westpalmbeach.png,0.5,closer,,,,,,,,,,,,,,,,,,
null,,html-keyboard-response,833474,<p></p>,,,,,null,,,,,,,,,,,,,,,,,,,,,,,,,,,,,,
2106.2999999970198,,directmemory_phase,835599,../static/images/US_Cities_List/nat_shreveport.png,,,,,51,,,1,0.5714285714285714,../static/images/US_Cities_List/nat_peoria.png,../static/images/US_Cities_List/mm_hotsprings.png,../static/images/US_Cities_List/nat_cornwall.png,../static/images/US_Cities_List/nat_cornwall.png,../static/images/US_Cities_List/mm_hotsprings.png,../static/images/US_Cities_List/nat_peoria.png,1,,,,,,,,,,,,,,,,,,,
null,,html-keyboard-response,836612,<p></p>,,,,,null,,,,,,,,,,,,,,,,,,,,,,,,,,,,,,
2752.5,,directmemory_phase,839383,../static/images/US_Cities_List/nat_hanover.png,,,,,50,,,0,0.5333333333333333,../static/images/US_Cities_List/nat_carmel.png,../static/images/US_Cities_List/nat_gatlinburg.png,../static/images/US_Cities_List/nat_peoria.png,../static/images/US_Cities_List/nat_peoria.png,../static/images/US_Cities_List/nat_gatlinburg.png,../static/images/US_Cities_List/nat_carmel.png,0.5,closer,,,,,,,,,,,,,,,,,,
null,,html-keyboard-response,840387,<p></p>,,,,,null,,,,,,,,,,,,,,,,,,,,,,,,,,,,,,
2323.5,,directmemory_phase,842729,../static/images/US_Cities_List/mm_newhope.png,,,,,49,,,0,0.5,../static/images/US_Cities_List/nat_peoria.png,../static/images/US_Cities_List/nat_hanover.png,../static/images/US_Cities_List/mm_hotsprings.png,../static/images/US_Cities_List/mm_hotsprings.png,../static/images/US_Cities_List/nat_hanover.png,../static/images/US_Cities_List/nat_peoria.png,0.5,closer,,,,,,,,,,,,,,,,,,
null,,html-keyboard-response,843731,<p></p>,,,,,null,,,,,,,,,,,,,,,,,,,,,,,,,,,,,,
1936.2000000029802,,directmemory_phase,845689,../static/images/US_Cities_List/nat_shreveport.png,,,,,51,,,0,0.47058823529411764,../static/images/US_Cities_List/mm_hotsprings.png,../static/images/US_Cities_List/mm_westpalmbeach.png,../static/images/US_Cities_List/nat_racine.png,../static/images/US_Cities_List/mm_westpalmbeach.png,../static/images/US_Cities_List/mm_hotsprings.png,../static/images/US_Cities_List/nat_racine.png,0.5,closer,,,,,,,,,,,,,,,,,,
null,,html-keyboard-response,846692,<p></p>,,,,,null,,,,,,,,,,,,,,,,,,,,,,,,,,,,,,
2255.7999999970198,,directmemory_phase,848969,../static/images/US_Cities_List/nat_leesburg.png,,,,,49,,,0,0.4444444444444444,../static/images/US_Cities_List/nat_cornwall.png,../static/images/US_Cities_List/mm_hotsprings.png,../static/images/US_Cities_List/nat_gatlinburg.png,../static/images/US_Cities_List/mm_hotsprings.png,../static/images/US_Cities_List/nat_cornwall.png,../static/images/US_Cities_List/nat_gatlinburg.png,0.5,closer,,,,,,,,,,,,,,,,,,
null,,html-keyboard-response,849972,<p></p>,,,,,null,,,,,,,,,,,,,,,,,,,,,,,,,,,,,,
2077.300000011921,,directmemory_phase,852072,../static/images/US_Cities_List/nat_cornwall.png,,,,,49,,,1,0.47368421052631576,../static/images/US_Cities_List/nat_shreveport.png,../static/images/US_Cities_List/mm_hotsprings.png,../static/images/US_Cities_List/nat_leesburg.png,../static/images/US_Cities_List/nat_shreveport.png,../static/images/US_Cities_List/nat_leesburg.png,../static/images/US_Cities_List/mm_hotsprings.png,1,,,,,,,,,,,,,,,,,,,
null,,html-keyboard-response,853074,<p></p>,,,,,null,,,,,,,,,,,,,,,,,,,,,,,,,,,,,,
2233.3999999910593,,directmemory_phase,855330,../static/images/US_Cities_List/mm_hotsprings.png,,,,,49,,,0,0.45,../static/images/US_Cities_List/mm_westpalmbeach.png,../static/images/US_Cities_List/nat_leesburg.png,../static/images/US_Cities_List/mm_huntsville.png,../static/images/US_Cities_List/nat_leesburg.png,../static/images/US_Cities_List/mm_westpalmbeach.png,../static/images/US_Cities_List/mm_huntsville.png,0.5,closer,,,,,,,,,,,,,,,,,,
null,,html-keyboard-response,856332,<p></p>,,,,,null,,,,,,,,,,,,,,,,,,,,,,,,,,,,,,
2578.2999999970198,,directmemory_phase,858935,../static/images/US_Cities_List/nat_cornwall.png,,,,,49,,,1,0.47619047619047616,../static/images/US_Cities_List/mm_westpalmbeach.png,../static/images/US_Cities_List/nat_hanover.png,../static/images/US_Cities_List/mm_newhope.png,../static/images/US_Cities_List/mm_westpalmbeach.png,../static/images/US_Cities_List/mm_newhope.png,../static/images/US_Cities_List/nat_hanover.png,1,,,,,,,,,,,,,,,,,,,
null,,html-keyboard-response,859937,<p></p>,,,,,null,,,,,,,,,,,,,,,,,,,,,,,,,,,,,,
2595.1000000089407,,directmemory_phase,862552,../static/images/US_Cities_List/nat_peoria.png,,,,,49,,,0,0.45454545454545453,../static/images/US_Cities_List/nat_boulder.png,../static/images/US_Cities_List/nat_hanover.png,../static/images/US_Cities_List/mm_newhope.png,../static/images/US_Cities_List/nat_hanover.png,../static/images/US_Cities_List/nat_boulder.png,../static/images/US_Cities_List/mm_newhope.png,0.5,closer,,,,,,,,,,,,,,,,,,
null,,html-keyboard-response,863554,<p></p>,,,,,null,,,,,,,,,,,,,,,,,,,,,,,,,,,,,,
2074.7999999970198,,directmemory_phase,865653,../static/images/US_Cities_List/mm_westpalmbeach.png,,,,,49,,,0,0.43478260869565216,../static/images/US_Cities_List/nat_peoria.png,../static/images/US_Cities_List/nat_carmel.png,../static/images/US_Cities_List/nat_cornwall.png,../static/images/US_Cities_List/nat_cornwall.png,../static/images/US_Cities_List/nat_carmel.png,../static/images/US_Cities_List/nat_peoria.png,0.5,closer,,,,,,,,,,,,,,,,,,
null,,html-keyboard-response,866655,<p></p>,,,,,null,,,,,,,,,,,,,,,,,,,,,,,,,,,,,,
3867.9000000059605,,directmemory_phase,870539,../static/images/US_Cities_List/nat_racine.png,,,,,51,,,0,0.4166666666666667,../static/images/US_Cities_List/mm_hotsprings.png,../static/images/US_Cities_List/nat_leesburg.png,../static/images/US_Cities_List/mm_huntsville.png,../static/images/US_Cities_List/nat_leesburg.png,../static/images/US_Cities_List/mm_hotsprings.png,../static/images/US_Cities_List/mm_huntsville.png,0.5,closer,,,,,,,,,,,,,,,,,,
