rt,responses,trial_type,time_elapsed,stimulus,cities,city_images,button_pressed,response,key_press,stimulus_left,stimulus_right,accuracy,cumulative_accuracy,stimulus_down_left,stimulus_down_mid,stimulus_down_right,stimulus_correct,stimulus_short,stimulus_far,weighted_accuracy,missedtrial,condition,specific_pairs,imgL_ID,imgR_ID,linedress,linedressed,image_position,unknowncity,testedstates,currentstate,otherstate,problems,smooth,distraction,strategies,easier,similar,comments
24223.1,{worker_id:6657584ca6e3645f4a99e753},id_enter,24228,intro,Racine; Carmel; Huntsville; Leesburg; Cornwall; West Palm Beach; Boulder; Hanover; Hot Springs; New Hope; Shreveport; Peoria; Gatlinburg,US_Cities_List/nat_racine.png; US_Cities_List/mm_carmel.png; US_Cities_List/nat_huntsville.png; US_Cities_List/nat_leesburg.png; US_Cities_List/nat_cornwall.png; US_Cities_List/nat_westpalmbeach.png; US_Cities_List/mm_boulder.png; US_Cities_List/nat_hanover.png; US_Cities_List/mm_hotsprings.png; US_Cities_List/mm_newhope.png; US_Cities_List/nat_shreveport.png; US_Cities_List/mm_peoria.png; US_Cities_List/mm_gatlinburg.png,,,,,,,,,,,,,,,,,,,,,,,,,,,,,,,,,
23789.8,,fullscreen,48035,make_fullscreen,,,0,,,,,,,,,,,,,,,,,,,,,,,,,,,,,,,,
61507.4,,intro_1,109562,instruct,,,0,,,,,,,,,,,,,,,,,,,,,,,,,,,,,,,,
31654,,intro_2,141229,instruct,,,1,Next,,,,,,,,,,,,,,,,,,,,,,,,,,,,,,,
36559.2,,intro_3,177791,instruct,,,1,Next,,,,,,,,,,,,,,,,,,,,,,,,,,,,,,,
64403.1,,intro_4,242197,instruct,,,1,Next,,,,,,,,,,,,,,,,,,,,,,,,,,,,,,,
22134.7,,intro_5,264336,instruct,,,1,Next,,,,,,,,,,,,,,,,,,,,,,,,,,,,,,,
86181.5,,intro_6,350520,instruct,,,1,Next,,,,,,,,,,,,,,,,,,,,,,,,,,,,,,,
null,,prac_atten_color_black,351394,black_plus_sign,,,,,null,,,,,,,,,,,,,,,,,,,,,,,,,,,,,,
null,,prac_atten_color,351934,prac_stop_color,,,,,null,,,,,,,,,,,,,,,,,,,,,,,,,,,,,,
null,,prac_atten_color_black,353937,black_plus_sign,,,,,null,,,,,,,,,,,,,,,,,,,,,,,,,,,,,,
11851.7,,attentioncheck_help,365792,instruct,,,,,32,,,,,,,,,,,,,,,,,,,,,,,,,,,,,,
null,,prac_atten_color_black,366666,black_plus_sign,,,,,null,,,,,,,,,,,,,,,,,,,,,,,,,,,,,,
607.5,,prac_atten_color,367465,prac_stop_color,,,,,50,,,,,,,,,,,,,,,,,,,,,,,,,,,,,,
null,,prac_atten_color_black,369468,black_plus_sign,,,,,null,,,,,,,,,,,,,,,,,,,,,,,,,,,,,,
null,,prac_atten_color_black,370081,black_plus_sign,,,,,null,,,,,,,,,,,,,,,,,,,,,,,,,,,,,,
616.3,,prac_atten_color,371170,prac_stop_color,,,,,50,,,,,,,,,,,,,,,,,,,,,,,,,,,,,,
null,,prac_atten_color_black,373172,black_plus_sign,,,,,null,,,,,,,,,,,,,,,,,,,,,,,,,,,,,,
null,,prac_atten_color_black,373489,black_plus_sign,,,,,null,,,,,,,,,,,,,,,,,,,,,,,,,,,,,,
570.4,,prac_atten_color,374498,prac_stop_color,,,,,49,,,,,,,,,,,,,,,,,,,,,,,,,,,,,,
null,,prac_atten_color_black,376508,black_plus_sign,,,,,null,,,,,,,,,,,,,,,,,,,,,,,,,,,,,,
null,,prac_atten_color_black,376916,black_plus_sign,,,,,null,,,,,,,,,,,,,,,,,,,,,,,,,,,,,,
594.5,,prac_atten_color,377661,prac_stop_color,,,,,50,,,,,,,,,,,,,,,,,,,,,,,,,,,,,,
null,,prac_atten_color_black,379667,black_plus_sign,,,,,null,,,,,,,,,,,,,,,,,,,,,,,,,,,,,,
null,,prac_atten_color_black,380331,black_plus_sign,,,,,null,,,,,,,,,,,,,,,,,,,,,,,,,,,,,,
679.9,,prac_atten_color,381090,prac_stop_color,,,,,50,,,,,,,,,,,,,,,,,,,,,,,,,,,,,,
null,,prac_atten_color_black,383092,black_plus_sign,,,,,null,,,,,,,,,,,,,,,,,,,,,,,,,,,,,,
null,,prac_atten_color_black,383745,black_plus_sign,,,,,null,,,,,,,,,,,,,,,,,,,,,,,,,,,,,,
null,,prac_atten_color,384230,prac_stop_color,,,,,null,,,,,,,,,,,,,,,,,,,,,,,,,,,,,,
146.2,,prac_atten_color_black,386240,black_plus_sign,,,,,49,,,,,,,,,,,,,,,,,,,,,,,,,,,,,,
null,,prac_atten_color_black,387169,black_plus_sign,,,,,null,,,,,,,,,,,,,,,,,,,,,,,,,,,,,,
510.5,,prac_atten_color,387855,prac_stop_color,,,,,50,,,,,,,,,,,,,,,,,,,,,,,,,,,,,,
null,,prac_atten_color_black,389857,black_plus_sign,,,,,null,,,,,,,,,,,,,,,,,,,,,,,,,,,,,,
null,,prac_atten_color_black,390583,black_plus_sign,,,,,null,,,,,,,,,,,,,,,,,,,,,,,,,,,,,,
687.8,,prac_atten_color,391377,prac_stop_color,,,,,49,,,,,,,,,,,,,,,,,,,,,,,,,,,,,,
null,,prac_atten_color_black,393385,black_plus_sign,,,,,null,,,,,,,,,,,,,,,,,,,,,,,,,,,,,,
null,,prac_atten_color_black,394011,black_plus_sign,,,,,null,,,,,,,,,,,,,,,,,,,,,,,,,,,,,,
571.1999999,,prac_atten_color,394965,prac_stop_color,,,,,49,,,,,,,,,,,,,,,,,,,,,,,,,,,,,,
null,,prac_atten_color_black,396968,black_plus_sign,,,,,null,,,,,,,,,,,,,,,,,,,,,,,,,,,,,,
13860.6,,attentioncheck_feedback,410833,cross_check_feedback,,,0,,,,,,,,,,,,,,,,,,,,,,,,,,,,,,,,
18194.2,,last_instruct,429028,instruct,,,,,32,,,,,,,,,,,,,,,,,,,,,,,,,,,,,,
null,,learn_phase(without_color),431078,black_plus_sign,,,,,null,US_Cities_List/nat_leesburg.png,US_Cities_List/mm_peoria.png,,,,,,,,,,,,,,,,,,,,,,,,,,,,
null,,black_cross(without_color),431615,blue,,,,,null,US_Cities_List/nat_leesburg.png,US_Cities_List/mm_peoria.png,,,,,,,,,,,,,,,,,,,,,,,,,,,,
null,,rt_plussign_withcolor,432122,blue,,,,,null,US_Cities_List/nat_leesburg.png,US_Cities_List/mm_peoria.png,,,,,,,,,,,,,,,,,,,,,,,,,,,,
1052.7,,rt_thecrossant_black,433599,black_plus_sign,,,,,49,,,1,1,,,,,,,,,,,,,,,,,,,,,,,,,,
null,,color_black,433707,black_plus_sign,,,,,null,,,,,,,,,,,,,,,,,,,,,,,,,,,,,,
null,,learn_phase(without_color),436251,black_plus_sign,,,,,null,US_Cities_List/mm_hotsprings.png,US_Cities_List/nat_shreveport.png,,,,,,,,,,,,,,,,,,,,,,,,,,,,
null,,black_cross(without_color),437148,blue,,,,,null,US_Cities_List/mm_hotsprings.png,US_Cities_List/nat_shreveport.png,,,,,,,,,,,,,,,,,,,,,,,,,,,,
490.8,,rt_plussign_withcolor,437651,blue,,,,,49,US_Cities_List/mm_hotsprings.png,US_Cities_List/nat_shreveport.png,,,,,,,,,,,,,,,,,,,,,,,,,,,,
null,,rt_thecrossant_black,438766,black_plus_sign,,,,,null,,,1,1,,,,,,,,,,,,,,,,,,,,,,,,,,
null,,color_black,438875,black_plus_sign,,,,,null,,,,,,,,,,,,,,,,,,,,,,,,,,,,,,
null,,learn_phase(without_color),441406,black_plus_sign,,,,,null,US_Cities_List/nat_westpalmbeach.png,US_Cities_List/mm_boulder.png,,,,,,,,,,,,,,,,,,,,,,,,,,,,
null,,black_cross(without_color),441821,blue,,,,,null,US_Cities_List/nat_westpalmbeach.png,US_Cities_List/mm_boulder.png,,,,,,,,,,,,,,,,,,,,,,,,,,,,
null,,rt_plussign_withcolor,442329,blue,,,,,null,US_Cities_List/nat_westpalmbeach.png,US_Cities_List/mm_boulder.png,,,,,,,,,,,,,,,,,,,,,,,,,,,,
1061.7,,rt_thecrossant_black,443925,black_plus_sign,,,,,49,,,1,1,,,,,,,,,,,,,,,,,,,,,,,,,,
null,,color_black,444033,black_plus_sign,,,,,null,,,,,,,,,,,,,,,,,,,,,,,,,,,,,,
null,,learn_phase(without_color),446590,black_plus_sign,,,,,null,US_Cities_List/nat_huntsville.png,US_Cities_List/nat_westpalmbeach.png,,,,,,,,,,,,,,,,,,,,,,,,,,,,
null,,black_cross(without_color),447688,green,,,,,null,US_Cities_List/nat_huntsville.png,US_Cities_List/nat_westpalmbeach.png,,,,,,,,,,,,,,,,,,,,,,,,,,,,
null,,rt_plussign_withcolor,448193,green,,,,,null,US_Cities_List/nat_huntsville.png,US_Cities_List/nat_westpalmbeach.png,,,,,,,,,,,,,,,,,,,,,,,,,,,,
714.0999999,,rt_thecrossant_black,449105,black_plus_sign,,,,,50,,,1,1,,,,,,,,,,,,,,,,,,,,,,,,,,
null,,color_black,449213,black_plus_sign,,,,,null,,,,,,,,,,,,,,,,,,,,,,,,,,,,,,
null,,learn_phase(without_color),451777,black_plus_sign,,,,,null,US_Cities_List/mm_boulder.png,US_Cities_List/mm_hotsprings.png,,,,,,,,,,,,,,,,,,,,,,,,,,,,
null,,black_cross(without_color),452711,green,,,,,null,US_Cities_List/mm_boulder.png,US_Cities_List/mm_hotsprings.png,,,,,,,,,,,,,,,,,,,,,,,,,,,,
null,,rt_plussign_withcolor,453214,green,,,,,null,US_Cities_List/mm_boulder.png,US_Cities_List/mm_hotsprings.png,,,,,,,,,,,,,,,,,,,,,,,,,,,,
1453.3,,rt_thecrossant_black,454292,black_plus_sign,,,,,49,,,0,0.8,,,,,,,,,,,,,,,,,,,,,,,,,,
null,,color_black,454397,black_plus_sign,,,,,null,,,,,,,,,,,,,,,,,,,,,,,,,,,,,,
null,,learn_phase(without_color),456926,black_plus_sign,,,,,null,US_Cities_List/mm_carmel.png,US_Cities_List/nat_leesburg.png,,,,,,,,,,,,,,,,,,,,,,,,,,,,
null,,black_cross(without_color),457413,green,,,,,null,US_Cities_List/mm_carmel.png,US_Cities_List/nat_leesburg.png,,,,,,,,,,,,,,,,,,,,,,,,,,,,
434.6999999,,rt_plussign_withcolor,457916,green,,,,,50,US_Cities_List/mm_carmel.png,US_Cities_List/nat_leesburg.png,,,,,,,,,,,,,,,,,,,,,,,,,,,,
null,,rt_thecrossant_black,459441,black_plus_sign,,,,,null,,,1,0.833333333,,,,,,,,,,,,,,,,,,,,,,,,,,
null,,color_black,459550,black_plus_sign,,,,,null,,,,,,,,,,,,,,,,,,,,,,,,,,,,,,
null,,learn_phase(without_color),462098,black_plus_sign,,,,,null,US_Cities_List/mm_boulder.png,US_Cities_List/mm_gatlinburg.png,,,,,,,,,,,,,,,,,,,,,,,,,,,,
null,,black_cross(without_color),462696,blue,,,,,null,US_Cities_List/mm_boulder.png,US_Cities_List/mm_gatlinburg.png,,,,,,,,,,,,,,,,,,,,,,,,,,,,
null,,rt_plussign_withcolor,463199,blue,,,,,null,US_Cities_List/mm_boulder.png,US_Cities_List/mm_gatlinburg.png,,,,,,,,,,,,,,,,,,,,,,,,,,,,
611.8000001,,rt_thecrossant_black,464614,black_plus_sign,,,,,49,,,1,0.857142857,,,,,,,,,,,,,,,,,,,,,,,,,,
null,,color_black,464724,black_plus_sign,,,,,null,,,,,,,,,,,,,,,,,,,,,,,,,,,,,,
null,,learn_phase(without_color),467276,black_plus_sign,,,,,null,US_Cities_List/mm_carmel.png,US_Cities_List/nat_huntsville.png,,,,,,,,,,,,,,,,,,,,,,,,,,,,
null,,black_cross(without_color),468146,blue,,,,,null,US_Cities_List/mm_carmel.png,US_Cities_List/nat_huntsville.png,,,,,,,,,,,,,,,,,,,,,,,,,,,,
471.1,,rt_plussign_withcolor,468653,blue,,,,,49,US_Cities_List/mm_carmel.png,US_Cities_List/nat_huntsville.png,,,,,,,,,,,,,,,,,,,,,,,,,,,,
null,,rt_thecrossant_black,469788,black_plus_sign,,,,,null,,,1,0.875,,,,,,,,,,,,,,,,,,,,,,,,,,
null,,color_black,469896,black_plus_sign,,,,,null,,,,,,,,,,,,,,,,,,,,,,,,,,,,,,
null,,learn_phase(without_color),472457,black_plus_sign,,,,,null,US_Cities_List/nat_leesburg.png,US_Cities_List/mm_peoria.png,,,,,,,,,,,,,,,,,,,,,,,,,,,,
null,,black_cross(without_color),473542,green,,,,,null,US_Cities_List/nat_leesburg.png,US_Cities_List/mm_peoria.png,,,,,,,,,,,,,,,,,,,,,,,,,,,,
425,,rt_plussign_withcolor,474047,green,,,,,50,US_Cities_List/nat_leesburg.png,US_Cities_List/mm_peoria.png,,,,,,,,,,,,,,,,,,,,,,,,,,,,
null,,rt_thecrossant_black,474977,black_plus_sign,,,,,null,,,1,0.888888889,,,,,,,,,,,,,,,,,,,,,,,,,,
null,,color_black,475086,black_plus_sign,,,,,null,,,,,,,,,,,,,,,,,,,,,,,,,,,,,,
null,,learn_phase(without_color),477640,black_plus_sign,,,,,null,US_Cities_List/nat_hanover.png,US_Cities_List/mm_hotsprings.png,,,,,,,,,,,,,,,,,,,,,,,,,,,,
null,,black_cross(without_color),478621,green,,,,,null,US_Cities_List/nat_hanover.png,US_Cities_List/mm_hotsprings.png,,,,,,,,,,,,,,,,,,,,,,,,,,,,
null,,rt_plussign_withcolor,479126,green,,,,,null,US_Cities_List/nat_hanover.png,US_Cities_List/mm_hotsprings.png,,,,,,,,,,,,,,,,,,,,,,,,,,,,
1387.6,,rt_thecrossant_black,480159,black_plus_sign,,,,,49,,,0,0.8,,,,,,,,,,,,,,,,,,,,,,,,,,
null,,color_black,480267,black_plus_sign,,,,,null,,,,,,,,,,,,,,,,,,,,,,,,,,,,,,
null,,learn_phase(without_color),482825,black_plus_sign,,,,,null,US_Cities_List/mm_hotsprings.png,US_Cities_List/nat_shreveport.png,,,,,,,,,,,,,,,,,,,,,,,,,,,,
null,,black_cross(without_color),483887,blue,,,,,null,US_Cities_List/mm_hotsprings.png,US_Cities_List/nat_shreveport.png,,,,,,,,,,,,,,,,,,,,,,,,,,,,
null,,rt_plussign_withcolor,484391,blue,,,,,null,US_Cities_List/mm_hotsprings.png,US_Cities_List/nat_shreveport.png,,,,,,,,,,,,,,,,,,,,,,,,,,,,
1211,,rt_thecrossant_black,485347,black_plus_sign,,,,,49,,,1,0.818181818,,,,,,,,,,,,,,,,,,,,,,,,,,
null,,color_black,485450,black_plus_sign,,,,,null,,,,,,,,,,,,,,,,,,,,,,,,,,,,,,
null,,learn_phase(without_color),488003,black_plus_sign,,,,,null,US_Cities_List/nat_leesburg.png,US_Cities_List/mm_peoria.png,,,,,,,,,,,,,,,,,,,,,,,,,,,,
null,,black_cross(without_color),489004,green,,,,,null,US_Cities_List/nat_leesburg.png,US_Cities_List/mm_peoria.png,,,,,,,,,,,,,,,,,,,,,,,,,,,,
null,,rt_plussign_withcolor,489506,green,,,,,null,US_Cities_List/nat_leesburg.png,US_Cities_List/mm_peoria.png,,,,,,,,,,,,,,,,,,,,,,,,,,,,
1158.1,,rt_thecrossant_black,490517,black_plus_sign,,,,,50,,,1,0.833333333,,,,,,,,,,,,,,,,,,,,,,,,,,
null,,color_black,490625,black_plus_sign,,,,,null,,,,,,,,,,,,,,,,,,,,,,,,,,,,,,
null,,learn_phase(without_color),493158,black_plus_sign,,,,,null,US_Cities_List/mm_carmel.png,US_Cities_List/nat_huntsville.png,,,,,,,,,,,,,,,,,,,,,,,,,,,,
null,,black_cross(without_color),493640,green,,,,,null,US_Cities_List/mm_carmel.png,US_Cities_List/nat_huntsville.png,,,,,,,,,,,,,,,,,,,,,,,,,,,,
null,,rt_plussign_withcolor,494143,green,,,,,null,US_Cities_List/mm_carmel.png,US_Cities_List/nat_huntsville.png,,,,,,,,,,,,,,,,,,,,,,,,,,,,
1139.9,,rt_thecrossant_black,495671,black_plus_sign,,,,,50,,,1,0.846153846,,,,,,,,,,,,,,,,,,,,,,,,,,
null,,color_black,495779,black_plus_sign,,,,,null,,,,,,,,,,,,,,,,,,,,,,,,,,,,,,
null,,learn_phase(without_color),498332,black_plus_sign,,,,,null,US_Cities_List/nat_westpalmbeach.png,US_Cities_List/mm_hotsprings.png,,,,,,,,,,,,,,,,,,,,,,,,,,,,
null,,black_cross(without_color),499433,blue,,,,,null,US_Cities_List/nat_westpalmbeach.png,US_Cities_List/mm_hotsprings.png,,,,,,,,,,,,,,,,,,,,,,,,,,,,
null,,rt_plussign_withcolor,499935,blue,,,,,null,US_Cities_List/nat_westpalmbeach.png,US_Cities_List/mm_hotsprings.png,,,,,,,,,,,,,,,,,,,,,,,,,,,,
598.2,,rt_thecrossant_black,500847,black_plus_sign,,,,,49,,,1,0.857142857,,,,,,,,,,,,,,,,,,,,,,,,,,
null,,color_black,500957,black_plus_sign,,,,,null,,,,,,,,,,,,,,,,,,,,,,,,,,,,,,
null,,learn_phase(without_color),503509,black_plus_sign,,,,,null,US_Cities_List/nat_racine.png,US_Cities_List/mm_carmel.png,,,,,,,,,,,,,,,,,,,,,,,,,,,,
null,,black_cross(without_color),504173,green,,,,,null,US_Cities_List/nat_racine.png,US_Cities_List/mm_carmel.png,,,,,,,,,,,,,,,,,,,,,,,,,,,,
null,,rt_plussign_withcolor,504676,green,,,,,null,US_Cities_List/nat_racine.png,US_Cities_List/mm_carmel.png,,,,,,,,,,,,,,,,,,,,,,,,,,,,
1284.7,,rt_thecrossant_black,506030,black_plus_sign,,,,,50,,,1,0.866666667,,,,,,,,,,,,,,,,,,,,,,,,,,
null,,color_black,506139,black_plus_sign,,,,,null,,,,,,,,,,,,,,,,,,,,,,,,,,,,,,
null,,learn_phase(without_color),508695,black_plus_sign,,,,,null,US_Cities_List/nat_huntsville.png,US_Cities_List/nat_westpalmbeach.png,,,,,,,,,,,,,,,,,,,,,,,,,,,,
null,,black_cross(without_color),509762,blue,,,,,null,US_Cities_List/nat_huntsville.png,US_Cities_List/nat_westpalmbeach.png,,,,,,,,,,,,,,,,,,,,,,,,,,,,
null,,rt_plussign_withcolor,510265,blue,,,,,null,US_Cities_List/nat_huntsville.png,US_Cities_List/nat_westpalmbeach.png,,,,,,,,,,,,,,,,,,,,,,,,,,,,
772.4,,rt_thecrossant_black,511213,black_plus_sign,,,,,49,,,1,0.875,,,,,,,,,,,,,,,,,,,,,,,,,,
null,,color_black,511323,black_plus_sign,,,,,null,,,,,,,,,,,,,,,,,,,,,,,,,,,,,,
null,,learn_phase(without_color),513879,black_plus_sign,,,,,null,US_Cities_List/nat_westpalmbeach.png,US_Cities_List/mm_hotsprings.png,,,,,,,,,,,,,,,,,,,,,,,,,,,,
null,,black_cross(without_color),514813,blue,,,,,null,US_Cities_List/nat_westpalmbeach.png,US_Cities_List/mm_hotsprings.png,,,,,,,,,,,,,,,,,,,,,,,,,,,,
443.4000001,,rt_plussign_withcolor,515317,blue,,,,,49,US_Cities_List/nat_westpalmbeach.png,US_Cities_List/mm_hotsprings.png,,,,,,,,,,,,,,,,,,,,,,,,,,,,
null,,rt_thecrossant_black,516397,black_plus_sign,,,,,null,,,1,0.882352941,,,,,,,,,,,,,,,,,,,,,,,,,,
null,,color_black,516506,black_plus_sign,,,,,null,,,,,,,,,,,,,,,,,,,,,,,,,,,,,,
null,,learn_phase(without_color),519060,black_plus_sign,,,,,null,US_Cities_List/nat_huntsville.png,US_Cities_List/nat_shreveport.png,,,,,,,,,,,,,,,,,,,,,,,,,,,,
null,,black_cross(without_color),519599,blue,,,,,null,US_Cities_List/nat_huntsville.png,US_Cities_List/nat_shreveport.png,,,,,,,,,,,,,,,,,,,,,,,,,,,,
499.6,,rt_plussign_withcolor,520101,blue,,,,,49,US_Cities_List/nat_huntsville.png,US_Cities_List/nat_shreveport.png,,,,,,,,,,,,,,,,,,,,,,,,,,,,
null,,rt_thecrossant_black,521576,black_plus_sign,,,,,null,,,1,0.888888889,,,,,,,,,,,,,,,,,,,,,,,,,,
null,,color_black,521683,black_plus_sign,,,,,null,,,,,,,,,,,,,,,,,,,,,,,,,,,,,,
null,,learn_phase(without_color),524232,black_plus_sign,,,,,null,US_Cities_List/mm_boulder.png,US_Cities_List/mm_gatlinburg.png,,,,,,,,,,,,,,,,,,,,,,,,,,,,
null,,black_cross(without_color),525313,green,,,,,null,US_Cities_List/mm_boulder.png,US_Cities_List/mm_gatlinburg.png,,,,,,,,,,,,,,,,,,,,,,,,,,,,
null,,rt_plussign_withcolor,525816,green,,,,,null,US_Cities_List/mm_boulder.png,US_Cities_List/mm_gatlinburg.png,,,,,,,,,,,,,,,,,,,,,,,,,,,,
642.3,,rt_thecrossant_black,526749,black_plus_sign,,,,,50,,,1,0.894736842,,,,,,,,,,,,,,,,,,,,,,,,,,
null,,color_black,526857,black_plus_sign,,,,,null,,,,,,,,,,,,,,,,,,,,,,,,,,,,,,
null,,learn_phase(without_color),529403,black_plus_sign,,,,,null,US_Cities_List/nat_hanover.png,US_Cities_List/mm_hotsprings.png,,,,,,,,,,,,,,,,,,,,,,,,,,,,
null,,black_cross(without_color),529843,green,,,,,null,US_Cities_List/nat_hanover.png,US_Cities_List/mm_hotsprings.png,,,,,,,,,,,,,,,,,,,,,,,,,,,,
null,,rt_plussign_withcolor,530347,green,,,,,null,US_Cities_List/nat_hanover.png,US_Cities_List/mm_hotsprings.png,,,,,,,,,,,,,,,,,,,,,,,,,,,,
1391.5,,rt_thecrossant_black,531921,black_plus_sign,,,,,50,,,1,0.9,,,,,,,,,,,,,,,,,,,,,,,,,,
null,,color_black,532030,black_plus_sign,,,,,null,,,,,,,,,,,,,,,,,,,,,,,,,,,,,,
null,,learn_phase(without_color),534587,black_plus_sign,,,,,null,US_Cities_List/mm_boulder.png,US_Cities_List/nat_hanover.png,,,,,,,,,,,,,,,,,,,,,,,,,,,,
null,,black_cross(without_color),535300,green,,,,,null,US_Cities_List/mm_boulder.png,US_Cities_List/nat_hanover.png,,,,,,,,,,,,,,,,,,,,,,,,,,,,
null,,rt_plussign_withcolor,535803,green,,,,,null,US_Cities_List/mm_boulder.png,US_Cities_List/nat_hanover.png,,,,,,,,,,,,,,,,,,,,,,,,,,,,
536.4000001,,rt_thecrossant_black,537101,black_plus_sign,,,,,50,,,1,0.904761905,,,,,,,,,,,,,,,,,,,,,,,,,,
null,,color_black,537211,black_plus_sign,,,,,null,,,,,,,,,,,,,,,,,,,,,,,,,,,,,,
null,,learn_phase(without_color),539765,black_plus_sign,,,,,null,US_Cities_List/nat_westpalmbeach.png,US_Cities_List/mm_hotsprings.png,,,,,,,,,,,,,,,,,,,,,,,,,,,,
null,,black_cross(without_color),540824,green,,,,,null,US_Cities_List/nat_westpalmbeach.png,US_Cities_List/mm_hotsprings.png,,,,,,,,,,,,,,,,,,,,,,,,,,,,
505.2,,rt_plussign_withcolor,541332,green,,,,,50,US_Cities_List/nat_westpalmbeach.png,US_Cities_List/mm_hotsprings.png,,,,,,,,,,,,,,,,,,,,,,,,,,,,
null,,rt_thecrossant_black,542290,black_plus_sign,,,,,null,,,1,0.909090909,,,,,,,,,,,,,,,,,,,,,,,,,,
null,,color_black,542399,black_plus_sign,,,,,null,,,,,,,,,,,,,,,,,,,,,,,,,,,,,,
null,,learn_phase(without_color),544949,black_plus_sign,,,,,null,US_Cities_List/mm_boulder.png,US_Cities_List/mm_hotsprings.png,,,,,,,,,,,,,,,,,,,,,,,,,,,,
null,,black_cross(without_color),545541,green,,,,,null,US_Cities_List/mm_boulder.png,US_Cities_List/mm_hotsprings.png,,,,,,,,,,,,,,,,,,,,,,,,,,,,
null,,rt_plussign_withcolor,546045,green,,,,,null,US_Cities_List/mm_boulder.png,US_Cities_List/mm_hotsprings.png,,,,,,,,,,,,,,,,,,,,,,,,,,,,
1226,,rt_thecrossant_black,547462,black_plus_sign,,,,,50,,,1,0.913043478,,,,,,,,,,,,,,,,,,,,,,,,,,
null,,color_black,547568,black_plus_sign,,,,,null,,,,,,,,,,,,,,,,,,,,,,,,,,,,,,
null,,learn_phase(without_color),550098,black_plus_sign,,,,,null,US_Cities_List/mm_boulder.png,US_Cities_List/nat_hanover.png,,,,,,,,,,,,,,,,,,,,,,,,,,,,
null,,black_cross(without_color),550927,green,,,,,null,US_Cities_List/mm_boulder.png,US_Cities_List/nat_hanover.png,,,,,,,,,,,,,,,,,,,,,,,,,,,,
469,,rt_plussign_withcolor,551429,green,,,,,50,US_Cities_List/mm_boulder.png,US_Cities_List/nat_hanover.png,,,,,,,,,,,,,,,,,,,,,,,,,,,,
null,,rt_thecrossant_black,552609,black_plus_sign,,,,,null,,,1,0.916666667,,,,,,,,,,,,,,,,,,,,,,,,,,
null,,color_black,552712,black_plus_sign,,,,,null,,,,,,,,,,,,,,,,,,,,,,,,,,,,,,
null,,learn_phase(without_color),555270,black_plus_sign,,,,,null,US_Cities_List/nat_westpalmbeach.png,US_Cities_List/mm_hotsprings.png,,,,,,,,,,,,,,,,,,,,,,,,,,,,
null,,black_cross(without_color),556081,green,,,,,null,US_Cities_List/nat_westpalmbeach.png,US_Cities_List/mm_hotsprings.png,,,,,,,,,,,,,,,,,,,,,,,,,,,,
null,,rt_plussign_withcolor,556586,green,,,,,null,US_Cities_List/nat_westpalmbeach.png,US_Cities_List/mm_hotsprings.png,,,,,,,,,,,,,,,,,,,,,,,,,,,,
957.7,,rt_thecrossant_black,557789,black_plus_sign,,,,,50,,,1,0.92,,,,,,,,,,,,,,,,,,,,,,,,,,
null,,color_black,557893,black_plus_sign,,,,,null,,,,,,,,,,,,,,,,,,,,,,,,,,,,,,
null,,learn_phase(without_color),560456,black_plus_sign,,,,,null,US_Cities_List/mm_hotsprings.png,US_Cities_List/nat_shreveport.png,,,,,,,,,,,,,,,,,,,,,,,,,,,,
null,,black_cross(without_color),561117,blue,,,,,null,US_Cities_List/mm_hotsprings.png,US_Cities_List/nat_shreveport.png,,,,,,,,,,,,,,,,,,,,,,,,,,,,
null,,rt_plussign_withcolor,561623,blue,,,,,null,US_Cities_List/mm_hotsprings.png,US_Cities_List/nat_shreveport.png,,,,,,,,,,,,,,,,,,,,,,,,,,,,
1036.8,,rt_thecrossant_black,562969,black_plus_sign,,,,,49,,,1,0.923076923,,,,,,,,,,,,,,,,,,,,,,,,,,
null,,color_black,563075,black_plus_sign,,,,,null,,,,,,,,,,,,,,,,,,,,,,,,,,,,,,
null,,learn_phase(without_color),565629,black_plus_sign,,,,,null,US_Cities_List/mm_boulder.png,US_Cities_List/nat_hanover.png,,,,,,,,,,,,,,,,,,,,,,,,,,,,
null,,black_cross(without_color),566265,green,,,,,null,US_Cities_List/mm_boulder.png,US_Cities_List/nat_hanover.png,,,,,,,,,,,,,,,,,,,,,,,,,,,,
null,,rt_plussign_withcolor,566769,green,,,,,null,US_Cities_List/mm_boulder.png,US_Cities_List/nat_hanover.png,,,,,,,,,,,,,,,,,,,,,,,,,,,,
774,,rt_thecrossant_black,568141,black_plus_sign,,,,,50,,,1,0.925925926,,,,,,,,,,,,,,,,,,,,,,,,,,
null,,color_black,568250,black_plus_sign,,,,,null,,,,,,,,,,,,,,,,,,,,,,,,,,,,,,
null,,learn_phase(without_color),570795,black_plus_sign,,,,,null,US_Cities_List/mm_carmel.png,US_Cities_List/nat_leesburg.png,,,,,,,,,,,,,,,,,,,,,,,,,,,,
null,,black_cross(without_color),571824,blue,,,,,null,US_Cities_List/mm_carmel.png,US_Cities_List/nat_leesburg.png,,,,,,,,,,,,,,,,,,,,,,,,,,,,
null,,rt_plussign_withcolor,572328,blue,,,,,null,US_Cities_List/mm_carmel.png,US_Cities_List/nat_leesburg.png,,,,,,,,,,,,,,,,,,,,,,,,,,,,
null,,rt_thecrossant_black,573310,black_plus_sign,,,,,null,,,,0.925925926,,,,,,,,,,,,,,,,,,,,,,,,,,
null,,color_black,573419,black_plus_sign,,,,,null,,,,,,,,,,,,,,,,,,,,,,,,,,,,,,
null,,learn_phase(without_color),575978,black_plus_sign,,,,,null,US_Cities_List/mm_carmel.png,US_Cities_List/nat_huntsville.png,,,,,,,,,,,,,,,,,,,,,,,,,,,,
null,,black_cross(without_color),576755,blue,,,,,null,US_Cities_List/mm_carmel.png,US_Cities_List/nat_huntsville.png,,,,,,,,,,,,,,,,,,,,,,,,,,,,
null,,rt_plussign_withcolor,577262,blue,,,,,null,US_Cities_List/mm_carmel.png,US_Cities_List/nat_huntsville.png,,,,,,,,,,,,,,,,,,,,,,,,,,,,
1186,,rt_thecrossant_black,578505,black_plus_sign,,,,,49,,,1,0.928571429,,,,,,,,,,,,,,,,,,,,,,,,,,
null,,color_black,578614,black_plus_sign,,,,,null,,,,,,,,,,,,,,,,,,,,,,,,,,,,,,
null,,learn_phase(without_color),581161,black_plus_sign,,,,,null,US_Cities_List/nat_leesburg.png,US_Cities_List/nat_cornwall.png,,,,,,,,,,,,,,,,,,,,,,,,,,,,
null,,black_cross(without_color),581649,blue,,,,,null,US_Cities_List/nat_leesburg.png,US_Cities_List/nat_cornwall.png,,,,,,,,,,,,,,,,,,,,,,,,,,,,
null,,rt_plussign_withcolor,582151,blue,,,,,null,US_Cities_List/nat_leesburg.png,US_Cities_List/nat_cornwall.png,,,,,,,,,,,,,,,,,,,,,,,,,,,,
1138.6,,rt_thecrossant_black,583675,black_plus_sign,,,,,49,,,1,0.931034483,,,,,,,,,,,,,,,,,,,,,,,,,,
null,,color_black,583784,black_plus_sign,,,,,null,,,,,,,,,,,,,,,,,,,,,,,,,,,,,,
null,,learn_phase(without_color),586335,black_plus_sign,,,,,null,US_Cities_List/nat_westpalmbeach.png,US_Cities_List/mm_boulder.png,,,,,,,,,,,,,,,,,,,,,,,,,,,,
null,,black_cross(without_color),587019,blue,,,,,null,US_Cities_List/nat_westpalmbeach.png,US_Cities_List/mm_boulder.png,,,,,,,,,,,,,,,,,,,,,,,,,,,,
null,,rt_plussign_withcolor,587526,blue,,,,,null,US_Cities_List/nat_westpalmbeach.png,US_Cities_List/mm_boulder.png,,,,,,,,,,,,,,,,,,,,,,,,,,,,
728.6999999,,rt_thecrossant_black,588850,black_plus_sign,,,,,49,,,1,0.933333333,,,,,,,,,,,,,,,,,,,,,,,,,,
null,,color_black,588960,black_plus_sign,,,,,null,,,,,,,,,,,,,,,,,,,,,,,,,,,,,,
null,,learn_phase(without_color),591511,black_plus_sign,,,,,null,US_Cities_List/mm_carmel.png,US_Cities_List/nat_leesburg.png,,,,,,,,,,,,,,,,,,,,,,,,,,,,
null,,black_cross(without_color),592387,blue,,,,,null,US_Cities_List/mm_carmel.png,US_Cities_List/nat_leesburg.png,,,,,,,,,,,,,,,,,,,,,,,,,,,,
null,,rt_plussign_withcolor,592891,blue,,,,,null,US_Cities_List/mm_carmel.png,US_Cities_List/nat_leesburg.png,,,,,,,,,,,,,,,,,,,,,,,,,,,,
795.9,,rt_thecrossant_black,594022,black_plus_sign,,,,,49,,,1,0.935483871,,,,,,,,,,,,,,,,,,,,,,,,,,
null,,color_black,594131,black_plus_sign,,,,,null,,,,,,,,,,,,,,,,,,,,,,,,,,,,,,
null,,learn_phase(without_color),596677,black_plus_sign,,,,,null,US_Cities_List/nat_leesburg.png,US_Cities_List/mm_peoria.png,,,,,,,,,,,,,,,,,,,,,,,,,,,,
null,,black_cross(without_color),597731,blue,,,,,null,US_Cities_List/nat_leesburg.png,US_Cities_List/mm_peoria.png,,,,,,,,,,,,,,,,,,,,,,,,,,,,
498.3,,rt_plussign_withcolor,598233,blue,,,,,49,US_Cities_List/nat_leesburg.png,US_Cities_List/mm_peoria.png,,,,,,,,,,,,,,,,,,,,,,,,,,,,
null,,rt_thecrossant_black,599186,black_plus_sign,,,,,null,,,1,0.9375,,,,,,,,,,,,,,,,,,,,,,,,,,
null,,color_black,599295,black_plus_sign,,,,,null,,,,,,,,,,,,,,,,,,,,,,,,,,,,,,
null,,learn_phase(without_color),601853,black_plus_sign,,,,,null,US_Cities_List/mm_carmel.png,US_Cities_List/nat_huntsville.png,,,,,,,,,,,,,,,,,,,,,,,,,,,,
null,,black_cross(without_color),602664,blue,,,,,null,US_Cities_List/mm_carmel.png,US_Cities_List/nat_huntsville.png,,,,,,,,,,,,,,,,,,,,,,,,,,,,
481.5,,rt_plussign_withcolor,603169,blue,,,,,49,US_Cities_List/mm_carmel.png,US_Cities_List/nat_huntsville.png,,,,,,,,,,,,,,,,,,,,,,,,,,,,
null,,rt_thecrossant_black,604372,black_plus_sign,,,,,null,,,1,0.939393939,,,,,,,,,,,,,,,,,,,,,,,,,,
null,,color_black,604477,black_plus_sign,,,,,null,,,,,,,,,,,,,,,,,,,,,,,,,,,,,,
null,,learn_phase(without_color),607026,black_plus_sign,,,,,null,US_Cities_List/nat_westpalmbeach.png,US_Cities_List/mm_boulder.png,,,,,,,,,,,,,,,,,,,,,,,,,,,,
null,,black_cross(without_color),607994,green,,,,,null,US_Cities_List/nat_westpalmbeach.png,US_Cities_List/mm_boulder.png,,,,,,,,,,,,,,,,,,,,,,,,,,,,
null,,rt_plussign_withcolor,608499,green,,,,,null,US_Cities_List/nat_westpalmbeach.png,US_Cities_List/mm_boulder.png,,,,,,,,,,,,,,,,,,,,,,,,,,,,
null,,rt_thecrossant_black,609542,black_plus_sign,,,,,null,,,,0.939393939,,,,,,,,,,,,,,,,,,,,,,,,,,
null,,color_black,609650,black_plus_sign,,,,,null,,,,,,,,,,,,,,,,,,,,,,,,,,,,,,
null,,learn_phase(without_color),612186,black_plus_sign,,,,,null,US_Cities_List/mm_boulder.png,US_Cities_List/mm_hotsprings.png,,,,,,,,,,,,,,,,,,,,,,,,,,,,
null,,black_cross(without_color),613016,blue,,,,,null,US_Cities_List/mm_boulder.png,US_Cities_List/mm_hotsprings.png,,,,,,,,,,,,,,,,,,,,,,,,,,,,
null,,rt_plussign_withcolor,613526,blue,,,,,null,US_Cities_List/mm_boulder.png,US_Cities_List/mm_hotsprings.png,,,,,,,,,,,,,,,,,,,,,,,,,,,,
1103.2,,rt_thecrossant_black,614706,black_plus_sign,,,,,49,,,1,0.941176471,,,,,,,,,,,,,,,,,,,,,,,,,,
null,,color_black,614816,black_plus_sign,,,,,null,,,,,,,,,,,,,,,,,,,,,,,,,,,,,,
null,,learn_phase(without_color),617367,black_plus_sign,,,,,null,US_Cities_List/nat_westpalmbeach.png,US_Cities_List/mm_hotsprings.png,,,,,,,,,,,,,,,,,,,,,,,,,,,,
null,,black_cross(without_color),618180,blue,,,,,null,US_Cities_List/nat_westpalmbeach.png,US_Cities_List/mm_hotsprings.png,,,,,,,,,,,,,,,,,,,,,,,,,,,,
null,,rt_plussign_withcolor,618684,blue,,,,,null,US_Cities_List/nat_westpalmbeach.png,US_Cities_List/mm_hotsprings.png,,,,,,,,,,,,,,,,,,,,,,,,,,,,
1079.2,,rt_thecrossant_black,619887,black_plus_sign,,,,,49,,,1,0.942857143,,,,,,,,,,,,,,,,,,,,,,,,,,
null,,color_black,619996,black_plus_sign,,,,,null,,,,,,,,,,,,,,,,,,,,,,,,,,,,,,
null,,learn_phase(without_color),622549,black_plus_sign,,,,,null,US_Cities_List/nat_westpalmbeach.png,US_Cities_List/mm_boulder.png,,,,,,,,,,,,,,,,,,,,,,,,,,,,
null,,black_cross(without_color),623413,green,,,,,null,US_Cities_List/nat_westpalmbeach.png,US_Cities_List/mm_boulder.png,,,,,,,,,,,,,,,,,,,,,,,,,,,,
423.7,,rt_plussign_withcolor,623915,green,,,,,50,US_Cities_List/nat_westpalmbeach.png,US_Cities_List/mm_boulder.png,,,,,,,,,,,,,,,,,,,,,,,,,,,,
null,,rt_thecrossant_black,625070,black_plus_sign,,,,,null,,,1,0.944444444,,,,,,,,,,,,,,,,,,,,,,,,,,
null,,color_black,625179,black_plus_sign,,,,,null,,,,,,,,,,,,,,,,,,,,,,,,,,,,,,
null,,learn_phase(without_color),627731,black_plus_sign,,,,,null,US_Cities_List/nat_hanover.png,US_Cities_List/mm_newhope.png,,,,,,,,,,,,,,,,,,,,,,,,,,,,
null,,black_cross(without_color),628270,green,,,,,null,US_Cities_List/nat_hanover.png,US_Cities_List/mm_newhope.png,,,,,,,,,,,,,,,,,,,,,,,,,,,,
null,,rt_plussign_withcolor,628773,green,,,,,null,US_Cities_List/nat_hanover.png,US_Cities_List/mm_newhope.png,,,,,,,,,,,,,,,,,,,,,,,,,,,,
null,,rt_thecrossant_black,630246,black_plus_sign,,,,,null,,,,0.944444444,,,,,,,,,,,,,,,,,,,,,,,,,,
null,,color_black,630353,black_plus_sign,,,,,null,,,,,,,,,,,,,,,,,,,,,,,,,,,,,,
null,,learn_phase(without_color),632902,black_plus_sign,,,,,null,US_Cities_List/mm_carmel.png,US_Cities_List/nat_leesburg.png,,,,,,,,,,,,,,,,,,,,,,,,,,,,
null,,black_cross(without_color),633442,blue,,,,,null,US_Cities_List/mm_carmel.png,US_Cities_List/nat_leesburg.png,,,,,,,,,,,,,,,,,,,,,,,,,,,,
null,,rt_plussign_withcolor,633946,blue,,,,,null,US_Cities_List/mm_carmel.png,US_Cities_List/nat_leesburg.png,,,,,,,,,,,,,,,,,,,,,,,,,,,,
917.1999999,,rt_thecrossant_black,635426,black_plus_sign,,,,,49,,,1,0.945945946,,,,,,,,,,,,,,,,,,,,,,,,,,
null,,color_black,635533,black_plus_sign,,,,,null,,,,,,,,,,,,,,,,,,,,,,,,,,,,,,
null,,learn_phase(without_color),638079,black_plus_sign,,,,,null,US_Cities_List/nat_leesburg.png,US_Cities_List/nat_cornwall.png,,,,,,,,,,,,,,,,,,,,,,,,,,,,
null,,black_cross(without_color),638777,blue,,,,,null,US_Cities_List/nat_leesburg.png,US_Cities_List/nat_cornwall.png,,,,,,,,,,,,,,,,,,,,,,,,,,,,
null,,rt_plussign_withcolor,639284,blue,,,,,null,US_Cities_List/nat_leesburg.png,US_Cities_List/nat_cornwall.png,,,,,,,,,,,,,,,,,,,,,,,,,,,,
700.2,,rt_thecrossant_black,640593,black_plus_sign,,,,,49,,,1,0.947368421,,,,,,,,,,,,,,,,,,,,,,,,,,
null,,color_black,640702,black_plus_sign,,,,,null,,,,,,,,,,,,,,,,,,,,,,,,,,,,,,
null,,learn_phase(without_color),643247,black_plus_sign,,,,,null,US_Cities_List/nat_hanover.png,US_Cities_List/mm_newhope.png,,,,,,,,,,,,,,,,,,,,,,,,,,,,
null,,black_cross(without_color),644021,green,,,,,null,US_Cities_List/nat_hanover.png,US_Cities_List/mm_newhope.png,,,,,,,,,,,,,,,,,,,,,,,,,,,,
null,,rt_plussign_withcolor,644524,green,,,,,null,US_Cities_List/nat_hanover.png,US_Cities_List/mm_newhope.png,,,,,,,,,,,,,,,,,,,,,,,,,,,,
1045,,rt_thecrossant_black,645755,black_plus_sign,,,,,50,,,1,0.948717949,,,,,,,,,,,,,,,,,,,,,,,,,,
null,,color_black,645861,black_plus_sign,,,,,null,,,,,,,,,,,,,,,,,,,,,,,,,,,,,,
null,,learn_phase(without_color),648403,black_plus_sign,,,,,null,US_Cities_List/mm_boulder.png,US_Cities_List/nat_hanover.png,,,,,,,,,,,,,,,,,,,,,,,,,,,,
null,,black_cross(without_color),649080,green,,,,,null,US_Cities_List/mm_boulder.png,US_Cities_List/nat_hanover.png,,,,,,,,,,,,,,,,,,,,,,,,,,,,
null,,rt_plussign_withcolor,649582,green,,,,,null,US_Cities_List/mm_boulder.png,US_Cities_List/nat_hanover.png,,,,,,,,,,,,,,,,,,,,,,,,,,,,
1048.2,,rt_thecrossant_black,650921,black_plus_sign,,,,,50,,,1,0.95,,,,,,,,,,,,,,,,,,,,,,,,,,
null,,color_black,651029,black_plus_sign,,,,,null,,,,,,,,,,,,,,,,,,,,,,,,,,,,,,
null,,learn_phase(without_color),653579,black_plus_sign,,,,,null,US_Cities_List/nat_huntsville.png,US_Cities_List/nat_westpalmbeach.png,,,,,,,,,,,,,,,,,,,,,,,,,,,,
null,,black_cross(without_color),654332,green,,,,,null,US_Cities_List/nat_huntsville.png,US_Cities_List/nat_westpalmbeach.png,,,,,,,,,,,,,,,,,,,,,,,,,,,,
null,,rt_plussign_withcolor,654841,green,,,,,null,US_Cities_List/nat_huntsville.png,US_Cities_List/nat_westpalmbeach.png,,,,,,,,,,,,,,,,,,,,,,,,,,,,
797.5,,rt_thecrossant_black,656105,black_plus_sign,,,,,50,,,1,0.951219512,,,,,,,,,,,,,,,,,,,,,,,,,,
null,,color_black,656213,black_plus_sign,,,,,null,,,,,,,,,,,,,,,,,,,,,,,,,,,,,,
null,,learn_phase(without_color),658767,black_plus_sign,,,,,null,US_Cities_List/mm_carmel.png,US_Cities_List/nat_leesburg.png,,,,,,,,,,,,,,,,,,,,,,,,,,,,
null,,black_cross(without_color),659599,green,,,,,null,US_Cities_List/mm_carmel.png,US_Cities_List/nat_leesburg.png,,,,,,,,,,,,,,,,,,,,,,,,,,,,
457.7,,rt_plussign_withcolor,660102,green,,,,,50,US_Cities_List/mm_carmel.png,US_Cities_List/nat_leesburg.png,,,,,,,,,,,,,,,,,,,,,,,,,,,,
null,,rt_thecrossant_black,661288,black_plus_sign,,,,,null,,,1,0.952380952,,,,,,,,,,,,,,,,,,,,,,,,,,
null,,color_black,661395,black_plus_sign,,,,,null,,,,,,,,,,,,,,,,,,,,,,,,,,,,,,
null,,learn_phase(without_color),663949,black_plus_sign,,,,,null,US_Cities_List/nat_leesburg.png,US_Cities_List/nat_cornwall.png,,,,,,,,,,,,,,,,,,,,,,,,,,,,
null,,black_cross(without_color),664905,blue,,,,,null,US_Cities_List/nat_leesburg.png,US_Cities_List/nat_cornwall.png,,,,,,,,,,,,,,,,,,,,,,,,,,,,
460.6,,rt_plussign_withcolor,665413,blue,,,,,49,US_Cities_List/nat_leesburg.png,US_Cities_List/nat_cornwall.png,,,,,,,,,,,,,,,,,,,,,,,,,,,,
null,,rt_thecrossant_black,666475,black_plus_sign,,,,,null,,,1,0.953488372,,,,,,,,,,,,,,,,,,,,,,,,,,
null,,color_black,666585,black_plus_sign,,,,,null,,,,,,,,,,,,,,,,,,,,,,,,,,,,,,
null,,learn_phase(without_color),669138,black_plus_sign,,,,,null,US_Cities_List/nat_shreveport.png,US_Cities_List/mm_peoria.png,,,,,,,,,,,,,,,,,,,,,,,,,,,,
null,,black_cross(without_color),669775,blue,,,,,null,US_Cities_List/nat_shreveport.png,US_Cities_List/mm_peoria.png,,,,,,,,,,,,,,,,,,,,,,,,,,,,
null,,rt_plussign_withcolor,670281,blue,,,,,null,US_Cities_List/nat_shreveport.png,US_Cities_List/mm_peoria.png,,,,,,,,,,,,,,,,,,,,,,,,,,,,
1310.6,,rt_thecrossant_black,671654,black_plus_sign,,,,,49,,,1,0.954545455,,,,,,,,,,,,,,,,,,,,,,,,,,
null,,color_black,671764,black_plus_sign,,,,,null,,,,,,,,,,,,,,,,,,,,,,,,,,,,,,
null,,learn_phase(without_color),674317,black_plus_sign,,,,,null,US_Cities_List/nat_huntsville.png,US_Cities_List/nat_shreveport.png,,,,,,,,,,,,,,,,,,,,,,,,,,,,
null,,black_cross(without_color),675059,green,,,,,null,US_Cities_List/nat_huntsville.png,US_Cities_List/nat_shreveport.png,,,,,,,,,,,,,,,,,,,,,,,,,,,,
null,,rt_plussign_withcolor,675561,green,,,,,null,US_Cities_List/nat_huntsville.png,US_Cities_List/nat_shreveport.png,,,,,,,,,,,,,,,,,,,,,,,,,,,,
780.7,,rt_thecrossant_black,676832,black_plus_sign,,,,,50,,,1,0.955555556,,,,,,,,,,,,,,,,,,,,,,,,,,
null,,color_black,676938,black_plus_sign,,,,,null,,,,,,,,,,,,,,,,,,,,,,,,,,,,,,
null,,learn_phase(without_color),679492,black_plus_sign,,,,,null,US_Cities_List/nat_leesburg.png,US_Cities_List/mm_peoria.png,,,,,,,,,,,,,,,,,,,,,,,,,,,,
null,,black_cross(without_color),680165,green,,,,,null,US_Cities_List/nat_leesburg.png,US_Cities_List/mm_peoria.png,,,,,,,,,,,,,,,,,,,,,,,,,,,,
null,,rt_plussign_withcolor,680666,green,,,,,null,US_Cities_List/nat_leesburg.png,US_Cities_List/mm_peoria.png,,,,,,,,,,,,,,,,,,,,,,,,,,,,
898.6999999,,rt_thecrossant_black,682002,black_plus_sign,,,,,49,,,0,0.934782609,,,,,,,,,,,,,,,,,,,,,,,,,,
null,,color_black,682109,black_plus_sign,,,,,null,,,,,,,,,,,,,,,,,,,,,,,,,,,,,,
null,,learn_phase(without_color),684666,black_plus_sign,,,,,null,US_Cities_List/nat_racine.png,US_Cities_List/mm_carmel.png,,,,,,,,,,,,,,,,,,,,,,,,,,,,
null,,black_cross(without_color),685577,blue,,,,,null,US_Cities_List/nat_racine.png,US_Cities_List/mm_carmel.png,,,,,,,,,,,,,,,,,,,,,,,,,,,,
null,,rt_plussign_withcolor,686083,blue,,,,,null,US_Cities_List/nat_racine.png,US_Cities_List/mm_carmel.png,,,,,,,,,,,,,,,,,,,,,,,,,,,,
847.2,,rt_thecrossant_black,687183,black_plus_sign,,,,,49,,,1,0.936170213,,,,,,,,,,,,,,,,,,,,,,,,,,
null,,color_black,687293,black_plus_sign,,,,,null,,,,,,,,,,,,,,,,,,,,,,,,,,,,,,
null,,learn_phase(without_color),689851,black_plus_sign,,,,,null,US_Cities_List/mm_hotsprings.png,US_Cities_List/nat_shreveport.png,,,,,,,,,,,,,,,,,,,,,,,,,,,,
null,,black_cross(without_color),690768,blue,,,,,null,US_Cities_List/mm_hotsprings.png,US_Cities_List/nat_shreveport.png,,,,,,,,,,,,,,,,,,,,,,,,,,,,
null,,rt_plussign_withcolor,691277,blue,,,,,null,US_Cities_List/mm_hotsprings.png,US_Cities_List/nat_shreveport.png,,,,,,,,,,,,,,,,,,,,,,,,,,,,
1178.3,,rt_thecrossant_black,692366,black_plus_sign,,,,,49,,,1,0.9375,,,,,,,,,,,,,,,,,,,,,,,,,,
null,,color_black,692476,black_plus_sign,,,,,null,,,,,,,,,,,,,,,,,,,,,,,,,,,,,,
null,,learn_phase(without_color),695023,black_plus_sign,,,,,null,US_Cities_List/nat_hanover.png,US_Cities_List/mm_newhope.png,,,,,,,,,,,,,,,,,,,,,,,,,,,,
null,,black_cross(without_color),696098,green,,,,,null,US_Cities_List/nat_hanover.png,US_Cities_List/mm_newhope.png,,,,,,,,,,,,,,,,,,,,,,,,,,,,
433.1,,rt_plussign_withcolor,696608,green,,,,,50,US_Cities_List/nat_hanover.png,US_Cities_List/mm_newhope.png,,,,,,,,,,,,,,,,,,,,,,,,,,,,
null,,rt_thecrossant_black,697539,black_plus_sign,,,,,null,,,1,0.93877551,,,,,,,,,,,,,,,,,,,,,,,,,,
null,,color_black,697649,black_plus_sign,,,,,null,,,,,,,,,,,,,,,,,,,,,,,,,,,,,,
null,,learn_phase(without_color),700200,black_plus_sign,,,,,null,US_Cities_List/mm_carmel.png,US_Cities_List/nat_huntsville.png,,,,,,,,,,,,,,,,,,,,,,,,,,,,
null,,black_cross(without_color),700756,blue,,,,,null,US_Cities_List/mm_carmel.png,US_Cities_List/nat_huntsville.png,,,,,,,,,,,,,,,,,,,,,,,,,,,,
null,,rt_plussign_withcolor,701262,blue,,,,,null,US_Cities_List/mm_carmel.png,US_Cities_List/nat_huntsville.png,,,,,,,,,,,,,,,,,,,,,,,,,,,,
null,,rt_thecrossant_black,702714,black_plus_sign,,,,,null,,,,0.93877551,,,,,,,,,,,,,,,,,,,,,,,,,,
null,,color_black,702822,black_plus_sign,,,,,null,,,,,,,,,,,,,,,,,,,,,,,,,,,,,,
null,,learn_phase(without_color),705372,black_plus_sign,,,,,null,US_Cities_List/mm_hotsprings.png,US_Cities_List/nat_shreveport.png,,,,,,,,,,,,,,,,,,,,,,,,,,,,
null,,black_cross(without_color),706409,blue,,,,,null,US_Cities_List/mm_hotsprings.png,US_Cities_List/nat_shreveport.png,,,,,,,,,,,,,,,,,,,,,,,,,,,,
null,,rt_plussign_withcolor,706914,blue,,,,,null,US_Cities_List/mm_hotsprings.png,US_Cities_List/nat_shreveport.png,,,,,,,,,,,,,,,,,,,,,,,,,,,,
null,,rt_thecrossant_black,707892,black_plus_sign,,,,,null,,,,0.93877551,,,,,,,,,,,,,,,,,,,,,,,,,,
null,,warning_page,710900,warning,,,,,null,,,,,,,,,,,,,,,,,,,,,,,,,,,,,,
null,,color_black,711009,black_plus_sign,,,,,null,,,,,,,,,,,,,,,,,,,,,,,,,,,,,,
null,,learn_phase(without_color),713551,black_plus_sign,,,,,null,US_Cities_List/nat_leesburg.png,US_Cities_List/nat_cornwall.png,,,,,,,,,,,,,,,,,,,,,,,,,,,,
null,,black_cross(without_color),714071,green,,,,,null,US_Cities_List/nat_leesburg.png,US_Cities_List/nat_cornwall.png,,,,,,,,,,,,,,,,,,,,,,,,,,,,
null,,rt_plussign_withcolor,714577,green,,,,,null,US_Cities_List/nat_leesburg.png,US_Cities_List/nat_cornwall.png,,,,,,,,,,,,,,,,,,,,,,,,,,,,
null,,rt_thecrossant_black,716072,black_plus_sign,,,,,null,,,,0.93877551,,,,,,,,,,,,,,,,,,,,,,,,,,
null,,warning_page,719078,warning,,,,,null,,,,,,,,,,,,,,,,,,,,,,,,,,,,,,
null,,color_black,719180,black_plus_sign,,,,,null,,,,,,,,,,,,,,,,,,,,,,,,,,,,,,
null,,learn_phase(without_color),721731,black_plus_sign,,,,,null,US_Cities_List/nat_hanover.png,US_Cities_List/mm_newhope.png,,,,,,,,,,,,,,,,,,,,,,,,,,,,
null,,black_cross(without_color),722830,green,,,,,null,US_Cities_List/nat_hanover.png,US_Cities_List/mm_newhope.png,,,,,,,,,,,,,,,,,,,,,,,,,,,,
478.3000001,,rt_plussign_withcolor,723338,green,,,,,50,US_Cities_List/nat_hanover.png,US_Cities_List/mm_newhope.png,,,,,,,,,,,,,,,,,,,,,,,,,,,,
null,,rt_thecrossant_black,724246,black_plus_sign,,,,,null,,,1,0.94,,,,,,,,,,,,,,,,,,,,,,,,,,
null,,color_black,724350,black_plus_sign,,,,,null,,,,,,,,,,,,,,,,,,,,,,,,,,,,,,
null,,learn_phase(without_color),726905,black_plus_sign,,,,,null,US_Cities_List/mm_boulder.png,US_Cities_List/nat_hanover.png,,,,,,,,,,,,,,,,,,,,,,,,,,,,
null,,black_cross(without_color),727995,green,,,,,null,US_Cities_List/mm_boulder.png,US_Cities_List/nat_hanover.png,,,,,,,,,,,,,,,,,,,,,,,,,,,,
null,,rt_plussign_withcolor,728503,green,,,,,null,US_Cities_List/mm_boulder.png,US_Cities_List/nat_hanover.png,,,,,,,,,,,,,,,,,,,,,,,,,,,,
1289.3,,rt_thecrossant_black,729421,black_plus_sign,,,,,50,,,1,0.941176471,,,,,,,,,,,,,,,,,,,,,,,,,,
null,,color_black,729529,black_plus_sign,,,,,null,,,,,,,,,,,,,,,,,,,,,,,,,,,,,,
null,,learn_phase(without_color),732083,black_plus_sign,,,,,null,US_Cities_List/nat_racine.png,US_Cities_List/mm_carmel.png,,,,,,,,,,,,,,,,,,,,,,,,,,,,
null,,black_cross(without_color),732980,blue,,,,,null,US_Cities_List/nat_racine.png,US_Cities_List/mm_carmel.png,,,,,,,,,,,,,,,,,,,,,,,,,,,,
480.9,,rt_plussign_withcolor,733484,blue,,,,,49,US_Cities_List/nat_racine.png,US_Cities_List/mm_carmel.png,,,,,,,,,,,,,,,,,,,,,,,,,,,,
null,,rt_thecrossant_black,734600,black_plus_sign,,,,,null,,,1,0.942307692,,,,,,,,,,,,,,,,,,,,,,,,,,
null,,color_black,734710,black_plus_sign,,,,,null,,,,,,,,,,,,,,,,,,,,,,,,,,,,,,
null,,learn_phase(without_color),737259,black_plus_sign,,,,,null,US_Cities_List/mm_boulder.png,US_Cities_List/mm_gatlinburg.png,,,,,,,,,,,,,,,,,,,,,,,,,,,,
null,,black_cross(without_color),737803,blue,,,,,null,US_Cities_List/mm_boulder.png,US_Cities_List/mm_gatlinburg.png,,,,,,,,,,,,,,,,,,,,,,,,,,,,
447.1999999,,rt_plussign_withcolor,738308,blue,,,,,49,US_Cities_List/mm_boulder.png,US_Cities_List/mm_gatlinburg.png,,,,,,,,,,,,,,,,,,,,,,,,,,,,
null,,rt_thecrossant_black,739780,black_plus_sign,,,,,null,,,1,0.943396226,,,,,,,,,,,,,,,,,,,,,,,,,,
null,,color_black,739890,black_plus_sign,,,,,null,,,,,,,,,,,,,,,,,,,,,,,,,,,,,,
null,,learn_phase(without_color),742444,black_plus_sign,,,,,null,US_Cities_List/mm_hotsprings.png,US_Cities_List/nat_shreveport.png,,,,,,,,,,,,,,,,,,,,,,,,,,,,
null,,black_cross(without_color),743498,blue,,,,,null,US_Cities_List/mm_hotsprings.png,US_Cities_List/nat_shreveport.png,,,,,,,,,,,,,,,,,,,,,,,,,,,,
null,,rt_plussign_withcolor,744000,blue,,,,,null,US_Cities_List/mm_hotsprings.png,US_Cities_List/nat_shreveport.png,,,,,,,,,,,,,,,,,,,,,,,,,,,,
641.5,,rt_thecrossant_black,744965,black_plus_sign,,,,,49,,,1,0.944444444,,,,,,,,,,,,,,,,,,,,,,,,,,
null,,color_black,745067,black_plus_sign,,,,,null,,,,,,,,,,,,,,,,,,,,,,,,,,,,,,
null,,learn_phase(without_color),747613,black_plus_sign,,,,,null,US_Cities_List/nat_huntsville.png,US_Cities_List/nat_westpalmbeach.png,,,,,,,,,,,,,,,,,,,,,,,,,,,,
null,,black_cross(without_color),748600,blue,,,,,null,US_Cities_List/nat_huntsville.png,US_Cities_List/nat_westpalmbeach.png,,,,,,,,,,,,,,,,,,,,,,,,,,,,
null,,rt_plussign_withcolor,749108,blue,,,,,null,US_Cities_List/nat_huntsville.png,US_Cities_List/nat_westpalmbeach.png,,,,,,,,,,,,,,,,,,,,,,,,,,,,
1157.9,,rt_thecrossant_black,750128,black_plus_sign,,,,,49,,,1,0.945454545,,,,,,,,,,,,,,,,,,,,,,,,,,
null,,color_black,750231,black_plus_sign,,,,,null,,,,,,,,,,,,,,,,,,,,,,,,,,,,,,
null,,learn_phase(without_color),752795,black_plus_sign,,,,,null,US_Cities_List/mm_hotsprings.png,US_Cities_List/nat_shreveport.png,,,,,,,,,,,,,,,,,,,,,,,,,,,,
null,,black_cross(without_color),753276,blue,,,,,null,US_Cities_List/mm_hotsprings.png,US_Cities_List/nat_shreveport.png,,,,,,,,,,,,,,,,,,,,,,,,,,,,
null,,rt_plussign_withcolor,753781,blue,,,,,null,US_Cities_List/mm_hotsprings.png,US_Cities_List/nat_shreveport.png,,,,,,,,,,,,,,,,,,,,,,,,,,,,
1122,,rt_thecrossant_black,755316,black_plus_sign,,,,,49,,,1,0.946428571,,,,,,,,,,,,,,,,,,,,,,,,,,
null,,color_black,755419,black_plus_sign,,,,,null,,,,,,,,,,,,,,,,,,,,,,,,,,,,,,
null,,learn_phase(without_color),757972,black_plus_sign,,,,,null,US_Cities_List/mm_boulder.png,US_Cities_List/mm_gatlinburg.png,,,,,,,,,,,,,,,,,,,,,,,,,,,,
null,,black_cross(without_color),758677,blue,,,,,null,US_Cities_List/mm_boulder.png,US_Cities_List/mm_gatlinburg.png,,,,,,,,,,,,,,,,,,,,,,,,,,,,
451.1,,rt_plussign_withcolor,759180,blue,,,,,49,US_Cities_List/mm_boulder.png,US_Cities_List/mm_gatlinburg.png,,,,,,,,,,,,,,,,,,,,,,,,,,,,
null,,rt_thecrossant_black,760484,black_plus_sign,,,,,null,,,1,0.947368421,,,,,,,,,,,,,,,,,,,,,,,,,,
null,,color_black,760593,black_plus_sign,,,,,null,,,,,,,,,,,,,,,,,,,,,,,,,,,,,,
null,,learn_phase(without_color),763140,black_plus_sign,,,,,null,US_Cities_List/nat_shreveport.png,US_Cities_List/mm_peoria.png,,,,,,,,,,,,,,,,,,,,,,,,,,,,
null,,black_cross(without_color),763990,blue,,,,,null,US_Cities_List/nat_shreveport.png,US_Cities_List/mm_peoria.png,,,,,,,,,,,,,,,,,,,,,,,,,,,,
null,,rt_plussign_withcolor,764492,blue,,,,,null,US_Cities_List/nat_shreveport.png,US_Cities_List/mm_peoria.png,,,,,,,,,,,,,,,,,,,,,,,,,,,,
858.1999999,,rt_thecrossant_black,765659,black_plus_sign,,,,,49,,,1,0.948275862,,,,,,,,,,,,,,,,,,,,,,,,,,
null,,color_black,765771,black_plus_sign,,,,,null,,,,,,,,,,,,,,,,,,,,,,,,,,,,,,
null,,learn_phase(without_color),768327,black_plus_sign,,,,,null,US_Cities_List/nat_westpalmbeach.png,US_Cities_List/mm_hotsprings.png,,,,,,,,,,,,,,,,,,,,,,,,,,,,
null,,black_cross(without_color),769080,green,,,,,null,US_Cities_List/nat_westpalmbeach.png,US_Cities_List/mm_hotsprings.png,,,,,,,,,,,,,,,,,,,,,,,,,,,,
null,,rt_plussign_withcolor,769582,green,,,,,null,US_Cities_List/nat_westpalmbeach.png,US_Cities_List/mm_hotsprings.png,,,,,,,,,,,,,,,,,,,,,,,,,,,,
1011.6,,rt_thecrossant_black,770837,black_plus_sign,,,,,50,,,1,0.949152542,,,,,,,,,,,,,,,,,,,,,,,,,,
null,,color_black,770947,black_plus_sign,,,,,null,,,,,,,,,,,,,,,,,,,,,,,,,,,,,,
null,,learn_phase(without_color),773502,black_plus_sign,,,,,null,US_Cities_List/mm_boulder.png,US_Cities_List/mm_gatlinburg.png,,,,,,,,,,,,,,,,,,,,,,,,,,,,
null,,black_cross(without_color),774307,green,,,,,null,US_Cities_List/mm_boulder.png,US_Cities_List/mm_gatlinburg.png,,,,,,,,,,,,,,,,,,,,,,,,,,,,
null,,rt_plussign_withcolor,774808,green,,,,,null,US_Cities_List/mm_boulder.png,US_Cities_List/mm_gatlinburg.png,,,,,,,,,,,,,,,,,,,,,,,,,,,,
902.6,,rt_thecrossant_black,776015,black_plus_sign,,,,,50,,,1,0.95,,,,,,,,,,,,,,,,,,,,,,,,,,
null,,color_black,776125,black_plus_sign,,,,,null,,,,,,,,,,,,,,,,,,,,,,,,,,,,,,
null,,learn_phase(without_color),778673,black_plus_sign,,,,,null,US_Cities_List/mm_boulder.png,US_Cities_List/nat_hanover.png,,,,,,,,,,,,,,,,,,,,,,,,,,,,
null,,black_cross(without_color),779215,green,,,,,null,US_Cities_List/mm_boulder.png,US_Cities_List/nat_hanover.png,,,,,,,,,,,,,,,,,,,,,,,,,,,,
null,,rt_plussign_withcolor,779722,green,,,,,null,US_Cities_List/mm_boulder.png,US_Cities_List/nat_hanover.png,,,,,,,,,,,,,,,,,,,,,,,,,,,,
904.8000001,,rt_thecrossant_black,781196,black_plus_sign,,,,,50,,,1,0.950819672,,,,,,,,,,,,,,,,,,,,,,,,,,
null,,color_black,781299,black_plus_sign,,,,,null,,,,,,,,,,,,,,,,,,,,,,,,,,,,,,
null,,learn_phase(without_color),783846,black_plus_sign,,,,,null,US_Cities_List/nat_huntsville.png,US_Cities_List/nat_shreveport.png,,,,,,,,,,,,,,,,,,,,,,,,,,,,
null,,black_cross(without_color),784338,blue,,,,,null,US_Cities_List/nat_huntsville.png,US_Cities_List/nat_shreveport.png,,,,,,,,,,,,,,,,,,,,,,,,,,,,
null,,rt_plussign_withcolor,784846,blue,,,,,null,US_Cities_List/nat_huntsville.png,US_Cities_List/nat_shreveport.png,,,,,,,,,,,,,,,,,,,,,,,,,,,,
683.8000001,,rt_thecrossant_black,786369,black_plus_sign,,,,,49,,,1,0.951612903,,,,,,,,,,,,,,,,,,,,,,,,,,
null,,color_black,786478,black_plus_sign,,,,,null,,,,,,,,,,,,,,,,,,,,,,,,,,,,,,
null,,learn_phase(without_color),789031,black_plus_sign,,,,,null,US_Cities_List/nat_shreveport.png,US_Cities_List/mm_peoria.png,,,,,,,,,,,,,,,,,,,,,,,,,,,,
null,,black_cross(without_color),789874,blue,,,,,null,US_Cities_List/nat_shreveport.png,US_Cities_List/mm_peoria.png,,,,,,,,,,,,,,,,,,,,,,,,,,,,
null,,rt_plussign_withcolor,790383,blue,,,,,null,US_Cities_List/nat_shreveport.png,US_Cities_List/mm_peoria.png,,,,,,,,,,,,,,,,,,,,,,,,,,,,
595,,rt_thecrossant_black,791554,black_plus_sign,,,,,49,,,1,0.952380952,,,,,,,,,,,,,,,,,,,,,,,,,,
null,,color_black,791664,black_plus_sign,,,,,null,,,,,,,,,,,,,,,,,,,,,,,,,,,,,,
null,,learn_phase(without_color),794222,black_plus_sign,,,,,null,US_Cities_List/mm_carmel.png,US_Cities_List/nat_huntsville.png,,,,,,,,,,,,,,,,,,,,,,,,,,,,
null,,black_cross(without_color),794780,blue,,,,,null,US_Cities_List/mm_carmel.png,US_Cities_List/nat_huntsville.png,,,,,,,,,,,,,,,,,,,,,,,,,,,,
null,,rt_plussign_withcolor,795283,blue,,,,,null,US_Cities_List/mm_carmel.png,US_Cities_List/nat_huntsville.png,,,,,,,,,,,,,,,,,,,,,,,,,,,,
977.1,,rt_thecrossant_black,796740,black_plus_sign,,,,,49,,,1,0.953125,,,,,,,,,,,,,,,,,,,,,,,,,,
null,,color_black,796843,black_plus_sign,,,,,null,,,,,,,,,,,,,,,,,,,,,,,,,,,,,,
null,,learn_phase(without_color),799403,black_plus_sign,,,,,null,US_Cities_List/nat_shreveport.png,US_Cities_List/mm_peoria.png,,,,,,,,,,,,,,,,,,,,,,,,,,,,
null,,black_cross(without_color),799892,green,,,,,null,US_Cities_List/nat_shreveport.png,US_Cities_List/mm_peoria.png,,,,,,,,,,,,,,,,,,,,,,,,,,,,
null,,rt_plussign_withcolor,800395,green,,,,,null,US_Cities_List/nat_shreveport.png,US_Cities_List/mm_peoria.png,,,,,,,,,,,,,,,,,,,,,,,,,,,,
924.6,,rt_thecrossant_black,801924,black_plus_sign,,,,,50,,,1,0.953846154,,,,,,,,,,,,,,,,,,,,,,,,,,
null,,color_black,802027,black_plus_sign,,,,,null,,,,,,,,,,,,,,,,,,,,,,,,,,,,,,
null,,learn_phase(without_color),804580,black_plus_sign,,,,,null,US_Cities_List/nat_leesburg.png,US_Cities_List/mm_peoria.png,,,,,,,,,,,,,,,,,,,,,,,,,,,,
null,,black_cross(without_color),805178,green,,,,,null,US_Cities_List/nat_leesburg.png,US_Cities_List/mm_peoria.png,,,,,,,,,,,,,,,,,,,,,,,,,,,,
null,,rt_plussign_withcolor,805680,green,,,,,null,US_Cities_List/nat_leesburg.png,US_Cities_List/mm_peoria.png,,,,,,,,,,,,,,,,,,,,,,,,,,,,
588,,rt_thecrossant_black,807098,black_plus_sign,,,,,50,,,1,0.954545455,,,,,,,,,,,,,,,,,,,,,,,,,,
null,,color_black,807206,black_plus_sign,,,,,null,,,,,,,,,,,,,,,,,,,,,,,,,,,,,,
null,,learn_phase(without_color),809754,black_plus_sign,,,,,null,US_Cities_List/nat_hanover.png,US_Cities_List/mm_hotsprings.png,,,,,,,,,,,,,,,,,,,,,,,,,,,,
null,,black_cross(without_color),810614,blue,,,,,null,US_Cities_List/nat_hanover.png,US_Cities_List/mm_hotsprings.png,,,,,,,,,,,,,,,,,,,,,,,,,,,,
null,,rt_plussign_withcolor,811121,blue,,,,,null,US_Cities_List/nat_hanover.png,US_Cities_List/mm_hotsprings.png,,,,,,,,,,,,,,,,,,,,,,,,,,,,
865,,rt_thecrossant_black,812276,black_plus_sign,,,,,49,,,1,0.955223881,,,,,,,,,,,,,,,,,,,,,,,,,,
null,,color_black,812385,black_plus_sign,,,,,null,,,,,,,,,,,,,,,,,,,,,,,,,,,,,,
null,,learn_phase(without_color),814939,black_plus_sign,,,,,null,US_Cities_List/nat_racine.png,US_Cities_List/mm_carmel.png,,,,,,,,,,,,,,,,,,,,,,,,,,,,
null,,black_cross(without_color),815922,green,,,,,null,US_Cities_List/nat_racine.png,US_Cities_List/mm_carmel.png,,,,,,,,,,,,,,,,,,,,,,,,,,,,
432.3,,rt_plussign_withcolor,816433,green,,,,,50,US_Cities_List/nat_racine.png,US_Cities_List/mm_carmel.png,,,,,,,,,,,,,,,,,,,,,,,,,,,,
null,,rt_thecrossant_black,817466,black_plus_sign,,,,,null,,,1,0.955882353,,,,,,,,,,,,,,,,,,,,,,,,,,
null,,color_black,817569,black_plus_sign,,,,,null,,,,,,,,,,,,,,,,,,,,,,,,,,,,,,
null,,learn_phase(without_color),820123,black_plus_sign,,,,,null,US_Cities_List/nat_leesburg.png,US_Cities_List/mm_peoria.png,,,,,,,,,,,,,,,,,,,,,,,,,,,,
null,,black_cross(without_color),820708,blue,,,,,null,US_Cities_List/nat_leesburg.png,US_Cities_List/mm_peoria.png,,,,,,,,,,,,,,,,,,,,,,,,,,,,
null,,rt_plussign_withcolor,821210,blue,,,,,null,US_Cities_List/nat_leesburg.png,US_Cities_List/mm_peoria.png,,,,,,,,,,,,,,,,,,,,,,,,,,,,
1106,,rt_thecrossant_black,822633,black_plus_sign,,,,,49,,,1,0.956521739,,,,,,,,,,,,,,,,,,,,,,,,,,
null,,color_black,822737,black_plus_sign,,,,,null,,,,,,,,,,,,,,,,,,,,,,,,,,,,,,
null,,learn_phase(without_color),825283,black_plus_sign,,,,,null,US_Cities_List/nat_hanover.png,US_Cities_List/mm_newhope.png,,,,,,,,,,,,,,,,,,,,,,,,,,,,
null,,black_cross(without_color),826113,green,,,,,null,US_Cities_List/nat_hanover.png,US_Cities_List/mm_newhope.png,,,,,,,,,,,,,,,,,,,,,,,,,,,,
null,,rt_plussign_withcolor,826616,green,,,,,null,US_Cities_List/nat_hanover.png,US_Cities_List/mm_newhope.png,,,,,,,,,,,,,,,,,,,,,,,,,,,,
772.0999999,,rt_thecrossant_black,827796,black_plus_sign,,,,,50,,,1,0.957142857,,,,,,,,,,,,,,,,,,,,,,,,,,
null,,color_black,827905,black_plus_sign,,,,,null,,,,,,,,,,,,,,,,,,,,,,,,,,,,,,
null,,learn_phase(without_color),830455,black_plus_sign,,,,,null,US_Cities_List/nat_racine.png,US_Cities_List/mm_carmel.png,,,,,,,,,,,,,,,,,,,,,,,,,,,,
null,,black_cross(without_color),831269,blue,,,,,null,US_Cities_List/nat_racine.png,US_Cities_List/mm_carmel.png,,,,,,,,,,,,,,,,,,,,,,,,,,,,
null,,rt_plussign_withcolor,831773,blue,,,,,null,US_Cities_List/nat_racine.png,US_Cities_List/mm_carmel.png,,,,,,,,,,,,,,,,,,,,,,,,,,,,
1051.1,,rt_thecrossant_black,832973,black_plus_sign,,,,,49,,,1,0.957746479,,,,,,,,,,,,,,,,,,,,,,,,,,
null,,color_black,833081,black_plus_sign,,,,,null,,,,,,,,,,,,,,,,,,,,,,,,,,,,,,
null,,learn_phase(without_color),835632,black_plus_sign,,,,,null,US_Cities_List/nat_huntsville.png,US_Cities_List/nat_shreveport.png,,,,,,,,,,,,,,,,,,,,,,,,,,,,
null,,black_cross(without_color),836587,green,,,,,null,US_Cities_List/nat_huntsville.png,US_Cities_List/nat_shreveport.png,,,,,,,,,,,,,,,,,,,,,,,,,,,,
null,,rt_plussign_withcolor,837100,green,,,,,null,US_Cities_List/nat_huntsville.png,US_Cities_List/nat_shreveport.png,,,,,,,,,,,,,,,,,,,,,,,,,,,,
1017.5,,rt_thecrossant_black,838157,black_plus_sign,,,,,50,,,1,0.958333333,,,,,,,,,,,,,,,,,,,,,,,,,,
null,,color_black,838261,black_plus_sign,,,,,null,,,,,,,,,,,,,,,,,,,,,,,,,,,,,,
null,,learn_phase(without_color),840813,black_plus_sign,,,,,null,US_Cities_List/mm_boulder.png,US_Cities_List/mm_hotsprings.png,,,,,,,,,,,,,,,,,,,,,,,,,,,,
null,,black_cross(without_color),841221,blue,,,,,null,US_Cities_List/mm_boulder.png,US_Cities_List/mm_hotsprings.png,,,,,,,,,,,,,,,,,,,,,,,,,,,,
null,,rt_plussign_withcolor,841729,blue,,,,,null,US_Cities_List/mm_boulder.png,US_Cities_List/mm_hotsprings.png,,,,,,,,,,,,,,,,,,,,,,,,,,,,
1186.1,,rt_thecrossant_black,843333,black_plus_sign,,,,,49,,,1,0.95890411,,,,,,,,,,,,,,,,,,,,,,,,,,
null,,color_black,843442,black_plus_sign,,,,,null,,,,,,,,,,,,,,,,,,,,,,,,,,,,,,
null,,learn_phase(without_color),845991,black_plus_sign,,,,,null,US_Cities_List/nat_hanover.png,US_Cities_List/mm_newhope.png,,,,,,,,,,,,,,,,,,,,,,,,,,,,
null,,black_cross(without_color),847073,green,,,,,null,US_Cities_List/nat_hanover.png,US_Cities_List/mm_newhope.png,,,,,,,,,,,,,,,,,,,,,,,,,,,,
423.5,,rt_plussign_withcolor,847583,green,,,,,50,US_Cities_List/nat_hanover.png,US_Cities_List/mm_newhope.png,,,,,,,,,,,,,,,,,,,,,,,,,,,,
null,,rt_thecrossant_black,848516,black_plus_sign,,,,,null,,,1,0.959459459,,,,,,,,,,,,,,,,,,,,,,,,,,
null,,color_black,848625,black_plus_sign,,,,,null,,,,,,,,,,,,,,,,,,,,,,,,,,,,,,
null,,learn_phase(without_color),851168,black_plus_sign,,,,,null,US_Cities_List/nat_westpalmbeach.png,US_Cities_List/mm_boulder.png,,,,,,,,,,,,,,,,,,,,,,,,,,,,
null,,black_cross(without_color),851796,green,,,,,null,US_Cities_List/nat_westpalmbeach.png,US_Cities_List/mm_boulder.png,,,,,,,,,,,,,,,,,,,,,,,,,,,,
null,,rt_plussign_withcolor,852297,green,,,,,null,US_Cities_List/nat_westpalmbeach.png,US_Cities_List/mm_boulder.png,,,,,,,,,,,,,,,,,,,,,,,,,,,,
1292.1,,rt_thecrossant_black,853678,black_plus_sign,,,,,50,,,1,0.96,,,,,,,,,,,,,,,,,,,,,,,,,,
null,,color_black,853786,black_plus_sign,,,,,null,,,,,,,,,,,,,,,,,,,,,,,,,,,,,,
null,,learn_phase(without_color),856332,black_plus_sign,,,,,null,US_Cities_List/nat_huntsville.png,US_Cities_List/nat_shreveport.png,,,,,,,,,,,,,,,,,,,,,,,,,,,,
null,,black_cross(without_color),857052,green,,,,,null,US_Cities_List/nat_huntsville.png,US_Cities_List/nat_shreveport.png,,,,,,,,,,,,,,,,,,,,,,,,,,,,
null,,rt_plussign_withcolor,857557,green,,,,,null,US_Cities_List/nat_huntsville.png,US_Cities_List/nat_shreveport.png,,,,,,,,,,,,,,,,,,,,,,,,,,,,
819.1,,rt_thecrossant_black,858848,black_plus_sign,,,,,50,,,1,0.960526316,,,,,,,,,,,,,,,,,,,,,,,,,,
null,,color_black,858957,black_plus_sign,,,,,null,,,,,,,,,,,,,,,,,,,,,,,,,,,,,,
null,,learn_phase(without_color),861505,black_plus_sign,,,,,null,US_Cities_List/nat_shreveport.png,US_Cities_List/mm_peoria.png,,,,,,,,,,,,,,,,,,,,,,,,,,,,
null,,black_cross(without_color),861928,blue,,,,,null,US_Cities_List/nat_shreveport.png,US_Cities_List/mm_peoria.png,,,,,,,,,,,,,,,,,,,,,,,,,,,,
null,,rt_plussign_withcolor,862431,blue,,,,,null,US_Cities_List/nat_shreveport.png,US_Cities_List/mm_peoria.png,,,,,,,,,,,,,,,,,,,,,,,,,,,,
947.6,,rt_thecrossant_black,864022,black_plus_sign,,,,,49,,,1,0.961038961,,,,,,,,,,,,,,,,,,,,,,,,,,
null,,color_black,864126,black_plus_sign,,,,,null,,,,,,,,,,,,,,,,,,,,,,,,,,,,,,
null,,learn_phase(without_color),866673,black_plus_sign,,,,,null,US_Cities_List/mm_boulder.png,US_Cities_List/mm_gatlinburg.png,,,,,,,,,,,,,,,,,,,,,,,,,,,,
null,,black_cross(without_color),867517,green,,,,,null,US_Cities_List/mm_boulder.png,US_Cities_List/mm_gatlinburg.png,,,,,,,,,,,,,,,,,,,,,,,,,,,,
null,,rt_plussign_withcolor,868021,green,,,,,null,US_Cities_List/mm_boulder.png,US_Cities_List/mm_gatlinburg.png,,,,,,,,,,,,,,,,,,,,,,,,,,,,
605.2,,rt_thecrossant_black,869194,black_plus_sign,,,,,50,,,1,0.961538462,,,,,,,,,,,,,,,,,,,,,,,,,,
null,,color_black,869305,black_plus_sign,,,,,null,,,,,,,,,,,,,,,,,,,,,,,,,,,,,,
null,,learn_phase(without_color),871851,black_plus_sign,,,,,null,US_Cities_List/nat_huntsville.png,US_Cities_List/nat_westpalmbeach.png,,,,,,,,,,,,,,,,,,,,,,,,,,,,
null,,black_cross(without_color),872473,blue,,,,,null,US_Cities_List/nat_huntsville.png,US_Cities_List/nat_westpalmbeach.png,,,,,,,,,,,,,,,,,,,,,,,,,,,,
456.2,,rt_plussign_withcolor,872975,blue,,,,,49,US_Cities_List/nat_huntsville.png,US_Cities_List/nat_westpalmbeach.png,,,,,,,,,,,,,,,,,,,,,,,,,,,,
null,,rt_thecrossant_black,874369,black_plus_sign,,,,,null,,,1,0.962025316,,,,,,,,,,,,,,,,,,,,,,,,,,
null,,color_black,874472,black_plus_sign,,,,,null,,,,,,,,,,,,,,,,,,,,,,,,,,,,,,
null,,learn_phase(without_color),877023,black_plus_sign,,,,,null,US_Cities_List/nat_hanover.png,US_Cities_List/mm_hotsprings.png,,,,,,,,,,,,,,,,,,,,,,,,,,,,
null,,black_cross(without_color),877493,green,,,,,null,US_Cities_List/nat_hanover.png,US_Cities_List/mm_hotsprings.png,,,,,,,,,,,,,,,,,,,,,,,,,,,,
null,,rt_plussign_withcolor,878001,green,,,,,null,US_Cities_List/nat_hanover.png,US_Cities_List/mm_hotsprings.png,,,,,,,,,,,,,,,,,,,,,,,,,,,,
824.6999999,,rt_thecrossant_black,879547,black_plus_sign,,,,,50,,,1,0.9625,,,,,,,,,,,,,,,,,,,,,,,,,,
null,,color_black,879649,black_plus_sign,,,,,null,,,,,,,,,,,,,,,,,,,,,,,,,,,,,,
null,,learn_phase(without_color),882200,black_plus_sign,,,,,null,US_Cities_List/nat_shreveport.png,US_Cities_List/mm_peoria.png,,,,,,,,,,,,,,,,,,,,,,,,,,,,
null,,black_cross(without_color),883089,blue,,,,,null,US_Cities_List/nat_shreveport.png,US_Cities_List/mm_peoria.png,,,,,,,,,,,,,,,,,,,,,,,,,,,,
null,,rt_plussign_withcolor,883592,blue,,,,,null,US_Cities_List/nat_shreveport.png,US_Cities_List/mm_peoria.png,,,,,,,,,,,,,,,,,,,,,,,,,,,,
568.6,,rt_thecrossant_black,884711,black_plus_sign,,,,,49,,,1,0.962962963,,,,,,,,,,,,,,,,,,,,,,,,,,
null,,color_black,884822,black_plus_sign,,,,,null,,,,,,,,,,,,,,,,,,,,,,,,,,,,,,
null,,learn_phase(without_color),887368,black_plus_sign,,,,,null,US_Cities_List/nat_westpalmbeach.png,US_Cities_List/mm_boulder.png,,,,,,,,,,,,,,,,,,,,,,,,,,,,
null,,black_cross(without_color),888091,blue,,,,,null,US_Cities_List/nat_westpalmbeach.png,US_Cities_List/mm_boulder.png,,,,,,,,,,,,,,,,,,,,,,,,,,,,
null,,rt_plussign_withcolor,888593,blue,,,,,null,US_Cities_List/nat_westpalmbeach.png,US_Cities_List/mm_boulder.png,,,,,,,,,,,,,,,,,,,,,,,,,,,,
1017.9,,rt_thecrossant_black,889884,black_plus_sign,,,,,49,,,1,0.963414634,,,,,,,,,,,,,,,,,,,,,,,,,,
null,,color_black,889986,black_plus_sign,,,,,null,,,,,,,,,,,,,,,,,,,,,,,,,,,,,,
null,,learn_phase(without_color),892543,black_plus_sign,,,,,null,US_Cities_List/mm_boulder.png,US_Cities_List/mm_hotsprings.png,,,,,,,,,,,,,,,,,,,,,,,,,,,,
null,,black_cross(without_color),893470,green,,,,,null,US_Cities_List/mm_boulder.png,US_Cities_List/mm_hotsprings.png,,,,,,,,,,,,,,,,,,,,,,,,,,,,
null,,rt_plussign_withcolor,893979,green,,,,,null,US_Cities_List/mm_boulder.png,US_Cities_List/mm_hotsprings.png,,,,,,,,,,,,,,,,,,,,,,,,,,,,
886.9000001,,rt_thecrossant_black,895062,black_plus_sign,,,,,50,,,1,0.963855422,,,,,,,,,,,,,,,,,,,,,,,,,,
null,,color_black,895173,black_plus_sign,,,,,null,,,,,,,,,,,,,,,,,,,,,,,,,,,,,,
null,,learn_phase(without_color),897721,black_plus_sign,,,,,null,US_Cities_List/mm_carmel.png,US_Cities_List/nat_leesburg.png,,,,,,,,,,,,,,,,,,,,,,,,,,,,
null,,black_cross(without_color),898729,blue,,,,,null,US_Cities_List/mm_carmel.png,US_Cities_List/nat_leesburg.png,,,,,,,,,,,,,,,,,,,,,,,,,,,,
null,,rt_plussign_withcolor,899235,blue,,,,,null,US_Cities_List/mm_carmel.png,US_Cities_List/nat_leesburg.png,,,,,,,,,,,,,,,,,,,,,,,,,,,,
1026.4,,rt_thecrossant_black,900236,black_plus_sign,,,,,49,,,1,0.964285714,,,,,,,,,,,,,,,,,,,,,,,,,,
null,,color_black,900341,black_plus_sign,,,,,null,,,,,,,,,,,,,,,,,,,,,,,,,,,,,,
null,,learn_phase(without_color),902898,black_plus_sign,,,,,null,US_Cities_List/nat_westpalmbeach.png,US_Cities_List/mm_hotsprings.png,,,,,,,,,,,,,,,,,,,,,,,,,,,,
null,,black_cross(without_color),903388,blue,,,,,null,US_Cities_List/nat_westpalmbeach.png,US_Cities_List/mm_hotsprings.png,,,,,,,,,,,,,,,,,,,,,,,,,,,,
null,,rt_plussign_withcolor,903895,blue,,,,,null,US_Cities_List/nat_westpalmbeach.png,US_Cities_List/mm_hotsprings.png,,,,,,,,,,,,,,,,,,,,,,,,,,,,
1176.3,,rt_thecrossant_black,905416,black_plus_sign,,,,,49,,,1,0.964705882,,,,,,,,,,,,,,,,,,,,,,,,,,
null,,color_black,905521,black_plus_sign,,,,,null,,,,,,,,,,,,,,,,,,,,,,,,,,,,,,
null,,learn_phase(without_color),908073,black_plus_sign,,,,,null,US_Cities_List/nat_leesburg.png,US_Cities_List/nat_cornwall.png,,,,,,,,,,,,,,,,,,,,,,,,,,,,
null,,black_cross(without_color),908588,blue,,,,,null,US_Cities_List/nat_leesburg.png,US_Cities_List/nat_cornwall.png,,,,,,,,,,,,,,,,,,,,,,,,,,,,
482.5,,rt_plussign_withcolor,909094,blue,,,,,49,US_Cities_List/nat_leesburg.png,US_Cities_List/nat_cornwall.png,,,,,,,,,,,,,,,,,,,,,,,,,,,,
null,,rt_thecrossant_black,910594,black_plus_sign,,,,,null,,,1,0.965116279,,,,,,,,,,,,,,,,,,,,,,,,,,
null,,color_black,910704,black_plus_sign,,,,,null,,,,,,,,,,,,,,,,,,,,,,,,,,,,,,
null,,learn_phase(without_color),913267,black_plus_sign,,,,,null,US_Cities_List/mm_boulder.png,US_Cities_List/nat_hanover.png,,,,,,,,,,,,,,,,,,,,,,,,,,,,
null,,black_cross(without_color),913729,blue,,,,,null,US_Cities_List/mm_boulder.png,US_Cities_List/nat_hanover.png,,,,,,,,,,,,,,,,,,,,,,,,,,,,
null,,rt_plussign_withcolor,914232,blue,,,,,null,US_Cities_List/mm_boulder.png,US_Cities_List/nat_hanover.png,,,,,,,,,,,,,,,,,,,,,,,,,,,,
930.9,,rt_thecrossant_black,915786,black_plus_sign,,,,,49,,,1,0.965517241,,,,,,,,,,,,,,,,,,,,,,,,,,
null,,color_black,915897,black_plus_sign,,,,,null,,,,,,,,,,,,,,,,,,,,,,,,,,,,,,
null,,learn_phase(without_color),918452,black_plus_sign,,,,,null,US_Cities_List/mm_boulder.png,US_Cities_List/mm_hotsprings.png,,,,,,,,,,,,,,,,,,,,,,,,,,,,
null,,black_cross(without_color),919041,green,,,,,null,US_Cities_List/mm_boulder.png,US_Cities_List/mm_hotsprings.png,,,,,,,,,,,,,,,,,,,,,,,,,,,,
null,,rt_plussign_withcolor,919545,green,,,,,null,US_Cities_List/mm_boulder.png,US_Cities_List/mm_hotsprings.png,,,,,,,,,,,,,,,,,,,,,,,,,,,,
553.4,,rt_thecrossant_black,920973,black_plus_sign,,,,,50,,,1,0.965909091,,,,,,,,,,,,,,,,,,,,,,,,,,
null,,color_black,921077,black_plus_sign,,,,,null,,,,,,,,,,,,,,,,,,,,,,,,,,,,,,
null,,learn_phase(without_color),923627,black_plus_sign,,,,,null,US_Cities_List/nat_leesburg.png,US_Cities_List/nat_cornwall.png,,,,,,,,,,,,,,,,,,,,,,,,,,,,
null,,black_cross(without_color),924084,green,,,,,null,US_Cities_List/nat_leesburg.png,US_Cities_List/nat_cornwall.png,,,,,,,,,,,,,,,,,,,,,,,,,,,,
null,,rt_plussign_withcolor,924588,green,,,,,null,US_Cities_List/nat_leesburg.png,US_Cities_List/nat_cornwall.png,,,,,,,,,,,,,,,,,,,,,,,,,,,,
990.7,,rt_thecrossant_black,926142,black_plus_sign,,,,,50,,,1,0.966292135,,,,,,,,,,,,,,,,,,,,,,,,,,
null,,color_black,926251,black_plus_sign,,,,,null,,,,,,,,,,,,,,,,,,,,,,,,,,,,,,
null,,learn_phase(without_color),928802,black_plus_sign,,,,,null,US_Cities_List/nat_shreveport.png,US_Cities_List/mm_peoria.png,,,,,,,,,,,,,,,,,,,,,,,,,,,,
null,,black_cross(without_color),929693,blue,,,,,null,US_Cities_List/nat_shreveport.png,US_Cities_List/mm_peoria.png,,,,,,,,,,,,,,,,,,,,,,,,,,,,
null,,rt_plussign_withcolor,930194,blue,,,,,null,US_Cities_List/nat_shreveport.png,US_Cities_List/mm_peoria.png,,,,,,,,,,,,,,,,,,,,,,,,,,,,
674.1,,rt_thecrossant_black,931313,black_plus_sign,,,,,49,,,1,0.966666667,,,,,,,,,,,,,,,,,,,,,,,,,,
null,,color_black,931416,black_plus_sign,,,,,null,,,,,,,,,,,,,,,,,,,,,,,,,,,,,,
null,,learn_phase(without_color),933966,black_plus_sign,,,,,null,US_Cities_List/nat_huntsville.png,US_Cities_List/nat_westpalmbeach.png,,,,,,,,,,,,,,,,,,,,,,,,,,,,
null,,black_cross(without_color),934651,blue,,,,,null,US_Cities_List/nat_huntsville.png,US_Cities_List/nat_westpalmbeach.png,,,,,,,,,,,,,,,,,,,,,,,,,,,,
null,,rt_plussign_withcolor,935156,blue,,,,,null,US_Cities_List/nat_huntsville.png,US_Cities_List/nat_westpalmbeach.png,,,,,,,,,,,,,,,,,,,,,,,,,,,,
1096.2,,rt_thecrossant_black,936488,black_plus_sign,,,,,49,,,1,0.967032967,,,,,,,,,,,,,,,,,,,,,,,,,,
null,,color_black,936598,black_plus_sign,,,,,null,,,,,,,,,,,,,,,,,,,,,,,,,,,,,,
null,,learn_phase(without_color),939151,black_plus_sign,,,,,null,US_Cities_List/nat_racine.png,US_Cities_List/mm_carmel.png,,,,,,,,,,,,,,,,,,,,,,,,,,,,
null,,black_cross(without_color),939598,blue,,,,,null,US_Cities_List/nat_racine.png,US_Cities_List/mm_carmel.png,,,,,,,,,,,,,,,,,,,,,,,,,,,,
null,,rt_plussign_withcolor,940103,blue,,,,,null,US_Cities_List/nat_racine.png,US_Cities_List/mm_carmel.png,,,,,,,,,,,,,,,,,,,,,,,,,,,,
803.2,,rt_thecrossant_black,941667,black_plus_sign,,,,,49,,,1,0.967391304,,,,,,,,,,,,,,,,,,,,,,,,,,
null,,color_black,941770,black_plus_sign,,,,,null,,,,,,,,,,,,,,,,,,,,,,,,,,,,,,
null,,learn_phase(without_color),944324,black_plus_sign,,,,,null,US_Cities_List/nat_leesburg.png,US_Cities_List/nat_cornwall.png,,,,,,,,,,,,,,,,,,,,,,,,,,,,
null,,black_cross(without_color),944927,blue,,,,,null,US_Cities_List/nat_leesburg.png,US_Cities_List/nat_cornwall.png,,,,,,,,,,,,,,,,,,,,,,,,,,,,
null,,rt_plussign_withcolor,945429,blue,,,,,null,US_Cities_List/nat_leesburg.png,US_Cities_List/nat_cornwall.png,,,,,,,,,,,,,,,,,,,,,,,,,,,,
1029.9,,rt_thecrossant_black,946841,black_plus_sign,,,,,49,,,1,0.967741935,,,,,,,,,,,,,,,,,,,,,,,,,,
null,,color_black,946944,black_plus_sign,,,,,null,,,,,,,,,,,,,,,,,,,,,,,,,,,,,,
null,,learn_phase(without_color),949500,black_plus_sign,,,,,null,US_Cities_List/nat_huntsville.png,US_Cities_List/nat_westpalmbeach.png,,,,,,,,,,,,,,,,,,,,,,,,,,,,
null,,black_cross(without_color),950013,blue,,,,,null,US_Cities_List/nat_huntsville.png,US_Cities_List/nat_westpalmbeach.png,,,,,,,,,,,,,,,,,,,,,,,,,,,,
null,,rt_plussign_withcolor,950516,blue,,,,,null,US_Cities_List/nat_huntsville.png,US_Cities_List/nat_westpalmbeach.png,,,,,,,,,,,,,,,,,,,,,,,,,,,,
773.9,,rt_thecrossant_black,952013,black_plus_sign,,,,,49,,,1,0.968085106,,,,,,,,,,,,,,,,,,,,,,,,,,
null,,color_black,952120,black_plus_sign,,,,,null,,,,,,,,,,,,,,,,,,,,,,,,,,,,,,
null,,learn_phase(without_color),954672,black_plus_sign,,,,,null,US_Cities_List/mm_hotsprings.png,US_Cities_List/nat_shreveport.png,,,,,,,,,,,,,,,,,,,,,,,,,,,,
null,,black_cross(without_color),955320,blue,,,,,null,US_Cities_List/mm_hotsprings.png,US_Cities_List/nat_shreveport.png,,,,,,,,,,,,,,,,,,,,,,,,,,,,
480.8,,rt_plussign_withcolor,955827,blue,,,,,49,US_Cities_List/mm_hotsprings.png,US_Cities_List/nat_shreveport.png,,,,,,,,,,,,,,,,,,,,,,,,,,,,
null,,rt_thecrossant_black,957193,black_plus_sign,,,,,null,,,1,0.968421053,,,,,,,,,,,,,,,,,,,,,,,,,,
null,,color_black,957303,black_plus_sign,,,,,null,,,,,,,,,,,,,,,,,,,,,,,,,,,,,,
null,,learn_phase(without_color),959863,black_plus_sign,,,,,null,US_Cities_List/nat_huntsville.png,US_Cities_List/nat_westpalmbeach.png,,,,,,,,,,,,,,,,,,,,,,,,,,,,
null,,black_cross(without_color),960790,blue,,,,,null,US_Cities_List/nat_huntsville.png,US_Cities_List/nat_westpalmbeach.png,,,,,,,,,,,,,,,,,,,,,,,,,,,,
378.7,,rt_plussign_withcolor,961296,blue,,,,,49,US_Cities_List/nat_huntsville.png,US_Cities_List/nat_westpalmbeach.png,,,,,,,,,,,,,,,,,,,,,,,,,,,,
null,,rt_thecrossant_black,962379,black_plus_sign,,,,,null,,,1,0.96875,,,,,,,,,,,,,,,,,,,,,,,,,,
null,,color_black,962490,black_plus_sign,,,,,null,,,,,,,,,,,,,,,,,,,,,,,,,,,,,,
null,,learn_phase(without_color),965053,black_plus_sign,,,,,null,US_Cities_List/nat_huntsville.png,US_Cities_List/nat_shreveport.png,,,,,,,,,,,,,,,,,,,,,,,,,,,,
null,,black_cross(without_color),965870,blue,,,,,null,US_Cities_List/nat_huntsville.png,US_Cities_List/nat_shreveport.png,,,,,,,,,,,,,,,,,,,,,,,,,,,,
337.1,,rt_plussign_withcolor,966378,blue,,,,,50,US_Cities_List/nat_huntsville.png,US_Cities_List/nat_shreveport.png,,,,,,,,,,,,,,,,,,,,,,,,,,,,
null,,rt_thecrossant_black,967571,black_plus_sign,,,,,null,,,0,0.958762887,,,,,,,,,,,,,,,,,,,,,,,,,,
null,,color_black,967679,black_plus_sign,,,,,null,,,,,,,,,,,,,,,,,,,,,,,,,,,,,,
null,,learn_phase(without_color),970211,black_plus_sign,,,,,null,US_Cities_List/mm_carmel.png,US_Cities_List/nat_leesburg.png,,,,,,,,,,,,,,,,,,,,,,,,,,,,
null,,black_cross(without_color),970657,blue,,,,,null,US_Cities_List/mm_carmel.png,US_Cities_List/nat_leesburg.png,,,,,,,,,,,,,,,,,,,,,,,,,,,,
null,,rt_plussign_withcolor,971167,blue,,,,,null,US_Cities_List/mm_carmel.png,US_Cities_List/nat_leesburg.png,,,,,,,,,,,,,,,,,,,,,,,,,,,,
1026.3,,rt_thecrossant_black,972735,black_plus_sign,,,,,49,,,1,0.959183673,,,,,,,,,,,,,,,,,,,,,,,,,,
null,,color_black,972845,black_plus_sign,,,,,null,,,,,,,,,,,,,,,,,,,,,,,,,,,,,,
null,,learn_phase(without_color),975398,black_plus_sign,,,,,null,US_Cities_List/mm_boulder.png,US_Cities_List/mm_gatlinburg.png,,,,,,,,,,,,,,,,,,,,,,,,,,,,
null,,black_cross(without_color),976423,green,,,,,null,US_Cities_List/mm_boulder.png,US_Cities_List/mm_gatlinburg.png,,,,,,,,,,,,,,,,,,,,,,,,,,,,
484.7,,rt_plussign_withcolor,976924,green,,,,,50,US_Cities_List/mm_boulder.png,US_Cities_List/mm_gatlinburg.png,,,,,,,,,,,,,,,,,,,,,,,,,,,,
null,,rt_thecrossant_black,977914,black_plus_sign,,,,,null,,,1,0.95959596,,,,,,,,,,,,,,,,,,,,,,,,,,
null,,color_black,978017,black_plus_sign,,,,,null,,,,,,,,,,,,,,,,,,,,,,,,,,,,,,
null,,learn_phase(without_color),980566,black_plus_sign,,,,,null,US_Cities_List/nat_hanover.png,US_Cities_List/mm_newhope.png,,,,,,,,,,,,,,,,,,,,,,,,,,,,
null,,black_cross(without_color),981174,green,,,,,null,US_Cities_List/nat_hanover.png,US_Cities_List/mm_newhope.png,,,,,,,,,,,,,,,,,,,,,,,,,,,,
465.3000001,,rt_plussign_withcolor,981677,green,,,,,50,US_Cities_List/nat_hanover.png,US_Cities_List/mm_newhope.png,,,,,,,,,,,,,,,,,,,,,,,,,,,,
null,,rt_thecrossant_black,983081,black_plus_sign,,,,,null,,,1,0.96,,,,,,,,,,,,,,,,,,,,,,,,,,
null,,color_black,983190,black_plus_sign,,,,,null,,,,,,,,,,,,,,,,,,,,,,,,,,,,,,
null,,learn_phase(without_color),985743,black_plus_sign,,,,,null,US_Cities_List/nat_leesburg.png,US_Cities_List/nat_cornwall.png,,,,,,,,,,,,,,,,,,,,,,,,,,,,
null,,black_cross(without_color),986434,green,,,,,null,US_Cities_List/nat_leesburg.png,US_Cities_List/nat_cornwall.png,,,,,,,,,,,,,,,,,,,,,,,,,,,,
null,,rt_plussign_withcolor,986936,green,,,,,null,US_Cities_List/nat_leesburg.png,US_Cities_List/nat_cornwall.png,,,,,,,,,,,,,,,,,,,,,,,,,,,,
741.3,,rt_thecrossant_black,988261,black_plus_sign,,,,,50,,,1,0.96039604,,,,,,,,,,,,,,,,,,,,,,,,,,
null,,color_black,988371,black_plus_sign,,,,,null,,,,,,,,,,,,,,,,,,,,,,,,,,,,,,
null,,learn_phase(without_color),990922,black_plus_sign,,,,,null,US_Cities_List/nat_racine.png,US_Cities_List/mm_carmel.png,,,,,,,,,,,,,,,,,,,,,,,,,,,,
null,,black_cross(without_color),991881,blue,,,,,null,US_Cities_List/nat_racine.png,US_Cities_List/mm_carmel.png,,,,,,,,,,,,,,,,,,,,,,,,,,,,
null,,rt_plussign_withcolor,992389,blue,,,,,null,US_Cities_List/nat_racine.png,US_Cities_List/mm_carmel.png,,,,,,,,,,,,,,,,,,,,,,,,,,,,
851.6,,rt_thecrossant_black,993442,black_plus_sign,,,,,49,,,1,0.960784314,,,,,,,,,,,,,,,,,,,,,,,,,,
null,,color_black,993550,black_plus_sign,,,,,null,,,,,,,,,,,,,,,,,,,,,,,,,,,,,,
null,,learn_phase(without_color),996102,black_plus_sign,,,,,null,US_Cities_List/nat_huntsville.png,US_Cities_List/nat_shreveport.png,,,,,,,,,,,,,,,,,,,,,,,,,,,,
null,,black_cross(without_color),997022,blue,,,,,null,US_Cities_List/nat_huntsville.png,US_Cities_List/nat_shreveport.png,,,,,,,,,,,,,,,,,,,,,,,,,,,,
null,,rt_plussign_withcolor,997530,blue,,,,,null,US_Cities_List/nat_huntsville.png,US_Cities_List/nat_shreveport.png,,,,,,,,,,,,,,,,,,,,,,,,,,,,
1133.6,,rt_thecrossant_black,998620,black_plus_sign,,,,,49,,,1,0.961165049,,,,,,,,,,,,,,,,,,,,,,,,,,
null,,color_black,998723,black_plus_sign,,,,,null,,,,,,,,,,,,,,,,,,,,,,,,,,,,,,
null,,learn_phase(without_color),1001278,black_plus_sign,,,,,null,US_Cities_List/mm_boulder.png,US_Cities_List/mm_hotsprings.png,,,,,,,,,,,,,,,,,,,,,,,,,,,,
null,,black_cross(without_color),1001727,blue,,,,,null,US_Cities_List/mm_boulder.png,US_Cities_List/mm_hotsprings.png,,,,,,,,,,,,,,,,,,,,,,,,,,,,
null,,rt_plussign_withcolor,1002234,blue,,,,,null,US_Cities_List/mm_boulder.png,US_Cities_List/mm_hotsprings.png,,,,,,,,,,,,,,,,,,,,,,,,,,,,
1103.6,,rt_thecrossant_black,1003803,black_plus_sign,,,,,49,,,1,0.961538462,,,,,,,,,,,,,,,,,,,,,,,,,,
null,,color_black,1003914,black_plus_sign,,,,,null,,,,,,,,,,,,,,,,,,,,,,,,,,,,,,
null,,learn_phase(without_color),1006480,black_plus_sign,,,,,null,US_Cities_List/nat_racine.png,US_Cities_List/mm_carmel.png,,,,,,,,,,,,,,,,,,,,,,,,,,,,
null,,black_cross(without_color),1007170,green,,,,,null,US_Cities_List/nat_racine.png,US_Cities_List/mm_carmel.png,,,,,,,,,,,,,,,,,,,,,,,,,,,,
null,,rt_plussign_withcolor,1007680,green,,,,,null,US_Cities_List/nat_racine.png,US_Cities_List/mm_carmel.png,,,,,,,,,,,,,,,,,,,,,,,,,,,,
706.1999999,,rt_thecrossant_black,1009002,black_plus_sign,,,,,50,,,1,0.961904762,,,,,,,,,,,,,,,,,,,,,,,,,,
null,,color_black,1009113,black_plus_sign,,,,,null,,,,,,,,,,,,,,,,,,,,,,,,,,,,,,
null,,learn_phase(without_color),1011673,black_plus_sign,,,,,null,US_Cities_List/mm_carmel.png,US_Cities_List/nat_huntsville.png,,,,,,,,,,,,,,,,,,,,,,,,,,,,
null,,black_cross(without_color),1012301,green,,,,,null,US_Cities_List/mm_carmel.png,US_Cities_List/nat_huntsville.png,,,,,,,,,,,,,,,,,,,,,,,,,,,,
null,,rt_plussign_withcolor,1012804,green,,,,,null,US_Cities_List/mm_carmel.png,US_Cities_List/nat_huntsville.png,,,,,,,,,,,,,,,,,,,,,,,,,,,,
853.6,,rt_thecrossant_black,1014182,black_plus_sign,,,,,50,,,1,0.962264151,,,,,,,,,,,,,,,,,,,,,,,,,,
null,,color_black,1014293,black_plus_sign,,,,,null,,,,,,,,,,,,,,,,,,,,,,,,,,,,,,
null,,learn_phase(without_color),1016845,black_plus_sign,,,,,null,US_Cities_List/mm_boulder.png,US_Cities_List/mm_hotsprings.png,,,,,,,,,,,,,,,,,,,,,,,,,,,,
null,,black_cross(without_color),1017250,green,,,,,null,US_Cities_List/mm_boulder.png,US_Cities_List/mm_hotsprings.png,,,,,,,,,,,,,,,,,,,,,,,,,,,,
null,,rt_plussign_withcolor,1017752,green,,,,,null,US_Cities_List/mm_boulder.png,US_Cities_List/mm_hotsprings.png,,,,,,,,,,,,,,,,,,,,,,,,,,,,
768.2,,rt_thecrossant_black,1019354,black_plus_sign,,,,,50,,,1,0.962616822,,,,,,,,,,,,,,,,,,,,,,,,,,
null,,color_black,1019456,black_plus_sign,,,,,null,,,,,,,,,,,,,,,,,,,,,,,,,,,,,,
null,,learn_phase(without_color),1022019,black_plus_sign,,,,,null,US_Cities_List/nat_hanover.png,US_Cities_List/mm_hotsprings.png,,,,,,,,,,,,,,,,,,,,,,,,,,,,
null,,black_cross(without_color),1022962,green,,,,,null,US_Cities_List/nat_hanover.png,US_Cities_List/mm_hotsprings.png,,,,,,,,,,,,,,,,,,,,,,,,,,,,
499.9,,rt_plussign_withcolor,1023465,green,,,,,50,US_Cities_List/nat_hanover.png,US_Cities_List/mm_hotsprings.png,,,,,,,,,,,,,,,,,,,,,,,,,,,,
null,,rt_thecrossant_black,1024536,black_plus_sign,,,,,null,,,1,0.962962963,,,,,,,,,,,,,,,,,,,,,,,,,,
null,,color_black,1024644,black_plus_sign,,,,,null,,,,,,,,,,,,,,,,,,,,,,,,,,,,,,
null,,learn_phase(without_color),1027176,black_plus_sign,,,,,null,US_Cities_List/nat_westpalmbeach.png,US_Cities_List/mm_boulder.png,,,,,,,,,,,,,,,,,,,,,,,,,,,,
null,,black_cross(without_color),1027870,green,,,,,null,US_Cities_List/nat_westpalmbeach.png,US_Cities_List/mm_boulder.png,,,,,,,,,,,,,,,,,,,,,,,,,,,,
453.4,,rt_plussign_withcolor,1028373,green,,,,,50,US_Cities_List/nat_westpalmbeach.png,US_Cities_List/mm_boulder.png,,,,,,,,,,,,,,,,,,,,,,,,,,,,
null,,rt_thecrossant_black,1029688,black_plus_sign,,,,,null,,,1,0.963302752,,,,,,,,,,,,,,,,,,,,,,,,,,
null,,color_black,1029799,black_plus_sign,,,,,null,,,,,,,,,,,,,,,,,,,,,,,,,,,,,,
null,,learn_phase(without_color),1032355,black_plus_sign,,,,,null,US_Cities_List/nat_westpalmbeach.png,US_Cities_List/mm_hotsprings.png,,,,,,,,,,,,,,,,,,,,,,,,,,,,
null,,black_cross(without_color),1033357,blue,,,,,null,US_Cities_List/nat_westpalmbeach.png,US_Cities_List/mm_hotsprings.png,,,,,,,,,,,,,,,,,,,,,,,,,,,,
393.3000001,,rt_plussign_withcolor,1033859,blue,,,,,49,US_Cities_List/nat_westpalmbeach.png,US_Cities_List/mm_hotsprings.png,,,,,,,,,,,,,,,,,,,,,,,,,,,,
null,,rt_thecrossant_black,1034878,black_plus_sign,,,,,null,,,1,0.963636364,,,,,,,,,,,,,,,,,,,,,,,,,,
null,,color_black,1034987,black_plus_sign,,,,,null,,,,,,,,,,,,,,,,,,,,,,,,,,,,,,
null,,learn_phase(without_color),1037542,black_plus_sign,,,,,null,US_Cities_List/nat_hanover.png,US_Cities_List/mm_hotsprings.png,,,,,,,,,,,,,,,,,,,,,,,,,,,,
null,,black_cross(without_color),1038404,green,,,,,null,US_Cities_List/nat_hanover.png,US_Cities_List/mm_hotsprings.png,,,,,,,,,,,,,,,,,,,,,,,,,,,,
null,,rt_plussign_withcolor,1038913,green,,,,,null,US_Cities_List/nat_hanover.png,US_Cities_List/mm_hotsprings.png,,,,,,,,,,,,,,,,,,,,,,,,,,,,
1156.3,,rt_thecrossant_black,1040065,black_plus_sign,,,,,49,,,0,0.954954955,,,,,,,,,,,,,,,,,,,,,,,,,,
null,,color_black,1040175,black_plus_sign,,,,,null,,,,,,,,,,,,,,,,,,,,,,,,,,,,,,
null,,learn_phase(without_color),1042727,black_plus_sign,,,,,null,US_Cities_List/mm_carmel.png,US_Cities_List/nat_huntsville.png,,,,,,,,,,,,,,,,,,,,,,,,,,,,
null,,black_cross(without_color),1043630,green,,,,,null,US_Cities_List/mm_carmel.png,US_Cities_List/nat_huntsville.png,,,,,,,,,,,,,,,,,,,,,,,,,,,,
null,,rt_plussign_withcolor,1044132,green,,,,,null,US_Cities_List/mm_carmel.png,US_Cities_List/nat_huntsville.png,,,,,,,,,,,,,,,,,,,,,,,,,,,,
1117.6,,rt_thecrossant_black,1045240,black_plus_sign,,,,,50,,,1,0.955357143,,,,,,,,,,,,,,,,,,,,,,,,,,
null,,color_black,1045350,black_plus_sign,,,,,null,,,,,,,,,,,,,,,,,,,,,,,,,,,,,,
null,,learn_phase(without_color),1047908,black_plus_sign,,,,,null,US_Cities_List/nat_hanover.png,US_Cities_List/mm_hotsprings.png,,,,,,,,,,,,,,,,,,,,,,,,,,,,
null,,black_cross(without_color),1048475,blue,,,,,null,US_Cities_List/nat_hanover.png,US_Cities_List/mm_hotsprings.png,,,,,,,,,,,,,,,,,,,,,,,,,,,,
null,,rt_plussign_withcolor,1048980,blue,,,,,null,US_Cities_List/nat_hanover.png,US_Cities_List/mm_hotsprings.png,,,,,,,,,,,,,,,,,,,,,,,,,,,,
1216.8,,rt_thecrossant_black,1050429,black_plus_sign,,,,,49,,,1,0.955752212,,,,,,,,,,,,,,,,,,,,,,,,,,
null,,color_black,1050538,black_plus_sign,,,,,null,,,,,,,,,,,,,,,,,,,,,,,,,,,,,,
null,,learn_phase(without_color),1053086,black_plus_sign,,,,,null,US_Cities_List/nat_westpalmbeach.png,US_Cities_List/mm_boulder.png,,,,,,,,,,,,,,,,,,,,,,,,,,,,
null,,black_cross(without_color),1053938,blue,,,,,null,US_Cities_List/nat_westpalmbeach.png,US_Cities_List/mm_boulder.png,,,,,,,,,,,,,,,,,,,,,,,,,,,,
474.1,,rt_plussign_withcolor,1054448,blue,,,,,49,US_Cities_List/nat_westpalmbeach.png,US_Cities_List/mm_boulder.png,,,,,,,,,,,,,,,,,,,,,,,,,,,,
null,,rt_thecrossant_black,1055608,black_plus_sign,,,,,null,,,1,0.956140351,,,,,,,,,,,,,,,,,,,,,,,,,,
null,,color_black,1055719,black_plus_sign,,,,,null,,,,,,,,,,,,,,,,,,,,,,,,,,,,,,
null,,learn_phase(without_color),1058274,black_plus_sign,,,,,null,US_Cities_List/mm_boulder.png,US_Cities_List/mm_gatlinburg.png,,,,,,,,,,,,,,,,,,,,,,,,,,,,
null,,black_cross(without_color),1058976,green,,,,,null,US_Cities_List/mm_boulder.png,US_Cities_List/mm_gatlinburg.png,,,,,,,,,,,,,,,,,,,,,,,,,,,,
null,,rt_plussign_withcolor,1059483,green,,,,,null,US_Cities_List/mm_boulder.png,US_Cities_List/mm_gatlinburg.png,,,,,,,,,,,,,,,,,,,,,,,,,,,,
964.9,,rt_thecrossant_black,1060796,black_plus_sign,,,,,50,,,1,0.956521739,,,,,,,,,,,,,,,,,,,,,,,,,,
null,,color_black,1060899,black_plus_sign,,,,,null,,,,,,,,,,,,,,,,,,,,,,,,,,,,,,
null,,learn_phase(without_color),1063452,black_plus_sign,,,,,null,US_Cities_List/mm_carmel.png,US_Cities_List/nat_leesburg.png,,,,,,,,,,,,,,,,,,,,,,,,,,,,
null,,black_cross(without_color),1064434,green,,,,,null,US_Cities_List/mm_carmel.png,US_Cities_List/nat_leesburg.png,,,,,,,,,,,,,,,,,,,,,,,,,,,,
null,,rt_plussign_withcolor,1064939,green,,,,,null,US_Cities_List/mm_carmel.png,US_Cities_List/nat_leesburg.png,,,,,,,,,,,,,,,,,,,,,,,,,,,,
1047.8,,rt_thecrossant_black,1065976,black_plus_sign,,,,,50,,,1,0.956896552,,,,,,,,,,,,,,,,,,,,,,,,,,
null,,color_black,1066080,black_plus_sign,,,,,null,,,,,,,,,,,,,,,,,,,,,,,,,,,,,,
null,,learn_phase(without_color),1068628,black_plus_sign,,,,,null,US_Cities_List/nat_leesburg.png,US_Cities_List/mm_peoria.png,,,,,,,,,,,,,,,,,,,,,,,,,,,,
null,,black_cross(without_color),1069173,blue,,,,,null,US_Cities_List/nat_leesburg.png,US_Cities_List/mm_peoria.png,,,,,,,,,,,,,,,,,,,,,,,,,,,,
null,,rt_plussign_withcolor,1069682,blue,,,,,null,US_Cities_List/nat_leesburg.png,US_Cities_List/mm_peoria.png,,,,,,,,,,,,,,,,,,,,,,,,,,,,
1397.5,,rt_thecrossant_black,1071149,black_plus_sign,,,,,50,,,0,0.948717949,,,,,,,,,,,,,,,,,,,,,,,,,,
null,,color_black,1071259,black_plus_sign,,,,,null,,,,,,,,,,,,,,,,,,,,,,,,,,,,,,
null,,learn_phase(without_color),1073820,black_plus_sign,,,,,null,US_Cities_List/mm_boulder.png,US_Cities_List/nat_hanover.png,,,,,,,,,,,,,,,,,,,,,,,,,,,,
null,,black_cross(without_color),1074647,blue,,,,,null,US_Cities_List/mm_boulder.png,US_Cities_List/nat_hanover.png,,,,,,,,,,,,,,,,,,,,,,,,,,,,
null,,rt_plussign_withcolor,1075155,blue,,,,,null,US_Cities_List/mm_boulder.png,US_Cities_List/nat_hanover.png,,,,,,,,,,,,,,,,,,,,,,,,,,,,
706,,rt_thecrossant_black,1076343,black_plus_sign,,,,,49,,,1,0.949152542,,,,,,,,,,,,,,,,,,,,,,,,,,
null,,color_black,1076447,black_plus_sign,,,,,null,,,,,,,,,,,,,,,,,,,,,,,,,,,,,,
null,,learn_phase(without_color),1079006,black_plus_sign,,,,,null,US_Cities_List/nat_huntsville.png,US_Cities_List/nat_shreveport.png,,,,,,,,,,,,,,,,,,,,,,,,,,,,
null,,black_cross(without_color),1079482,green,,,,,null,US_Cities_List/nat_huntsville.png,US_Cities_List/nat_shreveport.png,,,,,,,,,,,,,,,,,,,,,,,,,,,,
null,,rt_plussign_withcolor,1079989,green,,,,,null,US_Cities_List/nat_huntsville.png,US_Cities_List/nat_shreveport.png,,,,,,,,,,,,,,,,,,,,,,,,,,,,
1213.8,,rt_thecrossant_black,1081528,black_plus_sign,,,,,50,,,1,0.949579832,,,,,,,,,,,,,,,,,,,,,,,,,,
null,,color_black,1081631,black_plus_sign,,,,,null,,,,,,,,,,,,,,,,,,,,,,,,,,,,,,
null,,learn_phase(without_color),1084182,black_plus_sign,,,,,null,US_Cities_List/nat_hanover.png,US_Cities_List/mm_newhope.png,,,,,,,,,,,,,,,,,,,,,,,,,,,,
null,,black_cross(without_color),1084726,blue,,,,,null,US_Cities_List/nat_hanover.png,US_Cities_List/mm_newhope.png,,,,,,,,,,,,,,,,,,,,,,,,,,,,
null,,rt_plussign_withcolor,1085233,blue,,,,,null,US_Cities_List/nat_hanover.png,US_Cities_List/mm_newhope.png,,,,,,,,,,,,,,,,,,,,,,,,,,,,
864,,rt_thecrossant_black,1086698,black_plus_sign,,,,,49,,,1,0.95,,,,,,,,,,,,,,,,,,,,,,,,,,
null,,color_black,1086807,black_plus_sign,,,,,null,,,,,,,,,,,,,,,,,,,,,,,,,,,,,,
null,,learn_phase(without_color),1089364,black_plus_sign,,,,,null,US_Cities_List/nat_hanover.png,US_Cities_List/mm_hotsprings.png,,,,,,,,,,,,,,,,,,,,,,,,,,,,
null,,black_cross(without_color),1089878,green,,,,,null,US_Cities_List/nat_hanover.png,US_Cities_List/mm_hotsprings.png,,,,,,,,,,,,,,,,,,,,,,,,,,,,
null,,rt_plussign_withcolor,1090387,green,,,,,null,US_Cities_List/nat_hanover.png,US_Cities_List/mm_hotsprings.png,,,,,,,,,,,,,,,,,,,,,,,,,,,,
639.3000001,,rt_thecrossant_black,1091894,black_plus_sign,,,,,50,,,1,0.950413223,,,,,,,,,,,,,,,,,,,,,,,,,,
null,,color_black,1092003,black_plus_sign,,,,,null,,,,,,,,,,,,,,,,,,,,,,,,,,,,,,
null,,learn_phase(without_color),1094553,black_plus_sign,,,,,null,US_Cities_List/nat_shreveport.png,US_Cities_List/mm_peoria.png,,,,,,,,,,,,,,,,,,,,,,,,,,,,
null,,black_cross(without_color),1095216,blue,,,,,null,US_Cities_List/nat_shreveport.png,US_Cities_List/mm_peoria.png,,,,,,,,,,,,,,,,,,,,,,,,,,,,
480.4,,rt_plussign_withcolor,1095725,blue,,,,,49,US_Cities_List/nat_shreveport.png,US_Cities_List/mm_peoria.png,,,,,,,,,,,,,,,,,,,,,,,,,,,,
null,,rt_thecrossant_black,1097080,black_plus_sign,,,,,null,,,1,0.950819672,,,,,,,,,,,,,,,,,,,,,,,,,,
null,,color_black,1097188,black_plus_sign,,,,,null,,,,,,,,,,,,,,,,,,,,,,,,,,,,,,
73465,,intro_1,1170658,instruct,,,0,,,,,,,,,,,,,,,,,,,,,,,,,,,,,,,,
33178.8,,intro_2,1203840,instruct,,,1,Next,,,,,,,,,,,,,,,,,,,,,,,,,,,,,,,
4483.4,,directmemory_phase,1208369,../static/images/US_Cities_List/mm_peoria.png,,,,,51,,,1,1,../static/images/US_Cities_List/mm_gatlinburg.png,../static/images/US_Cities_List/mm_carmel.png,../static/images/US_Cities_List/nat_leesburg.png,../static/images/US_Cities_List/nat_leesburg.png,../static/images/US_Cities_List/mm_carmel.png,../static/images/US_Cities_List/mm_gatlinburg.png,1,,,,,,,,,,,,,,,,,,,
null,,html-keyboard-response,1209384,<p></p>,,,,,null,,,,,,,,,,,,,,,,,,,,,,,,,,,,,,
1898.4,,directmemory_phase,1211347,../static/images/US_Cities_List/nat_huntsville.png,,,,,49,,,1,1,../static/images/US_Cities_List/nat_shreveport.png,../static/images/US_Cities_List/mm_newhope.png,../static/images/US_Cities_List/mm_hotsprings.png,../static/images/US_Cities_List/nat_shreveport.png,../static/images/US_Cities_List/mm_hotsprings.png,../static/images/US_Cities_List/mm_newhope.png,1,,,,,,,,,,,,,,,,,,,
null,,html-keyboard-response,1212359,<p></p>,,,,,null,,,,,,,,,,,,,,,,,,,,,,,,,,,,,,
2249.7,,directmemory_phase,1214676,../static/images/US_Cities_List/mm_carmel.png,,,,,50,,,0,0.666666667,../static/images/US_Cities_List/nat_racine.png,../static/images/US_Cities_List/nat_hanover.png,../static/images/US_Cities_List/nat_westpalmbeach.png,../static/images/US_Cities_List/nat_racine.png,../static/images/US_Cities_List/nat_westpalmbeach.png,../static/images/US_Cities_List/nat_hanover.png,0.5,closer,,,,,,,,,,,,,,,,,,
null,,html-keyboard-response,1215688,<p></p>,,,,,null,,,,,,,,,,,,,,,,,,,,,,,,,,,,,,
2986.8,,directmemory_phase,1218736,../static/images/US_Cities_List/nat_westpalmbeach.png,,,,,49,,,0,0.5,../static/images/US_Cities_List/nat_leesburg.png,../static/images/US_Cities_List/nat_hanover.png,../static/images/US_Cities_List/mm_boulder.png,../static/images/US_Cities_List/mm_boulder.png,../static/images/US_Cities_List/nat_hanover.png,../static/images/US_Cities_List/nat_leesburg.png,0.5,closer,,,,,,,,,,,,,,,,,,
null,,html-keyboard-response,1219747,<p></p>,,,,,null,,,,,,,,,,,,,,,,,,,,,,,,,,,,,,
2285.8,,directmemory_phase,1222103,../static/images/US_Cities_List/nat_leesburg.png,,,,,50,,,0,0.4,../static/images/US_Cities_List/nat_cornwall.png,../static/images/US_Cities_List/mm_boulder.png,../static/images/US_Cities_List/nat_huntsville.png,../static/images/US_Cities_List/nat_cornwall.png,../static/images/US_Cities_List/nat_huntsville.png,../static/images/US_Cities_List/mm_boulder.png,0.5,closer,,,,,,,,,,,,,,,,,,
null,,html-keyboard-response,1223115,<p></p>,,,,,null,,,,,,,,,,,,,,,,,,,,,,,,,,,,,,
2408.7,,directmemory_phase,1225592,../static/images/US_Cities_List/nat_westpalmbeach.png,,,,,50,,,0,0.333333333,../static/images/US_Cities_List/nat_huntsville.png,../static/images/US_Cities_List/nat_leesburg.png,../static/images/US_Cities_List/nat_hanover.png,../static/images/US_Cities_List/nat_huntsville.png,../static/images/US_Cities_List/nat_hanover.png,../static/images/US_Cities_List/nat_leesburg.png,0.5,closer,,,,,,,,,,,,,,,,,,
null,,html-keyboard-response,1226608,<p></p>,,,,,null,,,,,,,,,,,,,,,,,,,,,,,,,,,,,,
3054.5,,directmemory_phase,1229740,../static/images/US_Cities_List/nat_racine.png,,,,,49,,,0,0.285714286,../static/images/US_Cities_List/nat_huntsville.png,../static/images/US_Cities_List/mm_carmel.png,../static/images/US_Cities_List/mm_hotsprings.png,../static/images/US_Cities_List/mm_carmel.png,../static/images/US_Cities_List/nat_huntsville.png,../static/images/US_Cities_List/mm_hotsprings.png,0.5,closer,,,,,,,,,,,,,,,,,,
null,,html-keyboard-response,1230751,<p></p>,,,,,null,,,,,,,,,,,,,,,,,,,,,,,,,,,,,,
2726.3,,directmemory_phase,1233539,../static/images/US_Cities_List/mm_boulder.png,,,,,49,,,1,0.375,../static/images/US_Cities_List/nat_westpalmbeach.png,../static/images/US_Cities_List/mm_peoria.png,../static/images/US_Cities_List/nat_huntsville.png,../static/images/US_Cities_List/nat_westpalmbeach.png,../static/images/US_Cities_List/nat_huntsville.png,../static/images/US_Cities_List/mm_peoria.png,1,,,,,,,,,,,,,,,,,,,
null,,html-keyboard-response,1234555,<p></p>,,,,,null,,,,,,,,,,,,,,,,,,,,,,,,,,,,,,
2854.9,,directmemory_phase,1237461,../static/images/US_Cities_List/nat_shreveport.png,,,,,50,,,0,0.333333333,../static/images/US_Cities_List/nat_huntsville.png,../static/images/US_Cities_List/nat_cornwall.png,../static/images/US_Cities_List/nat_westpalmbeach.png,../static/images/US_Cities_List/nat_huntsville.png,../static/images/US_Cities_List/nat_westpalmbeach.png,../static/images/US_Cities_List/nat_cornwall.png,0.5,closer,,,,,,,,,,,,,,,,,,
null,,html-keyboard-response,1238476,<p></p>,,,,,null,,,,,,,,,,,,,,,,,,,,,,,,,,,,,,
2585.2,,directmemory_phase,1241130,../static/images/US_Cities_List/mm_newhope.png,,,,,50,,,0,0.3,../static/images/US_Cities_List/nat_shreveport.png,../static/images/US_Cities_List/mm_hotsprings.png,../static/images/US_Cities_List/nat_hanover.png,../static/images/US_Cities_List/nat_hanover.png,../static/images/US_Cities_List/mm_hotsprings.png,../static/images/US_Cities_List/nat_shreveport.png,0.5,closer,,,,,,,,,,,,,,,,,,
null,,html-keyboard-response,1242148,<p></p>,,,,,null,,,,,,,,,,,,,,,,,,,,,,,,,,,,,,
3054.9,,directmemory_phase,1245280,../static/images/US_Cities_List/mm_hotsprings.png,,,,,50,,,0,0.272727273,../static/images/US_Cities_List/nat_racine.png,../static/images/US_Cities_List/mm_newhope.png,../static/images/US_Cities_List/nat_shreveport.png,../static/images/US_Cities_List/nat_shreveport.png,../static/images/US_Cities_List/mm_newhope.png,../static/images/US_Cities_List/nat_racine.png,0.5,closer,,,,,,,,,,,,,,,,,,
null,,html-keyboard-response,1246297,<p></p>,,,,,null,,,,,,,,,,,,,,,,,,,,,,,,,,,,,,
2473.3,,directmemory_phase,1248848,../static/images/US_Cities_List/nat_huntsville.png,,,,,50,,,0,0.25,../static/images/US_Cities_List/mm_newhope.png,../static/images/US_Cities_List/mm_boulder.png,../static/images/US_Cities_List/mm_carmel.png,../static/images/US_Cities_List/mm_carmel.png,../static/images/US_Cities_List/mm_boulder.png,../static/images/US_Cities_List/mm_newhope.png,0.5,closer,,,,,,,,,,,,,,,,,,
null,,html-keyboard-response,1249863,<p></p>,,,,,null,,,,,,,,,,,,,,,,,,,,,,,,,,,,,,
1784,,directmemory_phase,1251716,../static/images/US_Cities_List/mm_hotsprings.png,,,,,51,,,1,0.307692308,../static/images/US_Cities_List/nat_racine.png,../static/images/US_Cities_List/mm_gatlinburg.png,../static/images/US_Cities_List/nat_hanover.png,../static/images/US_Cities_List/nat_hanover.png,../static/images/US_Cities_List/mm_gatlinburg.png,../static/images/US_Cities_List/nat_racine.png,1,,,,,,,,,,,,,,,,,,,
null,,html-keyboard-response,1252731,<p></p>,,,,,null,,,,,,,,,,,,,,,,,,,,,,,,,,,,,,
1539.9,,directmemory_phase,1254343,../static/images/US_Cities_List/mm_boulder.png,,,,,49,,,0,0.285714286,../static/images/US_Cities_List/nat_racine.png,../static/images/US_Cities_List/nat_shreveport.png,../static/images/US_Cities_List/mm_gatlinburg.png,../static/images/US_Cities_List/mm_gatlinburg.png,../static/images/US_Cities_List/nat_shreveport.png,../static/images/US_Cities_List/nat_racine.png,0.5,closer,,,,,,,,,,,,,,,,,,
null,,html-keyboard-response,1255360,<p></p>,,,,,null,,,,,,,,,,,,,,,,,,,,,,,,,,,,,,
2186.2,,directmemory_phase,1257607,../static/images/US_Cities_List/nat_hanover.png,,,,,50,,,1,0.333333333,../static/images/US_Cities_List/mm_gatlinburg.png,../static/images/US_Cities_List/mm_hotsprings.png,../static/images/US_Cities_List/mm_carmel.png,../static/images/US_Cities_List/mm_hotsprings.png,../static/images/US_Cities_List/mm_gatlinburg.png,../static/images/US_Cities_List/mm_carmel.png,1,,,,,,,,,,,,,,,,,,,
null,,html-keyboard-response,1258617,<p></p>,,,,,null,,,,,,,,,,,,,,,,,,,,,,,,,,,,,,
2029,,directmemory_phase,1260709,../static/images/US_Cities_List/nat_leesburg.png,,,,,51,,,1,0.375,../static/images/US_Cities_List/nat_westpalmbeach.png,../static/images/US_Cities_List/nat_shreveport.png,../static/images/US_Cities_List/mm_carmel.png,../static/images/US_Cities_List/mm_carmel.png,../static/images/US_Cities_List/nat_shreveport.png,../static/images/US_Cities_List/nat_westpalmbeach.png,1,,,,,,,,,,,,,,,,,,,
null,,html-keyboard-response,1261716,<p></p>,,,,,null,,,,,,,,,,,,,,,,,,,,,,,,,,,,,,
2626.9,,directmemory_phase,1264405,../static/images/US_Cities_List/mm_hotsprings.png,,,,,51,,,1,0.411764706,../static/images/US_Cities_List/nat_cornwall.png,../static/images/US_Cities_List/mm_peoria.png,../static/images/US_Cities_List/mm_boulder.png,../static/images/US_Cities_List/mm_boulder.png,../static/images/US_Cities_List/mm_peoria.png,../static/images/US_Cities_List/nat_cornwall.png,1,,,,,,,,,,,,,,,,,,,
null,,html-keyboard-response,1265416,<p></p>,,,,,null,,,,,,,,,,,,,,,,,,,,,,,,,,,,,,
2893.1,,directmemory_phase,1268371,../static/images/US_Cities_List/nat_huntsville.png,,,,,49,,,1,0.444444444,../static/images/US_Cities_List/nat_westpalmbeach.png,../static/images/US_Cities_List/mm_newhope.png,../static/images/US_Cities_List/mm_peoria.png,../static/images/US_Cities_List/nat_westpalmbeach.png,../static/images/US_Cities_List/mm_peoria.png,../static/images/US_Cities_List/mm_newhope.png,1,,,,,,,,,,,,,,,,,,,
null,,html-keyboard-response,1269389,<p></p>,,,,,null,,,,,,,,,,,,,,,,,,,,,,,,,,,,,,
2107.3,,directmemory_phase,1271567,../static/images/US_Cities_List/mm_boulder.png,,,,,50,,,0,0.421052632,../static/images/US_Cities_List/nat_hanover.png,../static/images/US_Cities_List/mm_peoria.png,../static/images/US_Cities_List/nat_huntsville.png,../static/images/US_Cities_List/nat_hanover.png,../static/images/US_Cities_List/nat_huntsville.png,../static/images/US_Cities_List/mm_peoria.png,0.5,closer,,,,,,,,,,,,,,,,,,
null,,html-keyboard-response,1272575,<p></p>,,,,,null,,,,,,,,,,,,,,,,,,,,,,,,,,,,,,
2603.9,,directmemory_phase,1275243,../static/images/US_Cities_List/mm_carmel.png,,,,,51,,,0,0.4,../static/images/US_Cities_List/nat_leesburg.png,../static/images/US_Cities_List/mm_hotsprings.png,../static/images/US_Cities_List/nat_westpalmbeach.png,../static/images/US_Cities_List/nat_leesburg.png,../static/images/US_Cities_List/nat_westpalmbeach.png,../static/images/US_Cities_List/mm_hotsprings.png,0.5,closer,,,,,,,,,,,,,,,,,,
null,,html-keyboard-response,1276255,<p></p>,,,,,null,,,,,,,,,,,,,,,,,,,,,,,,,,,,,,
3070.6,,directmemory_phase,1279389,../static/images/US_Cities_List/nat_westpalmbeach.png,,,,,51,,,0,0.380952381,../static/images/US_Cities_List/mm_carmel.png,../static/images/US_Cities_List/mm_hotsprings.png,../static/images/US_Cities_List/mm_newhope.png,../static/images/US_Cities_List/mm_hotsprings.png,../static/images/US_Cities_List/mm_carmel.png,../static/images/US_Cities_List/mm_newhope.png,0.5,closer,,,,,,,,,,,,,,,,,,
null,,html-keyboard-response,1280400,<p></p>,,,,,null,,,,,,,,,,,,,,,,,,,,,,,,,,,,,,
2240.8,,directmemory_phase,1282709,../static/images/US_Cities_List/nat_cornwall.png,,,,,49,,,0,0.363636364,../static/images/US_Cities_List/nat_huntsville.png,../static/images/US_Cities_List/mm_peoria.png,../static/images/US_Cities_List/nat_leesburg.png,../static/images/US_Cities_List/nat_leesburg.png,../static/images/US_Cities_List/mm_peoria.png,../static/images/US_Cities_List/nat_huntsville.png,0.5,closer,,,,,,,,,,,,,,,,,,
null,,html-keyboard-response,1283720,<p></p>,,,,,null,,,,,,,,,,,,,,,,,,,,,,,,,,,,,,
1834,,directmemory_phase,1285626,../static/images/US_Cities_List/mm_peoria.png,,,,,50,,,1,0.391304348,../static/images/US_Cities_List/nat_huntsville.png,../static/images/US_Cities_List/nat_shreveport.png,../static/images/US_Cities_List/mm_boulder.png,../static/images/US_Cities_List/nat_shreveport.png,../static/images/US_Cities_List/nat_huntsville.png,../static/images/US_Cities_List/mm_boulder.png,1,,,,,,,,,,,,,,,,,,,
null,,html-keyboard-response,1286636,<p></p>,,,,,null,,,,,,,,,,,,,,,,,,,,,,,,,,,,,,
2265.9,,directmemory_phase,1288975,../static/images/US_Cities_List/nat_hanover.png,,,,,49,,,0,0.375,../static/images/US_Cities_List/nat_leesburg.png,../static/images/US_Cities_List/nat_shreveport.png,../static/images/US_Cities_List/mm_newhope.png,../static/images/US_Cities_List/mm_newhope.png,../static/images/US_Cities_List/nat_shreveport.png,../static/images/US_Cities_List/nat_leesburg.png,0.5,closer,,,,,,,,,,,,,,,,,,
null,,html-keyboard-response,1289987,<p></p>,,,,,null,,,,,,,,,,,,,,,,,,,,,,,,,,,,,,
3089,,directmemory_phase,1293150,../static/images/US_Cities_List/nat_shreveport.png,,,,,51,,,0,0.36,../static/images/US_Cities_List/mm_hotsprings.png,../static/images/US_Cities_List/nat_cornwall.png,../static/images/US_Cities_List/nat_westpalmbeach.png,../static/images/US_Cities_List/mm_hotsprings.png,../static/images/US_Cities_List/nat_westpalmbeach.png,../static/images/US_Cities_List/nat_cornwall.png,0.5,closer,,,,,,,,,,,,,,,,,,
null,,html-keyboard-response,1294168,<p></p>,,,,,null,,,,,,,,,,,,,,,,,,,,,,,,,,,,,,
2440.5,,directmemory_phase,1296685,../static/images/US_Cities_List/mm_carmel.png,,,,,49,,,0,0.346153846,../static/images/US_Cities_List/mm_boulder.png,../static/images/US_Cities_List/nat_shreveport.png,../static/images/US_Cities_List/nat_huntsville.png,../static/images/US_Cities_List/nat_huntsville.png,../static/images/US_Cities_List/nat_shreveport.png,../static/images/US_Cities_List/mm_boulder.png,0.5,closer,,,,,,,,,,,,,,,,,,
null,,html-keyboard-response,1297701,<p></p>,,,,,null,,,,,,,,,,,,,,,,,,,,,,,,,,,,,,
2831.9,,directmemory_phase,1300596,../static/images/US_Cities_List/mm_gatlinburg.png,,,,,50,,,0,0.333333333,../static/images/US_Cities_List/nat_shreveport.png,../static/images/US_Cities_List/nat_hanover.png,../static/images/US_Cities_List/mm_boulder.png,../static/images/US_Cities_List/mm_boulder.png,../static/images/US_Cities_List/nat_hanover.png,../static/images/US_Cities_List/nat_shreveport.png,0.5,closer,,,,,,,,,,,,,,,,,,
null,,html-keyboard-response,1301614,<p></p>,,,,,null,,,,,,,,,,,,,,,,,,,,,,,,,,,,,,
2088.5,,directmemory_phase,1303759,../static/images/US_Cities_List/nat_leesburg.png,,,,,51,,,0,0.321428571,../static/images/US_Cities_List/mm_peoria.png,../static/images/US_Cities_List/nat_westpalmbeach.png,../static/images/US_Cities_List/nat_racine.png,../static/images/US_Cities_List/mm_peoria.png,../static/images/US_Cities_List/nat_racine.png,../static/images/US_Cities_List/nat_westpalmbeach.png,0.5,closer,,,,,,,,,,,,,,,,,,
null,,html-keyboard-response,1304773,<p></p>,,,,,null,,,,,,,,,,,,,,,,,,,,,,,,,,,,,,
