rt,responses,trial_type,time_elapsed,stimulus,cities,city_images,button_pressed,response,key_press,stimulus_left,stimulus_right,accuracy,cumulative_accuracy,stimulus_down_left,stimulus_down_mid,stimulus_down_right,stimulus_correct,stimulus_short,stimulus_far,weighted_accuracy,missedtrial,condition,specific_pairs,imgL_ID,imgR_ID,linedress,linedressed,image_position,unknowncity,testedstates,currentstate,otherstate,problems,smooth,distraction,strategies,easier,similar,comments,,
108809.1,{worker_id:5fadeb340e10471fdeb5fbf5},id_enter,108811,intro,Hanover; New Hope; Boulder; Carmel; Leesburg; Shreveport; Peoria; West Palm Beach; Huntsville; Racine; Gatlinburg; Cornwall; Hot Springs,US_Cities_List/mm_hanover.png; US_Cities_List/nat_newhope.png; US_Cities_List/mm_boulder.png; US_Cities_List/mm_carmel.png; US_Cities_List/mm_leesburg.png; US_Cities_List/mm_shreveport.png; US_Cities_List/nat_peoria.png; US_Cities_List/mm_westpalmbeach.png; US_Cities_List/nat_huntsville.png; US_Cities_List/nat_racine.png; US_Cities_List/mm_gatlinburg.png; US_Cities_List/mm_cornwall.png; US_Cities_List/mm_hotsprings.png,,,,,,,,,,,,,,,,,,,,,,,,,,,,,,,,,,,
77176.9,,fullscreen,185993,make_fullscreen,,,0,,,,,,,,,,,,,,,,,,,,,,,,,,,,,,,,,,
5116.4,,intro_1,191112,instruct,,,0,,,,,,,,,,,,,,,,,,,,,,,,,,,,,,,,,,
37365.9,,intro_2,228480,instruct,,,1,Next,,,,,,,,,,,,,,,,,,,,,,,,,,,,,,,,,
5141.3,,intro_3,233624,instruct,,,1,Next,,,,,,,,,,,,,,,,,,,,,,,,,,,,,,,,,
3940.6,,intro_4,237567,instruct,,,1,Next,,,,,,,,,,,,,,,,,,,,,,,,,,,,,,,,,
7749.2,,intro_5,245318,instruct,,,1,Next,,,,,,,,,,,,,,,,,,,,,,,,,,,,,,,,,
23140.4,,intro_6,268461,instruct,,,1,Next,,,,,,,,,,,,,,,,,,,,,,,,,,,,,,,,,
null,,prac_atten_color_black,269219,black_plus_sign,,,,,null,,,,,,,,,,,,,,,,,,,,,,,,,,,,,,,,
474.8,,prac_atten_color,269868,prac_stop_color,,,,,50,,,,,,,,,,,,,,,,,,,,,,,,,,,,,,,,
null,,prac_atten_color_black,271871,black_plus_sign,,,,,null,,,,,,,,,,,,,,,,,,,,,,,,,,,,,,,,
6054.7,,attentioncheck_help,277929,instruct,,,,,32,,,,,,,,,,,,,,,,,,,,,,,,,,,,,,,,
null,,prac_atten_color_black,278686,black_plus_sign,,,,,null,,,,,,,,,,,,,,,,,,,,,,,,,,,,,,,,
566.8,,prac_atten_color,279682,prac_stop_color,,,,,50,,,,,,,,,,,,,,,,,,,,,,,,,,,,,,,,
null,,prac_atten_color_black,281685,black_plus_sign,,,,,null,,,,,,,,,,,,,,,,,,,,,,,,,,,,,,,,
null,,prac_atten_color_black,282096,black_plus_sign,,,,,null,,,,,,,,,,,,,,,,,,,,,,,,,,,,,,,,
null,,prac_atten_color,282573,prac_stop_color,,,,,null,,,,,,,,,,,,,,,,,,,,,,,,,,,,,,,,
238.2,,prac_atten_color_black,284576,black_plus_sign,,,,,50,,,,,,,,,,,,,,,,,,,,,,,,,,,,,,,,
null,,prac_atten_color_black,285507,black_plus_sign,,,,,null,,,,,,,,,,,,,,,,,,,,,,,,,,,,,,,,
471.6,,prac_atten_color,286069,prac_stop_color,,,,,49,,,,,,,,,,,,,,,,,,,,,,,,,,,,,,,,
null,,prac_atten_color_black,288072,black_plus_sign,,,,,null,,,,,,,,,,,,,,,,,,,,,,,,,,,,,,,,
null,,prac_atten_color_black,288917,black_plus_sign,,,,,null,,,,,,,,,,,,,,,,,,,,,,,,,,,,,,,,
550.6,,prac_atten_color,289833,prac_stop_color,,,,,50,,,,,,,,,,,,,,,,,,,,,,,,,,,,,,,,
null,,prac_atten_color_black,291836,black_plus_sign,,,,,null,,,,,,,,,,,,,,,,,,,,,,,,,,,,,,,,
null,,prac_atten_color_black,292326,black_plus_sign,,,,,null,,,,,,,,,,,,,,,,,,,,,,,,,,,,,,,,
null,,prac_atten_color,292735,prac_stop_color,,,,,null,,,,,,,,,,,,,,,,,,,,,,,,,,,,,,,,
196.8,,prac_atten_color_black,294737,black_plus_sign,,,,,50,,,,,,,,,,,,,,,,,,,,,,,,,,,,,,,,
null,,prac_atten_color_black,295736,black_plus_sign,,,,,null,,,,,,,,,,,,,,,,,,,,,,,,,,,,,,,,
481.8,,prac_atten_color,296786,prac_stop_color,,,,,49,,,,,,,,,,,,,,,,,,,,,,,,,,,,,,,,
null,,prac_atten_color_black,298790,black_plus_sign,,,,,null,,,,,,,,,,,,,,,,,,,,,,,,,,,,,,,,
null,,prac_atten_color_black,299146,black_plus_sign,,,,,null,,,,,,,,,,,,,,,,,,,,,,,,,,,,,,,,
515.5,,prac_atten_color,300016,prac_stop_color,,,,,50,,,,,,,,,,,,,,,,,,,,,,,,,,,,,,,,
null,,prac_atten_color_black,302019,black_plus_sign,,,,,null,,,,,,,,,,,,,,,,,,,,,,,,,,,,,,,,
null,,prac_atten_color_black,302556,black_plus_sign,,,,,null,,,,,,,,,,,,,,,,,,,,,,,,,,,,,,,,
null,,prac_atten_color,303150,prac_stop_color,,,,,null,,,,,,,,,,,,,,,,,,,,,,,,,,,,,,,,
18.7,,prac_atten_color_black,305154,black_plus_sign,,,,,49,,,,,,,,,,,,,,,,,,,,,,,,,,,,,,,,
null,,prac_atten_color_black,305966,black_plus_sign,,,,,null,,,,,,,,,,,,,,,,,,,,,,,,,,,,,,,,
626.1,,prac_atten_color,306675,prac_stop_color,,,,,49,,,,,,,,,,,,,,,,,,,,,,,,,,,,,,,,
null,,prac_atten_color_black,308678,black_plus_sign,,,,,null,,,,,,,,,,,,,,,,,,,,,,,,,,,,,,,,
6884,,attentioncheck_feedback,315565,cross_check_feedback,,,0,,,,,,,,,,,,,,,,,,,,,,,,,,,,,,,,,,
10172.8,,last_instruct,325739,instruct,,,,,32,,,,,,,,,,,,,,,,,,,,,,,,,,,,,,,,
null,,learn_phase(without_color),327769,black_plus_sign,,,,,null,US_Cities_List/mm_boulder.png,US_Cities_List/mm_shreveport.png,,,,,,,,,,,,,,,,,,,,,,,,,,,,,,
null,,black_cross(without_color),328417,blue,,,,,null,US_Cities_List/mm_boulder.png,US_Cities_List/mm_shreveport.png,,,,,,,,,,,,,,,,,,,,,,,,,,,,,,
null,,rt_plussign_withcolor,328920,blue,,,,,null,US_Cities_List/mm_boulder.png,US_Cities_List/mm_shreveport.png,,,,,,,,,,,,,,,,,,,,,,,,,,,,,,
1286.9,,rt_thecrossant_black,330279,black_plus_sign,,,,,49,,,1,1,,,,,,,,,,,,,,,,,,,,,,,,,,,,
null,,color_black,330383,black_plus_sign,,,,,null,,,,,,,,,,,,,,,,,,,,,,,,,,,,,,,,
null,,learn_phase(without_color),332915,black_plus_sign,,,,,null,US_Cities_List/nat_huntsville.png,US_Cities_List/mm_gatlinburg.png,,,,,,,,,,,,,,,,,,,,,,,,,,,,,,
null,,black_cross(without_color),333856,blue,,,,,null,US_Cities_List/nat_huntsville.png,US_Cities_List/mm_gatlinburg.png,,,,,,,,,,,,,,,,,,,,,,,,,,,,,,
null,,rt_plussign_withcolor,334358,blue,,,,,null,US_Cities_List/nat_huntsville.png,US_Cities_List/mm_gatlinburg.png,,,,,,,,,,,,,,,,,,,,,,,,,,,,,,
738.9,,rt_thecrossant_black,335423,black_plus_sign,,,,,49,,,1,1,,,,,,,,,,,,,,,,,,,,,,,,,,,,
null,,color_black,335526,black_plus_sign,,,,,null,,,,,,,,,,,,,,,,,,,,,,,,,,,,,,,,
null,,learn_phase(without_color),338061,black_plus_sign,,,,,null,US_Cities_List/mm_boulder.png,US_Cities_List/mm_gatlinburg.png,,,,,,,,,,,,,,,,,,,,,,,,,,,,,,
null,,black_cross(without_color),338745,blue,,,,,null,US_Cities_List/mm_boulder.png,US_Cities_List/mm_gatlinburg.png,,,,,,,,,,,,,,,,,,,,,,,,,,,,,,
null,,rt_plussign_withcolor,339248,blue,,,,,null,US_Cities_List/mm_boulder.png,US_Cities_List/mm_gatlinburg.png,,,,,,,,,,,,,,,,,,,,,,,,,,,,,,
1093.6,,rt_thecrossant_black,340571,black_plus_sign,,,,,49,,,1,1,,,,,,,,,,,,,,,,,,,,,,,,,,,,
null,,color_black,340673,black_plus_sign,,,,,null,,,,,,,,,,,,,,,,,,,,,,,,,,,,,,,,
null,,learn_phase(without_color),343215,black_plus_sign,,,,,null,US_Cities_List/mm_westpalmbeach.png,US_Cities_List/nat_huntsville.png,,,,,,,,,,,,,,,,,,,,,,,,,,,,,,
null,,black_cross(without_color),343744,blue,,,,,null,US_Cities_List/mm_westpalmbeach.png,US_Cities_List/nat_huntsville.png,,,,,,,,,,,,,,,,,,,,,,,,,,,,,,
null,,rt_plussign_withcolor,344247,blue,,,,,null,US_Cities_List/mm_westpalmbeach.png,US_Cities_List/nat_huntsville.png,,,,,,,,,,,,,,,,,,,,,,,,,,,,,,
969.1,,rt_thecrossant_black,345723,black_plus_sign,,,,,49,,,1,1,,,,,,,,,,,,,,,,,,,,,,,,,,,,
null,,color_black,345826,black_plus_sign,,,,,null,,,,,,,,,,,,,,,,,,,,,,,,,,,,,,,,
null,,learn_phase(without_color),348362,black_plus_sign,,,,,null,US_Cities_List/nat_newhope.png,US_Cities_List/mm_carmel.png,,,,,,,,,,,,,,,,,,,,,,,,,,,,,,
null,,black_cross(without_color),349316,blue,,,,,null,US_Cities_List/nat_newhope.png,US_Cities_List/mm_carmel.png,,,,,,,,,,,,,,,,,,,,,,,,,,,,,,
null,,rt_plussign_withcolor,349818,blue,,,,,null,US_Cities_List/nat_newhope.png,US_Cities_List/mm_carmel.png,,,,,,,,,,,,,,,,,,,,,,,,,,,,,,
802.8,,rt_thecrossant_black,350869,black_plus_sign,,,,,49,,,1,1,,,,,,,,,,,,,,,,,,,,,,,,,,,,
null,,color_black,350973,black_plus_sign,,,,,null,,,,,,,,,,,,,,,,,,,,,,,,,,,,,,,,
null,,learn_phase(without_color),353513,black_plus_sign,,,,,null,US_Cities_List/mm_shreveport.png,US_Cities_List/nat_huntsville.png,,,,,,,,,,,,,,,,,,,,,,,,,,,,,,
null,,black_cross(without_color),354595,blue,,,,,null,US_Cities_List/mm_shreveport.png,US_Cities_List/nat_huntsville.png,,,,,,,,,,,,,,,,,,,,,,,,,,,,,,
null,,rt_plussign_withcolor,355097,blue,,,,,null,US_Cities_List/mm_shreveport.png,US_Cities_List/nat_huntsville.png,,,,,,,,,,,,,,,,,,,,,,,,,,,,,,
1074.2,,rt_thecrossant_black,356023,black_plus_sign,,,,,49,,,1,1,,,,,,,,,,,,,,,,,,,,,,,,,,,,
null,,color_black,356126,black_plus_sign,,,,,null,,,,,,,,,,,,,,,,,,,,,,,,,,,,,,,,
null,,learn_phase(without_color),358659,black_plus_sign,,,,,null,US_Cities_List/nat_newhope.png,US_Cities_List/mm_carmel.png,,,,,,,,,,,,,,,,,,,,,,,,,,,,,,
null,,black_cross(without_color),359158,blue,,,,,null,US_Cities_List/nat_newhope.png,US_Cities_List/mm_carmel.png,,,,,,,,,,,,,,,,,,,,,,,,,,,,,,
null,,rt_plussign_withcolor,359661,blue,,,,,null,US_Cities_List/nat_newhope.png,US_Cities_List/mm_carmel.png,,,,,,,,,,,,,,,,,,,,,,,,,,,,,,
1226.7,,rt_thecrossant_black,361167,black_plus_sign,,,,,49,,,1,1,,,,,,,,,,,,,,,,,,,,,,,,,,,,
null,,color_black,361271,black_plus_sign,,,,,null,,,,,,,,,,,,,,,,,,,,,,,,,,,,,,,,
null,,learn_phase(without_color),363794,black_plus_sign,,,,,null,US_Cities_List/mm_carmel.png,US_Cities_List/mm_cornwall.png,,,,,,,,,,,,,,,,,,,,,,,,,,,,,,
null,,black_cross(without_color),364884,blue,,,,,null,US_Cities_List/mm_carmel.png,US_Cities_List/mm_cornwall.png,,,,,,,,,,,,,,,,,,,,,,,,,,,,,,
null,,rt_plussign_withcolor,365387,blue,,,,,null,US_Cities_List/mm_carmel.png,US_Cities_List/mm_cornwall.png,,,,,,,,,,,,,,,,,,,,,,,,,,,,,,
613.9,,rt_thecrossant_black,366304,black_plus_sign,,,,,49,,,1,1,,,,,,,,,,,,,,,,,,,,,,,,,,,,
null,,color_black,366407,black_plus_sign,,,,,null,,,,,,,,,,,,,,,,,,,,,,,,,,,,,,,,
null,,learn_phase(without_color),368945,black_plus_sign,,,,,null,US_Cities_List/mm_boulder.png,US_Cities_List/mm_shreveport.png,,,,,,,,,,,,,,,,,,,,,,,,,,,,,,
null,,black_cross(without_color),370029,blue,,,,,null,US_Cities_List/mm_boulder.png,US_Cities_List/mm_shreveport.png,,,,,,,,,,,,,,,,,,,,,,,,,,,,,,
null,,rt_plussign_withcolor,370533,blue,,,,,null,US_Cities_List/mm_boulder.png,US_Cities_List/mm_shreveport.png,,,,,,,,,,,,,,,,,,,,,,,,,,,,,,
1233.7,,rt_thecrossant_black,371455,black_plus_sign,,,,,49,,,1,1,,,,,,,,,,,,,,,,,,,,,,,,,,,,
null,,color_black,371558,black_plus_sign,,,,,null,,,,,,,,,,,,,,,,,,,,,,,,,,,,,,,,
null,,learn_phase(without_color),374096,black_plus_sign,,,,,null,US_Cities_List/nat_huntsville.png,US_Cities_List/mm_gatlinburg.png,,,,,,,,,,,,,,,,,,,,,,,,,,,,,,
null,,black_cross(without_color),374754,green,,,,,null,US_Cities_List/nat_huntsville.png,US_Cities_List/mm_gatlinburg.png,,,,,,,,,,,,,,,,,,,,,,,,,,,,,,
null,,rt_plussign_withcolor,375257,green,,,,,null,US_Cities_List/nat_huntsville.png,US_Cities_List/mm_gatlinburg.png,,,,,,,,,,,,,,,,,,,,,,,,,,,,,,
1184.8,,rt_thecrossant_black,376605,black_plus_sign,,,,,50,,,1,1,,,,,,,,,,,,,,,,,,,,,,,,,,,,
null,,color_black,376708,black_plus_sign,,,,,null,,,,,,,,,,,,,,,,,,,,,,,,,,,,,,,,
null,,learn_phase(without_color),379244,black_plus_sign,,,,,null,US_Cities_List/mm_westpalmbeach.png,US_Cities_List/nat_racine.png,,,,,,,,,,,,,,,,,,,,,,,,,,,,,,
null,,black_cross(without_color),379686,green,,,,,null,US_Cities_List/mm_westpalmbeach.png,US_Cities_List/nat_racine.png,,,,,,,,,,,,,,,,,,,,,,,,,,,,,,
null,,rt_plussign_withcolor,380188,green,,,,,null,US_Cities_List/mm_westpalmbeach.png,US_Cities_List/nat_racine.png,,,,,,,,,,,,,,,,,,,,,,,,,,,,,,
800.9,,rt_thecrossant_black,381754,black_plus_sign,,,,,50,,,1,1,,,,,,,,,,,,,,,,,,,,,,,,,,,,
null,,color_black,381857,black_plus_sign,,,,,null,,,,,,,,,,,,,,,,,,,,,,,,,,,,,,,,
null,,learn_phase(without_color),384399,black_plus_sign,,,,,null,US_Cities_List/mm_westpalmbeach.png,US_Cities_List/nat_huntsville.png,,,,,,,,,,,,,,,,,,,,,,,,,,,,,,
null,,black_cross(without_color),384945,green,,,,,null,US_Cities_List/mm_westpalmbeach.png,US_Cities_List/nat_huntsville.png,,,,,,,,,,,,,,,,,,,,,,,,,,,,,,
null,,rt_plussign_withcolor,385449,green,,,,,null,US_Cities_List/mm_westpalmbeach.png,US_Cities_List/nat_huntsville.png,,,,,,,,,,,,,,,,,,,,,,,,,,,,,,
563.9,,rt_thecrossant_black,386908,black_plus_sign,,,,,50,,,1,1,,,,,,,,,,,,,,,,,,,,,,,,,,,,
null,,color_black,387012,black_plus_sign,,,,,null,,,,,,,,,,,,,,,,,,,,,,,,,,,,,,,,
null,,learn_phase(without_color),389546,black_plus_sign,,,,,null,US_Cities_List/mm_shreveport.png,US_Cities_List/nat_huntsville.png,,,,,,,,,,,,,,,,,,,,,,,,,,,,,,
null,,black_cross(without_color),390476,blue,,,,,null,US_Cities_List/mm_shreveport.png,US_Cities_List/nat_huntsville.png,,,,,,,,,,,,,,,,,,,,,,,,,,,,,,
null,,rt_plussign_withcolor,390979,blue,,,,,null,US_Cities_List/mm_shreveport.png,US_Cities_List/nat_huntsville.png,,,,,,,,,,,,,,,,,,,,,,,,,,,,,,
993.2,,rt_thecrossant_black,392054,black_plus_sign,,,,,49,,,1,1,,,,,,,,,,,,,,,,,,,,,,,,,,,,
null,,color_black,392157,black_plus_sign,,,,,null,,,,,,,,,,,,,,,,,,,,,,,,,,,,,,,,
null,,learn_phase(without_color),394690,black_plus_sign,,,,,null,US_Cities_List/nat_newhope.png,US_Cities_List/mm_carmel.png,,,,,,,,,,,,,,,,,,,,,,,,,,,,,,
null,,black_cross(without_color),395560,green,,,,,null,US_Cities_List/nat_newhope.png,US_Cities_List/mm_carmel.png,,,,,,,,,,,,,,,,,,,,,,,,,,,,,,
null,,rt_plussign_withcolor,396062,green,,,,,null,US_Cities_List/nat_newhope.png,US_Cities_List/mm_carmel.png,,,,,,,,,,,,,,,,,,,,,,,,,,,,,,
1149.8,,rt_thecrossant_black,397200,black_plus_sign,,,,,50,,,1,1,,,,,,,,,,,,,,,,,,,,,,,,,,,,
null,,color_black,397304,black_plus_sign,,,,,null,,,,,,,,,,,,,,,,,,,,,,,,,,,,,,,,
null,,learn_phase(without_color),399843,black_plus_sign,,,,,null,US_Cities_List/mm_carmel.png,US_Cities_List/mm_cornwall.png,,,,,,,,,,,,,,,,,,,,,,,,,,,,,,
null,,black_cross(without_color),400527,blue,,,,,null,US_Cities_List/mm_carmel.png,US_Cities_List/mm_cornwall.png,,,,,,,,,,,,,,,,,,,,,,,,,,,,,,
null,,rt_plussign_withcolor,401030,blue,,,,,null,US_Cities_List/mm_carmel.png,US_Cities_List/mm_cornwall.png,,,,,,,,,,,,,,,,,,,,,,,,,,,,,,
979.8,,rt_thecrossant_black,402352,black_plus_sign,,,,,49,,,1,1,,,,,,,,,,,,,,,,,,,,,,,,,,,,
null,,color_black,402455,black_plus_sign,,,,,null,,,,,,,,,,,,,,,,,,,,,,,,,,,,,,,,
null,,learn_phase(without_color),404997,black_plus_sign,,,,,null,US_Cities_List/mm_westpalmbeach.png,US_Cities_List/nat_huntsville.png,,,,,,,,,,,,,,,,,,,,,,,,,,,,,,
null,,black_cross(without_color),405693,green,,,,,null,US_Cities_List/mm_westpalmbeach.png,US_Cities_List/nat_huntsville.png,,,,,,,,,,,,,,,,,,,,,,,,,,,,,,
null,,rt_plussign_withcolor,406197,green,,,,,null,US_Cities_List/mm_westpalmbeach.png,US_Cities_List/nat_huntsville.png,,,,,,,,,,,,,,,,,,,,,,,,,,,,,,
945.2,,rt_thecrossant_black,407507,black_plus_sign,,,,,50,,,1,1,,,,,,,,,,,,,,,,,,,,,,,,,,,,
null,,color_black,407611,black_plus_sign,,,,,null,,,,,,,,,,,,,,,,,,,,,,,,,,,,,,,,
null,,learn_phase(without_color),410130,black_plus_sign,,,,,null,US_Cities_List/mm_boulder.png,US_Cities_List/mm_gatlinburg.png,,,,,,,,,,,,,,,,,,,,,,,,,,,,,,
null,,black_cross(without_color),411157,green,,,,,null,US_Cities_List/mm_boulder.png,US_Cities_List/mm_gatlinburg.png,,,,,,,,,,,,,,,,,,,,,,,,,,,,,,
null,,rt_plussign_withcolor,411660,green,,,,,null,US_Cities_List/mm_boulder.png,US_Cities_List/mm_gatlinburg.png,,,,,,,,,,,,,,,,,,,,,,,,,,,,,,
1047.2,,rt_thecrossant_black,412640,black_plus_sign,,,,,50,,,1,1,,,,,,,,,,,,,,,,,,,,,,,,,,,,
null,,color_black,412744,black_plus_sign,,,,,null,,,,,,,,,,,,,,,,,,,,,,,,,,,,,,,,
null,,learn_phase(without_color),415277,black_plus_sign,,,,,null,US_Cities_List/nat_newhope.png,US_Cities_List/mm_carmel.png,,,,,,,,,,,,,,,,,,,,,,,,,,,,,,
null,,black_cross(without_color),415682,green,,,,,null,US_Cities_List/nat_newhope.png,US_Cities_List/mm_carmel.png,,,,,,,,,,,,,,,,,,,,,,,,,,,,,,
null,,rt_plussign_withcolor,416185,green,,,,,null,US_Cities_List/nat_newhope.png,US_Cities_List/mm_carmel.png,,,,,,,,,,,,,,,,,,,,,,,,,,,,,,
1375.2,,rt_thecrossant_black,417788,black_plus_sign,,,,,50,,,1,1,,,,,,,,,,,,,,,,,,,,,,,,,,,,
null,,color_black,417891,black_plus_sign,,,,,null,,,,,,,,,,,,,,,,,,,,,,,,,,,,,,,,
null,,learn_phase(without_color),420430,black_plus_sign,,,,,null,US_Cities_List/mm_boulder.png,US_Cities_List/mm_gatlinburg.png,,,,,,,,,,,,,,,,,,,,,,,,,,,,,,
null,,black_cross(without_color),421193,blue,,,,,null,US_Cities_List/mm_boulder.png,US_Cities_List/mm_gatlinburg.png,,,,,,,,,,,,,,,,,,,,,,,,,,,,,,
null,,rt_plussign_withcolor,421696,blue,,,,,null,US_Cities_List/mm_boulder.png,US_Cities_List/mm_gatlinburg.png,,,,,,,,,,,,,,,,,,,,,,,,,,,,,,
1091,,rt_thecrossant_black,422940,black_plus_sign,,,,,49,,,1,1,,,,,,,,,,,,,,,,,,,,,,,,,,,,
null,,color_black,423043,black_plus_sign,,,,,null,,,,,,,,,,,,,,,,,,,,,,,,,,,,,,,,
null,,learn_phase(without_color),425582,black_plus_sign,,,,,null,US_Cities_List/mm_boulder.png,US_Cities_List/mm_shreveport.png,,,,,,,,,,,,,,,,,,,,,,,,,,,,,,
null,,black_cross(without_color),426660,blue,,,,,null,US_Cities_List/mm_boulder.png,US_Cities_List/mm_shreveport.png,,,,,,,,,,,,,,,,,,,,,,,,,,,,,,
null,,rt_plussign_withcolor,427163,blue,,,,,null,US_Cities_List/mm_boulder.png,US_Cities_List/mm_shreveport.png,,,,,,,,,,,,,,,,,,,,,,,,,,,,,,
null,,rt_thecrossant_black,428091,black_plus_sign,,,,,null,,,,1,,,,,,,,,,,,,,,,,,,,,,,,,,,,
null,,color_black,428195,black_plus_sign,,,,,null,,,,,,,,,,,,,,,,,,,,,,,,,,,,,,,,
null,,learn_phase(without_color),430733,black_plus_sign,,,,,null,US_Cities_List/mm_hanover.png,US_Cities_List/nat_newhope.png,,,,,,,,,,,,,,,,,,,,,,,,,,,,,,
null,,black_cross(without_color),431336,green,,,,,null,US_Cities_List/mm_hanover.png,US_Cities_List/nat_newhope.png,,,,,,,,,,,,,,,,,,,,,,,,,,,,,,
null,,rt_plussign_withcolor,431839,green,,,,,null,US_Cities_List/mm_hanover.png,US_Cities_List/nat_newhope.png,,,,,,,,,,,,,,,,,,,,,,,,,,,,,,
1365.7,,rt_thecrossant_black,433242,black_plus_sign,,,,,50,,,1,1,,,,,,,,,,,,,,,,,,,,,,,,,,,,
null,,color_black,433345,black_plus_sign,,,,,null,,,,,,,,,,,,,,,,,,,,,,,,,,,,,,,,
null,,learn_phase(without_color),435877,black_plus_sign,,,,,null,US_Cities_List/nat_peoria.png,US_Cities_List/nat_huntsville.png,,,,,,,,,,,,,,,,,,,,,,,,,,,,,,
null,,black_cross(without_color),436411,green,,,,,null,US_Cities_List/nat_peoria.png,US_Cities_List/nat_huntsville.png,,,,,,,,,,,,,,,,,,,,,,,,,,,,,,
null,,rt_plussign_withcolor,436914,green,,,,,null,US_Cities_List/nat_peoria.png,US_Cities_List/nat_huntsville.png,,,,,,,,,,,,,,,,,,,,,,,,,,,,,,
1014.4,,rt_thecrossant_black,438387,black_plus_sign,,,,,50,,,1,1,,,,,,,,,,,,,,,,,,,,,,,,,,,,
null,,color_black,438491,black_plus_sign,,,,,null,,,,,,,,,,,,,,,,,,,,,,,,,,,,,,,,
null,,learn_phase(without_color),441028,black_plus_sign,,,,,null,US_Cities_List/mm_shreveport.png,US_Cities_List/nat_peoria.png,,,,,,,,,,,,,,,,,,,,,,,,,,,,,,
null,,black_cross(without_color),441442,green,,,,,null,US_Cities_List/mm_shreveport.png,US_Cities_List/nat_peoria.png,,,,,,,,,,,,,,,,,,,,,,,,,,,,,,
null,,rt_plussign_withcolor,441945,green,,,,,null,US_Cities_List/mm_shreveport.png,US_Cities_List/nat_peoria.png,,,,,,,,,,,,,,,,,,,,,,,,,,,,,,
747.5,,rt_thecrossant_black,443538,black_plus_sign,,,,,50,,,1,1,,,,,,,,,,,,,,,,,,,,,,,,,,,,
null,,color_black,443641,black_plus_sign,,,,,null,,,,,,,,,,,,,,,,,,,,,,,,,,,,,,,,
null,,learn_phase(without_color),446175,black_plus_sign,,,,,null,US_Cities_List/mm_westpalmbeach.png,US_Cities_List/nat_racine.png,,,,,,,,,,,,,,,,,,,,,,,,,,,,,,
null,,black_cross(without_color),446616,blue,,,,,null,US_Cities_List/mm_westpalmbeach.png,US_Cities_List/nat_racine.png,,,,,,,,,,,,,,,,,,,,,,,,,,,,,,
null,,rt_plussign_withcolor,447118,blue,,,,,null,US_Cities_List/mm_westpalmbeach.png,US_Cities_List/nat_racine.png,,,,,,,,,,,,,,,,,,,,,,,,,,,,,,
541,,rt_thecrossant_black,448684,black_plus_sign,,,,,49,,,1,1,,,,,,,,,,,,,,,,,,,,,,,,,,,,
null,,color_black,448788,black_plus_sign,,,,,null,,,,,,,,,,,,,,,,,,,,,,,,,,,,,,,,
null,,learn_phase(without_color),451327,black_plus_sign,,,,,null,US_Cities_List/nat_peoria.png,US_Cities_List/mm_westpalmbeach.png,,,,,,,,,,,,,,,,,,,,,,,,,,,,,,
null,,black_cross(without_color),452204,green,,,,,null,US_Cities_List/nat_peoria.png,US_Cities_List/mm_westpalmbeach.png,,,,,,,,,,,,,,,,,,,,,,,,,,,,,,
null,,rt_plussign_withcolor,452707,green,,,,,null,US_Cities_List/nat_peoria.png,US_Cities_List/mm_westpalmbeach.png,,,,,,,,,,,,,,,,,,,,,,,,,,,,,,
650.4,,rt_thecrossant_black,453837,black_plus_sign,,,,,50,,,1,1,,,,,,,,,,,,,,,,,,,,,,,,,,,,
null,,color_black,453940,black_plus_sign,,,,,null,,,,,,,,,,,,,,,,,,,,,,,,,,,,,,,,
null,,learn_phase(without_color),456473,black_plus_sign,,,,,null,US_Cities_List/mm_carmel.png,US_Cities_List/mm_leesburg.png,,,,,,,,,,,,,,,,,,,,,,,,,,,,,,
null,,black_cross(without_color),457402,green,,,,,null,US_Cities_List/mm_carmel.png,US_Cities_List/mm_leesburg.png,,,,,,,,,,,,,,,,,,,,,,,,,,,,,,
null,,rt_plussign_withcolor,457906,green,,,,,null,US_Cities_List/mm_carmel.png,US_Cities_List/mm_leesburg.png,,,,,,,,,,,,,,,,,,,,,,,,,,,,,,
1211.4,,rt_thecrossant_black,458984,black_plus_sign,,,,,50,,,1,1,,,,,,,,,,,,,,,,,,,,,,,,,,,,
null,,color_black,459087,black_plus_sign,,,,,null,,,,,,,,,,,,,,,,,,,,,,,,,,,,,,,,
null,,learn_phase(without_color),461633,black_plus_sign,,,,,null,US_Cities_List/nat_peoria.png,US_Cities_List/mm_westpalmbeach.png,,,,,,,,,,,,,,,,,,,,,,,,,,,,,,
null,,black_cross(without_color),462230,blue,,,,,null,US_Cities_List/nat_peoria.png,US_Cities_List/mm_westpalmbeach.png,,,,,,,,,,,,,,,,,,,,,,,,,,,,,,
null,,rt_plussign_withcolor,462733,blue,,,,,null,US_Cities_List/nat_peoria.png,US_Cities_List/mm_westpalmbeach.png,,,,,,,,,,,,,,,,,,,,,,,,,,,,,,
1171.2,,rt_thecrossant_black,464142,black_plus_sign,,,,,49,,,1,1,,,,,,,,,,,,,,,,,,,,,,,,,,,,
null,,color_black,464246,black_plus_sign,,,,,null,,,,,,,,,,,,,,,,,,,,,,,,,,,,,,,,
null,,learn_phase(without_color),466770,black_plus_sign,,,,,null,US_Cities_List/mm_carmel.png,US_Cities_List/mm_cornwall.png,,,,,,,,,,,,,,,,,,,,,,,,,,,,,,
null,,black_cross(without_color),467487,green,,,,,null,US_Cities_List/mm_carmel.png,US_Cities_List/mm_cornwall.png,,,,,,,,,,,,,,,,,,,,,,,,,,,,,,
null,,rt_plussign_withcolor,467990,green,,,,,null,US_Cities_List/mm_carmel.png,US_Cities_List/mm_cornwall.png,,,,,,,,,,,,,,,,,,,,,,,,,,,,,,
1004,,rt_thecrossant_black,469279,black_plus_sign,,,,,50,,,1,1,,,,,,,,,,,,,,,,,,,,,,,,,,,,
null,,color_black,469383,black_plus_sign,,,,,null,,,,,,,,,,,,,,,,,,,,,,,,,,,,,,,,
null,,learn_phase(without_color),471921,black_plus_sign,,,,,null,US_Cities_List/mm_carmel.png,US_Cities_List/mm_leesburg.png,,,,,,,,,,,,,,,,,,,,,,,,,,,,,,
null,,black_cross(without_color),472608,blue,,,,,null,US_Cities_List/mm_carmel.png,US_Cities_List/mm_leesburg.png,,,,,,,,,,,,,,,,,,,,,,,,,,,,,,
null,,rt_plussign_withcolor,473111,blue,,,,,null,US_Cities_List/mm_carmel.png,US_Cities_List/mm_leesburg.png,,,,,,,,,,,,,,,,,,,,,,,,,,,,,,
1047.3,,rt_thecrossant_black,474430,black_plus_sign,,,,,49,,,1,1,,,,,,,,,,,,,,,,,,,,,,,,,,,,
null,,color_black,474534,black_plus_sign,,,,,null,,,,,,,,,,,,,,,,,,,,,,,,,,,,,,,,
null,,learn_phase(without_color),477065,black_plus_sign,,,,,null,US_Cities_List/mm_hanover.png,US_Cities_List/nat_newhope.png,,,,,,,,,,,,,,,,,,,,,,,,,,,,,,
null,,black_cross(without_color),478056,blue,,,,,null,US_Cities_List/mm_hanover.png,US_Cities_List/nat_newhope.png,,,,,,,,,,,,,,,,,,,,,,,,,,,,,,
null,,rt_plussign_withcolor,478559,blue,,,,,null,US_Cities_List/mm_hanover.png,US_Cities_List/nat_newhope.png,,,,,,,,,,,,,,,,,,,,,,,,,,,,,,
1008.4,,rt_thecrossant_black,479575,black_plus_sign,,,,,49,,,1,1,,,,,,,,,,,,,,,,,,,,,,,,,,,,
null,,color_black,479679,black_plus_sign,,,,,null,,,,,,,,,,,,,,,,,,,,,,,,,,,,,,,,
null,,learn_phase(without_color),482214,black_plus_sign,,,,,null,US_Cities_List/mm_westpalmbeach.png,US_Cities_List/nat_racine.png,,,,,,,,,,,,,,,,,,,,,,,,,,,,,,
null,,black_cross(without_color),482664,blue,,,,,null,US_Cities_List/mm_westpalmbeach.png,US_Cities_List/nat_racine.png,,,,,,,,,,,,,,,,,,,,,,,,,,,,,,
null,,rt_plussign_withcolor,483167,blue,,,,,null,US_Cities_List/mm_westpalmbeach.png,US_Cities_List/nat_racine.png,,,,,,,,,,,,,,,,,,,,,,,,,,,,,,
1181.4,,rt_thecrossant_black,484724,black_plus_sign,,,,,49,,,1,1,,,,,,,,,,,,,,,,,,,,,,,,,,,,
null,,color_black,484827,black_plus_sign,,,,,null,,,,,,,,,,,,,,,,,,,,,,,,,,,,,,,,
null,,learn_phase(without_color),487361,black_plus_sign,,,,,null,US_Cities_List/mm_gatlinburg.png,US_Cities_List/mm_cornwall.png,,,,,,,,,,,,,,,,,,,,,,,,,,,,,,
null,,black_cross(without_color),487847,green,,,,,null,US_Cities_List/mm_gatlinburg.png,US_Cities_List/mm_cornwall.png,,,,,,,,,,,,,,,,,,,,,,,,,,,,,,
432.3,,rt_plussign_withcolor,488350,green,,,,,50,US_Cities_List/mm_gatlinburg.png,US_Cities_List/mm_cornwall.png,,,,,,,,,,,,,,,,,,,,,,,,,,,,,,
null,,rt_thecrossant_black,489872,black_plus_sign,,,,,null,,,1,1,,,,,,,,,,,,,,,,,,,,,,,,,,,,
null,,color_black,489976,black_plus_sign,,,,,null,,,,,,,,,,,,,,,,,,,,,,,,,,,,,,,,
null,,learn_phase(without_color),492509,black_plus_sign,,,,,null,US_Cities_List/mm_shreveport.png,US_Cities_List/nat_peoria.png,,,,,,,,,,,,,,,,,,,,,,,,,,,,,,
null,,black_cross(without_color),493579,green,,,,,null,US_Cities_List/mm_shreveport.png,US_Cities_List/nat_peoria.png,,,,,,,,,,,,,,,,,,,,,,,,,,,,,,
481.7,,rt_plussign_withcolor,494082,green,,,,,50,US_Cities_List/mm_shreveport.png,US_Cities_List/nat_peoria.png,,,,,,,,,,,,,,,,,,,,,,,,,,,,,,
null,,rt_thecrossant_black,495020,black_plus_sign,,,,,null,,,1,1,,,,,,,,,,,,,,,,,,,,,,,,,,,,
null,,color_black,495124,black_plus_sign,,,,,null,,,,,,,,,,,,,,,,,,,,,,,,,,,,,,,,
null,,learn_phase(without_color),497664,black_plus_sign,,,,,null,US_Cities_List/mm_boulder.png,US_Cities_List/mm_shreveport.png,,,,,,,,,,,,,,,,,,,,,,,,,,,,,,
null,,black_cross(without_color),498741,green,,,,,null,US_Cities_List/mm_boulder.png,US_Cities_List/mm_shreveport.png,,,,,,,,,,,,,,,,,,,,,,,,,,,,,,
null,,rt_plussign_withcolor,499244,green,,,,,null,US_Cities_List/mm_boulder.png,US_Cities_List/mm_shreveport.png,,,,,,,,,,,,,,,,,,,,,,,,,,,,,,
1184.5,,rt_thecrossant_black,500172,black_plus_sign,,,,,50,,,1,1,,,,,,,,,,,,,,,,,,,,,,,,,,,,
null,,color_black,500276,black_plus_sign,,,,,null,,,,,,,,,,,,,,,,,,,,,,,,,,,,,,,,
null,,learn_phase(without_color),502809,black_plus_sign,,,,,null,US_Cities_List/mm_shreveport.png,US_Cities_List/nat_huntsville.png,,,,,,,,,,,,,,,,,,,,,,,,,,,,,,
null,,black_cross(without_color),503657,blue,,,,,null,US_Cities_List/mm_shreveport.png,US_Cities_List/nat_huntsville.png,,,,,,,,,,,,,,,,,,,,,,,,,,,,,,
null,,rt_plussign_withcolor,504160,blue,,,,,null,US_Cities_List/mm_shreveport.png,US_Cities_List/nat_huntsville.png,,,,,,,,,,,,,,,,,,,,,,,,,,,,,,
1409.1,,rt_thecrossant_black,505317,black_plus_sign,,,,,49,,,1,1,,,,,,,,,,,,,,,,,,,,,,,,,,,,
null,,color_black,505421,black_plus_sign,,,,,null,,,,,,,,,,,,,,,,,,,,,,,,,,,,,,,,
null,,learn_phase(without_color),507960,black_plus_sign,,,,,null,US_Cities_List/mm_shreveport.png,US_Cities_List/nat_peoria.png,,,,,,,,,,,,,,,,,,,,,,,,,,,,,,
null,,black_cross(without_color),508880,blue,,,,,null,US_Cities_List/mm_shreveport.png,US_Cities_List/nat_peoria.png,,,,,,,,,,,,,,,,,,,,,,,,,,,,,,
null,,rt_plussign_withcolor,509384,blue,,,,,null,US_Cities_List/mm_shreveport.png,US_Cities_List/nat_peoria.png,,,,,,,,,,,,,,,,,,,,,,,,,,,,,,
1193,,rt_thecrossant_black,510471,black_plus_sign,,,,,49,,,1,1,,,,,,,,,,,,,,,,,,,,,,,,,,,,
null,,color_black,510575,black_plus_sign,,,,,null,,,,,,,,,,,,,,,,,,,,,,,,,,,,,,,,
null,,learn_phase(without_color),513117,black_plus_sign,,,,,null,US_Cities_List/mm_westpalmbeach.png,US_Cities_List/nat_huntsville.png,,,,,,,,,,,,,,,,,,,,,,,,,,,,,,
null,,black_cross(without_color),513714,green,,,,,null,US_Cities_List/mm_westpalmbeach.png,US_Cities_List/nat_huntsville.png,,,,,,,,,,,,,,,,,,,,,,,,,,,,,,
null,,rt_plussign_withcolor,514217,green,,,,,null,US_Cities_List/mm_westpalmbeach.png,US_Cities_List/nat_huntsville.png,,,,,,,,,,,,,,,,,,,,,,,,,,,,,,
1313.7,,rt_thecrossant_black,515627,black_plus_sign,,,,,50,,,1,1,,,,,,,,,,,,,,,,,,,,,,,,,,,,
null,,color_black,515730,black_plus_sign,,,,,null,,,,,,,,,,,,,,,,,,,,,,,,,,,,,,,,
null,,learn_phase(without_color),518263,black_plus_sign,,,,,null,US_Cities_List/mm_carmel.png,US_Cities_List/mm_leesburg.png,,,,,,,,,,,,,,,,,,,,,,,,,,,,,,
null,,black_cross(without_color),519304,green,,,,,null,US_Cities_List/mm_carmel.png,US_Cities_List/mm_leesburg.png,,,,,,,,,,,,,,,,,,,,,,,,,,,,,,
null,,rt_plussign_withcolor,519807,green,,,,,null,US_Cities_List/mm_carmel.png,US_Cities_List/mm_leesburg.png,,,,,,,,,,,,,,,,,,,,,,,,,,,,,,
715.4,,rt_thecrossant_black,520773,black_plus_sign,,,,,50,,,1,1,,,,,,,,,,,,,,,,,,,,,,,,,,,,
null,,color_black,520876,black_plus_sign,,,,,null,,,,,,,,,,,,,,,,,,,,,,,,,,,,,,,,
null,,learn_phase(without_color),523394,black_plus_sign,,,,,null,US_Cities_List/mm_gatlinburg.png,US_Cities_List/mm_cornwall.png,,,,,,,,,,,,,,,,,,,,,,,,,,,,,,
null,,black_cross(without_color),524117,blue,,,,,null,US_Cities_List/mm_gatlinburg.png,US_Cities_List/mm_cornwall.png,,,,,,,,,,,,,,,,,,,,,,,,,,,,,,
null,,rt_plussign_withcolor,524620,blue,,,,,null,US_Cities_List/mm_gatlinburg.png,US_Cities_List/mm_cornwall.png,,,,,,,,,,,,,,,,,,,,,,,,,,,,,,
1269.8,,rt_thecrossant_black,525904,black_plus_sign,,,,,49,,,1,1,,,,,,,,,,,,,,,,,,,,,,,,,,,,
null,,color_black,526008,black_plus_sign,,,,,null,,,,,,,,,,,,,,,,,,,,,,,,,,,,,,,,
null,,learn_phase(without_color),528539,black_plus_sign,,,,,null,US_Cities_List/mm_shreveport.png,US_Cities_List/nat_peoria.png,,,,,,,,,,,,,,,,,,,,,,,,,,,,,,
null,,black_cross(without_color),529260,green,,,,,null,US_Cities_List/mm_shreveport.png,US_Cities_List/nat_peoria.png,,,,,,,,,,,,,,,,,,,,,,,,,,,,,,
402,,rt_plussign_withcolor,529763,green,,,,,50,US_Cities_List/mm_shreveport.png,US_Cities_List/nat_peoria.png,,,,,,,,,,,,,,,,,,,,,,,,,,,,,,
null,,rt_thecrossant_black,531049,black_plus_sign,,,,,null,,,1,1,,,,,,,,,,,,,,,,,,,,,,,,,,,,
null,,color_black,531153,black_plus_sign,,,,,null,,,,,,,,,,,,,,,,,,,,,,,,,,,,,,,,
null,,learn_phase(without_color),533691,black_plus_sign,,,,,null,US_Cities_List/nat_peoria.png,US_Cities_List/mm_hotsprings.png,,,,,,,,,,,,,,,,,,,,,,,,,,,,,,
null,,black_cross(without_color),534258,blue,,,,,null,US_Cities_List/nat_peoria.png,US_Cities_List/mm_hotsprings.png,,,,,,,,,,,,,,,,,,,,,,,,,,,,,,
null,,rt_plussign_withcolor,534760,blue,,,,,null,US_Cities_List/nat_peoria.png,US_Cities_List/mm_hotsprings.png,,,,,,,,,,,,,,,,,,,,,,,,,,,,,,
956.5,,rt_thecrossant_black,536200,black_plus_sign,,,,,49,,,1,1,,,,,,,,,,,,,,,,,,,,,,,,,,,,
null,,color_black,536303,black_plus_sign,,,,,null,,,,,,,,,,,,,,,,,,,,,,,,,,,,,,,,
null,,learn_phase(without_color),538835,black_plus_sign,,,,,null,US_Cities_List/nat_newhope.png,US_Cities_List/mm_boulder.png,,,,,,,,,,,,,,,,,,,,,,,,,,,,,,
null,,black_cross(without_color),539358,blue,,,,,null,US_Cities_List/nat_newhope.png,US_Cities_List/mm_boulder.png,,,,,,,,,,,,,,,,,,,,,,,,,,,,,,
null,,rt_plussign_withcolor,539861,blue,,,,,null,US_Cities_List/nat_newhope.png,US_Cities_List/mm_boulder.png,,,,,,,,,,,,,,,,,,,,,,,,,,,,,,
699,,rt_thecrossant_black,541345,black_plus_sign,,,,,49,,,1,1,,,,,,,,,,,,,,,,,,,,,,,,,,,,
null,,color_black,541449,black_plus_sign,,,,,null,,,,,,,,,,,,,,,,,,,,,,,,,,,,,,,,
null,,learn_phase(without_color),543984,black_plus_sign,,,,,null,US_Cities_List/nat_huntsville.png,US_Cities_List/mm_gatlinburg.png,,,,,,,,,,,,,,,,,,,,,,,,,,,,,,
null,,black_cross(without_color),545028,blue,,,,,null,US_Cities_List/nat_huntsville.png,US_Cities_List/mm_gatlinburg.png,,,,,,,,,,,,,,,,,,,,,,,,,,,,,,
null,,rt_plussign_withcolor,545532,blue,,,,,null,US_Cities_List/nat_huntsville.png,US_Cities_List/mm_gatlinburg.png,,,,,,,,,,,,,,,,,,,,,,,,,,,,,,
651.6,,rt_thecrossant_black,546493,black_plus_sign,,,,,50,,,0,0.976190476,,,,,,,,,,,,,,,,,,,,,,,,,,,,
null,,color_black,546598,black_plus_sign,,,,,null,,,,,,,,,,,,,,,,,,,,,,,,,,,,,,,,
null,,learn_phase(without_color),549135,black_plus_sign,,,,,null,US_Cities_List/mm_hanover.png,US_Cities_List/nat_newhope.png,,,,,,,,,,,,,,,,,,,,,,,,,,,,,,
null,,black_cross(without_color),549971,green,,,,,null,US_Cities_List/mm_hanover.png,US_Cities_List/nat_newhope.png,,,,,,,,,,,,,,,,,,,,,,,,,,,,,,
null,,rt_plussign_withcolor,550474,green,,,,,null,US_Cities_List/mm_hanover.png,US_Cities_List/nat_newhope.png,,,,,,,,,,,,,,,,,,,,,,,,,,,,,,
1249.1,,rt_thecrossant_black,551646,black_plus_sign,,,,,50,,,1,0.976744186,,,,,,,,,,,,,,,,,,,,,,,,,,,,
null,,color_black,551749,black_plus_sign,,,,,null,,,,,,,,,,,,,,,,,,,,,,,,,,,,,,,,
null,,learn_phase(without_color),554283,black_plus_sign,,,,,null,US_Cities_List/mm_carmel.png,US_Cities_List/mm_leesburg.png,,,,,,,,,,,,,,,,,,,,,,,,,,,,,,
null,,black_cross(without_color),555145,blue,,,,,null,US_Cities_List/mm_carmel.png,US_Cities_List/mm_leesburg.png,,,,,,,,,,,,,,,,,,,,,,,,,,,,,,
null,,rt_plussign_withcolor,555648,blue,,,,,null,US_Cities_List/mm_carmel.png,US_Cities_List/mm_leesburg.png,,,,,,,,,,,,,,,,,,,,,,,,,,,,,,
1019,,rt_thecrossant_black,556792,black_plus_sign,,,,,49,,,1,0.977272727,,,,,,,,,,,,,,,,,,,,,,,,,,,,
null,,color_black,556895,black_plus_sign,,,,,null,,,,,,,,,,,,,,,,,,,,,,,,,,,,,,,,
null,,learn_phase(without_color),559422,black_plus_sign,,,,,null,US_Cities_List/mm_gatlinburg.png,US_Cities_List/mm_cornwall.png,,,,,,,,,,,,,,,,,,,,,,,,,,,,,,
null,,black_cross(without_color),560439,green,,,,,null,US_Cities_List/mm_gatlinburg.png,US_Cities_List/mm_cornwall.png,,,,,,,,,,,,,,,,,,,,,,,,,,,,,,
null,,rt_plussign_withcolor,560942,green,,,,,null,US_Cities_List/mm_gatlinburg.png,US_Cities_List/mm_cornwall.png,,,,,,,,,,,,,,,,,,,,,,,,,,,,,,
1646.9,,rt_thecrossant_black,561930,black_plus_sign,,,,,50,,,1,0.977777778,,,,,,,,,,,,,,,,,,,,,,,,,,,,
null,,color_black,562034,black_plus_sign,,,,,null,,,,,,,,,,,,,,,,,,,,,,,,,,,,,,,,
null,,learn_phase(without_color),564566,black_plus_sign,,,,,null,US_Cities_List/mm_hanover.png,US_Cities_List/nat_newhope.png,,,,,,,,,,,,,,,,,,,,,,,,,,,,,,
null,,black_cross(without_color),565182,blue,,,,,null,US_Cities_List/mm_hanover.png,US_Cities_List/nat_newhope.png,,,,,,,,,,,,,,,,,,,,,,,,,,,,,,
null,,rt_plussign_withcolor,565685,blue,,,,,null,US_Cities_List/mm_hanover.png,US_Cities_List/nat_newhope.png,,,,,,,,,,,,,,,,,,,,,,,,,,,,,,
1516.7,,rt_thecrossant_black,567076,black_plus_sign,,,,,49,,,1,0.97826087,,,,,,,,,,,,,,,,,,,,,,,,,,,,
null,,color_black,567180,black_plus_sign,,,,,null,,,,,,,,,,,,,,,,,,,,,,,,,,,,,,,,
null,,learn_phase(without_color),569716,black_plus_sign,,,,,null,US_Cities_List/mm_shreveport.png,US_Cities_List/nat_huntsville.png,,,,,,,,,,,,,,,,,,,,,,,,,,,,,,
null,,black_cross(without_color),570461,green,,,,,null,US_Cities_List/mm_shreveport.png,US_Cities_List/nat_huntsville.png,,,,,,,,,,,,,,,,,,,,,,,,,,,,,,
null,,rt_plussign_withcolor,570964,green,,,,,null,US_Cities_List/mm_shreveport.png,US_Cities_List/nat_huntsville.png,,,,,,,,,,,,,,,,,,,,,,,,,,,,,,
1191.8,,rt_thecrossant_black,572227,black_plus_sign,,,,,50,,,1,0.978723404,,,,,,,,,,,,,,,,,,,,,,,,,,,,
null,,color_black,572331,black_plus_sign,,,,,null,,,,,,,,,,,,,,,,,,,,,,,,,,,,,,,,
null,,learn_phase(without_color),574872,black_plus_sign,,,,,null,US_Cities_List/mm_boulder.png,US_Cities_List/mm_shreveport.png,,,,,,,,,,,,,,,,,,,,,,,,,,,,,,
null,,black_cross(without_color),575768,blue,,,,,null,US_Cities_List/mm_boulder.png,US_Cities_List/mm_shreveport.png,,,,,,,,,,,,,,,,,,,,,,,,,,,,,,
null,,rt_plussign_withcolor,576272,blue,,,,,null,US_Cities_List/mm_boulder.png,US_Cities_List/mm_shreveport.png,,,,,,,,,,,,,,,,,,,,,,,,,,,,,,
845.5,,rt_thecrossant_black,577383,black_plus_sign,,,,,49,,,1,0.979166667,,,,,,,,,,,,,,,,,,,,,,,,,,,,
null,,color_black,577486,black_plus_sign,,,,,null,,,,,,,,,,,,,,,,,,,,,,,,,,,,,,,,
null,,learn_phase(without_color),580032,black_plus_sign,,,,,null,US_Cities_List/mm_shreveport.png,US_Cities_List/nat_huntsville.png,,,,,,,,,,,,,,,,,,,,,,,,,,,,,,
null,,black_cross(without_color),581051,green,,,,,null,US_Cities_List/mm_shreveport.png,US_Cities_List/nat_huntsville.png,,,,,,,,,,,,,,,,,,,,,,,,,,,,,,
null,,rt_plussign_withcolor,581554,green,,,,,null,US_Cities_List/mm_shreveport.png,US_Cities_List/nat_huntsville.png,,,,,,,,,,,,,,,,,,,,,,,,,,,,,,
1070.3,,rt_thecrossant_black,582542,black_plus_sign,,,,,50,,,1,0.979591837,,,,,,,,,,,,,,,,,,,,,,,,,,,,
null,,color_black,582646,black_plus_sign,,,,,null,,,,,,,,,,,,,,,,,,,,,,,,,,,,,,,,
null,,learn_phase(without_color),585174,black_plus_sign,,,,,null,US_Cities_List/mm_westpalmbeach.png,US_Cities_List/nat_huntsville.png,,,,,,,,,,,,,,,,,,,,,,,,,,,,,,
null,,black_cross(without_color),586234,green,,,,,null,US_Cities_List/mm_westpalmbeach.png,US_Cities_List/nat_huntsville.png,,,,,,,,,,,,,,,,,,,,,,,,,,,,,,
null,,rt_plussign_withcolor,586737,green,,,,,null,US_Cities_List/mm_westpalmbeach.png,US_Cities_List/nat_huntsville.png,,,,,,,,,,,,,,,,,,,,,,,,,,,,,,
1772.8,,rt_thecrossant_black,587683,black_plus_sign,,,,,50,,,1,0.98,,,,,,,,,,,,,,,,,,,,,,,,,,,,
null,,color_black,587788,black_plus_sign,,,,,null,,,,,,,,,,,,,,,,,,,,,,,,,,,,,,,,
null,,learn_phase(without_color),590320,black_plus_sign,,,,,null,US_Cities_List/mm_carmel.png,US_Cities_List/mm_cornwall.png,,,,,,,,,,,,,,,,,,,,,,,,,,,,,,
null,,black_cross(without_color),590746,green,,,,,null,US_Cities_List/mm_carmel.png,US_Cities_List/mm_cornwall.png,,,,,,,,,,,,,,,,,,,,,,,,,,,,,,
null,,rt_plussign_withcolor,591249,green,,,,,null,US_Cities_List/mm_carmel.png,US_Cities_List/mm_cornwall.png,,,,,,,,,,,,,,,,,,,,,,,,,,,,,,
1549.6,,rt_thecrossant_black,592832,black_plus_sign,,,,,50,,,1,0.980392157,,,,,,,,,,,,,,,,,,,,,,,,,,,,
null,,color_black,592936,black_plus_sign,,,,,null,,,,,,,,,,,,,,,,,,,,,,,,,,,,,,,,
null,,learn_phase(without_color),595465,black_plus_sign,,,,,null,US_Cities_List/mm_gatlinburg.png,US_Cities_List/mm_cornwall.png,,,,,,,,,,,,,,,,,,,,,,,,,,,,,,
null,,black_cross(without_color),595979,blue,,,,,null,US_Cities_List/mm_gatlinburg.png,US_Cities_List/mm_cornwall.png,,,,,,,,,,,,,,,,,,,,,,,,,,,,,,
null,,rt_plussign_withcolor,596483,blue,,,,,null,US_Cities_List/mm_gatlinburg.png,US_Cities_List/mm_cornwall.png,,,,,,,,,,,,,,,,,,,,,,,,,,,,,,
675.6,,rt_thecrossant_black,597975,black_plus_sign,,,,,49,,,1,0.980769231,,,,,,,,,,,,,,,,,,,,,,,,,,,,
null,,color_black,598078,black_plus_sign,,,,,null,,,,,,,,,,,,,,,,,,,,,,,,,,,,,,,,
null,,learn_phase(without_color),600612,black_plus_sign,,,,,null,US_Cities_List/mm_boulder.png,US_Cities_List/mm_gatlinburg.png,,,,,,,,,,,,,,,,,,,,,,,,,,,,,,
null,,black_cross(without_color),601465,blue,,,,,null,US_Cities_List/mm_boulder.png,US_Cities_List/mm_gatlinburg.png,,,,,,,,,,,,,,,,,,,,,,,,,,,,,,
null,,rt_plussign_withcolor,601968,blue,,,,,null,US_Cities_List/mm_boulder.png,US_Cities_List/mm_gatlinburg.png,,,,,,,,,,,,,,,,,,,,,,,,,,,,,,
863.6,,rt_thecrossant_black,603123,black_plus_sign,,,,,49,,,1,0.981132075,,,,,,,,,,,,,,,,,,,,,,,,,,,,
null,,color_black,603226,black_plus_sign,,,,,null,,,,,,,,,,,,,,,,,,,,,,,,,,,,,,,,
null,,learn_phase(without_color),605764,black_plus_sign,,,,,null,US_Cities_List/mm_carmel.png,US_Cities_List/mm_cornwall.png,,,,,,,,,,,,,,,,,,,,,,,,,,,,,,
null,,black_cross(without_color),606251,green,,,,,null,US_Cities_List/mm_carmel.png,US_Cities_List/mm_cornwall.png,,,,,,,,,,,,,,,,,,,,,,,,,,,,,,
null,,rt_plussign_withcolor,606754,green,,,,,null,US_Cities_List/mm_carmel.png,US_Cities_List/mm_cornwall.png,,,,,,,,,,,,,,,,,,,,,,,,,,,,,,
1049.9,,rt_thecrossant_black,608275,black_plus_sign,,,,,50,,,1,0.981481481,,,,,,,,,,,,,,,,,,,,,,,,,,,,
null,,color_black,608378,black_plus_sign,,,,,null,,,,,,,,,,,,,,,,,,,,,,,,,,,,,,,,
null,,learn_phase(without_color),610920,black_plus_sign,,,,,null,US_Cities_List/nat_newhope.png,US_Cities_List/mm_carmel.png,,,,,,,,,,,,,,,,,,,,,,,,,,,,,,
null,,black_cross(without_color),611483,green,,,,,null,US_Cities_List/nat_newhope.png,US_Cities_List/mm_carmel.png,,,,,,,,,,,,,,,,,,,,,,,,,,,,,,
436.5,,rt_plussign_withcolor,611987,green,,,,,50,US_Cities_List/nat_newhope.png,US_Cities_List/mm_carmel.png,,,,,,,,,,,,,,,,,,,,,,,,,,,,,,
null,,rt_thecrossant_black,613431,black_plus_sign,,,,,null,,,1,0.981818182,,,,,,,,,,,,,,,,,,,,,,,,,,,,
null,,color_black,613535,black_plus_sign,,,,,null,,,,,,,,,,,,,,,,,,,,,,,,,,,,,,,,
null,,learn_phase(without_color),616070,black_plus_sign,,,,,null,US_Cities_List/mm_westpalmbeach.png,US_Cities_List/nat_racine.png,,,,,,,,,,,,,,,,,,,,,,,,,,,,,,
null,,black_cross(without_color),616488,blue,,,,,null,US_Cities_List/mm_westpalmbeach.png,US_Cities_List/nat_racine.png,,,,,,,,,,,,,,,,,,,,,,,,,,,,,,
null,,rt_plussign_withcolor,616991,blue,,,,,null,US_Cities_List/mm_westpalmbeach.png,US_Cities_List/nat_racine.png,,,,,,,,,,,,,,,,,,,,,,,,,,,,,,
831.5,,rt_thecrossant_black,618580,black_plus_sign,,,,,49,,,1,0.982142857,,,,,,,,,,,,,,,,,,,,,,,,,,,,
null,,color_black,618684,black_plus_sign,,,,,null,,,,,,,,,,,,,,,,,,,,,,,,,,,,,,,,
null,,learn_phase(without_color),621217,black_plus_sign,,,,,null,US_Cities_List/nat_peoria.png,US_Cities_List/nat_huntsville.png,,,,,,,,,,,,,,,,,,,,,,,,,,,,,,
null,,black_cross(without_color),621902,blue,,,,,null,US_Cities_List/nat_peoria.png,US_Cities_List/nat_huntsville.png,,,,,,,,,,,,,,,,,,,,,,,,,,,,,,
434.9,,rt_plussign_withcolor,622405,blue,,,,,49,US_Cities_List/nat_peoria.png,US_Cities_List/nat_huntsville.png,,,,,,,,,,,,,,,,,,,,,,,,,,,,,,
null,,rt_thecrossant_black,623726,black_plus_sign,,,,,null,,,1,0.98245614,,,,,,,,,,,,,,,,,,,,,,,,,,,,
null,,color_black,623830,black_plus_sign,,,,,null,,,,,,,,,,,,,,,,,,,,,,,,,,,,,,,,
null,,learn_phase(without_color),626364,black_plus_sign,,,,,null,US_Cities_List/mm_westpalmbeach.png,US_Cities_List/nat_racine.png,,,,,,,,,,,,,,,,,,,,,,,,,,,,,,
null,,black_cross(without_color),627120,blue,,,,,null,US_Cities_List/mm_westpalmbeach.png,US_Cities_List/nat_racine.png,,,,,,,,,,,,,,,,,,,,,,,,,,,,,,
null,,rt_plussign_withcolor,627624,blue,,,,,null,US_Cities_List/mm_westpalmbeach.png,US_Cities_List/nat_racine.png,,,,,,,,,,,,,,,,,,,,,,,,,,,,,,
851,,rt_thecrossant_black,628876,black_plus_sign,,,,,49,,,1,0.982758621,,,,,,,,,,,,,,,,,,,,,,,,,,,,
null,,color_black,628980,black_plus_sign,,,,,null,,,,,,,,,,,,,,,,,,,,,,,,,,,,,,,,
null,,learn_phase(without_color),631512,black_plus_sign,,,,,null,US_Cities_List/mm_carmel.png,US_Cities_List/mm_leesburg.png,,,,,,,,,,,,,,,,,,,,,,,,,,,,,,
null,,black_cross(without_color),632388,green,,,,,null,US_Cities_List/mm_carmel.png,US_Cities_List/mm_leesburg.png,,,,,,,,,,,,,,,,,,,,,,,,,,,,,,
433.5,,rt_plussign_withcolor,632892,green,,,,,50,US_Cities_List/mm_carmel.png,US_Cities_List/mm_leesburg.png,,,,,,,,,,,,,,,,,,,,,,,,,,,,,,
null,,rt_thecrossant_black,634023,black_plus_sign,,,,,null,,,1,0.983050847,,,,,,,,,,,,,,,,,,,,,,,,,,,,
null,,color_black,634127,black_plus_sign,,,,,null,,,,,,,,,,,,,,,,,,,,,,,,,,,,,,,,
null,,learn_phase(without_color),636660,black_plus_sign,,,,,null,US_Cities_List/nat_peoria.png,US_Cities_List/nat_huntsville.png,,,,,,,,,,,,,,,,,,,,,,,,,,,,,,
null,,black_cross(without_color),637520,blue,,,,,null,US_Cities_List/nat_peoria.png,US_Cities_List/nat_huntsville.png,,,,,,,,,,,,,,,,,,,,,,,,,,,,,,
null,,rt_plussign_withcolor,638024,blue,,,,,null,US_Cities_List/nat_peoria.png,US_Cities_List/nat_huntsville.png,,,,,,,,,,,,,,,,,,,,,,,,,,,,,,
1010.1,,rt_thecrossant_black,639171,black_plus_sign,,,,,50,,,0,0.966666667,,,,,,,,,,,,,,,,,,,,,,,,,,,,
null,,color_black,639274,black_plus_sign,,,,,null,,,,,,,,,,,,,,,,,,,,,,,,,,,,,,,,
null,,learn_phase(without_color),641812,black_plus_sign,,,,,null,US_Cities_List/mm_carmel.png,US_Cities_List/mm_cornwall.png,,,,,,,,,,,,,,,,,,,,,,,,,,,,,,
null,,black_cross(without_color),642630,green,,,,,null,US_Cities_List/mm_carmel.png,US_Cities_List/mm_cornwall.png,,,,,,,,,,,,,,,,,,,,,,,,,,,,,,
null,,rt_plussign_withcolor,643132,green,,,,,null,US_Cities_List/mm_carmel.png,US_Cities_List/mm_cornwall.png,,,,,,,,,,,,,,,,,,,,,,,,,,,,,,
1176.2,,rt_thecrossant_black,644321,black_plus_sign,,,,,50,,,1,0.967213115,,,,,,,,,,,,,,,,,,,,,,,,,,,,
null,,color_black,644425,black_plus_sign,,,,,null,,,,,,,,,,,,,,,,,,,,,,,,,,,,,,,,
null,,learn_phase(without_color),646968,black_plus_sign,,,,,null,US_Cities_List/nat_peoria.png,US_Cities_List/nat_huntsville.png,,,,,,,,,,,,,,,,,,,,,,,,,,,,,,
null,,black_cross(without_color),647639,blue,,,,,null,US_Cities_List/nat_peoria.png,US_Cities_List/nat_huntsville.png,,,,,,,,,,,,,,,,,,,,,,,,,,,,,,
null,,rt_plussign_withcolor,648142,blue,,,,,null,US_Cities_List/nat_peoria.png,US_Cities_List/nat_huntsville.png,,,,,,,,,,,,,,,,,,,,,,,,,,,,,,
918.1,,rt_thecrossant_black,649479,black_plus_sign,,,,,49,,,1,0.967741935,,,,,,,,,,,,,,,,,,,,,,,,,,,,
null,,color_black,649583,black_plus_sign,,,,,null,,,,,,,,,,,,,,,,,,,,,,,,,,,,,,,,
null,,learn_phase(without_color),652116,black_plus_sign,,,,,null,US_Cities_List/nat_newhope.png,US_Cities_List/mm_boulder.png,,,,,,,,,,,,,,,,,,,,,,,,,,,,,,
null,,black_cross(without_color),652839,blue,,,,,null,US_Cities_List/nat_newhope.png,US_Cities_List/mm_boulder.png,,,,,,,,,,,,,,,,,,,,,,,,,,,,,,
null,,rt_plussign_withcolor,653342,blue,,,,,null,US_Cities_List/nat_newhope.png,US_Cities_List/mm_boulder.png,,,,,,,,,,,,,,,,,,,,,,,,,,,,,,
881.1,,rt_thecrossant_black,654626,black_plus_sign,,,,,49,,,1,0.968253968,,,,,,,,,,,,,,,,,,,,,,,,,,,,
null,,color_black,654730,black_plus_sign,,,,,null,,,,,,,,,,,,,,,,,,,,,,,,,,,,,,,,
null,,learn_phase(without_color),657269,black_plus_sign,,,,,null,US_Cities_List/nat_peoria.png,US_Cities_List/mm_hotsprings.png,,,,,,,,,,,,,,,,,,,,,,,,,,,,,,
null,,black_cross(without_color),658251,blue,,,,,null,US_Cities_List/nat_peoria.png,US_Cities_List/mm_hotsprings.png,,,,,,,,,,,,,,,,,,,,,,,,,,,,,,
null,,rt_plussign_withcolor,658755,blue,,,,,null,US_Cities_List/nat_peoria.png,US_Cities_List/mm_hotsprings.png,,,,,,,,,,,,,,,,,,,,,,,,,,,,,,
983.7,,rt_thecrossant_black,659779,black_plus_sign,,,,,49,,,1,0.96875,,,,,,,,,,,,,,,,,,,,,,,,,,,,
null,,color_black,659884,black_plus_sign,,,,,null,,,,,,,,,,,,,,,,,,,,,,,,,,,,,,,,
null,,learn_phase(without_color),662427,black_plus_sign,,,,,null,US_Cities_List/mm_carmel.png,US_Cities_List/mm_cornwall.png,,,,,,,,,,,,,,,,,,,,,,,,,,,,,,
null,,black_cross(without_color),662973,green,,,,,null,US_Cities_List/mm_carmel.png,US_Cities_List/mm_cornwall.png,,,,,,,,,,,,,,,,,,,,,,,,,,,,,,
495,,rt_plussign_withcolor,663475,green,,,,,50,US_Cities_List/mm_carmel.png,US_Cities_List/mm_cornwall.png,,,,,,,,,,,,,,,,,,,,,,,,,,,,,,
null,,rt_thecrossant_black,664937,black_plus_sign,,,,,null,,,1,0.969230769,,,,,,,,,,,,,,,,,,,,,,,,,,,,
null,,color_black,665041,black_plus_sign,,,,,null,,,,,,,,,,,,,,,,,,,,,,,,,,,,,,,,
null,,learn_phase(without_color),667575,black_plus_sign,,,,,null,US_Cities_List/mm_gatlinburg.png,US_Cities_List/mm_cornwall.png,,,,,,,,,,,,,,,,,,,,,,,,,,,,,,
null,,black_cross(without_color),668124,blue,,,,,null,US_Cities_List/mm_gatlinburg.png,US_Cities_List/mm_cornwall.png,,,,,,,,,,,,,,,,,,,,,,,,,,,,,,
null,,rt_plussign_withcolor,668628,blue,,,,,null,US_Cities_List/mm_gatlinburg.png,US_Cities_List/mm_cornwall.png,,,,,,,,,,,,,,,,,,,,,,,,,,,,,,
733.1,,rt_thecrossant_black,670085,black_plus_sign,,,,,49,,,1,0.96969697,,,,,,,,,,,,,,,,,,,,,,,,,,,,
null,,color_black,670189,black_plus_sign,,,,,null,,,,,,,,,,,,,,,,,,,,,,,,,,,,,,,,
null,,learn_phase(without_color),672721,black_plus_sign,,,,,null,US_Cities_List/nat_peoria.png,US_Cities_List/mm_hotsprings.png,,,,,,,,,,,,,,,,,,,,,,,,,,,,,,
null,,black_cross(without_color),673700,green,,,,,null,US_Cities_List/nat_peoria.png,US_Cities_List/mm_hotsprings.png,,,,,,,,,,,,,,,,,,,,,,,,,,,,,,
null,,rt_plussign_withcolor,674203,green,,,,,null,US_Cities_List/nat_peoria.png,US_Cities_List/mm_hotsprings.png,,,,,,,,,,,,,,,,,,,,,,,,,,,,,,
757.4,,rt_thecrossant_black,675230,black_plus_sign,,,,,50,,,1,0.970149254,,,,,,,,,,,,,,,,,,,,,,,,,,,,
null,,color_black,675335,black_plus_sign,,,,,null,,,,,,,,,,,,,,,,,,,,,,,,,,,,,,,,
null,,learn_phase(without_color),677866,black_plus_sign,,,,,null,US_Cities_List/mm_hanover.png,US_Cities_List/nat_newhope.png,,,,,,,,,,,,,,,,,,,,,,,,,,,,,,
null,,black_cross(without_color),678354,blue,,,,,null,US_Cities_List/mm_hanover.png,US_Cities_List/nat_newhope.png,,,,,,,,,,,,,,,,,,,,,,,,,,,,,,
null,,rt_plussign_withcolor,678857,blue,,,,,null,US_Cities_List/mm_hanover.png,US_Cities_List/nat_newhope.png,,,,,,,,,,,,,,,,,,,,,,,,,,,,,,
1409.9,,rt_thecrossant_black,680376,black_plus_sign,,,,,49,,,1,0.970588235,,,,,,,,,,,,,,,,,,,,,,,,,,,,
null,,color_black,680480,black_plus_sign,,,,,null,,,,,,,,,,,,,,,,,,,,,,,,,,,,,,,,
null,,learn_phase(without_color),683019,black_plus_sign,,,,,null,US_Cities_List/nat_peoria.png,US_Cities_List/mm_westpalmbeach.png,,,,,,,,,,,,,,,,,,,,,,,,,,,,,,
null,,black_cross(without_color),683545,green,,,,,null,US_Cities_List/nat_peoria.png,US_Cities_List/mm_westpalmbeach.png,,,,,,,,,,,,,,,,,,,,,,,,,,,,,,
null,,rt_plussign_withcolor,684049,green,,,,,null,US_Cities_List/nat_peoria.png,US_Cities_List/mm_westpalmbeach.png,,,,,,,,,,,,,,,,,,,,,,,,,,,,,,
835.1,,rt_thecrossant_black,685530,black_plus_sign,,,,,50,,,1,0.971014493,,,,,,,,,,,,,,,,,,,,,,,,,,,,
null,,color_black,685634,black_plus_sign,,,,,null,,,,,,,,,,,,,,,,,,,,,,,,,,,,,,,,
null,,learn_phase(without_color),688167,black_plus_sign,,,,,null,US_Cities_List/mm_boulder.png,US_Cities_List/mm_shreveport.png,,,,,,,,,,,,,,,,,,,,,,,,,,,,,,
null,,black_cross(without_color),688582,blue,,,,,null,US_Cities_List/mm_boulder.png,US_Cities_List/mm_shreveport.png,,,,,,,,,,,,,,,,,,,,,,,,,,,,,,
null,,rt_plussign_withcolor,689085,blue,,,,,null,US_Cities_List/mm_boulder.png,US_Cities_List/mm_shreveport.png,,,,,,,,,,,,,,,,,,,,,,,,,,,,,,
1400.1,,rt_thecrossant_black,690676,black_plus_sign,,,,,49,,,1,0.971428571,,,,,,,,,,,,,,,,,,,,,,,,,,,,
null,,color_black,690781,black_plus_sign,,,,,null,,,,,,,,,,,,,,,,,,,,,,,,,,,,,,,,
null,,learn_phase(without_color),693310,black_plus_sign,,,,,null,US_Cities_List/mm_gatlinburg.png,US_Cities_List/mm_cornwall.png,,,,,,,,,,,,,,,,,,,,,,,,,,,,,,
null,,black_cross(without_color),693816,blue,,,,,null,US_Cities_List/mm_gatlinburg.png,US_Cities_List/mm_cornwall.png,,,,,,,,,,,,,,,,,,,,,,,,,,,,,,
null,,rt_plussign_withcolor,694319,blue,,,,,null,US_Cities_List/mm_gatlinburg.png,US_Cities_List/mm_cornwall.png,,,,,,,,,,,,,,,,,,,,,,,,,,,,,,
1139.2,,rt_thecrossant_black,695820,black_plus_sign,,,,,49,,,1,0.971830986,,,,,,,,,,,,,,,,,,,,,,,,,,,,
null,,color_black,695923,black_plus_sign,,,,,null,,,,,,,,,,,,,,,,,,,,,,,,,,,,,,,,
null,,learn_phase(without_color),698459,black_plus_sign,,,,,null,US_Cities_List/nat_huntsville.png,US_Cities_List/mm_gatlinburg.png,,,,,,,,,,,,,,,,,,,,,,,,,,,,,,
null,,black_cross(without_color),698881,blue,,,,,null,US_Cities_List/nat_huntsville.png,US_Cities_List/mm_gatlinburg.png,,,,,,,,,,,,,,,,,,,,,,,,,,,,,,
null,,rt_plussign_withcolor,699385,blue,,,,,null,US_Cities_List/nat_huntsville.png,US_Cities_List/mm_gatlinburg.png,,,,,,,,,,,,,,,,,,,,,,,,,,,,,,
932.8,,rt_thecrossant_black,700970,black_plus_sign,,,,,49,,,1,0.972222222,,,,,,,,,,,,,,,,,,,,,,,,,,,,
null,,color_black,701073,black_plus_sign,,,,,null,,,,,,,,,,,,,,,,,,,,,,,,,,,,,,,,
null,,learn_phase(without_color),703617,black_plus_sign,,,,,null,US_Cities_List/nat_peoria.png,US_Cities_List/mm_hotsprings.png,,,,,,,,,,,,,,,,,,,,,,,,,,,,,,
null,,black_cross(without_color),704607,green,,,,,null,US_Cities_List/nat_peoria.png,US_Cities_List/mm_hotsprings.png,,,,,,,,,,,,,,,,,,,,,,,,,,,,,,
null,,rt_plussign_withcolor,705109,green,,,,,null,US_Cities_List/nat_peoria.png,US_Cities_List/mm_hotsprings.png,,,,,,,,,,,,,,,,,,,,,,,,,,,,,,
615.3,,rt_thecrossant_black,706127,black_plus_sign,,,,,50,,,1,0.97260274,,,,,,,,,,,,,,,,,,,,,,,,,,,,
null,,color_black,706231,black_plus_sign,,,,,null,,,,,,,,,,,,,,,,,,,,,,,,,,,,,,,,
null,,learn_phase(without_color),708758,black_plus_sign,,,,,null,US_Cities_List/nat_huntsville.png,US_Cities_List/mm_gatlinburg.png,,,,,,,,,,,,,,,,,,,,,,,,,,,,,,
null,,black_cross(without_color),709584,green,,,,,null,US_Cities_List/nat_huntsville.png,US_Cities_List/mm_gatlinburg.png,,,,,,,,,,,,,,,,,,,,,,,,,,,,,,
null,,rt_plussign_withcolor,710086,green,,,,,null,US_Cities_List/nat_huntsville.png,US_Cities_List/mm_gatlinburg.png,,,,,,,,,,,,,,,,,,,,,,,,,,,,,,
1311.9,,rt_thecrossant_black,711268,black_plus_sign,,,,,50,,,1,0.972972973,,,,,,,,,,,,,,,,,,,,,,,,,,,,
null,,color_black,711372,black_plus_sign,,,,,null,,,,,,,,,,,,,,,,,,,,,,,,,,,,,,,,
null,,learn_phase(without_color),713905,black_plus_sign,,,,,null,US_Cities_List/nat_newhope.png,US_Cities_List/mm_carmel.png,,,,,,,,,,,,,,,,,,,,,,,,,,,,,,
null,,black_cross(without_color),714639,blue,,,,,null,US_Cities_List/nat_newhope.png,US_Cities_List/mm_carmel.png,,,,,,,,,,,,,,,,,,,,,,,,,,,,,,
null,,rt_plussign_withcolor,715142,blue,,,,,null,US_Cities_List/nat_newhope.png,US_Cities_List/mm_carmel.png,,,,,,,,,,,,,,,,,,,,,,,,,,,,,,
1402.5,,rt_thecrossant_black,716417,black_plus_sign,,,,,49,,,1,0.973333333,,,,,,,,,,,,,,,,,,,,,,,,,,,,
null,,color_black,716520,black_plus_sign,,,,,null,,,,,,,,,,,,,,,,,,,,,,,,,,,,,,,,
null,,learn_phase(without_color),719052,black_plus_sign,,,,,null,US_Cities_List/nat_newhope.png,US_Cities_List/mm_boulder.png,,,,,,,,,,,,,,,,,,,,,,,,,,,,,,
null,,black_cross(without_color),720149,green,,,,,null,US_Cities_List/nat_newhope.png,US_Cities_List/mm_boulder.png,,,,,,,,,,,,,,,,,,,,,,,,,,,,,,
null,,rt_plussign_withcolor,720652,green,,,,,null,US_Cities_List/nat_newhope.png,US_Cities_List/mm_boulder.png,,,,,,,,,,,,,,,,,,,,,,,,,,,,,,
1110.5,,rt_thecrossant_black,721562,black_plus_sign,,,,,50,,,1,0.973684211,,,,,,,,,,,,,,,,,,,,,,,,,,,,
null,,color_black,721667,black_plus_sign,,,,,null,,,,,,,,,,,,,,,,,,,,,,,,,,,,,,,,
null,,learn_phase(without_color),724198,black_plus_sign,,,,,null,US_Cities_List/nat_peoria.png,US_Cities_List/mm_hotsprings.png,,,,,,,,,,,,,,,,,,,,,,,,,,,,,,
null,,black_cross(without_color),724827,blue,,,,,null,US_Cities_List/nat_peoria.png,US_Cities_List/mm_hotsprings.png,,,,,,,,,,,,,,,,,,,,,,,,,,,,,,
null,,rt_plussign_withcolor,725331,blue,,,,,null,US_Cities_List/nat_peoria.png,US_Cities_List/mm_hotsprings.png,,,,,,,,,,,,,,,,,,,,,,,,,,,,,,
1430.5,,rt_thecrossant_black,726710,black_plus_sign,,,,,49,,,1,0.974025974,,,,,,,,,,,,,,,,,,,,,,,,,,,,
null,,color_black,726814,black_plus_sign,,,,,null,,,,,,,,,,,,,,,,,,,,,,,,,,,,,,,,
null,,learn_phase(without_color),729349,black_plus_sign,,,,,null,US_Cities_List/mm_boulder.png,US_Cities_List/mm_gatlinburg.png,,,,,,,,,,,,,,,,,,,,,,,,,,,,,,
null,,black_cross(without_color),729930,blue,,,,,null,US_Cities_List/mm_boulder.png,US_Cities_List/mm_gatlinburg.png,,,,,,,,,,,,,,,,,,,,,,,,,,,,,,
null,,rt_plussign_withcolor,730432,blue,,,,,null,US_Cities_List/mm_boulder.png,US_Cities_List/mm_gatlinburg.png,,,,,,,,,,,,,,,,,,,,,,,,,,,,,,
945.6,,rt_thecrossant_black,731861,black_plus_sign,,,,,49,,,1,0.974358974,,,,,,,,,,,,,,,,,,,,,,,,,,,,
null,,color_black,731965,black_plus_sign,,,,,null,,,,,,,,,,,,,,,,,,,,,,,,,,,,,,,,
null,,learn_phase(without_color),734506,black_plus_sign,,,,,null,US_Cities_List/nat_newhope.png,US_Cities_List/mm_carmel.png,,,,,,,,,,,,,,,,,,,,,,,,,,,,,,
null,,black_cross(without_color),735271,green,,,,,null,US_Cities_List/nat_newhope.png,US_Cities_List/mm_carmel.png,,,,,,,,,,,,,,,,,,,,,,,,,,,,,,
null,,rt_plussign_withcolor,735774,green,,,,,null,US_Cities_List/nat_newhope.png,US_Cities_List/mm_carmel.png,,,,,,,,,,,,,,,,,,,,,,,,,,,,,,
797.8,,rt_thecrossant_black,737017,black_plus_sign,,,,,50,,,1,0.974683544,,,,,,,,,,,,,,,,,,,,,,,,,,,,
null,,color_black,737121,black_plus_sign,,,,,null,,,,,,,,,,,,,,,,,,,,,,,,,,,,,,,,
null,,learn_phase(without_color),739660,black_plus_sign,,,,,null,US_Cities_List/mm_shreveport.png,US_Cities_List/nat_peoria.png,,,,,,,,,,,,,,,,,,,,,,,,,,,,,,
null,,black_cross(without_color),740081,blue,,,,,null,US_Cities_List/mm_shreveport.png,US_Cities_List/nat_peoria.png,,,,,,,,,,,,,,,,,,,,,,,,,,,,,,
null,,rt_plussign_withcolor,740585,blue,,,,,null,US_Cities_List/mm_shreveport.png,US_Cities_List/nat_peoria.png,,,,,,,,,,,,,,,,,,,,,,,,,,,,,,
1009.6,,rt_thecrossant_black,742171,black_plus_sign,,,,,49,,,1,0.975,,,,,,,,,,,,,,,,,,,,,,,,,,,,
null,,color_black,742275,black_plus_sign,,,,,null,,,,,,,,,,,,,,,,,,,,,,,,,,,,,,,,
null,,learn_phase(without_color),744818,black_plus_sign,,,,,null,US_Cities_List/nat_newhope.png,US_Cities_List/mm_boulder.png,,,,,,,,,,,,,,,,,,,,,,,,,,,,,,
null,,black_cross(without_color),745486,green,,,,,null,US_Cities_List/nat_newhope.png,US_Cities_List/mm_boulder.png,,,,,,,,,,,,,,,,,,,,,,,,,,,,,,
null,,rt_plussign_withcolor,745989,green,,,,,null,US_Cities_List/nat_newhope.png,US_Cities_List/mm_boulder.png,,,,,,,,,,,,,,,,,,,,,,,,,,,,,,
641.6,,rt_thecrossant_black,747328,black_plus_sign,,,,,50,,,1,0.975308642,,,,,,,,,,,,,,,,,,,,,,,,,,,,
null,,color_black,747432,black_plus_sign,,,,,null,,,,,,,,,,,,,,,,,,,,,,,,,,,,,,,,
null,,learn_phase(without_color),749968,black_plus_sign,,,,,null,US_Cities_List/mm_westpalmbeach.png,US_Cities_List/nat_racine.png,,,,,,,,,,,,,,,,,,,,,,,,,,,,,,
null,,black_cross(without_color),751012,green,,,,,null,US_Cities_List/mm_westpalmbeach.png,US_Cities_List/nat_racine.png,,,,,,,,,,,,,,,,,,,,,,,,,,,,,,
null,,rt_plussign_withcolor,751515,green,,,,,null,US_Cities_List/mm_westpalmbeach.png,US_Cities_List/nat_racine.png,,,,,,,,,,,,,,,,,,,,,,,,,,,,,,
962.5,,rt_thecrossant_black,752478,black_plus_sign,,,,,50,,,1,0.975609756,,,,,,,,,,,,,,,,,,,,,,,,,,,,
null,,color_black,752582,black_plus_sign,,,,,null,,,,,,,,,,,,,,,,,,,,,,,,,,,,,,,,
null,,learn_phase(without_color),755120,black_plus_sign,,,,,null,US_Cities_List/mm_hanover.png,US_Cities_List/nat_newhope.png,,,,,,,,,,,,,,,,,,,,,,,,,,,,,,
null,,black_cross(without_color),755945,green,,,,,null,US_Cities_List/mm_hanover.png,US_Cities_List/nat_newhope.png,,,,,,,,,,,,,,,,,,,,,,,,,,,,,,
null,,rt_plussign_withcolor,756448,green,,,,,null,US_Cities_List/mm_hanover.png,US_Cities_List/nat_newhope.png,,,,,,,,,,,,,,,,,,,,,,,,,,,,,,
1268.9,,rt_thecrossant_black,757630,black_plus_sign,,,,,50,,,1,0.975903614,,,,,,,,,,,,,,,,,,,,,,,,,,,,
null,,color_black,757734,black_plus_sign,,,,,null,,,,,,,,,,,,,,,,,,,,,,,,,,,,,,,,
null,,learn_phase(without_color),760265,black_plus_sign,,,,,null,US_Cities_List/nat_peoria.png,US_Cities_List/mm_hotsprings.png,,,,,,,,,,,,,,,,,,,,,,,,,,,,,,
null,,black_cross(without_color),760999,blue,,,,,null,US_Cities_List/nat_peoria.png,US_Cities_List/mm_hotsprings.png,,,,,,,,,,,,,,,,,,,,,,,,,,,,,,
null,,rt_plussign_withcolor,761503,blue,,,,,null,US_Cities_List/nat_peoria.png,US_Cities_List/mm_hotsprings.png,,,,,,,,,,,,,,,,,,,,,,,,,,,,,,
1053.1,,rt_thecrossant_black,762776,black_plus_sign,,,,,49,,,1,0.976190476,,,,,,,,,,,,,,,,,,,,,,,,,,,,
null,,color_black,762880,black_plus_sign,,,,,null,,,,,,,,,,,,,,,,,,,,,,,,,,,,,,,,
null,,learn_phase(without_color),765419,black_plus_sign,,,,,null,US_Cities_List/nat_peoria.png,US_Cities_List/mm_westpalmbeach.png,,,,,,,,,,,,,,,,,,,,,,,,,,,,,,
null,,black_cross(without_color),766190,green,,,,,null,US_Cities_List/nat_peoria.png,US_Cities_List/mm_westpalmbeach.png,,,,,,,,,,,,,,,,,,,,,,,,,,,,,,
null,,rt_plussign_withcolor,766693,green,,,,,null,US_Cities_List/nat_peoria.png,US_Cities_List/mm_westpalmbeach.png,,,,,,,,,,,,,,,,,,,,,,,,,,,,,,
1401.8,,rt_thecrossant_black,767930,black_plus_sign,,,,,50,,,1,0.976470588,,,,,,,,,,,,,,,,,,,,,,,,,,,,
null,,color_black,768034,black_plus_sign,,,,,null,,,,,,,,,,,,,,,,,,,,,,,,,,,,,,,,
null,,learn_phase(without_color),770566,black_plus_sign,,,,,null,US_Cities_List/mm_carmel.png,US_Cities_List/mm_leesburg.png,,,,,,,,,,,,,,,,,,,,,,,,,,,,,,
null,,black_cross(without_color),771488,blue,,,,,null,US_Cities_List/mm_carmel.png,US_Cities_List/mm_leesburg.png,,,,,,,,,,,,,,,,,,,,,,,,,,,,,,
null,,rt_plussign_withcolor,771992,blue,,,,,null,US_Cities_List/mm_carmel.png,US_Cities_List/mm_leesburg.png,,,,,,,,,,,,,,,,,,,,,,,,,,,,,,
1579.5,,rt_thecrossant_black,773077,black_plus_sign,,,,,49,,,1,0.976744186,,,,,,,,,,,,,,,,,,,,,,,,,,,,
null,,color_black,773181,black_plus_sign,,,,,null,,,,,,,,,,,,,,,,,,,,,,,,,,,,,,,,
null,,learn_phase(without_color),775719,black_plus_sign,,,,,null,US_Cities_List/mm_carmel.png,US_Cities_List/mm_cornwall.png,,,,,,,,,,,,,,,,,,,,,,,,,,,,,,
null,,black_cross(without_color),776570,blue,,,,,null,US_Cities_List/mm_carmel.png,US_Cities_List/mm_cornwall.png,,,,,,,,,,,,,,,,,,,,,,,,,,,,,,
null,,rt_plussign_withcolor,777073,blue,,,,,null,US_Cities_List/mm_carmel.png,US_Cities_List/mm_cornwall.png,,,,,,,,,,,,,,,,,,,,,,,,,,,,,,
1310,,rt_thecrossant_black,778230,black_plus_sign,,,,,49,,,1,0.977011494,,,,,,,,,,,,,,,,,,,,,,,,,,,,
null,,color_black,778334,black_plus_sign,,,,,null,,,,,,,,,,,,,,,,,,,,,,,,,,,,,,,,
null,,learn_phase(without_color),780873,black_plus_sign,,,,,null,US_Cities_List/mm_shreveport.png,US_Cities_List/nat_peoria.png,,,,,,,,,,,,,,,,,,,,,,,,,,,,,,
null,,black_cross(without_color),781436,green,,,,,null,US_Cities_List/mm_shreveport.png,US_Cities_List/nat_peoria.png,,,,,,,,,,,,,,,,,,,,,,,,,,,,,,
null,,rt_plussign_withcolor,781939,green,,,,,null,US_Cities_List/mm_shreveport.png,US_Cities_List/nat_peoria.png,,,,,,,,,,,,,,,,,,,,,,,,,,,,,,
1387.8,,rt_thecrossant_black,783384,black_plus_sign,,,,,50,,,1,0.977272727,,,,,,,,,,,,,,,,,,,,,,,,,,,,
null,,color_black,783488,black_plus_sign,,,,,null,,,,,,,,,,,,,,,,,,,,,,,,,,,,,,,,
null,,learn_phase(without_color),786028,black_plus_sign,,,,,null,US_Cities_List/mm_westpalmbeach.png,US_Cities_List/nat_racine.png,,,,,,,,,,,,,,,,,,,,,,,,,,,,,,
null,,black_cross(without_color),786530,blue,,,,,null,US_Cities_List/mm_westpalmbeach.png,US_Cities_List/nat_racine.png,,,,,,,,,,,,,,,,,,,,,,,,,,,,,,
null,,rt_plussign_withcolor,787034,blue,,,,,null,US_Cities_List/mm_westpalmbeach.png,US_Cities_List/nat_racine.png,,,,,,,,,,,,,,,,,,,,,,,,,,,,,,
1071.3,,rt_thecrossant_black,788540,black_plus_sign,,,,,49,,,1,0.97752809,,,,,,,,,,,,,,,,,,,,,,,,,,,,
null,,color_black,788644,black_plus_sign,,,,,null,,,,,,,,,,,,,,,,,,,,,,,,,,,,,,,,
null,,learn_phase(without_color),791188,black_plus_sign,,,,,null,US_Cities_List/mm_shreveport.png,US_Cities_List/nat_peoria.png,,,,,,,,,,,,,,,,,,,,,,,,,,,,,,
null,,black_cross(without_color),791987,green,,,,,null,US_Cities_List/mm_shreveport.png,US_Cities_List/nat_peoria.png,,,,,,,,,,,,,,,,,,,,,,,,,,,,,,
null,,rt_plussign_withcolor,792492,green,,,,,null,US_Cities_List/mm_shreveport.png,US_Cities_List/nat_peoria.png,,,,,,,,,,,,,,,,,,,,,,,,,,,,,,
1333.8,,rt_thecrossant_black,793699,black_plus_sign,,,,,50,,,1,0.977777778,,,,,,,,,,,,,,,,,,,,,,,,,,,,
null,,color_black,793804,black_plus_sign,,,,,null,,,,,,,,,,,,,,,,,,,,,,,,,,,,,,,,
null,,learn_phase(without_color),796346,black_plus_sign,,,,,null,US_Cities_List/mm_westpalmbeach.png,US_Cities_List/nat_huntsville.png,,,,,,,,,,,,,,,,,,,,,,,,,,,,,,
null,,black_cross(without_color),796879,green,,,,,null,US_Cities_List/mm_westpalmbeach.png,US_Cities_List/nat_huntsville.png,,,,,,,,,,,,,,,,,,,,,,,,,,,,,,
null,,rt_plussign_withcolor,797381,green,,,,,null,US_Cities_List/mm_westpalmbeach.png,US_Cities_List/nat_huntsville.png,,,,,,,,,,,,,,,,,,,,,,,,,,,,,,
946.4,,rt_thecrossant_black,798857,black_plus_sign,,,,,50,,,1,0.978021978,,,,,,,,,,,,,,,,,,,,,,,,,,,,
null,,color_black,798961,black_plus_sign,,,,,null,,,,,,,,,,,,,,,,,,,,,,,,,,,,,,,,
null,,learn_phase(without_color),801492,black_plus_sign,,,,,null,US_Cities_List/mm_shreveport.png,US_Cities_List/nat_huntsville.png,,,,,,,,,,,,,,,,,,,,,,,,,,,,,,
null,,black_cross(without_color),802492,green,,,,,null,US_Cities_List/mm_shreveport.png,US_Cities_List/nat_huntsville.png,,,,,,,,,,,,,,,,,,,,,,,,,,,,,,
null,,rt_plussign_withcolor,802995,green,,,,,null,US_Cities_List/mm_shreveport.png,US_Cities_List/nat_huntsville.png,,,,,,,,,,,,,,,,,,,,,,,,,,,,,,
870.2,,rt_thecrossant_black,804003,black_plus_sign,,,,,50,,,1,0.97826087,,,,,,,,,,,,,,,,,,,,,,,,,,,,
null,,color_black,804107,black_plus_sign,,,,,null,,,,,,,,,,,,,,,,,,,,,,,,,,,,,,,,
null,,learn_phase(without_color),806639,black_plus_sign,,,,,null,US_Cities_List/mm_hanover.png,US_Cities_List/nat_newhope.png,,,,,,,,,,,,,,,,,,,,,,,,,,,,,,
null,,black_cross(without_color),807256,blue,,,,,null,US_Cities_List/mm_hanover.png,US_Cities_List/nat_newhope.png,,,,,,,,,,,,,,,,,,,,,,,,,,,,,,
null,,rt_plussign_withcolor,807760,blue,,,,,null,US_Cities_List/mm_hanover.png,US_Cities_List/nat_newhope.png,,,,,,,,,,,,,,,,,,,,,,,,,,,,,,
1459.4,,rt_thecrossant_black,809150,black_plus_sign,,,,,49,,,1,0.978494624,,,,,,,,,,,,,,,,,,,,,,,,,,,,
null,,color_black,809253,black_plus_sign,,,,,null,,,,,,,,,,,,,,,,,,,,,,,,,,,,,,,,
null,,learn_phase(without_color),811784,black_plus_sign,,,,,null,US_Cities_List/nat_peoria.png,US_Cities_List/nat_huntsville.png,,,,,,,,,,,,,,,,,,,,,,,,,,,,,,
null,,black_cross(without_color),812345,blue,,,,,null,US_Cities_List/nat_peoria.png,US_Cities_List/nat_huntsville.png,,,,,,,,,,,,,,,,,,,,,,,,,,,,,,
null,,rt_plussign_withcolor,812849,blue,,,,,null,US_Cities_List/nat_peoria.png,US_Cities_List/nat_huntsville.png,,,,,,,,,,,,,,,,,,,,,,,,,,,,,,
978.6,,rt_thecrossant_black,814295,black_plus_sign,,,,,49,,,1,0.978723404,,,,,,,,,,,,,,,,,,,,,,,,,,,,
null,,color_black,814399,black_plus_sign,,,,,null,,,,,,,,,,,,,,,,,,,,,,,,,,,,,,,,
null,,learn_phase(without_color),816933,black_plus_sign,,,,,null,US_Cities_List/mm_boulder.png,US_Cities_List/mm_shreveport.png,,,,,,,,,,,,,,,,,,,,,,,,,,,,,,
null,,black_cross(without_color),817783,blue,,,,,null,US_Cities_List/mm_boulder.png,US_Cities_List/mm_shreveport.png,,,,,,,,,,,,,,,,,,,,,,,,,,,,,,
null,,rt_plussign_withcolor,818286,blue,,,,,null,US_Cities_List/mm_boulder.png,US_Cities_List/mm_shreveport.png,,,,,,,,,,,,,,,,,,,,,,,,,,,,,,
774.3,,rt_thecrossant_black,819444,black_plus_sign,,,,,49,,,1,0.978947368,,,,,,,,,,,,,,,,,,,,,,,,,,,,
null,,color_black,819548,black_plus_sign,,,,,null,,,,,,,,,,,,,,,,,,,,,,,,,,,,,,,,
null,,learn_phase(without_color),822086,black_plus_sign,,,,,null,US_Cities_List/nat_newhope.png,US_Cities_List/mm_boulder.png,,,,,,,,,,,,,,,,,,,,,,,,,,,,,,
null,,black_cross(without_color),822995,blue,,,,,null,US_Cities_List/nat_newhope.png,US_Cities_List/mm_boulder.png,,,,,,,,,,,,,,,,,,,,,,,,,,,,,,
null,,rt_plussign_withcolor,823498,blue,,,,,null,US_Cities_List/nat_newhope.png,US_Cities_List/mm_boulder.png,,,,,,,,,,,,,,,,,,,,,,,,,,,,,,
1727.6,,rt_thecrossant_black,824598,black_plus_sign,,,,,49,,,1,0.979166667,,,,,,,,,,,,,,,,,,,,,,,,,,,,
null,,color_black,824702,black_plus_sign,,,,,null,,,,,,,,,,,,,,,,,,,,,,,,,,,,,,,,
null,,learn_phase(without_color),827234,black_plus_sign,,,,,null,US_Cities_List/mm_carmel.png,US_Cities_List/mm_leesburg.png,,,,,,,,,,,,,,,,,,,,,,,,,,,,,,
null,,black_cross(without_color),827893,blue,,,,,null,US_Cities_List/mm_carmel.png,US_Cities_List/mm_leesburg.png,,,,,,,,,,,,,,,,,,,,,,,,,,,,,,
null,,rt_plussign_withcolor,828396,blue,,,,,null,US_Cities_List/mm_carmel.png,US_Cities_List/mm_leesburg.png,,,,,,,,,,,,,,,,,,,,,,,,,,,,,,
1228.5,,rt_thecrossant_black,829745,black_plus_sign,,,,,49,,,1,0.979381443,,,,,,,,,,,,,,,,,,,,,,,,,,,,
null,,color_black,829850,black_plus_sign,,,,,null,,,,,,,,,,,,,,,,,,,,,,,,,,,,,,,,
null,,learn_phase(without_color),832389,black_plus_sign,,,,,null,US_Cities_List/nat_peoria.png,US_Cities_List/mm_westpalmbeach.png,,,,,,,,,,,,,,,,,,,,,,,,,,,,,,
null,,black_cross(without_color),833154,green,,,,,null,US_Cities_List/nat_peoria.png,US_Cities_List/mm_westpalmbeach.png,,,,,,,,,,,,,,,,,,,,,,,,,,,,,,
null,,rt_plussign_withcolor,833657,green,,,,,null,US_Cities_List/nat_peoria.png,US_Cities_List/mm_westpalmbeach.png,,,,,,,,,,,,,,,,,,,,,,,,,,,,,,
1075,,rt_thecrossant_black,834899,black_plus_sign,,,,,50,,,1,0.979591837,,,,,,,,,,,,,,,,,,,,,,,,,,,,
null,,color_black,835002,black_plus_sign,,,,,null,,,,,,,,,,,,,,,,,,,,,,,,,,,,,,,,
null,,learn_phase(without_color),837540,black_plus_sign,,,,,null,US_Cities_List/nat_huntsville.png,US_Cities_List/mm_gatlinburg.png,,,,,,,,,,,,,,,,,,,,,,,,,,,,,,
null,,black_cross(without_color),838247,blue,,,,,null,US_Cities_List/nat_huntsville.png,US_Cities_List/mm_gatlinburg.png,,,,,,,,,,,,,,,,,,,,,,,,,,,,,,
null,,rt_plussign_withcolor,838751,blue,,,,,null,US_Cities_List/nat_huntsville.png,US_Cities_List/mm_gatlinburg.png,,,,,,,,,,,,,,,,,,,,,,,,,,,,,,
1393.9,,rt_thecrossant_black,840051,black_plus_sign,,,,,49,,,1,0.97979798,,,,,,,,,,,,,,,,,,,,,,,,,,,,
null,,color_black,840156,black_plus_sign,,,,,null,,,,,,,,,,,,,,,,,,,,,,,,,,,,,,,,
null,,learn_phase(without_color),842695,black_plus_sign,,,,,null,US_Cities_List/mm_boulder.png,US_Cities_List/mm_gatlinburg.png,,,,,,,,,,,,,,,,,,,,,,,,,,,,,,
null,,black_cross(without_color),843231,green,,,,,null,US_Cities_List/mm_boulder.png,US_Cities_List/mm_gatlinburg.png,,,,,,,,,,,,,,,,,,,,,,,,,,,,,,
null,,rt_plussign_withcolor,843734,green,,,,,null,US_Cities_List/mm_boulder.png,US_Cities_List/mm_gatlinburg.png,,,,,,,,,,,,,,,,,,,,,,,,,,,,,,
899.7,,rt_thecrossant_black,845207,black_plus_sign,,,,,50,,,1,0.98,,,,,,,,,,,,,,,,,,,,,,,,,,,,
null,,color_black,845310,black_plus_sign,,,,,null,,,,,,,,,,,,,,,,,,,,,,,,,,,,,,,,
null,,learn_phase(without_color),847854,black_plus_sign,,,,,null,US_Cities_List/nat_peoria.png,US_Cities_List/nat_huntsville.png,,,,,,,,,,,,,,,,,,,,,,,,,,,,,,
null,,black_cross(without_color),848582,blue,,,,,null,US_Cities_List/nat_peoria.png,US_Cities_List/nat_huntsville.png,,,,,,,,,,,,,,,,,,,,,,,,,,,,,,
null,,rt_plussign_withcolor,849085,blue,,,,,null,US_Cities_List/nat_peoria.png,US_Cities_List/nat_huntsville.png,,,,,,,,,,,,,,,,,,,,,,,,,,,,,,
819.4,,rt_thecrossant_black,850365,black_plus_sign,,,,,49,,,1,0.98019802,,,,,,,,,,,,,,,,,,,,,,,,,,,,
null,,color_black,850470,black_plus_sign,,,,,null,,,,,,,,,,,,,,,,,,,,,,,,,,,,,,,,
null,,learn_phase(without_color),853015,black_plus_sign,,,,,null,US_Cities_List/nat_peoria.png,US_Cities_List/mm_westpalmbeach.png,,,,,,,,,,,,,,,,,,,,,,,,,,,,,,
null,,black_cross(without_color),853840,blue,,,,,null,US_Cities_List/nat_peoria.png,US_Cities_List/mm_westpalmbeach.png,,,,,,,,,,,,,,,,,,,,,,,,,,,,,,
null,,rt_plussign_withcolor,854343,blue,,,,,null,US_Cities_List/nat_peoria.png,US_Cities_List/mm_westpalmbeach.png,,,,,,,,,,,,,,,,,,,,,,,,,,,,,,
1200.8,,rt_thecrossant_black,855526,black_plus_sign,,,,,49,,,1,0.980392157,,,,,,,,,,,,,,,,,,,,,,,,,,,,
null,,color_black,855630,black_plus_sign,,,,,null,,,,,,,,,,,,,,,,,,,,,,,,,,,,,,,,
null,,learn_phase(without_color),858165,black_plus_sign,,,,,null,US_Cities_List/mm_westpalmbeach.png,US_Cities_List/nat_racine.png,,,,,,,,,,,,,,,,,,,,,,,,,,,,,,
null,,black_cross(without_color),858931,green,,,,,null,US_Cities_List/mm_westpalmbeach.png,US_Cities_List/nat_racine.png,,,,,,,,,,,,,,,,,,,,,,,,,,,,,,
null,,rt_plussign_withcolor,859435,green,,,,,null,US_Cities_List/mm_westpalmbeach.png,US_Cities_List/nat_racine.png,,,,,,,,,,,,,,,,,,,,,,,,,,,,,,
1248.2,,rt_thecrossant_black,860677,black_plus_sign,,,,,50,,,1,0.980582524,,,,,,,,,,,,,,,,,,,,,,,,,,,,
null,,color_black,860781,black_plus_sign,,,,,null,,,,,,,,,,,,,,,,,,,,,,,,,,,,,,,,
null,,learn_phase(without_color),863318,black_plus_sign,,,,,null,US_Cities_List/nat_peoria.png,US_Cities_List/nat_huntsville.png,,,,,,,,,,,,,,,,,,,,,,,,,,,,,,
null,,black_cross(without_color),864158,green,,,,,null,US_Cities_List/nat_peoria.png,US_Cities_List/nat_huntsville.png,,,,,,,,,,,,,,,,,,,,,,,,,,,,,,
null,,rt_plussign_withcolor,864662,green,,,,,null,US_Cities_List/nat_peoria.png,US_Cities_List/nat_huntsville.png,,,,,,,,,,,,,,,,,,,,,,,,,,,,,,
1047.3,,rt_thecrossant_black,865830,black_plus_sign,,,,,50,,,1,0.980769231,,,,,,,,,,,,,,,,,,,,,,,,,,,,
null,,color_black,865935,black_plus_sign,,,,,null,,,,,,,,,,,,,,,,,,,,,,,,,,,,,,,,
null,,learn_phase(without_color),868471,black_plus_sign,,,,,null,US_Cities_List/nat_peoria.png,US_Cities_List/mm_westpalmbeach.png,,,,,,,,,,,,,,,,,,,,,,,,,,,,,,
null,,black_cross(without_color),869027,green,,,,,null,US_Cities_List/nat_peoria.png,US_Cities_List/mm_westpalmbeach.png,,,,,,,,,,,,,,,,,,,,,,,,,,,,,,
null,,rt_plussign_withcolor,869529,green,,,,,null,US_Cities_List/nat_peoria.png,US_Cities_List/mm_westpalmbeach.png,,,,,,,,,,,,,,,,,,,,,,,,,,,,,,
1221.1,,rt_thecrossant_black,870982,black_plus_sign,,,,,50,,,1,0.980952381,,,,,,,,,,,,,,,,,,,,,,,,,,,,
null,,color_black,871087,black_plus_sign,,,,,null,,,,,,,,,,,,,,,,,,,,,,,,,,,,,,,,
null,,learn_phase(without_color),873614,black_plus_sign,,,,,null,US_Cities_List/nat_peoria.png,US_Cities_List/mm_hotsprings.png,,,,,,,,,,,,,,,,,,,,,,,,,,,,,,
null,,black_cross(without_color),874674,green,,,,,null,US_Cities_List/nat_peoria.png,US_Cities_List/mm_hotsprings.png,,,,,,,,,,,,,,,,,,,,,,,,,,,,,,
null,,rt_plussign_withcolor,875178,green,,,,,null,US_Cities_List/nat_peoria.png,US_Cities_List/mm_hotsprings.png,,,,,,,,,,,,,,,,,,,,,,,,,,,,,,
803.1,,rt_thecrossant_black,876126,black_plus_sign,,,,,50,,,1,0.981132075,,,,,,,,,,,,,,,,,,,,,,,,,,,,
null,,color_black,876230,black_plus_sign,,,,,null,,,,,,,,,,,,,,,,,,,,,,,,,,,,,,,,
null,,learn_phase(without_color),878762,black_plus_sign,,,,,null,US_Cities_List/mm_boulder.png,US_Cities_List/mm_gatlinburg.png,,,,,,,,,,,,,,,,,,,,,,,,,,,,,,
null,,black_cross(without_color),879797,green,,,,,null,US_Cities_List/mm_boulder.png,US_Cities_List/mm_gatlinburg.png,,,,,,,,,,,,,,,,,,,,,,,,,,,,,,
null,,rt_plussign_withcolor,880301,green,,,,,null,US_Cities_List/mm_boulder.png,US_Cities_List/mm_gatlinburg.png,,,,,,,,,,,,,,,,,,,,,,,,,,,,,,
1201.9,,rt_thecrossant_black,881274,black_plus_sign,,,,,50,,,1,0.981308411,,,,,,,,,,,,,,,,,,,,,,,,,,,,
null,,color_black,881377,black_plus_sign,,,,,null,,,,,,,,,,,,,,,,,,,,,,,,,,,,,,,,
null,,learn_phase(without_color),883923,black_plus_sign,,,,,null,US_Cities_List/nat_peoria.png,US_Cities_List/mm_westpalmbeach.png,,,,,,,,,,,,,,,,,,,,,,,,,,,,,,
null,,black_cross(without_color),884620,green,,,,,null,US_Cities_List/nat_peoria.png,US_Cities_List/mm_westpalmbeach.png,,,,,,,,,,,,,,,,,,,,,,,,,,,,,,
477.7,,rt_plussign_withcolor,885123,green,,,,,50,US_Cities_List/nat_peoria.png,US_Cities_List/mm_westpalmbeach.png,,,,,,,,,,,,,,,,,,,,,,,,,,,,,,
null,,rt_thecrossant_black,886433,black_plus_sign,,,,,null,,,1,0.981481481,,,,,,,,,,,,,,,,,,,,,,,,,,,,
null,,color_black,886537,black_plus_sign,,,,,null,,,,,,,,,,,,,,,,,,,,,,,,,,,,,,,,
null,,learn_phase(without_color),889079,black_plus_sign,,,,,null,US_Cities_List/mm_westpalmbeach.png,US_Cities_List/nat_huntsville.png,,,,,,,,,,,,,,,,,,,,,,,,,,,,,,
null,,black_cross(without_color),889700,blue,,,,,null,US_Cities_List/mm_westpalmbeach.png,US_Cities_List/nat_huntsville.png,,,,,,,,,,,,,,,,,,,,,,,,,,,,,,
null,,rt_plussign_withcolor,890203,blue,,,,,null,US_Cities_List/mm_westpalmbeach.png,US_Cities_List/nat_huntsville.png,,,,,,,,,,,,,,,,,,,,,,,,,,,,,,
904.9,,rt_thecrossant_black,891589,black_plus_sign,,,,,49,,,1,0.981651376,,,,,,,,,,,,,,,,,,,,,,,,,,,,
null,,color_black,891693,black_plus_sign,,,,,null,,,,,,,,,,,,,,,,,,,,,,,,,,,,,,,,
null,,learn_phase(without_color),894225,black_plus_sign,,,,,null,US_Cities_List/mm_carmel.png,US_Cities_List/mm_leesburg.png,,,,,,,,,,,,,,,,,,,,,,,,,,,,,,
null,,black_cross(without_color),895276,green,,,,,null,US_Cities_List/mm_carmel.png,US_Cities_List/mm_leesburg.png,,,,,,,,,,,,,,,,,,,,,,,,,,,,,,
null,,rt_plussign_withcolor,895779,green,,,,,null,US_Cities_List/mm_carmel.png,US_Cities_List/mm_leesburg.png,,,,,,,,,,,,,,,,,,,,,,,,,,,,,,
721.1,,rt_thecrossant_black,896736,black_plus_sign,,,,,50,,,1,0.981818182,,,,,,,,,,,,,,,,,,,,,,,,,,,,
null,,color_black,896840,black_plus_sign,,,,,null,,,,,,,,,,,,,,,,,,,,,,,,,,,,,,,,
null,,learn_phase(without_color),899377,black_plus_sign,,,,,null,US_Cities_List/nat_newhope.png,US_Cities_List/mm_boulder.png,,,,,,,,,,,,,,,,,,,,,,,,,,,,,,
null,,black_cross(without_color),900233,green,,,,,null,US_Cities_List/nat_newhope.png,US_Cities_List/mm_boulder.png,,,,,,,,,,,,,,,,,,,,,,,,,,,,,,
null,,rt_plussign_withcolor,900737,green,,,,,null,US_Cities_List/nat_newhope.png,US_Cities_List/mm_boulder.png,,,,,,,,,,,,,,,,,,,,,,,,,,,,,,
1161,,rt_thecrossant_black,901888,black_plus_sign,,,,,50,,,1,0.981981982,,,,,,,,,,,,,,,,,,,,,,,,,,,,
null,,color_black,901992,black_plus_sign,,,,,null,,,,,,,,,,,,,,,,,,,,,,,,,,,,,,,,
null,,learn_phase(without_color),904536,black_plus_sign,,,,,null,US_Cities_List/nat_peoria.png,US_Cities_List/nat_huntsville.png,,,,,,,,,,,,,,,,,,,,,,,,,,,,,,
null,,black_cross(without_color),905432,green,,,,,null,US_Cities_List/nat_peoria.png,US_Cities_List/nat_huntsville.png,,,,,,,,,,,,,,,,,,,,,,,,,,,,,,
409.4,,rt_plussign_withcolor,905935,green,,,,,50,US_Cities_List/nat_peoria.png,US_Cities_List/nat_huntsville.png,,,,,,,,,,,,,,,,,,,,,,,,,,,,,,
null,,rt_thecrossant_black,907048,black_plus_sign,,,,,null,,,1,0.982142857,,,,,,,,,,,,,,,,,,,,,,,,,,,,
null,,color_black,907152,black_plus_sign,,,,,null,,,,,,,,,,,,,,,,,,,,,,,,,,,,,,,,
null,,learn_phase(without_color),909694,black_plus_sign,,,,,null,US_Cities_List/nat_huntsville.png,US_Cities_List/mm_gatlinburg.png,,,,,,,,,,,,,,,,,,,,,,,,,,,,,,
null,,black_cross(without_color),910201,blue,,,,,null,US_Cities_List/nat_huntsville.png,US_Cities_List/mm_gatlinburg.png,,,,,,,,,,,,,,,,,,,,,,,,,,,,,,
null,,rt_plussign_withcolor,910704,blue,,,,,null,US_Cities_List/nat_huntsville.png,US_Cities_List/mm_gatlinburg.png,,,,,,,,,,,,,,,,,,,,,,,,,,,,,,
1235.8,,rt_thecrossant_black,912205,black_plus_sign,,,,,49,,,1,0.982300885,,,,,,,,,,,,,,,,,,,,,,,,,,,,
null,,color_black,912309,black_plus_sign,,,,,null,,,,,,,,,,,,,,,,,,,,,,,,,,,,,,,,
null,,learn_phase(without_color),914848,black_plus_sign,,,,,null,US_Cities_List/mm_boulder.png,US_Cities_List/mm_gatlinburg.png,,,,,,,,,,,,,,,,,,,,,,,,,,,,,,
null,,black_cross(without_color),915586,green,,,,,null,US_Cities_List/mm_boulder.png,US_Cities_List/mm_gatlinburg.png,,,,,,,,,,,,,,,,,,,,,,,,,,,,,,
469.3,,rt_plussign_withcolor,916090,green,,,,,50,US_Cities_List/mm_boulder.png,US_Cities_List/mm_gatlinburg.png,,,,,,,,,,,,,,,,,,,,,,,,,,,,,,
null,,rt_thecrossant_black,917360,black_plus_sign,,,,,null,,,1,0.98245614,,,,,,,,,,,,,,,,,,,,,,,,,,,,
null,,color_black,917464,black_plus_sign,,,,,null,,,,,,,,,,,,,,,,,,,,,,,,,,,,,,,,
null,,learn_phase(without_color),920006,black_plus_sign,,,,,null,US_Cities_List/nat_huntsville.png,US_Cities_List/mm_gatlinburg.png,,,,,,,,,,,,,,,,,,,,,,,,,,,,,,
null,,black_cross(without_color),921029,green,,,,,null,US_Cities_List/nat_huntsville.png,US_Cities_List/mm_gatlinburg.png,,,,,,,,,,,,,,,,,,,,,,,,,,,,,,
null,,rt_plussign_withcolor,921533,green,,,,,null,US_Cities_List/nat_huntsville.png,US_Cities_List/mm_gatlinburg.png,,,,,,,,,,,,,,,,,,,,,,,,,,,,,,
1387.4,,rt_thecrossant_black,922519,black_plus_sign,,,,,50,,,1,0.982608696,,,,,,,,,,,,,,,,,,,,,,,,,,,,
null,,color_black,922623,black_plus_sign,,,,,null,,,,,,,,,,,,,,,,,,,,,,,,,,,,,,,,
null,,learn_phase(without_color),925154,black_plus_sign,,,,,null,US_Cities_List/nat_peoria.png,US_Cities_List/mm_hotsprings.png,,,,,,,,,,,,,,,,,,,,,,,,,,,,,,
null,,black_cross(without_color),926236,green,,,,,null,US_Cities_List/nat_peoria.png,US_Cities_List/mm_hotsprings.png,,,,,,,,,,,,,,,,,,,,,,,,,,,,,,
null,,rt_plussign_withcolor,926740,green,,,,,null,US_Cities_List/nat_peoria.png,US_Cities_List/mm_hotsprings.png,,,,,,,,,,,,,,,,,,,,,,,,,,,,,,
1660.3,,rt_thecrossant_black,927665,black_plus_sign,,,,,50,,,1,0.982758621,,,,,,,,,,,,,,,,,,,,,,,,,,,,
null,,color_black,927769,black_plus_sign,,,,,null,,,,,,,,,,,,,,,,,,,,,,,,,,,,,,,,
null,,learn_phase(without_color),930301,black_plus_sign,,,,,null,US_Cities_List/mm_hanover.png,US_Cities_List/nat_newhope.png,,,,,,,,,,,,,,,,,,,,,,,,,,,,,,
null,,black_cross(without_color),931234,green,,,,,null,US_Cities_List/mm_hanover.png,US_Cities_List/nat_newhope.png,,,,,,,,,,,,,,,,,,,,,,,,,,,,,,
null,,rt_plussign_withcolor,931738,green,,,,,null,US_Cities_List/mm_hanover.png,US_Cities_List/nat_newhope.png,,,,,,,,,,,,,,,,,,,,,,,,,,,,,,
1290.1,,rt_thecrossant_black,932813,black_plus_sign,,,,,50,,,1,0.982905983,,,,,,,,,,,,,,,,,,,,,,,,,,,,
null,,color_black,932917,black_plus_sign,,,,,null,,,,,,,,,,,,,,,,,,,,,,,,,,,,,,,,
null,,learn_phase(without_color),935459,black_plus_sign,,,,,null,US_Cities_List/mm_shreveport.png,US_Cities_List/nat_huntsville.png,,,,,,,,,,,,,,,,,,,,,,,,,,,,,,
null,,black_cross(without_color),936317,green,,,,,null,US_Cities_List/mm_shreveport.png,US_Cities_List/nat_huntsville.png,,,,,,,,,,,,,,,,,,,,,,,,,,,,,,
null,,rt_plussign_withcolor,936820,green,,,,,null,US_Cities_List/mm_shreveport.png,US_Cities_List/nat_huntsville.png,,,,,,,,,,,,,,,,,,,,,,,,,,,,,,
1123.5,,rt_thecrossant_black,937970,black_plus_sign,,,,,50,,,1,0.983050847,,,,,,,,,,,,,,,,,,,,,,,,,,,,
null,,color_black,938075,black_plus_sign,,,,,null,,,,,,,,,,,,,,,,,,,,,,,,,,,,,,,,
null,,learn_phase(without_color),940615,black_plus_sign,,,,,null,US_Cities_List/mm_boulder.png,US_Cities_List/mm_shreveport.png,,,,,,,,,,,,,,,,,,,,,,,,,,,,,,
null,,black_cross(without_color),941102,green,,,,,null,US_Cities_List/mm_boulder.png,US_Cities_List/mm_shreveport.png,,,,,,,,,,,,,,,,,,,,,,,,,,,,,,
null,,rt_plussign_withcolor,941605,green,,,,,null,US_Cities_List/mm_boulder.png,US_Cities_List/mm_shreveport.png,,,,,,,,,,,,,,,,,,,,,,,,,,,,,,
1188.2,,rt_thecrossant_black,943126,black_plus_sign,,,,,50,,,1,0.983193277,,,,,,,,,,,,,,,,,,,,,,,,,,,,
null,,color_black,943230,black_plus_sign,,,,,null,,,,,,,,,,,,,,,,,,,,,,,,,,,,,,,,
null,,learn_phase(without_color),945772,black_plus_sign,,,,,null,US_Cities_List/mm_westpalmbeach.png,US_Cities_List/nat_huntsville.png,,,,,,,,,,,,,,,,,,,,,,,,,,,,,,
null,,black_cross(without_color),946807,blue,,,,,null,US_Cities_List/mm_westpalmbeach.png,US_Cities_List/nat_huntsville.png,,,,,,,,,,,,,,,,,,,,,,,,,,,,,,
null,,rt_plussign_withcolor,947310,blue,,,,,null,US_Cities_List/mm_westpalmbeach.png,US_Cities_List/nat_huntsville.png,,,,,,,,,,,,,,,,,,,,,,,,,,,,,,
873.8,,rt_thecrossant_black,948283,black_plus_sign,,,,,49,,,1,0.983333333,,,,,,,,,,,,,,,,,,,,,,,,,,,,
null,,color_black,948386,black_plus_sign,,,,,null,,,,,,,,,,,,,,,,,,,,,,,,,,,,,,,,
null,,learn_phase(without_color),950934,black_plus_sign,,,,,null,US_Cities_List/mm_shreveport.png,US_Cities_List/nat_huntsville.png,,,,,,,,,,,,,,,,,,,,,,,,,,,,,,
null,,black_cross(without_color),951816,blue,,,,,null,US_Cities_List/mm_shreveport.png,US_Cities_List/nat_huntsville.png,,,,,,,,,,,,,,,,,,,,,,,,,,,,,,
null,,rt_plussign_withcolor,952320,blue,,,,,null,US_Cities_List/mm_shreveport.png,US_Cities_List/nat_huntsville.png,,,,,,,,,,,,,,,,,,,,,,,,,,,,,,
1226.6,,rt_thecrossant_black,953446,black_plus_sign,,,,,49,,,1,0.983471074,,,,,,,,,,,,,,,,,,,,,,,,,,,,
null,,color_black,953550,black_plus_sign,,,,,null,,,,,,,,,,,,,,,,,,,,,,,,,,,,,,,,
null,,learn_phase(without_color),956086,black_plus_sign,,,,,null,US_Cities_List/mm_gatlinburg.png,US_Cities_List/mm_cornwall.png,,,,,,,,,,,,,,,,,,,,,,,,,,,,,,
null,,black_cross(without_color),956995,blue,,,,,null,US_Cities_List/mm_gatlinburg.png,US_Cities_List/mm_cornwall.png,,,,,,,,,,,,,,,,,,,,,,,,,,,,,,
null,,rt_plussign_withcolor,957498,blue,,,,,null,US_Cities_List/mm_gatlinburg.png,US_Cities_List/mm_cornwall.png,,,,,,,,,,,,,,,,,,,,,,,,,,,,,,
1137.8,,rt_thecrossant_black,958597,black_plus_sign,,,,,49,,,1,0.983606557,,,,,,,,,,,,,,,,,,,,,,,,,,,,
null,,color_black,958701,black_plus_sign,,,,,null,,,,,,,,,,,,,,,,,,,,,,,,,,,,,,,,
null,,learn_phase(without_color),961243,black_plus_sign,,,,,null,US_Cities_List/nat_newhope.png,US_Cities_List/mm_boulder.png,,,,,,,,,,,,,,,,,,,,,,,,,,,,,,
null,,black_cross(without_color),962025,green,,,,,null,US_Cities_List/nat_newhope.png,US_Cities_List/mm_boulder.png,,,,,,,,,,,,,,,,,,,,,,,,,,,,,,
null,,rt_plussign_withcolor,962528,green,,,,,null,US_Cities_List/nat_newhope.png,US_Cities_List/mm_boulder.png,,,,,,,,,,,,,,,,,,,,,,,,,,,,,,
1263.5,,rt_thecrossant_black,963755,black_plus_sign,,,,,50,,,1,0.983739837,,,,,,,,,,,,,,,,,,,,,,,,,,,,
null,,color_black,963859,black_plus_sign,,,,,null,,,,,,,,,,,,,,,,,,,,,,,,,,,,,,,,
null,,learn_phase(without_color),966399,black_plus_sign,,,,,null,US_Cities_List/mm_gatlinburg.png,US_Cities_List/mm_cornwall.png,,,,,,,,,,,,,,,,,,,,,,,,,,,,,,
null,,black_cross(without_color),967331,blue,,,,,null,US_Cities_List/mm_gatlinburg.png,US_Cities_List/mm_cornwall.png,,,,,,,,,,,,,,,,,,,,,,,,,,,,,,
null,,rt_plussign_withcolor,967835,blue,,,,,null,US_Cities_List/mm_gatlinburg.png,US_Cities_List/mm_cornwall.png,,,,,,,,,,,,,,,,,,,,,,,,,,,,,,
1344.3,,rt_thecrossant_black,968910,black_plus_sign,,,,,49,,,1,0.983870968,,,,,,,,,,,,,,,,,,,,,,,,,,,,
null,,color_black,969013,black_plus_sign,,,,,null,,,,,,,,,,,,,,,,,,,,,,,,,,,,,,,,
null,,learn_phase(without_color),971557,black_plus_sign,,,,,null,US_Cities_List/mm_shreveport.png,US_Cities_List/nat_peoria.png,,,,,,,,,,,,,,,,,,,,,,,,,,,,,,
null,,black_cross(without_color),972159,blue,,,,,null,US_Cities_List/mm_shreveport.png,US_Cities_List/nat_peoria.png,,,,,,,,,,,,,,,,,,,,,,,,,,,,,,
null,,rt_plussign_withcolor,972663,blue,,,,,null,US_Cities_List/mm_shreveport.png,US_Cities_List/nat_peoria.png,,,,,,,,,,,,,,,,,,,,,,,,,,,,,,
2020.5,,rt_thecrossant_black,974068,black_plus_sign,,,,,49,,,1,0.984,,,,,,,,,,,,,,,,,,,,,,,,,,,,
null,,color_black,974172,black_plus_sign,,,,,null,,,,,,,,,,,,,,,,,,,,,,,,,,,,,,,,
null,,learn_phase(without_color),976715,black_plus_sign,,,,,null,US_Cities_List/nat_newhope.png,US_Cities_List/mm_boulder.png,,,,,,,,,,,,,,,,,,,,,,,,,,,,,,
null,,black_cross(without_color),977602,green,,,,,null,US_Cities_List/nat_newhope.png,US_Cities_List/mm_boulder.png,,,,,,,,,,,,,,,,,,,,,,,,,,,,,,
464.8,,rt_plussign_withcolor,978106,green,,,,,50,US_Cities_List/nat_newhope.png,US_Cities_List/mm_boulder.png,,,,,,,,,,,,,,,,,,,,,,,,,,,,,,
null,,rt_thecrossant_black,979228,black_plus_sign,,,,,null,,,1,0.984126984,,,,,,,,,,,,,,,,,,,,,,,,,,,,
null,,color_black,979333,black_plus_sign,,,,,null,,,,,,,,,,,,,,,,,,,,,,,,,,,,,,,,
null,,learn_phase(without_color),981874,black_plus_sign,,,,,null,US_Cities_List/nat_newhope.png,US_Cities_List/mm_carmel.png,,,,,,,,,,,,,,,,,,,,,,,,,,,,,,
null,,black_cross(without_color),982287,green,,,,,null,US_Cities_List/nat_newhope.png,US_Cities_List/mm_carmel.png,,,,,,,,,,,,,,,,,,,,,,,,,,,,,,
null,,rt_plussign_withcolor,982791,green,,,,,null,US_Cities_List/nat_newhope.png,US_Cities_List/mm_carmel.png,,,,,,,,,,,,,,,,,,,,,,,,,,,,,,
1636.5,,rt_thecrossant_black,984385,black_plus_sign,,,,,50,,,1,0.984251969,,,,,,,,,,,,,,,,,,,,,,,,,,,,
null,,color_black,984489,black_plus_sign,,,,,null,,,,,,,,,,,,,,,,,,,,,,,,,,,,,,,,
26634.2,,intro_1,1011127,instruct,,,0,,,,,,,,,,,,,,,,,,,,,,,,,,,,,,,,,,
18010.2,,intro_2,1029141,instruct,,,1,Next,,,,,,,,,,,,,,,,,,,,,,,,,,,,,,,,,
6455.4,,directmemory_phase,1035644,../static/images/US_Cities_List/nat_peoria.png,,,,,50,,,0,0,../static/images/US_Cities_List/mm_hanover.png,../static/images/US_Cities_List/nat_racine.png,../static/images/US_Cities_List/mm_hotsprings.png,../static/images/US_Cities_List/mm_hotsprings.png,../static/images/US_Cities_List/nat_racine.png,../static/images/US_Cities_List/mm_hanover.png,0.5,closer,,,,,,,,,,,,,,,,,,,,
null,,html-keyboard-response,1036649,<p></p>,,,,,null,,,,,,,,,,,,,,,,,,,,,,,,,,,,,,,,
5380.3,,directmemory_phase,1042080,../static/images/US_Cities_List/mm_carmel.png,,,,,51,,,0,0,../static/images/US_Cities_List/mm_leesburg.png,../static/images/US_Cities_List/mm_westpalmbeach.png,../static/images/US_Cities_List/mm_gatlinburg.png,../static/images/US_Cities_List/mm_leesburg.png,../static/images/US_Cities_List/mm_gatlinburg.png,../static/images/US_Cities_List/mm_westpalmbeach.png,0.5,closer,,,,,,,,,,,,,,,,,,,,
null,,html-keyboard-response,1043086,<p></p>,,,,,null,,,,,,,,,,,,,,,,,,,,,,,,,,,,,,,,
null,,directmemory_phase,1049643,../static/images/US_Cities_List/nat_huntsville.png,,,,,null,,,0,0,../static/images/US_Cities_List/mm_hanover.png,../static/images/US_Cities_List/mm_boulder.png,../static/images/US_Cities_List/nat_peoria.png,../static/images/US_Cities_List/nat_peoria.png,../static/images/US_Cities_List/mm_boulder.png,../static/images/US_Cities_List/mm_hanover.png,0,,,,,,,,,,,,,,,,,,,,,
null,,html-keyboard-response,1050648,<p></p>,,,,,null,,,,,,,,,,,,,,,,,,,,,,,,,,,,,,,,
2849.9,,directmemory_phase,1053555,../static/images/US_Cities_List/mm_carmel.png,,,,,50,,,1,0.25,../static/images/US_Cities_List/mm_hanover.png,../static/images/US_Cities_List/mm_cornwall.png,../static/images/US_Cities_List/mm_shreveport.png,../static/images/US_Cities_List/mm_cornwall.png,../static/images/US_Cities_List/mm_hanover.png,../static/images/US_Cities_List/mm_shreveport.png,1,,,,,,,,,,,,,,,,,,,,,
null,,html-keyboard-response,1054561,<p></p>,,,,,null,,,,,,,,,,,,,,,,,,,,,,,,,,,,,,,,
3740.9,,directmemory_phase,1058370,../static/images/US_Cities_List/mm_gatlinburg.png,,,,,50,,,0,0.2,../static/images/US_Cities_List/mm_hotsprings.png,../static/images/US_Cities_List/mm_shreveport.png,../static/images/US_Cities_List/nat_huntsville.png,../static/images/US_Cities_List/nat_huntsville.png,../static/images/US_Cities_List/mm_shreveport.png,../static/images/US_Cities_List/mm_hotsprings.png,0.5,closer,,,,,,,,,,,,,,,,,,,,
null,,html-keyboard-response,1059376,<p></p>,,,,,null,,,,,,,,,,,,,,,,,,,,,,,,,,,,,,,,
3610.5,,directmemory_phase,1063052,../static/images/US_Cities_List/nat_newhope.png,,,,,50,,,0,0.166666667,../static/images/US_Cities_List/mm_carmel.png,../static/images/US_Cities_List/mm_westpalmbeach.png,../static/images/US_Cities_List/mm_gatlinburg.png,../static/images/US_Cities_List/mm_carmel.png,../static/images/US_Cities_List/mm_gatlinburg.png,../static/images/US_Cities_List/mm_westpalmbeach.png,0.5,closer,,,,,,,,,,,,,,,,,,,,
null,,html-keyboard-response,1064058,<p></p>,,,,,null,,,,,,,,,,,,,,,,,,,,,,,,,,,,,,,,
3810.4,,directmemory_phase,1067935,../static/images/US_Cities_List/nat_racine.png,,,,,50,,,0,0.142857143,../static/images/US_Cities_List/mm_boulder.png,../static/images/US_Cities_List/nat_peoria.png,../static/images/US_Cities_List/mm_westpalmbeach.png,../static/images/US_Cities_List/mm_westpalmbeach.png,../static/images/US_Cities_List/nat_peoria.png,../static/images/US_Cities_List/mm_boulder.png,0.5,closer,,,,,,,,,,,,,,,,,,,,
null,,html-keyboard-response,1068940,<p></p>,,,,,null,,,,,,,,,,,,,,,,,,,,,,,,,,,,,,,,
3245.4,,directmemory_phase,1072253,../static/images/US_Cities_List/mm_leesburg.png,,,,,49,,,0,0.125,../static/images/US_Cities_List/nat_newhope.png,../static/images/US_Cities_List/mm_carmel.png,../static/images/US_Cities_List/mm_shreveport.png,../static/images/US_Cities_List/mm_carmel.png,../static/images/US_Cities_List/nat_newhope.png,../static/images/US_Cities_List/mm_shreveport.png,0.5,closer,,,,,,,,,,,,,,,,,,,,
null,,html-keyboard-response,1073260,<p></p>,,,,,null,,,,,,,,,,,,,,,,,,,,,,,,,,,,,,,,
4090.2,,directmemory_phase,1077406,../static/images/US_Cities_List/mm_boulder.png,,,,,50,,,0,0.111111111,../static/images/US_Cities_List/mm_westpalmbeach.png,../static/images/US_Cities_List/mm_carmel.png,../static/images/US_Cities_List/mm_gatlinburg.png,../static/images/US_Cities_List/mm_gatlinburg.png,../static/images/US_Cities_List/mm_carmel.png,../static/images/US_Cities_List/mm_westpalmbeach.png,0.5,closer,,,,,,,,,,,,,,,,,,,,
null,,html-keyboard-response,1078411,<p></p>,,,,,null,,,,,,,,,,,,,,,,,,,,,,,,,,,,,,,,
4385.3,,directmemory_phase,1082853,../static/images/US_Cities_List/mm_hanover.png,,,,,50,,,0,0.1,../static/images/US_Cities_List/nat_newhope.png,../static/images/US_Cities_List/nat_peoria.png,../static/images/US_Cities_List/mm_boulder.png,../static/images/US_Cities_List/nat_newhope.png,../static/images/US_Cities_List/mm_boulder.png,../static/images/US_Cities_List/nat_peoria.png,0.5,closer,,,,,,,,,,,,,,,,,,,,
null,,html-keyboard-response,1083860,<p></p>,,,,,null,,,,,,,,,,,,,,,,,,,,,,,,,,,,,,,,
1995.2,,directmemory_phase,1085911,../static/images/US_Cities_List/mm_boulder.png,,,,,50,,,0,0.090909091,../static/images/US_Cities_List/nat_racine.png,../static/images/US_Cities_List/nat_peoria.png,../static/images/US_Cities_List/mm_shreveport.png,../static/images/US_Cities_List/mm_shreveport.png,../static/images/US_Cities_List/nat_peoria.png,../static/images/US_Cities_List/nat_racine.png,0.5,closer,,,,,,,,,,,,,,,,,,,,
null,,html-keyboard-response,1086917,<p></p>,,,,,null,,,,,,,,,,,,,,,,,,,,,,,,,,,,,,,,
2737.4,,directmemory_phase,1089713,../static/images/US_Cities_List/mm_westpalmbeach.png,,,,,50,,,0,0.083333333,../static/images/US_Cities_List/nat_newhope.png,../static/images/US_Cities_List/mm_hotsprings.png,../static/images/US_Cities_List/nat_huntsville.png,../static/images/US_Cities_List/nat_huntsville.png,../static/images/US_Cities_List/mm_hotsprings.png,../static/images/US_Cities_List/nat_newhope.png,0.5,closer,,,,,,,,,,,,,,,,,,,,
null,,html-keyboard-response,1090719,<p></p>,,,,,null,,,,,,,,,,,,,,,,,,,,,,,,,,,,,,,,
2556.3,,directmemory_phase,1093338,../static/images/US_Cities_List/nat_newhope.png,,,,,50,,,0,0.076923077,../static/images/US_Cities_List/mm_hotsprings.png,../static/images/US_Cities_List/mm_leesburg.png,../static/images/US_Cities_List/mm_boulder.png,../static/images/US_Cities_List/mm_boulder.png,../static/images/US_Cities_List/mm_leesburg.png,../static/images/US_Cities_List/mm_hotsprings.png,0.5,closer,,,,,,,,,,,,,,,,,,,,
null,,html-keyboard-response,1094345,<p></p>,,,,,null,,,,,,,,,,,,,,,,,,,,,,,,,,,,,,,,
3088.2,,directmemory_phase,1097500,../static/images/US_Cities_List/nat_huntsville.png,,,,,51,,,1,0.142857143,../static/images/US_Cities_List/mm_leesburg.png,../static/images/US_Cities_List/nat_racine.png,../static/images/US_Cities_List/mm_shreveport.png,../static/images/US_Cities_List/mm_shreveport.png,../static/images/US_Cities_List/nat_racine.png,../static/images/US_Cities_List/mm_leesburg.png,1,,,,,,,,,,,,,,,,,,,,,
null,,html-keyboard-response,1098506,<p></p>,,,,,null,,,,,,,,,,,,,,,,,,,,,,,,,,,,,,,,
4219.3,,directmemory_phase,1102787,../static/images/US_Cities_List/mm_gatlinburg.png,,,,,49,,,0,0.133333333,../static/images/US_Cities_List/mm_leesburg.png,../static/images/US_Cities_List/mm_westpalmbeach.png,../static/images/US_Cities_List/mm_boulder.png,../static/images/US_Cities_List/mm_boulder.png,../static/images/US_Cities_List/mm_westpalmbeach.png,../static/images/US_Cities_List/mm_leesburg.png,0.5,closer,,,,,,,,,,,,,,,,,,,,
null,,html-keyboard-response,1103793,<p></p>,,,,,null,,,,,,,,,,,,,,,,,,,,,,,,,,,,,,,,
2527.5,,directmemory_phase,1106386,../static/images/US_Cities_List/nat_peoria.png,,,,,50,,,0,0.125,../static/images/US_Cities_List/nat_newhope.png,../static/images/US_Cities_List/mm_boulder.png,../static/images/US_Cities_List/nat_huntsville.png,../static/images/US_Cities_List/nat_huntsville.png,../static/images/US_Cities_List/mm_boulder.png,../static/images/US_Cities_List/nat_newhope.png,0.5,closer,,,,,,,,,,,,,,,,,,,,
null,,html-keyboard-response,1107393,<p></p>,,,,,null,,,,,,,,,,,,,,,,,,,,,,,,,,,,,,,,
4601.3,,directmemory_phase,1112057,../static/images/US_Cities_List/mm_carmel.png,,,,,50,,,0,0.117647059,../static/images/US_Cities_List/nat_huntsville.png,../static/images/US_Cities_List/mm_boulder.png,../static/images/US_Cities_List/nat_newhope.png,../static/images/US_Cities_List/nat_newhope.png,../static/images/US_Cities_List/mm_boulder.png,../static/images/US_Cities_List/nat_huntsville.png,0.5,closer,,,,,,,,,,,,,,,,,,,,
null,,html-keyboard-response,1113063,<p></p>,,,,,null,,,,,,,,,,,,,,,,,,,,,,,,,,,,,,,,
3402.9,,directmemory_phase,1116514,../static/images/US_Cities_List/nat_peoria.png,,,,,51,,,1,0.166666667,../static/images/US_Cities_List/mm_cornwall.png,../static/images/US_Cities_List/nat_racine.png,../static/images/US_Cities_List/mm_shreveport.png,../static/images/US_Cities_List/mm_shreveport.png,../static/images/US_Cities_List/nat_racine.png,../static/images/US_Cities_List/mm_cornwall.png,1,,,,,,,,,,,,,,,,,,,,,
null,,html-keyboard-response,1117519,<p></p>,,,,,null,,,,,,,,,,,,,,,,,,,,,,,,,,,,,,,,
5040.4,,directmemory_phase,1122611,../static/images/US_Cities_List/nat_huntsville.png,,,,,49,,,0,0.157894737,../static/images/US_Cities_List/mm_hotsprings.png,../static/images/US_Cities_List/mm_westpalmbeach.png,../static/images/US_Cities_List/mm_leesburg.png,../static/images/US_Cities_List/mm_westpalmbeach.png,../static/images/US_Cities_List/mm_hotsprings.png,../static/images/US_Cities_List/mm_leesburg.png,0.5,closer,,,,,,,,,,,,,,,,,,,,
null,,html-keyboard-response,1123616,<p></p>,,,,,null,,,,,,,,,,,,,,,,,,,,,,,,,,,,,,,,
2881.9,,directmemory_phase,1126549,../static/images/US_Cities_List/mm_shreveport.png,,,,,51,,,1,0.2,../static/images/US_Cities_List/nat_racine.png,../static/images/US_Cities_List/nat_newhope.png,../static/images/US_Cities_List/nat_peoria.png,../static/images/US_Cities_List/nat_peoria.png,../static/images/US_Cities_List/nat_newhope.png,../static/images/US_Cities_List/nat_racine.png,1,,,,,,,,,,,,,,,,,,,,,
null,,html-keyboard-response,1127556,<p></p>,,,,,null,,,,,,,,,,,,,,,,,,,,,,,,,,,,,,,,
3222.4,,directmemory_phase,1130843,../static/images/US_Cities_List/mm_westpalmbeach.png,,,,,50,,,0,0.19047619,../static/images/US_Cities_List/nat_newhope.png,../static/images/US_Cities_List/mm_gatlinburg.png,../static/images/US_Cities_List/nat_racine.png,../static/images/US_Cities_List/nat_racine.png,../static/images/US_Cities_List/mm_gatlinburg.png,../static/images/US_Cities_List/nat_newhope.png,0.5,closer,,,,,,,,,,,,,,,,,,,,
null,,html-keyboard-response,1131848,<p></p>,,,,,null,,,,,,,,,,,,,,,,,,,,,,,,,,,,,,,,
3349.5,,directmemory_phase,1135256,../static/images/US_Cities_List/mm_cornwall.png,,,,,49,,,1,0.227272727,../static/images/US_Cities_List/mm_carmel.png,../static/images/US_Cities_List/nat_peoria.png,../static/images/US_Cities_List/nat_huntsville.png,../static/images/US_Cities_List/mm_carmel.png,../static/images/US_Cities_List/nat_huntsville.png,../static/images/US_Cities_List/nat_peoria.png,1,,,,,,,,,,,,,,,,,,,,,
null,,html-keyboard-response,1136262,<p></p>,,,,,null,,,,,,,,,,,,,,,,,,,,,,,,,,,,,,,,
4279,,directmemory_phase,1140609,../static/images/US_Cities_List/mm_shreveport.png,,,,,49,,,0,0.217391304,../static/images/US_Cities_List/mm_cornwall.png,../static/images/US_Cities_List/mm_hotsprings.png,../static/images/US_Cities_List/nat_huntsville.png,../static/images/US_Cities_List/nat_huntsville.png,../static/images/US_Cities_List/mm_hotsprings.png,../static/images/US_Cities_List/mm_cornwall.png,0.5,closer,,,,,,,,,,,,,,,,,,,,
null,,html-keyboard-response,1141615,<p></p>,,,,,null,,,,,,,,,,,,,,,,,,,,,,,,,,,,,,,,
2080.4,,directmemory_phase,1143759,../static/images/US_Cities_List/mm_gatlinburg.png,,,,,49,,,0,0.208333333,../static/images/US_Cities_List/mm_carmel.png,../static/images/US_Cities_List/mm_cornwall.png,../static/images/US_Cities_List/mm_leesburg.png,../static/images/US_Cities_List/mm_cornwall.png,../static/images/US_Cities_List/mm_carmel.png,../static/images/US_Cities_List/mm_leesburg.png,0.5,closer,,,,,,,,,,,,,,,,,,,,
null,,html-keyboard-response,1144764,<p></p>,,,,,null,,,,,,,,,,,,,,,,,,,,,,,,,,,,,,,,
5367.4,,directmemory_phase,1150195,../static/images/US_Cities_List/mm_boulder.png,,,,,49,,,1,0.24,../static/images/US_Cities_List/nat_newhope.png,../static/images/US_Cities_List/mm_hotsprings.png,../static/images/US_Cities_List/nat_huntsville.png,../static/images/US_Cities_List/nat_newhope.png,../static/images/US_Cities_List/nat_huntsville.png,../static/images/US_Cities_List/mm_hotsprings.png,1,,,,,,,,,,,,,,,,,,,,,
null,,html-keyboard-response,1151200,<p></p>,,,,,null,,,,,,,,,,,,,,,,,,,,,,,,,,,,,,,,
3652.7,,directmemory_phase,1154919,../static/images/US_Cities_List/nat_huntsville.png,,,,,49,,,0,0.230769231,../static/images/US_Cities_List/mm_hotsprings.png,../static/images/US_Cities_List/mm_gatlinburg.png,../static/images/US_Cities_List/mm_carmel.png,../static/images/US_Cities_List/mm_gatlinburg.png,../static/images/US_Cities_List/mm_hotsprings.png,../static/images/US_Cities_List/mm_carmel.png,0.5,closer,,,,,,,,,,,,,,,,,,,,
null,,html-keyboard-response,1155924,<p></p>,,,,,null,,,,,,,,,,,,,,,,,,,,,,,,,,,,,,,,
5144.7,,directmemory_phase,1161131,../static/images/US_Cities_List/nat_newhope.png,,,,,51,,,1,0.259259259,../static/images/US_Cities_List/mm_hotsprings.png,../static/images/US_Cities_List/mm_shreveport.png,../static/images/US_Cities_List/mm_hanover.png,../static/images/US_Cities_List/mm_hanover.png,../static/images/US_Cities_List/mm_shreveport.png,../static/images/US_Cities_List/mm_hotsprings.png,1,,,,,,,,,,,,,,,,,,,,,
