rt,responses,trial_type,time_elapsed,stimulus,cities,city_images,button_pressed,response,key_press,stimulus_left,stimulus_right,accuracy,cumulative_accuracy,stimulus_down_left,stimulus_down_mid,stimulus_down_right,stimulus_correct,stimulus_short,stimulus_far,weighted_accuracy,missedtrial,condition,specific_pairs,imgL_ID,imgR_ID,linedress,linedressed,image_position,unknowncity,testedstates,currentstate,otherstate,problems,smooth,distraction,strategies,easier,similar,comments,detectfocus
5583.5999999940395,{worker_id:6732ca9052a3b5780ec6068a},id_enter,5585,intro,Boulder; Cornwall; Shreveport; Carmel; Leesburg; New Hope; Hot Springs; Gatlinburg; Racine; Peoria; Hanover; Huntsville; West Palm Beach,US_Cities_List/mm_boulder.png; US_Cities_List/nat_cornwall.png; US_Cities_List/nat_shreveport.png; US_Cities_List/mm_carmel.png; US_Cities_List/nat_leesburg.png; US_Cities_List/nat_newhope.png; US_Cities_List/mm_hotsprings.png; US_Cities_List/mm_gatlinburg.png; US_Cities_List/mm_racine.png; US_Cities_List/mm_peoria.png; US_Cities_List/mm_hanover.png; US_Cities_List/mm_huntsville.png; US_Cities_List/nat_westpalmbeach.png,,,,,,,,,,,,,,,,,,,,,,,,,,,,,,,,,,
12506.59999999404,,fullscreen,18096,make_fullscreen,,,0,,,,,,,,,,,,,,,,,,,,,,,,,,,,,,,,,
9636,,intro_1,27748,instruct,,,0,,,,,,,,,,,,,,,,,,,,,,,,,,,,,,,,,
16092.600000023842,,intro_2,43844,instruct,,,1,Next,,,,,,,,,,,,,,,,,,,,,,,,,,,,,,,,
13942.90000000596,,intro_3,57789,instruct,,,1,Next,,,,,,,,,,,,,,,,,,,,,,,,,,,,,,,,
20297.79999998212,,intro_4,78086,instruct,,,1,Next,,,,,,,,,,,,,,,,,,,,,,,,,,,,,,,,
6619,,intro_5,84707,instruct,,,1,Next,,,,,,,,,,,,,,,,,,,,,,,,,,,,,,,,
28934.90000000596,,intro_6,113643,instruct,,,1,Next,,,,,,,,,,,,,,,,,,,,,,,,,,,,,,,,
null,,prac_atten_color_black,114524,black_plus_sign,,,,,null,,,,,,,,,,,,,,,,,,,,,,,,,,,,,,,
null,,prac_atten_color,115049,prac_stop_color,,,,,null,,,,,,,,,,,,,,,,,,,,,,,,,,,,,,,
373.59999999403954,,prac_atten_color_black,117050,black_plus_sign,,,,,49,,,,,,,,,,,,,,,,,,,,,,,,,,,,,,,
null,,prac_atten_color_black,117932,black_plus_sign,,,,,null,,,,,,,,,,,,,,,,,,,,,,,,,,,,,,,
577.4000000059605,,prac_atten_color,118674,prac_stop_color,,,,,50,,,,,,,,,,,,,,,,,,,,,,,,,,,,,,,
null,,prac_atten_color_black,120676,black_plus_sign,,,,,null,,,,,,,,,,,,,,,,,,,,,,,,,,,,,,,
null,,prac_atten_color_black,121337,black_plus_sign,,,,,null,,,,,,,,,,,,,,,,,,,,,,,,,,,,,,,
372.90000000596046,,prac_atten_color,122258,prac_stop_color,,,,,50,,,,,,,,,,,,,,,,,,,,,,,,,,,,,,,
null,,prac_atten_color_black,124259,black_plus_sign,,,,,null,,,,,,,,,,,,,,,,,,,,,,,,,,,,,,,
null,,prac_atten_color_black,124744,black_plus_sign,,,,,null,,,,,,,,,,,,,,,,,,,,,,,,,,,,,,,
484.69999998807907,,prac_atten_color,125819,prac_stop_color,,,,,49,,,,,,,,,,,,,,,,,,,,,,,,,,,,,,,
null,,prac_atten_color_black,127820,black_plus_sign,,,,,null,,,,,,,,,,,,,,,,,,,,,,,,,,,,,,,
null,,prac_atten_color_black,128157,black_plus_sign,,,,,null,,,,,,,,,,,,,,,,,,,,,,,,,,,,,,,
440.30000001192093,,prac_atten_color,129220,prac_stop_color,,,,,50,,,,,,,,,,,,,,,,,,,,,,,,,,,,,,,
null,,prac_atten_color_black,131221,black_plus_sign,,,,,null,,,,,,,,,,,,,,,,,,,,,,,,,,,,,,,
null,,prac_atten_color_black,131564,black_plus_sign,,,,,null,,,,,,,,,,,,,,,,,,,,,,,,,,,,,,,
537.5999999940395,,prac_atten_color,132624,prac_stop_color,,,,,50,,,,,,,,,,,,,,,,,,,,,,,,,,,,,,,
null,,prac_atten_color_black,134625,black_plus_sign,,,,,null,,,,,,,,,,,,,,,,,,,,,,,,,,,,,,,
null,,prac_atten_color_black,134968,black_plus_sign,,,,,null,,,,,,,,,,,,,,,,,,,,,,,,,,,,,,,
532.4000000059605,,prac_atten_color,135575,prac_stop_color,,,,,49,,,,,,,,,,,,,,,,,,,,,,,,,,,,,,,
null,,prac_atten_color_black,137577,black_plus_sign,,,,,null,,,,,,,,,,,,,,,,,,,,,,,,,,,,,,,
null,,prac_atten_color_black,138374,black_plus_sign,,,,,null,,,,,,,,,,,,,,,,,,,,,,,,,,,,,,,
768,,prac_atten_color,139336,prac_stop_color,,,,,50,,,,,,,,,,,,,,,,,,,,,,,,,,,,,,,
null,,prac_atten_color_black,141337,black_plus_sign,,,,,null,,,,,,,,,,,,,,,,,,,,,,,,,,,,,,,
null,,prac_atten_color_black,141778,black_plus_sign,,,,,null,,,,,,,,,,,,,,,,,,,,,,,,,,,,,,,
539.3000000119209,,prac_atten_color,142434,prac_stop_color,,,,,49,,,,,,,,,,,,,,,,,,,,,,,,,,,,,,,
null,,prac_atten_color_black,144437,black_plus_sign,,,,,null,,,,,,,,,,,,,,,,,,,,,,,,,,,,,,,
null,,prac_atten_color_black,145185,black_plus_sign,,,,,null,,,,,,,,,,,,,,,,,,,,,,,,,,,,,,,
null,,prac_atten_color,145621,prac_stop_color,,,,,null,,,,,,,,,,,,,,,,,,,,,,,,,,,,,,,
248.59999999403954,,prac_atten_color_black,147623,black_plus_sign,,,,,49,,,,,,,,,,,,,,,,,,,,,,,,,,,,,,,
76820.29999998212,,attentioncheck_feedback,224443,cross_check_feedback,,,0,,,,,,,,,,,,,,,,,,,,,,,,,,,,,,,,,
9996.5,,last_instruct,234440,instruct,,,,,32,,,,,,,,,,,,,,,,,,,,,,,,,,,,,,,
null,,learn_phase(without_color),236455,black_plus_sign,,,,,null,US_Cities_List/mm_gatlinburg.png,US_Cities_List/mm_peoria.png,,,,,,,,,,,,,,,,,,,,,,,,,,,,,
null,,black_cross(without_color),236979,green,,,,,null,US_Cities_List/mm_gatlinburg.png,US_Cities_List/mm_peoria.png,,,,,,,,,,,,,,,,,,,,,,,,,,,,,
null,,rt_plussign_withcolor,237481,green,,,,,null,US_Cities_List/mm_gatlinburg.png,US_Cities_List/mm_peoria.png,,,,,,,,,,,,,,,,,,,,,,,,,,,,,
2017.7999999821186,,rt_thecrossant_black,238961,black_plus_sign,,,,,50,,,1,1,,,,,,,,,,,,,,,,,,,,,,,,,,,
null,,color_black,239068,black_plus_sign,,,,,null,,,,,,,,,,,,,,,,,,,,,,,,,,,,,,,
null,,learn_phase(without_color),241584,black_plus_sign,,,,,null,US_Cities_List/nat_newhope.png,US_Cities_List/mm_racine.png,,,,,,,,,,,,,,,,,,,,,,,,,,,,,
null,,black_cross(without_color),242364,green,,,,,null,US_Cities_List/nat_newhope.png,US_Cities_List/mm_racine.png,,,,,,,,,,,,,,,,,,,,,,,,,,,,,
null,,rt_plussign_withcolor,242866,green,,,,,null,US_Cities_List/nat_newhope.png,US_Cities_List/mm_racine.png,,,,,,,,,,,,,,,,,,,,,,,,,,,,,
1216.5999999940395,,rt_thecrossant_black,244090,black_plus_sign,,,,,50,,,1,1,,,,,,,,,,,,,,,,,,,,,,,,,,,
null,,color_black,244192,black_plus_sign,,,,,null,,,,,,,,,,,,,,,,,,,,,,,,,,,,,,,
null,,learn_phase(without_color),246711,black_plus_sign,,,,,null,US_Cities_List/nat_shreveport.png,US_Cities_List/nat_newhope.png,,,,,,,,,,,,,,,,,,,,,,,,,,,,,
null,,black_cross(without_color),247305,green,,,,,null,US_Cities_List/nat_shreveport.png,US_Cities_List/nat_newhope.png,,,,,,,,,,,,,,,,,,,,,,,,,,,,,
null,,rt_plussign_withcolor,247807,green,,,,,null,US_Cities_List/nat_shreveport.png,US_Cities_List/nat_newhope.png,,,,,,,,,,,,,,,,,,,,,,,,,,,,,
935.2000000178814,,rt_thecrossant_black,249216,black_plus_sign,,,,,50,,,1,1,,,,,,,,,,,,,,,,,,,,,,,,,,,
null,,color_black,249318,black_plus_sign,,,,,null,,,,,,,,,,,,,,,,,,,,,,,,,,,,,,,
null,,learn_phase(without_color),251835,black_plus_sign,,,,,null,US_Cities_List/nat_cornwall.png,US_Cities_List/mm_carmel.png,,,,,,,,,,,,,,,,,,,,,,,,,,,,,
null,,black_cross(without_color),252749,green,,,,,null,US_Cities_List/nat_cornwall.png,US_Cities_List/mm_carmel.png,,,,,,,,,,,,,,,,,,,,,,,,,,,,,
null,,rt_plussign_withcolor,253251,green,,,,,null,US_Cities_List/nat_cornwall.png,US_Cities_List/mm_carmel.png,,,,,,,,,,,,,,,,,,,,,,,,,,,,,
808.7000000178814,,rt_thecrossant_black,254340,black_plus_sign,,,,,50,,,1,1,,,,,,,,,,,,,,,,,,,,,,,,,,,
null,,color_black,254443,black_plus_sign,,,,,null,,,,,,,,,,,,,,,,,,,,,,,,,,,,,,,
null,,learn_phase(without_color),256962,black_plus_sign,,,,,null,US_Cities_List/nat_newhope.png,US_Cities_List/mm_hotsprings.png,,,,,,,,,,,,,,,,,,,,,,,,,,,,,
null,,black_cross(without_color),257505,green,,,,,null,US_Cities_List/nat_newhope.png,US_Cities_List/mm_hotsprings.png,,,,,,,,,,,,,,,,,,,,,,,,,,,,,
null,,rt_plussign_withcolor,258007,green,,,,,null,US_Cities_List/nat_newhope.png,US_Cities_List/mm_hotsprings.png,,,,,,,,,,,,,,,,,,,,,,,,,,,,,
1094.9000000059605,,rt_thecrossant_black,259467,black_plus_sign,,,,,50,,,1,1,,,,,,,,,,,,,,,,,,,,,,,,,,,
null,,color_black,259569,black_plus_sign,,,,,null,,,,,,,,,,,,,,,,,,,,,,,,,,,,,,,
null,,learn_phase(without_color),262085,black_plus_sign,,,,,null,US_Cities_List/mm_gatlinburg.png,US_Cities_List/mm_racine.png,,,,,,,,,,,,,,,,,,,,,,,,,,,,,
null,,black_cross(without_color),262836,green,,,,,null,US_Cities_List/mm_gatlinburg.png,US_Cities_List/mm_racine.png,,,,,,,,,,,,,,,,,,,,,,,,,,,,,
493.09999999403954,,rt_plussign_withcolor,263338,green,,,,,50,US_Cities_List/mm_gatlinburg.png,US_Cities_List/mm_racine.png,,,,,,,,,,,,,,,,,,,,,,,,,,,,,
null,,rt_thecrossant_black,264590,black_plus_sign,,,,,null,,,1,1,,,,,,,,,,,,,,,,,,,,,,,,,,,
null,,color_black,264692,black_plus_sign,,,,,null,,,,,,,,,,,,,,,,,,,,,,,,,,,,,,,
null,,learn_phase(without_color),267210,black_plus_sign,,,,,null,US_Cities_List/mm_hotsprings.png,US_Cities_List/nat_westpalmbeach.png,,,,,,,,,,,,,,,,,,,,,,,,,,,,,
null,,black_cross(without_color),268268,green,,,,,null,US_Cities_List/mm_hotsprings.png,US_Cities_List/nat_westpalmbeach.png,,,,,,,,,,,,,,,,,,,,,,,,,,,,,
453.59999999403954,,rt_plussign_withcolor,268768,green,,,,,50,US_Cities_List/mm_hotsprings.png,US_Cities_List/nat_westpalmbeach.png,,,,,,,,,,,,,,,,,,,,,,,,,,,,,
null,,rt_thecrossant_black,269715,black_plus_sign,,,,,null,,,1,1,,,,,,,,,,,,,,,,,,,,,,,,,,,
null,,color_black,269816,black_plus_sign,,,,,null,,,,,,,,,,,,,,,,,,,,,,,,,,,,,,,
null,,learn_phase(without_color),272334,black_plus_sign,,,,,null,US_Cities_List/mm_carmel.png,US_Cities_List/nat_leesburg.png,,,,,,,,,,,,,,,,,,,,,,,,,,,,,
null,,black_cross(without_color),273008,blue,,,,,null,US_Cities_List/mm_carmel.png,US_Cities_List/nat_leesburg.png,,,,,,,,,,,,,,,,,,,,,,,,,,,,,
null,,rt_plussign_withcolor,273509,blue,,,,,null,US_Cities_List/mm_carmel.png,US_Cities_List/nat_leesburg.png,,,,,,,,,,,,,,,,,,,,,,,,,,,,,
1198.9000000059605,,rt_thecrossant_black,274838,black_plus_sign,,,,,49,,,1,1,,,,,,,,,,,,,,,,,,,,,,,,,,,
null,,color_black,274940,black_plus_sign,,,,,null,,,,,,,,,,,,,,,,,,,,,,,,,,,,,,,
null,,learn_phase(without_color),277459,black_plus_sign,,,,,null,US_Cities_List/nat_cornwall.png,US_Cities_List/mm_carmel.png,,,,,,,,,,,,,,,,,,,,,,,,,,,,,
null,,black_cross(without_color),278033,blue,,,,,null,US_Cities_List/nat_cornwall.png,US_Cities_List/mm_carmel.png,,,,,,,,,,,,,,,,,,,,,,,,,,,,,
null,,rt_plussign_withcolor,278535,blue,,,,,null,US_Cities_List/nat_cornwall.png,US_Cities_List/mm_carmel.png,,,,,,,,,,,,,,,,,,,,,,,,,,,,,
982.2000000178814,,rt_thecrossant_black,279964,black_plus_sign,,,,,49,,,1,1,,,,,,,,,,,,,,,,,,,,,,,,,,,
null,,color_black,280066,black_plus_sign,,,,,null,,,,,,,,,,,,,,,,,,,,,,,,,,,,,,,
null,,learn_phase(without_color),282581,black_plus_sign,,,,,null,US_Cities_List/mm_hotsprings.png,US_Cities_List/nat_westpalmbeach.png,,,,,,,,,,,,,,,,,,,,,,,,,,,,,
null,,black_cross(without_color),283141,blue,,,,,null,US_Cities_List/mm_hotsprings.png,US_Cities_List/nat_westpalmbeach.png,,,,,,,,,,,,,,,,,,,,,,,,,,,,,
null,,rt_plussign_withcolor,283643,blue,,,,,null,US_Cities_List/mm_hotsprings.png,US_Cities_List/nat_westpalmbeach.png,,,,,,,,,,,,,,,,,,,,,,,,,,,,,
750.7999999821186,,rt_thecrossant_black,285085,black_plus_sign,,,,,49,,,1,1,,,,,,,,,,,,,,,,,,,,,,,,,,,
null,,color_black,285187,black_plus_sign,,,,,null,,,,,,,,,,,,,,,,,,,,,,,,,,,,,,,
null,,learn_phase(without_color),287705,black_plus_sign,,,,,null,US_Cities_List/mm_hotsprings.png,US_Cities_List/mm_gatlinburg.png,,,,,,,,,,,,,,,,,,,,,,,,,,,,,
null,,black_cross(without_color),288161,blue,,,,,null,US_Cities_List/mm_hotsprings.png,US_Cities_List/mm_gatlinburg.png,,,,,,,,,,,,,,,,,,,,,,,,,,,,,
null,,rt_plussign_withcolor,288663,blue,,,,,null,US_Cities_List/mm_hotsprings.png,US_Cities_List/mm_gatlinburg.png,,,,,,,,,,,,,,,,,,,,,,,,,,,,,
740.1999999880791,,rt_thecrossant_black,290210,black_plus_sign,,,,,49,,,1,1,,,,,,,,,,,,,,,,,,,,,,,,,,,
null,,color_black,290317,black_plus_sign,,,,,null,,,,,,,,,,,,,,,,,,,,,,,,,,,,,,,
null,,learn_phase(without_color),292832,black_plus_sign,,,,,null,US_Cities_List/nat_shreveport.png,US_Cities_List/mm_hanover.png,,,,,,,,,,,,,,,,,,,,,,,,,,,,,
null,,black_cross(without_color),293477,green,,,,,null,US_Cities_List/nat_shreveport.png,US_Cities_List/mm_hanover.png,,,,,,,,,,,,,,,,,,,,,,,,,,,,,
null,,rt_plussign_withcolor,293979,green,,,,,null,US_Cities_List/nat_shreveport.png,US_Cities_List/mm_hanover.png,,,,,,,,,,,,,,,,,,,,,,,,,,,,,
583.3000000119209,,rt_thecrossant_black,295339,black_plus_sign,,,,,50,,,1,1,,,,,,,,,,,,,,,,,,,,,,,,,,,
null,,color_black,295440,black_plus_sign,,,,,null,,,,,,,,,,,,,,,,,,,,,,,,,,,,,,,
null,,learn_phase(without_color),297960,black_plus_sign,,,,,null,US_Cities_List/mm_hotsprings.png,US_Cities_List/nat_westpalmbeach.png,,,,,,,,,,,,,,,,,,,,,,,,,,,,,
null,,black_cross(without_color),298935,blue,,,,,null,US_Cities_List/mm_hotsprings.png,US_Cities_List/nat_westpalmbeach.png,,,,,,,,,,,,,,,,,,,,,,,,,,,,,
null,,rt_plussign_withcolor,299436,blue,,,,,null,US_Cities_List/mm_hotsprings.png,US_Cities_List/nat_westpalmbeach.png,,,,,,,,,,,,,,,,,,,,,,,,,,,,,
874.2000000178814,,rt_thecrossant_black,300464,black_plus_sign,,,,,49,,,1,1,,,,,,,,,,,,,,,,,,,,,,,,,,,
null,,color_black,300566,black_plus_sign,,,,,null,,,,,,,,,,,,,,,,,,,,,,,,,,,,,,,
null,,learn_phase(without_color),303086,black_plus_sign,,,,,null,US_Cities_List/mm_hotsprings.png,US_Cities_List/mm_gatlinburg.png,,,,,,,,,,,,,,,,,,,,,,,,,,,,,
null,,black_cross(without_color),303879,blue,,,,,null,US_Cities_List/mm_hotsprings.png,US_Cities_List/mm_gatlinburg.png,,,,,,,,,,,,,,,,,,,,,,,,,,,,,
442,,rt_plussign_withcolor,304380,blue,,,,,49,US_Cities_List/mm_hotsprings.png,US_Cities_List/mm_gatlinburg.png,,,,,,,,,,,,,,,,,,,,,,,,,,,,,
null,,rt_thecrossant_black,305601,black_plus_sign,,,,,null,,,1,1,,,,,,,,,,,,,,,,,,,,,,,,,,,
null,,color_black,305714,black_plus_sign,,,,,null,,,,,,,,,,,,,,,,,,,,,,,,,,,,,,,
null,,learn_phase(without_color),308229,black_plus_sign,,,,,null,US_Cities_List/nat_cornwall.png,US_Cities_List/nat_shreveport.png,,,,,,,,,,,,,,,,,,,,,,,,,,,,,
null,,black_cross(without_color),308669,blue,,,,,null,US_Cities_List/nat_cornwall.png,US_Cities_List/nat_shreveport.png,,,,,,,,,,,,,,,,,,,,,,,,,,,,,
492.7000000178814,,rt_plussign_withcolor,309169,blue,,,,,49,US_Cities_List/nat_cornwall.png,US_Cities_List/nat_shreveport.png,,,,,,,,,,,,,,,,,,,,,,,,,,,,,
null,,rt_thecrossant_black,310733,black_plus_sign,,,,,null,,,1,1,,,,,,,,,,,,,,,,,,,,,,,,,,,
null,,color_black,310835,black_plus_sign,,,,,null,,,,,,,,,,,,,,,,,,,,,,,,,,,,,,,
null,,learn_phase(without_color),313354,black_plus_sign,,,,,null,US_Cities_List/nat_newhope.png,US_Cities_List/mm_hotsprings.png,,,,,,,,,,,,,,,,,,,,,,,,,,,,,
null,,black_cross(without_color),314288,blue,,,,,null,US_Cities_List/nat_newhope.png,US_Cities_List/mm_hotsprings.png,,,,,,,,,,,,,,,,,,,,,,,,,,,,,
497.5,,rt_plussign_withcolor,314789,blue,,,,,49,US_Cities_List/nat_newhope.png,US_Cities_List/mm_hotsprings.png,,,,,,,,,,,,,,,,,,,,,,,,,,,,,
null,,rt_thecrossant_black,315859,black_plus_sign,,,,,null,,,1,1,,,,,,,,,,,,,,,,,,,,,,,,,,,
null,,color_black,315961,black_plus_sign,,,,,null,,,,,,,,,,,,,,,,,,,,,,,,,,,,,,,
null,,learn_phase(without_color),318476,black_plus_sign,,,,,null,US_Cities_List/mm_carmel.png,US_Cities_List/mm_huntsville.png,,,,,,,,,,,,,,,,,,,,,,,,,,,,,
null,,black_cross(without_color),319542,blue,,,,,null,US_Cities_List/mm_carmel.png,US_Cities_List/mm_huntsville.png,,,,,,,,,,,,,,,,,,,,,,,,,,,,,
null,,rt_plussign_withcolor,320044,blue,,,,,null,US_Cities_List/mm_carmel.png,US_Cities_List/mm_huntsville.png,,,,,,,,,,,,,,,,,,,,,,,,,,,,,
1083.7999999821186,,rt_thecrossant_black,320982,black_plus_sign,,,,,49,,,1,1,,,,,,,,,,,,,,,,,,,,,,,,,,,
null,,color_black,321094,black_plus_sign,,,,,null,,,,,,,,,,,,,,,,,,,,,,,,,,,,,,,
null,,learn_phase(without_color),323613,black_plus_sign,,,,,null,US_Cities_List/mm_gatlinburg.png,US_Cities_List/mm_peoria.png,,,,,,,,,,,,,,,,,,,,,,,,,,,,,
null,,black_cross(without_color),324564,blue,,,,,null,US_Cities_List/mm_gatlinburg.png,US_Cities_List/mm_peoria.png,,,,,,,,,,,,,,,,,,,,,,,,,,,,,
null,,rt_plussign_withcolor,325065,blue,,,,,null,US_Cities_List/mm_gatlinburg.png,US_Cities_List/mm_peoria.png,,,,,,,,,,,,,,,,,,,,,,,,,,,,,
1324.300000011921,,rt_thecrossant_black,326117,black_plus_sign,,,,,49,,,1,1,,,,,,,,,,,,,,,,,,,,,,,,,,,
null,,color_black,326219,black_plus_sign,,,,,null,,,,,,,,,,,,,,,,,,,,,,,,,,,,,,,
null,,learn_phase(without_color),328738,black_plus_sign,,,,,null,US_Cities_List/mm_carmel.png,US_Cities_List/mm_huntsville.png,,,,,,,,,,,,,,,,,,,,,,,,,,,,,
null,,black_cross(without_color),329644,blue,,,,,null,US_Cities_List/mm_carmel.png,US_Cities_List/mm_huntsville.png,,,,,,,,,,,,,,,,,,,,,,,,,,,,,
null,,rt_plussign_withcolor,330146,blue,,,,,null,US_Cities_List/mm_carmel.png,US_Cities_List/mm_huntsville.png,,,,,,,,,,,,,,,,,,,,,,,,,,,,,
1113.0999999940395,,rt_thecrossant_black,331249,black_plus_sign,,,,,49,,,1,1,,,,,,,,,,,,,,,,,,,,,,,,,,,
null,,color_black,331351,black_plus_sign,,,,,null,,,,,,,,,,,,,,,,,,,,,,,,,,,,,,,
null,,learn_phase(without_color),333866,black_plus_sign,,,,,null,US_Cities_List/nat_shreveport.png,US_Cities_List/mm_hanover.png,,,,,,,,,,,,,,,,,,,,,,,,,,,,,
null,,black_cross(without_color),334942,blue,,,,,null,US_Cities_List/nat_shreveport.png,US_Cities_List/mm_hanover.png,,,,,,,,,,,,,,,,,,,,,,,,,,,,,
null,,rt_plussign_withcolor,335444,blue,,,,,null,US_Cities_List/nat_shreveport.png,US_Cities_List/mm_hanover.png,,,,,,,,,,,,,,,,,,,,,,,,,,,,,
1194.1000000238419,,rt_thecrossant_black,336372,black_plus_sign,,,,,49,,,1,1,,,,,,,,,,,,,,,,,,,,,,,,,,,
null,,color_black,336474,black_plus_sign,,,,,null,,,,,,,,,,,,,,,,,,,,,,,,,,,,,,,
null,,learn_phase(without_color),338987,black_plus_sign,,,,,null,US_Cities_List/mm_boulder.png,US_Cities_List/nat_cornwall.png,,,,,,,,,,,,,,,,,,,,,,,,,,,,,
null,,black_cross(without_color),339523,blue,,,,,null,US_Cities_List/mm_boulder.png,US_Cities_List/nat_cornwall.png,,,,,,,,,,,,,,,,,,,,,,,,,,,,,
null,,rt_plussign_withcolor,340025,blue,,,,,null,US_Cities_List/mm_boulder.png,US_Cities_List/nat_cornwall.png,,,,,,,,,,,,,,,,,,,,,,,,,,,,,
1279.2999999821186,,rt_thecrossant_black,341507,black_plus_sign,,,,,49,,,1,1,,,,,,,,,,,,,,,,,,,,,,,,,,,
null,,color_black,341609,black_plus_sign,,,,,null,,,,,,,,,,,,,,,,,,,,,,,,,,,,,,,
null,,learn_phase(without_color),344124,black_plus_sign,,,,,null,US_Cities_List/mm_carmel.png,US_Cities_List/nat_leesburg.png,,,,,,,,,,,,,,,,,,,,,,,,,,,,,
null,,black_cross(without_color),344579,blue,,,,,null,US_Cities_List/mm_carmel.png,US_Cities_List/nat_leesburg.png,,,,,,,,,,,,,,,,,,,,,,,,,,,,,
null,,rt_plussign_withcolor,345080,blue,,,,,null,US_Cities_List/mm_carmel.png,US_Cities_List/nat_leesburg.png,,,,,,,,,,,,,,,,,,,,,,,,,,,,,
674.7000000178814,,rt_thecrossant_black,346629,black_plus_sign,,,,,49,,,1,1,,,,,,,,,,,,,,,,,,,,,,,,,,,
null,,color_black,346731,black_plus_sign,,,,,null,,,,,,,,,,,,,,,,,,,,,,,,,,,,,,,
null,,learn_phase(without_color),349244,black_plus_sign,,,,,null,US_Cities_List/mm_gatlinburg.png,US_Cities_List/mm_racine.png,,,,,,,,,,,,,,,,,,,,,,,,,,,,,
null,,black_cross(without_color),350052,green,,,,,null,US_Cities_List/mm_gatlinburg.png,US_Cities_List/mm_racine.png,,,,,,,,,,,,,,,,,,,,,,,,,,,,,
477.7000000178814,,rt_plussign_withcolor,350553,green,,,,,50,US_Cities_List/mm_gatlinburg.png,US_Cities_List/mm_racine.png,,,,,,,,,,,,,,,,,,,,,,,,,,,,,
null,,rt_thecrossant_black,351748,black_plus_sign,,,,,null,,,1,1,,,,,,,,,,,,,,,,,,,,,,,,,,,
null,,color_black,351850,black_plus_sign,,,,,null,,,,,,,,,,,,,,,,,,,,,,,,,,,,,,,
null,,learn_phase(without_color),354363,black_plus_sign,,,,,null,US_Cities_List/mm_hotsprings.png,US_Cities_List/nat_westpalmbeach.png,,,,,,,,,,,,,,,,,,,,,,,,,,,,,
null,,black_cross(without_color),355005,green,,,,,null,US_Cities_List/mm_hotsprings.png,US_Cities_List/nat_westpalmbeach.png,,,,,,,,,,,,,,,,,,,,,,,,,,,,,
null,,rt_plussign_withcolor,355507,green,,,,,null,US_Cities_List/mm_hotsprings.png,US_Cities_List/nat_westpalmbeach.png,,,,,,,,,,,,,,,,,,,,,,,,,,,,,
1040.8999999761581,,rt_thecrossant_black,356870,black_plus_sign,,,,,49,,,0,0.9583333333333334,,,,,,,,,,,,,,,,,,,,,,,,,,,
null,,color_black,356983,black_plus_sign,,,,,null,,,,,,,,,,,,,,,,,,,,,,,,,,,,,,,
null,,learn_phase(without_color),359501,black_plus_sign,,,,,null,US_Cities_List/nat_newhope.png,US_Cities_List/mm_racine.png,,,,,,,,,,,,,,,,,,,,,,,,,,,,,
null,,black_cross(without_color),360052,green,,,,,null,US_Cities_List/nat_newhope.png,US_Cities_List/mm_racine.png,,,,,,,,,,,,,,,,,,,,,,,,,,,,,
null,,rt_plussign_withcolor,360554,green,,,,,null,US_Cities_List/nat_newhope.png,US_Cities_List/mm_racine.png,,,,,,,,,,,,,,,,,,,,,,,,,,,,,
787.2000000178814,,rt_thecrossant_black,362007,black_plus_sign,,,,,50,,,1,0.96,,,,,,,,,,,,,,,,,,,,,,,,,,,
null,,color_black,362109,black_plus_sign,,,,,null,,,,,,,,,,,,,,,,,,,,,,,,,,,,,,,
null,,learn_phase(without_color),364625,black_plus_sign,,,,,null,US_Cities_List/mm_gatlinburg.png,US_Cities_List/mm_racine.png,,,,,,,,,,,,,,,,,,,,,,,,,,,,,
null,,black_cross(without_color),365349,blue,,,,,null,US_Cities_List/mm_gatlinburg.png,US_Cities_List/mm_racine.png,,,,,,,,,,,,,,,,,,,,,,,,,,,,,
null,,rt_plussign_withcolor,365851,blue,,,,,null,US_Cities_List/mm_gatlinburg.png,US_Cities_List/mm_racine.png,,,,,,,,,,,,,,,,,,,,,,,,,,,,,
863.5999999940395,,rt_thecrossant_black,367135,black_plus_sign,,,,,49,,,1,0.9615384615384616,,,,,,,,,,,,,,,,,,,,,,,,,,,
null,,color_black,367237,black_plus_sign,,,,,null,,,,,,,,,,,,,,,,,,,,,,,,,,,,,,,
null,,learn_phase(without_color),369755,black_plus_sign,,,,,null,US_Cities_List/nat_newhope.png,US_Cities_List/mm_hotsprings.png,,,,,,,,,,,,,,,,,,,,,,,,,,,,,
null,,black_cross(without_color),370381,green,,,,,null,US_Cities_List/nat_newhope.png,US_Cities_List/mm_hotsprings.png,,,,,,,,,,,,,,,,,,,,,,,,,,,,,
492.09999999403954,,rt_plussign_withcolor,370883,green,,,,,50,US_Cities_List/nat_newhope.png,US_Cities_List/mm_hotsprings.png,,,,,,,,,,,,,,,,,,,,,,,,,,,,,
null,,rt_thecrossant_black,372258,black_plus_sign,,,,,null,,,1,0.9629629629629629,,,,,,,,,,,,,,,,,,,,,,,,,,,
null,,color_black,372361,black_plus_sign,,,,,null,,,,,,,,,,,,,,,,,,,,,,,,,,,,,,,
null,,learn_phase(without_color),374876,black_plus_sign,,,,,null,US_Cities_List/nat_shreveport.png,US_Cities_List/mm_hanover.png,,,,,,,,,,,,,,,,,,,,,,,,,,,,,
null,,black_cross(without_color),375791,green,,,,,null,US_Cities_List/nat_shreveport.png,US_Cities_List/mm_hanover.png,,,,,,,,,,,,,,,,,,,,,,,,,,,,,
null,,rt_plussign_withcolor,376292,green,,,,,null,US_Cities_List/nat_shreveport.png,US_Cities_List/mm_hanover.png,,,,,,,,,,,,,,,,,,,,,,,,,,,,,
740.2000000178814,,rt_thecrossant_black,377382,black_plus_sign,,,,,50,,,1,0.9642857142857143,,,,,,,,,,,,,,,,,,,,,,,,,,,
null,,color_black,377484,black_plus_sign,,,,,null,,,,,,,,,,,,,,,,,,,,,,,,,,,,,,,
null,,learn_phase(without_color),380003,black_plus_sign,,,,,null,US_Cities_List/nat_cornwall.png,US_Cities_List/nat_shreveport.png,,,,,,,,,,,,,,,,,,,,,,,,,,,,,
null,,black_cross(without_color),380821,green,,,,,null,US_Cities_List/nat_cornwall.png,US_Cities_List/nat_shreveport.png,,,,,,,,,,,,,,,,,,,,,,,,,,,,,
null,,rt_plussign_withcolor,381322,green,,,,,null,US_Cities_List/nat_cornwall.png,US_Cities_List/nat_shreveport.png,,,,,,,,,,,,,,,,,,,,,,,,,,,,,
1196.699999988079,,rt_thecrossant_black,382508,black_plus_sign,,,,,50,,,1,0.9655172413793104,,,,,,,,,,,,,,,,,,,,,,,,,,,
null,,color_black,382609,black_plus_sign,,,,,null,,,,,,,,,,,,,,,,,,,,,,,,,,,,,,,
null,,learn_phase(without_color),385123,black_plus_sign,,,,,null,US_Cities_List/mm_carmel.png,US_Cities_List/mm_huntsville.png,,,,,,,,,,,,,,,,,,,,,,,,,,,,,
null,,black_cross(without_color),385633,green,,,,,null,US_Cities_List/mm_carmel.png,US_Cities_List/mm_huntsville.png,,,,,,,,,,,,,,,,,,,,,,,,,,,,,
null,,rt_plussign_withcolor,386135,green,,,,,null,US_Cities_List/mm_carmel.png,US_Cities_List/mm_huntsville.png,,,,,,,,,,,,,,,,,,,,,,,,,,,,,
936.9000000059605,,rt_thecrossant_black,387629,black_plus_sign,,,,,50,,,1,0.9666666666666667,,,,,,,,,,,,,,,,,,,,,,,,,,,
null,,color_black,387731,black_plus_sign,,,,,null,,,,,,,,,,,,,,,,,,,,,,,,,,,,,,,
null,,learn_phase(without_color),390246,black_plus_sign,,,,,null,US_Cities_List/mm_hotsprings.png,US_Cities_List/nat_westpalmbeach.png,,,,,,,,,,,,,,,,,,,,,,,,,,,,,
null,,black_cross(without_color),390734,green,,,,,null,US_Cities_List/mm_hotsprings.png,US_Cities_List/nat_westpalmbeach.png,,,,,,,,,,,,,,,,,,,,,,,,,,,,,
null,,rt_plussign_withcolor,391235,green,,,,,null,US_Cities_List/mm_hotsprings.png,US_Cities_List/nat_westpalmbeach.png,,,,,,,,,,,,,,,,,,,,,,,,,,,,,
694.5,,rt_thecrossant_black,392752,black_plus_sign,,,,,50,,,1,0.967741935483871,,,,,,,,,,,,,,,,,,,,,,,,,,,
null,,color_black,392854,black_plus_sign,,,,,null,,,,,,,,,,,,,,,,,,,,,,,,,,,,,,,
null,,learn_phase(without_color),395370,black_plus_sign,,,,,null,US_Cities_List/mm_gatlinburg.png,US_Cities_List/mm_peoria.png,,,,,,,,,,,,,,,,,,,,,,,,,,,,,
null,,black_cross(without_color),396256,blue,,,,,null,US_Cities_List/mm_gatlinburg.png,US_Cities_List/mm_peoria.png,,,,,,,,,,,,,,,,,,,,,,,,,,,,,
null,,rt_plussign_withcolor,396758,blue,,,,,null,US_Cities_List/mm_gatlinburg.png,US_Cities_List/mm_peoria.png,,,,,,,,,,,,,,,,,,,,,,,,,,,,,
678.1000000238419,,rt_thecrossant_black,397876,black_plus_sign,,,,,49,,,1,0.96875,,,,,,,,,,,,,,,,,,,,,,,,,,,
null,,color_black,397977,black_plus_sign,,,,,null,,,,,,,,,,,,,,,,,,,,,,,,,,,,,,,
null,,learn_phase(without_color),400492,black_plus_sign,,,,,null,US_Cities_List/nat_cornwall.png,US_Cities_List/mm_carmel.png,,,,,,,,,,,,,,,,,,,,,,,,,,,,,
null,,black_cross(without_color),401526,blue,,,,,null,US_Cities_List/nat_cornwall.png,US_Cities_List/mm_carmel.png,,,,,,,,,,,,,,,,,,,,,,,,,,,,,
null,,rt_plussign_withcolor,402027,blue,,,,,null,US_Cities_List/nat_cornwall.png,US_Cities_List/mm_carmel.png,,,,,,,,,,,,,,,,,,,,,,,,,,,,,
1183.2999999821186,,rt_thecrossant_black,402997,black_plus_sign,,,,,49,,,1,0.9696969696969697,,,,,,,,,,,,,,,,,,,,,,,,,,,
null,,color_black,403100,black_plus_sign,,,,,null,,,,,,,,,,,,,,,,,,,,,,,,,,,,,,,
null,,learn_phase(without_color),405616,black_plus_sign,,,,,null,US_Cities_List/nat_newhope.png,US_Cities_List/mm_hotsprings.png,,,,,,,,,,,,,,,,,,,,,,,,,,,,,
null,,black_cross(without_color),406268,blue,,,,,null,US_Cities_List/nat_newhope.png,US_Cities_List/mm_hotsprings.png,,,,,,,,,,,,,,,,,,,,,,,,,,,,,
null,,rt_plussign_withcolor,406770,blue,,,,,null,US_Cities_List/nat_newhope.png,US_Cities_List/mm_hotsprings.png,,,,,,,,,,,,,,,,,,,,,,,,,,,,,
1475.9000000059605,,rt_thecrossant_black,408122,black_plus_sign,,,,,49,,,1,0.9705882352941176,,,,,,,,,,,,,,,,,,,,,,,,,,,
null,,color_black,408224,black_plus_sign,,,,,null,,,,,,,,,,,,,,,,,,,,,,,,,,,,,,,
null,,learn_phase(without_color),410744,black_plus_sign,,,,,null,US_Cities_List/mm_hotsprings.png,US_Cities_List/mm_racine.png,,,,,,,,,,,,,,,,,,,,,,,,,,,,,
null,,black_cross(without_color),411406,green,,,,,null,US_Cities_List/mm_hotsprings.png,US_Cities_List/mm_racine.png,,,,,,,,,,,,,,,,,,,,,,,,,,,,,
null,,rt_plussign_withcolor,411908,green,,,,,null,US_Cities_List/mm_hotsprings.png,US_Cities_List/mm_racine.png,,,,,,,,,,,,,,,,,,,,,,,,,,,,,
771.9000000059605,,rt_thecrossant_black,413250,black_plus_sign,,,,,50,,,1,0.9714285714285714,,,,,,,,,,,,,,,,,,,,,,,,,,,
null,,color_black,413351,black_plus_sign,,,,,null,,,,,,,,,,,,,,,,,,,,,,,,,,,,,,,
null,,learn_phase(without_color),415872,black_plus_sign,,,,,null,US_Cities_List/nat_cornwall.png,US_Cities_List/mm_carmel.png,,,,,,,,,,,,,,,,,,,,,,,,,,,,,
null,,black_cross(without_color),416384,blue,,,,,null,US_Cities_List/nat_cornwall.png,US_Cities_List/mm_carmel.png,,,,,,,,,,,,,,,,,,,,,,,,,,,,,
null,,rt_plussign_withcolor,416886,blue,,,,,null,US_Cities_List/nat_cornwall.png,US_Cities_List/mm_carmel.png,,,,,,,,,,,,,,,,,,,,,,,,,,,,,
933,,rt_thecrossant_black,418378,black_plus_sign,,,,,49,,,1,0.9722222222222222,,,,,,,,,,,,,,,,,,,,,,,,,,,
null,,color_black,418480,black_plus_sign,,,,,null,,,,,,,,,,,,,,,,,,,,,,,,,,,,,,,
null,,learn_phase(without_color),420995,black_plus_sign,,,,,null,US_Cities_List/mm_racine.png,US_Cities_List/mm_hanover.png,,,,,,,,,,,,,,,,,,,,,,,,,,,,,
null,,black_cross(without_color),421606,blue,,,,,null,US_Cities_List/mm_racine.png,US_Cities_List/mm_hanover.png,,,,,,,,,,,,,,,,,,,,,,,,,,,,,
null,,rt_plussign_withcolor,422107,blue,,,,,null,US_Cities_List/mm_racine.png,US_Cities_List/mm_hanover.png,,,,,,,,,,,,,,,,,,,,,,,,,,,,,
656.8999999761581,,rt_thecrossant_black,423501,black_plus_sign,,,,,49,,,1,0.972972972972973,,,,,,,,,,,,,,,,,,,,,,,,,,,
null,,color_black,423603,black_plus_sign,,,,,null,,,,,,,,,,,,,,,,,,,,,,,,,,,,,,,
null,,learn_phase(without_color),426122,black_plus_sign,,,,,null,US_Cities_List/mm_hotsprings.png,US_Cities_List/mm_racine.png,,,,,,,,,,,,,,,,,,,,,,,,,,,,,
null,,black_cross(without_color),426787,green,,,,,null,US_Cities_List/mm_hotsprings.png,US_Cities_List/mm_racine.png,,,,,,,,,,,,,,,,,,,,,,,,,,,,,
null,,rt_plussign_withcolor,427289,green,,,,,null,US_Cities_List/mm_hotsprings.png,US_Cities_List/mm_racine.png,,,,,,,,,,,,,,,,,,,,,,,,,,,,,
709.3000000119209,,rt_thecrossant_black,428627,black_plus_sign,,,,,50,,,1,0.9736842105263158,,,,,,,,,,,,,,,,,,,,,,,,,,,
null,,color_black,428729,black_plus_sign,,,,,null,,,,,,,,,,,,,,,,,,,,,,,,,,,,,,,
null,,learn_phase(without_color),431244,black_plus_sign,,,,,null,US_Cities_List/mm_boulder.png,US_Cities_List/nat_cornwall.png,,,,,,,,,,,,,,,,,,,,,,,,,,,,,
null,,black_cross(without_color),431906,green,,,,,null,US_Cities_List/mm_boulder.png,US_Cities_List/nat_cornwall.png,,,,,,,,,,,,,,,,,,,,,,,,,,,,,
null,,rt_plussign_withcolor,432408,green,,,,,null,US_Cities_List/mm_boulder.png,US_Cities_List/nat_cornwall.png,,,,,,,,,,,,,,,,,,,,,,,,,,,,,
814.6999999880791,,rt_thecrossant_black,433749,black_plus_sign,,,,,50,,,1,0.9743589743589743,,,,,,,,,,,,,,,,,,,,,,,,,,,
null,,color_black,433850,black_plus_sign,,,,,null,,,,,,,,,,,,,,,,,,,,,,,,,,,,,,,
null,,learn_phase(without_color),436368,black_plus_sign,,,,,null,US_Cities_List/nat_newhope.png,US_Cities_List/mm_racine.png,,,,,,,,,,,,,,,,,,,,,,,,,,,,,
null,,black_cross(without_color),436843,green,,,,,null,US_Cities_List/nat_newhope.png,US_Cities_List/mm_racine.png,,,,,,,,,,,,,,,,,,,,,,,,,,,,,
null,,rt_plussign_withcolor,437359,green,,,,,null,US_Cities_List/nat_newhope.png,US_Cities_List/mm_racine.png,,,,,,,,,,,,,,,,,,,,,,,,,,,,,
773.3999999761581,,rt_thecrossant_black,438887,black_plus_sign,,,,,50,,,1,0.975,,,,,,,,,,,,,,,,,,,,,,,,,,,
null,,color_black,438989,black_plus_sign,,,,,null,,,,,,,,,,,,,,,,,,,,,,,,,,,,,,,
null,,learn_phase(without_color),441505,black_plus_sign,,,,,null,US_Cities_List/mm_gatlinburg.png,US_Cities_List/mm_peoria.png,,,,,,,,,,,,,,,,,,,,,,,,,,,,,
null,,black_cross(without_color),442535,blue,,,,,null,US_Cities_List/mm_gatlinburg.png,US_Cities_List/mm_peoria.png,,,,,,,,,,,,,,,,,,,,,,,,,,,,,
437,,rt_plussign_withcolor,443037,blue,,,,,49,US_Cities_List/mm_gatlinburg.png,US_Cities_List/mm_peoria.png,,,,,,,,,,,,,,,,,,,,,,,,,,,,,
null,,rt_thecrossant_black,444011,black_plus_sign,,,,,null,,,1,0.975609756097561,,,,,,,,,,,,,,,,,,,,,,,,,,,
null,,color_black,444119,black_plus_sign,,,,,null,,,,,,,,,,,,,,,,,,,,,,,,,,,,,,,
null,,learn_phase(without_color),446636,black_plus_sign,,,,,null,US_Cities_List/mm_carmel.png,US_Cities_List/nat_leesburg.png,,,,,,,,,,,,,,,,,,,,,,,,,,,,,
null,,black_cross(without_color),447199,blue,,,,,null,US_Cities_List/mm_carmel.png,US_Cities_List/nat_leesburg.png,,,,,,,,,,,,,,,,,,,,,,,,,,,,,
null,,rt_plussign_withcolor,447701,blue,,,,,null,US_Cities_List/mm_carmel.png,US_Cities_List/nat_leesburg.png,,,,,,,,,,,,,,,,,,,,,,,,,,,,,
1294.0999999940395,,rt_thecrossant_black,449143,black_plus_sign,,,,,49,,,1,0.9761904761904762,,,,,,,,,,,,,,,,,,,,,,,,,,,
null,,color_black,449245,black_plus_sign,,,,,null,,,,,,,,,,,,,,,,,,,,,,,,,,,,,,,
null,,learn_phase(without_color),451762,black_plus_sign,,,,,null,US_Cities_List/nat_cornwall.png,US_Cities_List/nat_shreveport.png,,,,,,,,,,,,,,,,,,,,,,,,,,,,,
null,,black_cross(without_color),452194,blue,,,,,null,US_Cities_List/nat_cornwall.png,US_Cities_List/nat_shreveport.png,,,,,,,,,,,,,,,,,,,,,,,,,,,,,
null,,rt_plussign_withcolor,452696,blue,,,,,null,US_Cities_List/nat_cornwall.png,US_Cities_List/nat_shreveport.png,,,,,,,,,,,,,,,,,,,,,,,,,,,,,
863.6999999880791,,rt_thecrossant_black,454268,black_plus_sign,,,,,49,,,1,0.9767441860465116,,,,,,,,,,,,,,,,,,,,,,,,,,,
null,,color_black,454370,black_plus_sign,,,,,null,,,,,,,,,,,,,,,,,,,,,,,,,,,,,,,
null,,learn_phase(without_color),456888,black_plus_sign,,,,,null,US_Cities_List/nat_cornwall.png,US_Cities_List/mm_carmel.png,,,,,,,,,,,,,,,,,,,,,,,,,,,,,
null,,black_cross(without_color),457397,green,,,,,null,US_Cities_List/nat_cornwall.png,US_Cities_List/mm_carmel.png,,,,,,,,,,,,,,,,,,,,,,,,,,,,,
null,,rt_plussign_withcolor,457900,green,,,,,null,US_Cities_List/nat_cornwall.png,US_Cities_List/mm_carmel.png,,,,,,,,,,,,,,,,,,,,,,,,,,,,,
562.5,,rt_thecrossant_black,459395,black_plus_sign,,,,,50,,,1,0.9772727272727273,,,,,,,,,,,,,,,,,,,,,,,,,,,
null,,color_black,459496,black_plus_sign,,,,,null,,,,,,,,,,,,,,,,,,,,,,,,,,,,,,,
null,,learn_phase(without_color),462014,black_plus_sign,,,,,null,US_Cities_List/mm_boulder.png,US_Cities_List/nat_cornwall.png,,,,,,,,,,,,,,,,,,,,,,,,,,,,,
null,,black_cross(without_color),462478,blue,,,,,null,US_Cities_List/mm_boulder.png,US_Cities_List/nat_cornwall.png,,,,,,,,,,,,,,,,,,,,,,,,,,,,,
null,,rt_plussign_withcolor,462980,blue,,,,,null,US_Cities_List/mm_boulder.png,US_Cities_List/nat_cornwall.png,,,,,,,,,,,,,,,,,,,,,,,,,,,,,
710.5,,rt_thecrossant_black,464520,black_plus_sign,,,,,49,,,1,0.9777777777777777,,,,,,,,,,,,,,,,,,,,,,,,,,,
null,,color_black,464622,black_plus_sign,,,,,null,,,,,,,,,,,,,,,,,,,,,,,,,,,,,,,
null,,learn_phase(without_color),467134,black_plus_sign,,,,,null,US_Cities_List/mm_hanover.png,US_Cities_List/mm_huntsville.png,,,,,,,,,,,,,,,,,,,,,,,,,,,,,
null,,black_cross(without_color),468157,blue,,,,,null,US_Cities_List/mm_hanover.png,US_Cities_List/mm_huntsville.png,,,,,,,,,,,,,,,,,,,,,,,,,,,,,
null,,rt_plussign_withcolor,468659,blue,,,,,null,US_Cities_List/mm_hanover.png,US_Cities_List/mm_huntsville.png,,,,,,,,,,,,,,,,,,,,,,,,,,,,,
827,,rt_thecrossant_black,469640,black_plus_sign,,,,,49,,,1,0.9782608695652174,,,,,,,,,,,,,,,,,,,,,,,,,,,
null,,color_black,469742,black_plus_sign,,,,,null,,,,,,,,,,,,,,,,,,,,,,,,,,,,,,,
null,,learn_phase(without_color),472260,black_plus_sign,,,,,null,US_Cities_List/mm_carmel.png,US_Cities_List/mm_huntsville.png,,,,,,,,,,,,,,,,,,,,,,,,,,,,,
null,,black_cross(without_color),472768,green,,,,,null,US_Cities_List/mm_carmel.png,US_Cities_List/mm_huntsville.png,,,,,,,,,,,,,,,,,,,,,,,,,,,,,
500,,rt_plussign_withcolor,473269,green,,,,,50,US_Cities_List/mm_carmel.png,US_Cities_List/mm_huntsville.png,,,,,,,,,,,,,,,,,,,,,,,,,,,,,
null,,rt_thecrossant_black,474764,black_plus_sign,,,,,null,,,1,0.9787234042553191,,,,,,,,,,,,,,,,,,,,,,,,,,,
null,,color_black,474866,black_plus_sign,,,,,null,,,,,,,,,,,,,,,,,,,,,,,,,,,,,,,
null,,learn_phase(without_color),477383,black_plus_sign,,,,,null,US_Cities_List/mm_hotsprings.png,US_Cities_List/mm_racine.png,,,,,,,,,,,,,,,,,,,,,,,,,,,,,
null,,black_cross(without_color),477947,blue,,,,,null,US_Cities_List/mm_hotsprings.png,US_Cities_List/mm_racine.png,,,,,,,,,,,,,,,,,,,,,,,,,,,,,
null,,rt_plussign_withcolor,478449,blue,,,,,null,US_Cities_List/mm_hotsprings.png,US_Cities_List/mm_racine.png,,,,,,,,,,,,,,,,,,,,,,,,,,,,,
666.0999999940395,,rt_thecrossant_black,479888,black_plus_sign,,,,,49,,,1,0.9791666666666666,,,,,,,,,,,,,,,,,,,,,,,,,,,
null,,color_black,479991,black_plus_sign,,,,,null,,,,,,,,,,,,,,,,,,,,,,,,,,,,,,,
null,,learn_phase(without_color),482508,black_plus_sign,,,,,null,US_Cities_List/mm_racine.png,US_Cities_List/mm_hanover.png,,,,,,,,,,,,,,,,,,,,,,,,,,,,,
null,,black_cross(without_color),483496,blue,,,,,null,US_Cities_List/mm_racine.png,US_Cities_List/mm_hanover.png,,,,,,,,,,,,,,,,,,,,,,,,,,,,,
null,,rt_plussign_withcolor,483998,blue,,,,,null,US_Cities_List/mm_racine.png,US_Cities_List/mm_hanover.png,,,,,,,,,,,,,,,,,,,,,,,,,,,,,
693.2000000178814,,rt_thecrossant_black,485018,black_plus_sign,,,,,49,,,1,0.9795918367346939,,,,,,,,,,,,,,,,,,,,,,,,,,,
null,,color_black,485120,black_plus_sign,,,,,null,,,,,,,,,,,,,,,,,,,,,,,,,,,,,,,
null,,learn_phase(without_color),487638,black_plus_sign,,,,,null,US_Cities_List/nat_newhope.png,US_Cities_List/mm_hotsprings.png,,,,,,,,,,,,,,,,,,,,,,,,,,,,,
null,,black_cross(without_color),488518,green,,,,,null,US_Cities_List/nat_newhope.png,US_Cities_List/mm_hotsprings.png,,,,,,,,,,,,,,,,,,,,,,,,,,,,,
null,,rt_plussign_withcolor,489020,green,,,,,null,US_Cities_List/nat_newhope.png,US_Cities_List/mm_hotsprings.png,,,,,,,,,,,,,,,,,,,,,,,,,,,,,
1247.199999988079,,rt_thecrossant_black,490144,black_plus_sign,,,,,50,,,1,0.98,,,,,,,,,,,,,,,,,,,,,,,,,,,
null,,color_black,490246,black_plus_sign,,,,,null,,,,,,,,,,,,,,,,,,,,,,,,,,,,,,,
null,,learn_phase(without_color),492762,black_plus_sign,,,,,null,US_Cities_List/mm_boulder.png,US_Cities_List/nat_cornwall.png,,,,,,,,,,,,,,,,,,,,,,,,,,,,,
null,,black_cross(without_color),493376,green,,,,,null,US_Cities_List/mm_boulder.png,US_Cities_List/nat_cornwall.png,,,,,,,,,,,,,,,,,,,,,,,,,,,,,
500.5,,rt_plussign_withcolor,493878,green,,,,,50,US_Cities_List/mm_boulder.png,US_Cities_List/nat_cornwall.png,,,,,,,,,,,,,,,,,,,,,,,,,,,,,
null,,rt_thecrossant_black,495267,black_plus_sign,,,,,null,,,1,0.9803921568627451,,,,,,,,,,,,,,,,,,,,,,,,,,,
null,,color_black,495369,black_plus_sign,,,,,null,,,,,,,,,,,,,,,,,,,,,,,,,,,,,,,
null,,learn_phase(without_color),497891,black_plus_sign,,,,,null,US_Cities_List/nat_newhope.png,US_Cities_List/mm_hotsprings.png,,,,,,,,,,,,,,,,,,,,,,,,,,,,,
null,,black_cross(without_color),498387,blue,,,,,null,US_Cities_List/nat_newhope.png,US_Cities_List/mm_hotsprings.png,,,,,,,,,,,,,,,,,,,,,,,,,,,,,
null,,rt_plussign_withcolor,498888,blue,,,,,null,US_Cities_List/nat_newhope.png,US_Cities_List/mm_hotsprings.png,,,,,,,,,,,,,,,,,,,,,,,,,,,,,
804.5,,rt_thecrossant_black,500396,black_plus_sign,,,,,49,,,1,0.9807692307692307,,,,,,,,,,,,,,,,,,,,,,,,,,,
null,,color_black,500498,black_plus_sign,,,,,null,,,,,,,,,,,,,,,,,,,,,,,,,,,,,,,
null,,learn_phase(without_color),503017,black_plus_sign,,,,,null,US_Cities_List/nat_newhope.png,US_Cities_List/mm_racine.png,,,,,,,,,,,,,,,,,,,,,,,,,,,,,
null,,black_cross(without_color),504116,green,,,,,null,US_Cities_List/nat_newhope.png,US_Cities_List/mm_racine.png,,,,,,,,,,,,,,,,,,,,,,,,,,,,,
null,,rt_plussign_withcolor,504618,green,,,,,null,US_Cities_List/nat_newhope.png,US_Cities_List/mm_racine.png,,,,,,,,,,,,,,,,,,,,,,,,,,,,,
653.0999999940395,,rt_thecrossant_black,505523,black_plus_sign,,,,,50,,,1,0.9811320754716981,,,,,,,,,,,,,,,,,,,,,,,,,,,
null,,color_black,505626,black_plus_sign,,,,,null,,,,,,,,,,,,,,,,,,,,,,,,,,,,,,,
null,,learn_phase(without_color),508148,black_plus_sign,,,,,null,US_Cities_List/nat_newhope.png,US_Cities_List/mm_hotsprings.png,,,,,,,,,,,,,,,,,,,,,,,,,,,,,
null,,black_cross(without_color),509108,blue,,,,,null,US_Cities_List/nat_newhope.png,US_Cities_List/mm_hotsprings.png,,,,,,,,,,,,,,,,,,,,,,,,,,,,,
null,,rt_plussign_withcolor,509617,blue,,,,,null,US_Cities_List/nat_newhope.png,US_Cities_List/mm_hotsprings.png,,,,,,,,,,,,,,,,,,,,,,,,,,,,,
1297.4000000059605,,rt_thecrossant_black,510674,black_plus_sign,,,,,49,,,1,0.9814814814814815,,,,,,,,,,,,,,,,,,,,,,,,,,,
null,,color_black,510776,black_plus_sign,,,,,null,,,,,,,,,,,,,,,,,,,,,,,,,,,,,,,
null,,learn_phase(without_color),513294,black_plus_sign,,,,,null,US_Cities_List/mm_hotsprings.png,US_Cities_List/mm_gatlinburg.png,,,,,,,,,,,,,,,,,,,,,,,,,,,,,
null,,black_cross(without_color),513853,green,,,,,null,US_Cities_List/mm_hotsprings.png,US_Cities_List/mm_gatlinburg.png,,,,,,,,,,,,,,,,,,,,,,,,,,,,,
null,,rt_plussign_withcolor,514355,green,,,,,null,US_Cities_List/mm_hotsprings.png,US_Cities_List/mm_gatlinburg.png,,,,,,,,,,,,,,,,,,,,,,,,,,,,,
1100,,rt_thecrossant_black,515811,black_plus_sign,,,,,50,,,1,0.9818181818181818,,,,,,,,,,,,,,,,,,,,,,,,,,,
null,,color_black,515912,black_plus_sign,,,,,null,,,,,,,,,,,,,,,,,,,,,,,,,,,,,,,
null,,learn_phase(without_color),518432,black_plus_sign,,,,,null,US_Cities_List/mm_hotsprings.png,US_Cities_List/mm_racine.png,,,,,,,,,,,,,,,,,,,,,,,,,,,,,
null,,black_cross(without_color),518948,green,,,,,null,US_Cities_List/mm_hotsprings.png,US_Cities_List/mm_racine.png,,,,,,,,,,,,,,,,,,,,,,,,,,,,,
null,,rt_plussign_withcolor,519451,green,,,,,null,US_Cities_List/mm_hotsprings.png,US_Cities_List/mm_racine.png,,,,,,,,,,,,,,,,,,,,,,,,,,,,,
762,,rt_thecrossant_black,520938,black_plus_sign,,,,,50,,,1,0.9821428571428571,,,,,,,,,,,,,,,,,,,,,,,,,,,
null,,color_black,521051,black_plus_sign,,,,,null,,,,,,,,,,,,,,,,,,,,,,,,,,,,,,,
null,,learn_phase(without_color),523566,black_plus_sign,,,,,null,US_Cities_List/mm_racine.png,US_Cities_List/mm_hanover.png,,,,,,,,,,,,,,,,,,,,,,,,,,,,,
null,,black_cross(without_color),524573,green,,,,,null,US_Cities_List/mm_racine.png,US_Cities_List/mm_hanover.png,,,,,,,,,,,,,,,,,,,,,,,,,,,,,
489.5,,rt_plussign_withcolor,525074,green,,,,,50,US_Cities_List/mm_racine.png,US_Cities_List/mm_hanover.png,,,,,,,,,,,,,,,,,,,,,,,,,,,,,
null,,rt_thecrossant_black,526071,black_plus_sign,,,,,null,,,1,0.9824561403508771,,,,,,,,,,,,,,,,,,,,,,,,,,,
null,,color_black,526173,black_plus_sign,,,,,null,,,,,,,,,,,,,,,,,,,,,,,,,,,,,,,
null,,learn_phase(without_color),528689,black_plus_sign,,,,,null,US_Cities_List/nat_shreveport.png,US_Cities_List/mm_hanover.png,,,,,,,,,,,,,,,,,,,,,,,,,,,,,
null,,black_cross(without_color),529278,green,,,,,null,US_Cities_List/nat_shreveport.png,US_Cities_List/mm_hanover.png,,,,,,,,,,,,,,,,,,,,,,,,,,,,,
null,,rt_plussign_withcolor,529780,green,,,,,null,US_Cities_List/nat_shreveport.png,US_Cities_List/mm_hanover.png,,,,,,,,,,,,,,,,,,,,,,,,,,,,,
1193.300000011921,,rt_thecrossant_black,531197,black_plus_sign,,,,,50,,,1,0.9827586206896551,,,,,,,,,,,,,,,,,,,,,,,,,,,
null,,color_black,531298,black_plus_sign,,,,,null,,,,,,,,,,,,,,,,,,,,,,,,,,,,,,,
null,,learn_phase(without_color),533815,black_plus_sign,,,,,null,US_Cities_List/mm_boulder.png,US_Cities_List/nat_cornwall.png,,,,,,,,,,,,,,,,,,,,,,,,,,,,,
null,,black_cross(without_color),534303,green,,,,,null,US_Cities_List/mm_boulder.png,US_Cities_List/nat_cornwall.png,,,,,,,,,,,,,,,,,,,,,,,,,,,,,
null,,rt_plussign_withcolor,534804,green,,,,,null,US_Cities_List/mm_boulder.png,US_Cities_List/nat_cornwall.png,,,,,,,,,,,,,,,,,,,,,,,,,,,,,
702.9000000059605,,rt_thecrossant_black,536320,black_plus_sign,,,,,50,,,1,0.9830508474576272,,,,,,,,,,,,,,,,,,,,,,,,,,,
null,,color_black,536422,black_plus_sign,,,,,null,,,,,,,,,,,,,,,,,,,,,,,,,,,,,,,
null,,learn_phase(without_color),538938,black_plus_sign,,,,,null,US_Cities_List/mm_hanover.png,US_Cities_List/mm_huntsville.png,,,,,,,,,,,,,,,,,,,,,,,,,,,,,
null,,black_cross(without_color),539653,blue,,,,,null,US_Cities_List/mm_hanover.png,US_Cities_List/mm_huntsville.png,,,,,,,,,,,,,,,,,,,,,,,,,,,,,
488.30000001192093,,rt_plussign_withcolor,540155,blue,,,,,49,US_Cities_List/mm_hanover.png,US_Cities_List/mm_huntsville.png,,,,,,,,,,,,,,,,,,,,,,,,,,,,,
null,,rt_thecrossant_black,541443,black_plus_sign,,,,,null,,,1,0.9833333333333333,,,,,,,,,,,,,,,,,,,,,,,,,,,
null,,color_black,541545,black_plus_sign,,,,,null,,,,,,,,,,,,,,,,,,,,,,,,,,,,,,,
null,,learn_phase(without_color),544064,black_plus_sign,,,,,null,US_Cities_List/mm_gatlinburg.png,US_Cities_List/mm_racine.png,,,,,,,,,,,,,,,,,,,,,,,,,,,,,
null,,black_cross(without_color),544729,green,,,,,null,US_Cities_List/mm_gatlinburg.png,US_Cities_List/mm_racine.png,,,,,,,,,,,,,,,,,,,,,,,,,,,,,
null,,rt_plussign_withcolor,545231,green,,,,,null,US_Cities_List/mm_gatlinburg.png,US_Cities_List/mm_racine.png,,,,,,,,,,,,,,,,,,,,,,,,,,,,,
1011.5,,rt_thecrossant_black,546570,black_plus_sign,,,,,50,,,1,0.9836065573770492,,,,,,,,,,,,,,,,,,,,,,,,,,,
null,,color_black,546672,black_plus_sign,,,,,null,,,,,,,,,,,,,,,,,,,,,,,,,,,,,,,
null,,learn_phase(without_color),549190,black_plus_sign,,,,,null,US_Cities_List/mm_gatlinburg.png,US_Cities_List/mm_peoria.png,,,,,,,,,,,,,,,,,,,,,,,,,,,,,
null,,black_cross(without_color),550209,blue,,,,,null,US_Cities_List/mm_gatlinburg.png,US_Cities_List/mm_peoria.png,,,,,,,,,,,,,,,,,,,,,,,,,,,,,
null,,rt_plussign_withcolor,550712,blue,,,,,null,US_Cities_List/mm_gatlinburg.png,US_Cities_List/mm_peoria.png,,,,,,,,,,,,,,,,,,,,,,,,,,,,,
834,,rt_thecrossant_black,551697,black_plus_sign,,,,,49,,,1,0.9838709677419355,,,,,,,,,,,,,,,,,,,,,,,,,,,
null,,color_black,551799,black_plus_sign,,,,,null,,,,,,,,,,,,,,,,,,,,,,,,,,,,,,,
null,,learn_phase(without_color),554319,black_plus_sign,,,,,null,US_Cities_List/mm_racine.png,US_Cities_List/mm_hanover.png,,,,,,,,,,,,,,,,,,,,,,,,,,,,,
null,,black_cross(without_color),554778,blue,,,,,null,US_Cities_List/mm_racine.png,US_Cities_List/mm_hanover.png,,,,,,,,,,,,,,,,,,,,,,,,,,,,,
null,,rt_plussign_withcolor,555279,blue,,,,,null,US_Cities_List/mm_racine.png,US_Cities_List/mm_hanover.png,,,,,,,,,,,,,,,,,,,,,,,,,,,,,
1170.9000000059605,,rt_thecrossant_black,556825,black_plus_sign,,,,,49,,,1,0.9841269841269841,,,,,,,,,,,,,,,,,,,,,,,,,,,
null,,color_black,556927,black_plus_sign,,,,,null,,,,,,,,,,,,,,,,,,,,,,,,,,,,,,,
null,,learn_phase(without_color),559446,black_plus_sign,,,,,null,US_Cities_List/mm_carmel.png,US_Cities_List/nat_leesburg.png,,,,,,,,,,,,,,,,,,,,,,,,,,,,,
null,,black_cross(without_color),560099,blue,,,,,null,US_Cities_List/mm_carmel.png,US_Cities_List/nat_leesburg.png,,,,,,,,,,,,,,,,,,,,,,,,,,,,,
null,,rt_plussign_withcolor,560600,blue,,,,,null,US_Cities_List/mm_carmel.png,US_Cities_List/nat_leesburg.png,,,,,,,,,,,,,,,,,,,,,,,,,,,,,
586.6999999880791,,rt_thecrossant_black,561952,black_plus_sign,,,,,49,,,1,0.984375,,,,,,,,,,,,,,,,,,,,,,,,,,,
null,,color_black,562054,black_plus_sign,,,,,null,,,,,,,,,,,,,,,,,,,,,,,,,,,,,,,
null,,learn_phase(without_color),564574,black_plus_sign,,,,,null,US_Cities_List/nat_cornwall.png,US_Cities_List/mm_carmel.png,,,,,,,,,,,,,,,,,,,,,,,,,,,,,
null,,black_cross(without_color),565612,blue,,,,,null,US_Cities_List/nat_cornwall.png,US_Cities_List/mm_carmel.png,,,,,,,,,,,,,,,,,,,,,,,,,,,,,
null,,rt_plussign_withcolor,566114,blue,,,,,null,US_Cities_List/nat_cornwall.png,US_Cities_List/mm_carmel.png,,,,,,,,,,,,,,,,,,,,,,,,,,,,,
905.9000000059605,,rt_thecrossant_black,567080,black_plus_sign,,,,,49,,,1,0.9846153846153847,,,,,,,,,,,,,,,,,,,,,,,,,,,
null,,color_black,567183,black_plus_sign,,,,,null,,,,,,,,,,,,,,,,,,,,,,,,,,,,,,,
null,,learn_phase(without_color),569699,black_plus_sign,,,,,null,US_Cities_List/mm_hotsprings.png,US_Cities_List/mm_gatlinburg.png,,,,,,,,,,,,,,,,,,,,,,,,,,,,,
null,,black_cross(without_color),570764,green,,,,,null,US_Cities_List/mm_hotsprings.png,US_Cities_List/mm_gatlinburg.png,,,,,,,,,,,,,,,,,,,,,,,,,,,,,
498.80000001192093,,rt_plussign_withcolor,571265,green,,,,,50,US_Cities_List/mm_hotsprings.png,US_Cities_List/mm_gatlinburg.png,,,,,,,,,,,,,,,,,,,,,,,,,,,,,
null,,rt_thecrossant_black,572205,black_plus_sign,,,,,null,,,1,0.9848484848484849,,,,,,,,,,,,,,,,,,,,,,,,,,,
null,,color_black,572307,black_plus_sign,,,,,null,,,,,,,,,,,,,,,,,,,,,,,,,,,,,,,
null,,learn_phase(without_color),574825,black_plus_sign,,,,,null,US_Cities_List/nat_shreveport.png,US_Cities_List/mm_hanover.png,,,,,,,,,,,,,,,,,,,,,,,,,,,,,
null,,black_cross(without_color),575663,blue,,,,,null,US_Cities_List/nat_shreveport.png,US_Cities_List/mm_hanover.png,,,,,,,,,,,,,,,,,,,,,,,,,,,,,
439.30000001192093,,rt_plussign_withcolor,576165,blue,,,,,49,US_Cities_List/nat_shreveport.png,US_Cities_List/mm_hanover.png,,,,,,,,,,,,,,,,,,,,,,,,,,,,,
null,,rt_thecrossant_black,577331,black_plus_sign,,,,,null,,,1,0.9850746268656716,,,,,,,,,,,,,,,,,,,,,,,,,,,
null,,color_black,577433,black_plus_sign,,,,,null,,,,,,,,,,,,,,,,,,,,,,,,,,,,,,,
null,,learn_phase(without_color),579963,black_plus_sign,,,,,null,US_Cities_List/nat_cornwall.png,US_Cities_List/nat_shreveport.png,,,,,,,,,,,,,,,,,,,,,,,,,,,,,
null,,black_cross(without_color),580744,green,,,,,null,US_Cities_List/nat_cornwall.png,US_Cities_List/nat_shreveport.png,,,,,,,,,,,,,,,,,,,,,,,,,,,,,
415.09999999403954,,rt_plussign_withcolor,581246,green,,,,,50,US_Cities_List/nat_cornwall.png,US_Cities_List/nat_shreveport.png,,,,,,,,,,,,,,,,,,,,,,,,,,,,,
null,,rt_thecrossant_black,582467,black_plus_sign,,,,,null,,,1,0.9852941176470589,,,,,,,,,,,,,,,,,,,,,,,,,,,
null,,color_black,582569,black_plus_sign,,,,,null,,,,,,,,,,,,,,,,,,,,,,,,,,,,,,,
null,,learn_phase(without_color),585089,black_plus_sign,,,,,null,US_Cities_List/nat_shreveport.png,US_Cities_List/mm_hanover.png,,,,,,,,,,,,,,,,,,,,,,,,,,,,,
null,,black_cross(without_color),586067,green,,,,,null,US_Cities_List/nat_shreveport.png,US_Cities_List/mm_hanover.png,,,,,,,,,,,,,,,,,,,,,,,,,,,,,
null,,rt_plussign_withcolor,586569,green,,,,,null,US_Cities_List/nat_shreveport.png,US_Cities_List/mm_hanover.png,,,,,,,,,,,,,,,,,,,,,,,,,,,,,
957.4000000059605,,rt_thecrossant_black,587594,black_plus_sign,,,,,50,,,1,0.9855072463768116,,,,,,,,,,,,,,,,,,,,,,,,,,,
null,,color_black,587696,black_plus_sign,,,,,null,,,,,,,,,,,,,,,,,,,,,,,,,,,,,,,
null,,learn_phase(without_color),590211,black_plus_sign,,,,,null,US_Cities_List/mm_gatlinburg.png,US_Cities_List/mm_peoria.png,,,,,,,,,,,,,,,,,,,,,,,,,,,,,
null,,black_cross(without_color),591057,green,,,,,null,US_Cities_List/mm_gatlinburg.png,US_Cities_List/mm_peoria.png,,,,,,,,,,,,,,,,,,,,,,,,,,,,,
null,,rt_plussign_withcolor,591559,green,,,,,null,US_Cities_List/mm_gatlinburg.png,US_Cities_List/mm_peoria.png,,,,,,,,,,,,,,,,,,,,,,,,,,,,,
1108.0999999940395,,rt_thecrossant_black,592717,black_plus_sign,,,,,50,,,1,0.9857142857142858,,,,,,,,,,,,,,,,,,,,,,,,,,,
null,,color_black,592819,black_plus_sign,,,,,null,,,,,,,,,,,,,,,,,,,,,,,,,,,,,,,
null,,learn_phase(without_color),595336,black_plus_sign,,,,,null,US_Cities_List/nat_shreveport.png,US_Cities_List/nat_newhope.png,,,,,,,,,,,,,,,,,,,,,,,,,,,,,
null,,black_cross(without_color),595870,green,,,,,null,US_Cities_List/nat_shreveport.png,US_Cities_List/nat_newhope.png,,,,,,,,,,,,,,,,,,,,,,,,,,,,,
null,,rt_plussign_withcolor,596386,green,,,,,null,US_Cities_List/nat_shreveport.png,US_Cities_List/nat_newhope.png,,,,,,,,,,,,,,,,,,,,,,,,,,,,,
1276.5,,rt_thecrossant_black,597855,black_plus_sign,,,,,50,,,1,0.9859154929577465,,,,,,,,,,,,,,,,,,,,,,,,,,,
null,,color_black,597957,black_plus_sign,,,,,null,,,,,,,,,,,,,,,,,,,,,,,,,,,,,,,
null,,learn_phase(without_color),600473,black_plus_sign,,,,,null,US_Cities_List/nat_newhope.png,US_Cities_List/mm_racine.png,,,,,,,,,,,,,,,,,,,,,,,,,,,,,
null,,black_cross(without_color),600988,green,,,,,null,US_Cities_List/nat_newhope.png,US_Cities_List/mm_racine.png,,,,,,,,,,,,,,,,,,,,,,,,,,,,,
null,,rt_plussign_withcolor,601491,green,,,,,null,US_Cities_List/nat_newhope.png,US_Cities_List/mm_racine.png,,,,,,,,,,,,,,,,,,,,,,,,,,,,,
634.2999999821186,,rt_thecrossant_black,602981,black_plus_sign,,,,,50,,,1,0.9861111111111112,,,,,,,,,,,,,,,,,,,,,,,,,,,
null,,color_black,603082,black_plus_sign,,,,,null,,,,,,,,,,,,,,,,,,,,,,,,,,,,,,,
null,,learn_phase(without_color),605600,black_plus_sign,,,,,null,US_Cities_List/mm_racine.png,US_Cities_List/mm_hanover.png,,,,,,,,,,,,,,,,,,,,,,,,,,,,,
null,,black_cross(without_color),606012,blue,,,,,null,US_Cities_List/mm_racine.png,US_Cities_List/mm_hanover.png,,,,,,,,,,,,,,,,,,,,,,,,,,,,,
null,,rt_plussign_withcolor,606521,blue,,,,,null,US_Cities_List/mm_racine.png,US_Cities_List/mm_hanover.png,,,,,,,,,,,,,,,,,,,,,,,,,,,,,
706.4000000059605,,rt_thecrossant_black,608112,black_plus_sign,,,,,49,,,1,0.9863013698630136,,,,,,,,,,,,,,,,,,,,,,,,,,,
null,,color_black,608214,black_plus_sign,,,,,null,,,,,,,,,,,,,,,,,,,,,,,,,,,,,,,
null,,learn_phase(without_color),610729,black_plus_sign,,,,,null,US_Cities_List/mm_gatlinburg.png,US_Cities_List/mm_peoria.png,,,,,,,,,,,,,,,,,,,,,,,,,,,,,
null,,black_cross(without_color),611366,blue,,,,,null,US_Cities_List/mm_gatlinburg.png,US_Cities_List/mm_peoria.png,,,,,,,,,,,,,,,,,,,,,,,,,,,,,
null,,rt_plussign_withcolor,611869,blue,,,,,null,US_Cities_List/mm_gatlinburg.png,US_Cities_List/mm_peoria.png,,,,,,,,,,,,,,,,,,,,,,,,,,,,,
680.9000000059605,,rt_thecrossant_black,613236,black_plus_sign,,,,,49,,,1,0.9864864864864865,,,,,,,,,,,,,,,,,,,,,,,,,,,
null,,color_black,613347,black_plus_sign,,,,,null,,,,,,,,,,,,,,,,,,,,,,,,,,,,,,,
null,,learn_phase(without_color),615866,black_plus_sign,,,,,null,US_Cities_List/mm_racine.png,US_Cities_List/mm_hanover.png,,,,,,,,,,,,,,,,,,,,,,,,,,,,,
null,,black_cross(without_color),616571,blue,,,,,null,US_Cities_List/mm_racine.png,US_Cities_List/mm_hanover.png,,,,,,,,,,,,,,,,,,,,,,,,,,,,,
null,,rt_plussign_withcolor,617073,blue,,,,,null,US_Cities_List/mm_racine.png,US_Cities_List/mm_hanover.png,,,,,,,,,,,,,,,,,,,,,,,,,,,,,
764.6999999880791,,rt_thecrossant_black,618372,black_plus_sign,,,,,49,,,1,0.9866666666666667,,,,,,,,,,,,,,,,,,,,,,,,,,,
null,,color_black,618474,black_plus_sign,,,,,null,,,,,,,,,,,,,,,,,,,,,,,,,,,,,,,
null,,learn_phase(without_color),620991,black_plus_sign,,,,,null,US_Cities_List/mm_hotsprings.png,US_Cities_List/mm_gatlinburg.png,,,,,,,,,,,,,,,,,,,,,,,,,,,,,
null,,black_cross(without_color),621569,blue,,,,,null,US_Cities_List/mm_hotsprings.png,US_Cities_List/mm_gatlinburg.png,,,,,,,,,,,,,,,,,,,,,,,,,,,,,
null,,rt_plussign_withcolor,622070,blue,,,,,null,US_Cities_List/mm_hotsprings.png,US_Cities_List/mm_gatlinburg.png,,,,,,,,,,,,,,,,,,,,,,,,,,,,,
853.3000000119209,,rt_thecrossant_black,623495,black_plus_sign,,,,,49,,,1,0.9868421052631579,,,,,,,,,,,,,,,,,,,,,,,,,,,
null,,color_black,623597,black_plus_sign,,,,,null,,,,,,,,,,,,,,,,,,,,,,,,,,,,,,,
null,,learn_phase(without_color),626116,black_plus_sign,,,,,null,US_Cities_List/mm_gatlinburg.png,US_Cities_List/mm_racine.png,,,,,,,,,,,,,,,,,,,,,,,,,,,,,
null,,black_cross(without_color),626790,green,,,,,null,US_Cities_List/mm_gatlinburg.png,US_Cities_List/mm_racine.png,,,,,,,,,,,,,,,,,,,,,,,,,,,,,
null,,rt_plussign_withcolor,627292,green,,,,,null,US_Cities_List/mm_gatlinburg.png,US_Cities_List/mm_racine.png,,,,,,,,,,,,,,,,,,,,,,,,,,,,,
918.8000000119209,,rt_thecrossant_black,628620,black_plus_sign,,,,,50,,,1,0.987012987012987,,,,,,,,,,,,,,,,,,,,,,,,,,,
null,,color_black,628722,black_plus_sign,,,,,null,,,,,,,,,,,,,,,,,,,,,,,,,,,,,,,
null,,learn_phase(without_color),631240,black_plus_sign,,,,,null,US_Cities_List/mm_racine.png,US_Cities_List/mm_hanover.png,,,,,,,,,,,,,,,,,,,,,,,,,,,,,
null,,black_cross(without_color),632077,blue,,,,,null,US_Cities_List/mm_racine.png,US_Cities_List/mm_hanover.png,,,,,,,,,,,,,,,,,,,,,,,,,,,,,
null,,rt_plussign_withcolor,632579,blue,,,,,null,US_Cities_List/mm_racine.png,US_Cities_List/mm_hanover.png,,,,,,,,,,,,,,,,,,,,,,,,,,,,,
824.7000000178814,,rt_thecrossant_black,633747,black_plus_sign,,,,,49,,,1,0.9871794871794872,,,,,,,,,,,,,,,,,,,,,,,,,,,
null,,color_black,633853,black_plus_sign,,,,,null,,,,,,,,,,,,,,,,,,,,,,,,,,,,,,,
null,,learn_phase(without_color),636372,black_plus_sign,,,,,null,US_Cities_List/mm_gatlinburg.png,US_Cities_List/mm_racine.png,,,,,,,,,,,,,,,,,,,,,,,,,,,,,
null,,black_cross(without_color),637240,blue,,,,,null,US_Cities_List/mm_gatlinburg.png,US_Cities_List/mm_racine.png,,,,,,,,,,,,,,,,,,,,,,,,,,,,,
null,,rt_plussign_withcolor,637742,blue,,,,,null,US_Cities_List/mm_gatlinburg.png,US_Cities_List/mm_racine.png,,,,,,,,,,,,,,,,,,,,,,,,,,,,,
944.1999999880791,,rt_thecrossant_black,638879,black_plus_sign,,,,,49,,,1,0.9873417721518988,,,,,,,,,,,,,,,,,,,,,,,,,,,
null,,color_black,638981,black_plus_sign,,,,,null,,,,,,,,,,,,,,,,,,,,,,,,,,,,,,,
null,,learn_phase(without_color),641495,black_plus_sign,,,,,null,US_Cities_List/mm_carmel.png,US_Cities_List/nat_leesburg.png,,,,,,,,,,,,,,,,,,,,,,,,,,,,,
null,,black_cross(without_color),642181,blue,,,,,null,US_Cities_List/mm_carmel.png,US_Cities_List/nat_leesburg.png,,,,,,,,,,,,,,,,,,,,,,,,,,,,,
null,,rt_plussign_withcolor,642683,blue,,,,,null,US_Cities_List/mm_carmel.png,US_Cities_List/nat_leesburg.png,,,,,,,,,,,,,,,,,,,,,,,,,,,,,
994.8000000119209,,rt_thecrossant_black,644000,black_plus_sign,,,,,49,,,1,0.9875,,,,,,,,,,,,,,,,,,,,,,,,,,,
null,,color_black,644101,black_plus_sign,,,,,null,,,,,,,,,,,,,,,,,,,,,,,,,,,,,,,
null,,learn_phase(without_color),646616,black_plus_sign,,,,,null,US_Cities_List/mm_hotsprings.png,US_Cities_List/nat_westpalmbeach.png,,,,,,,,,,,,,,,,,,,,,,,,,,,,,
null,,black_cross(without_color),647475,green,,,,,null,US_Cities_List/mm_hotsprings.png,US_Cities_List/nat_westpalmbeach.png,,,,,,,,,,,,,,,,,,,,,,,,,,,,,
412.80000001192093,,rt_plussign_withcolor,647977,green,,,,,50,US_Cities_List/mm_hotsprings.png,US_Cities_List/nat_westpalmbeach.png,,,,,,,,,,,,,,,,,,,,,,,,,,,,,
null,,rt_thecrossant_black,649121,black_plus_sign,,,,,null,,,1,0.9876543209876543,,,,,,,,,,,,,,,,,,,,,,,,,,,
null,,color_black,649222,black_plus_sign,,,,,null,,,,,,,,,,,,,,,,,,,,,,,,,,,,,,,
null,,learn_phase(without_color),651741,black_plus_sign,,,,,null,US_Cities_List/mm_carmel.png,US_Cities_List/nat_leesburg.png,,,,,,,,,,,,,,,,,,,,,,,,,,,,,
null,,black_cross(without_color),652613,green,,,,,null,US_Cities_List/mm_carmel.png,US_Cities_List/nat_leesburg.png,,,,,,,,,,,,,,,,,,,,,,,,,,,,,
null,,rt_plussign_withcolor,653115,green,,,,,null,US_Cities_List/mm_carmel.png,US_Cities_List/nat_leesburg.png,,,,,,,,,,,,,,,,,,,,,,,,,,,,,
1105.2000000178814,,rt_thecrossant_black,654248,black_plus_sign,,,,,50,,,1,0.9878048780487805,,,,,,,,,,,,,,,,,,,,,,,,,,,
null,,color_black,654350,black_plus_sign,,,,,null,,,,,,,,,,,,,,,,,,,,,,,,,,,,,,,
null,,learn_phase(without_color),656867,black_plus_sign,,,,,null,US_Cities_List/nat_cornwall.png,US_Cities_List/nat_shreveport.png,,,,,,,,,,,,,,,,,,,,,,,,,,,,,
null,,black_cross(without_color),657558,blue,,,,,null,US_Cities_List/nat_cornwall.png,US_Cities_List/nat_shreveport.png,,,,,,,,,,,,,,,,,,,,,,,,,,,,,
null,,rt_plussign_withcolor,658060,blue,,,,,null,US_Cities_List/nat_cornwall.png,US_Cities_List/nat_shreveport.png,,,,,,,,,,,,,,,,,,,,,,,,,,,,,
1108.5,,rt_thecrossant_black,659372,black_plus_sign,,,,,49,,,1,0.9879518072289156,,,,,,,,,,,,,,,,,,,,,,,,,,,
null,,color_black,659475,black_plus_sign,,,,,null,,,,,,,,,,,,,,,,,,,,,,,,,,,,,,,
null,,learn_phase(without_color),661992,black_plus_sign,,,,,null,US_Cities_List/mm_carmel.png,US_Cities_List/mm_huntsville.png,,,,,,,,,,,,,,,,,,,,,,,,,,,,,
null,,black_cross(without_color),662421,green,,,,,null,US_Cities_List/mm_carmel.png,US_Cities_List/mm_huntsville.png,,,,,,,,,,,,,,,,,,,,,,,,,,,,,
null,,rt_plussign_withcolor,662923,green,,,,,null,US_Cities_List/mm_carmel.png,US_Cities_List/mm_huntsville.png,,,,,,,,,,,,,,,,,,,,,,,,,,,,,
802.2999999821186,,rt_thecrossant_black,664498,black_plus_sign,,,,,50,,,1,0.9880952380952381,,,,,,,,,,,,,,,,,,,,,,,,,,,
null,,color_black,664600,black_plus_sign,,,,,null,,,,,,,,,,,,,,,,,,,,,,,,,,,,,,,
null,,learn_phase(without_color),667118,black_plus_sign,,,,,null,US_Cities_List/mm_hotsprings.png,US_Cities_List/mm_racine.png,,,,,,,,,,,,,,,,,,,,,,,,,,,,,
null,,black_cross(without_color),667895,green,,,,,null,US_Cities_List/mm_hotsprings.png,US_Cities_List/mm_racine.png,,,,,,,,,,,,,,,,,,,,,,,,,,,,,
null,,rt_plussign_withcolor,668406,green,,,,,null,US_Cities_List/mm_hotsprings.png,US_Cities_List/mm_racine.png,,,,,,,,,,,,,,,,,,,,,,,,,,,,,
592.3000000119209,,rt_thecrossant_black,669633,black_plus_sign,,,,,50,,,1,0.9882352941176471,,,,,,,,,,,,,,,,,,,,,,,,,,,
null,,color_black,669735,black_plus_sign,,,,,null,,,,,,,,,,,,,,,,,,,,,,,,,,,,,,,
null,,learn_phase(without_color),672249,black_plus_sign,,,,,null,US_Cities_List/mm_gatlinburg.png,US_Cities_List/mm_peoria.png,,,,,,,,,,,,,,,,,,,,,,,,,,,,,
null,,black_cross(without_color),672668,blue,,,,,null,US_Cities_List/mm_gatlinburg.png,US_Cities_List/mm_peoria.png,,,,,,,,,,,,,,,,,,,,,,,,,,,,,
null,,rt_plussign_withcolor,673169,blue,,,,,null,US_Cities_List/mm_gatlinburg.png,US_Cities_List/mm_peoria.png,,,,,,,,,,,,,,,,,,,,,,,,,,,,,
1041.800000011921,,rt_thecrossant_black,674756,black_plus_sign,,,,,49,,,1,0.9883720930232558,,,,,,,,,,,,,,,,,,,,,,,,,,,
null,,color_black,674857,black_plus_sign,,,,,null,,,,,,,,,,,,,,,,,,,,,,,,,,,,,,,
null,,learn_phase(without_color),677376,black_plus_sign,,,,,null,US_Cities_List/mm_carmel.png,US_Cities_List/mm_huntsville.png,,,,,,,,,,,,,,,,,,,,,,,,,,,,,
null,,black_cross(without_color),678179,blue,,,,,null,US_Cities_List/mm_carmel.png,US_Cities_List/mm_huntsville.png,,,,,,,,,,,,,,,,,,,,,,,,,,,,,
null,,rt_plussign_withcolor,678681,blue,,,,,null,US_Cities_List/mm_carmel.png,US_Cities_List/mm_huntsville.png,,,,,,,,,,,,,,,,,,,,,,,,,,,,,
554.5999999940395,,rt_thecrossant_black,679882,black_plus_sign,,,,,49,,,1,0.9885057471264368,,,,,,,,,,,,,,,,,,,,,,,,,,,
null,,color_black,679985,black_plus_sign,,,,,null,,,,,,,,,,,,,,,,,,,,,,,,,,,,,,,
null,,learn_phase(without_color),682518,black_plus_sign,,,,,null,US_Cities_List/nat_shreveport.png,US_Cities_List/nat_newhope.png,,,,,,,,,,,,,,,,,,,,,,,,,,,,,
null,,black_cross(without_color),683386,blue,,,,,null,US_Cities_List/nat_shreveport.png,US_Cities_List/nat_newhope.png,,,,,,,,,,,,,,,,,,,,,,,,,,,,,
null,,rt_plussign_withcolor,683887,blue,,,,,null,US_Cities_List/nat_shreveport.png,US_Cities_List/nat_newhope.png,,,,,,,,,,,,,,,,,,,,,,,,,,,,,
989.8000000119209,,rt_thecrossant_black,685024,black_plus_sign,,,,,49,,,1,0.9886363636363636,,,,,,,,,,,,,,,,,,,,,,,,,,,
null,,color_black,685126,black_plus_sign,,,,,null,,,,,,,,,,,,,,,,,,,,,,,,,,,,,,,
null,,learn_phase(without_color),687644,black_plus_sign,,,,,null,US_Cities_List/nat_cornwall.png,US_Cities_List/mm_carmel.png,,,,,,,,,,,,,,,,,,,,,,,,,,,,,
null,,black_cross(without_color),688170,blue,,,,,null,US_Cities_List/nat_cornwall.png,US_Cities_List/mm_carmel.png,,,,,,,,,,,,,,,,,,,,,,,,,,,,,
null,,rt_plussign_withcolor,688672,blue,,,,,null,US_Cities_List/nat_cornwall.png,US_Cities_List/mm_carmel.png,,,,,,,,,,,,,,,,,,,,,,,,,,,,,
1014.1999999880791,,rt_thecrossant_black,690158,black_plus_sign,,,,,49,,,1,0.9887640449438202,,,,,,,,,,,,,,,,,,,,,,,,,,,
null,,color_black,690260,black_plus_sign,,,,,null,,,,,,,,,,,,,,,,,,,,,,,,,,,,,,,
null,,learn_phase(without_color),692776,black_plus_sign,,,,,null,US_Cities_List/mm_boulder.png,US_Cities_List/nat_cornwall.png,,,,,,,,,,,,,,,,,,,,,,,,,,,,,
null,,black_cross(without_color),693301,blue,,,,,null,US_Cities_List/mm_boulder.png,US_Cities_List/nat_cornwall.png,,,,,,,,,,,,,,,,,,,,,,,,,,,,,
null,,rt_plussign_withcolor,693802,blue,,,,,null,US_Cities_List/mm_boulder.png,US_Cities_List/nat_cornwall.png,,,,,,,,,,,,,,,,,,,,,,,,,,,,,
678.1999999880791,,rt_thecrossant_black,695281,black_plus_sign,,,,,49,,,1,0.9888888888888889,,,,,,,,,,,,,,,,,,,,,,,,,,,
null,,color_black,695384,black_plus_sign,,,,,null,,,,,,,,,,,,,,,,,,,,,,,,,,,,,,,
null,,learn_phase(without_color),697904,black_plus_sign,,,,,null,US_Cities_List/nat_cornwall.png,US_Cities_List/nat_shreveport.png,,,,,,,,,,,,,,,,,,,,,,,,,,,,,
null,,black_cross(without_color),698590,blue,,,,,null,US_Cities_List/nat_cornwall.png,US_Cities_List/nat_shreveport.png,,,,,,,,,,,,,,,,,,,,,,,,,,,,,
null,,rt_plussign_withcolor,699093,blue,,,,,null,US_Cities_List/nat_cornwall.png,US_Cities_List/nat_shreveport.png,,,,,,,,,,,,,,,,,,,,,,,,,,,,,
954.5,,rt_thecrossant_black,700411,black_plus_sign,,,,,49,,,1,0.989010989010989,,,,,,,,,,,,,,,,,,,,,,,,,,,
null,,color_black,700513,black_plus_sign,,,,,null,,,,,,,,,,,,,,,,,,,,,,,,,,,,,,,
null,,learn_phase(without_color),703029,black_plus_sign,,,,,null,US_Cities_List/mm_carmel.png,US_Cities_List/mm_huntsville.png,,,,,,,,,,,,,,,,,,,,,,,,,,,,,
null,,black_cross(without_color),703810,green,,,,,null,US_Cities_List/mm_carmel.png,US_Cities_List/mm_huntsville.png,,,,,,,,,,,,,,,,,,,,,,,,,,,,,
null,,rt_plussign_withcolor,704312,green,,,,,null,US_Cities_List/mm_carmel.png,US_Cities_List/mm_huntsville.png,,,,,,,,,,,,,,,,,,,,,,,,,,,,,
865.7999999821186,,rt_thecrossant_black,705534,black_plus_sign,,,,,50,,,1,0.9891304347826086,,,,,,,,,,,,,,,,,,,,,,,,,,,
null,,color_black,705635,black_plus_sign,,,,,null,,,,,,,,,,,,,,,,,,,,,,,,,,,,,,,
null,,learn_phase(without_color),708151,black_plus_sign,,,,,null,US_Cities_List/mm_hanover.png,US_Cities_List/mm_huntsville.png,,,,,,,,,,,,,,,,,,,,,,,,,,,,,
null,,black_cross(without_color),708732,blue,,,,,null,US_Cities_List/mm_hanover.png,US_Cities_List/mm_huntsville.png,,,,,,,,,,,,,,,,,,,,,,,,,,,,,
null,,rt_plussign_withcolor,709234,blue,,,,,null,US_Cities_List/mm_hanover.png,US_Cities_List/mm_huntsville.png,,,,,,,,,,,,,,,,,,,,,,,,,,,,,
1342.2999999821186,,rt_thecrossant_black,710681,black_plus_sign,,,,,49,,,1,0.989247311827957,,,,,,,,,,,,,,,,,,,,,,,,,,,
null,,color_black,710783,black_plus_sign,,,,,null,,,,,,,,,,,,,,,,,,,,,,,,,,,,,,,
null,,learn_phase(without_color),713301,black_plus_sign,,,,,null,US_Cities_List/mm_boulder.png,US_Cities_List/nat_cornwall.png,,,,,,,,,,,,,,,,,,,,,,,,,,,,,
null,,black_cross(without_color),714399,green,,,,,null,US_Cities_List/mm_boulder.png,US_Cities_List/nat_cornwall.png,,,,,,,,,,,,,,,,,,,,,,,,,,,,,
489.5,,rt_plussign_withcolor,714900,green,,,,,50,US_Cities_List/mm_boulder.png,US_Cities_List/nat_cornwall.png,,,,,,,,,,,,,,,,,,,,,,,,,,,,,
null,,rt_thecrossant_black,715808,black_plus_sign,,,,,null,,,1,0.9893617021276596,,,,,,,,,,,,,,,,,,,,,,,,,,,
null,,color_black,715911,black_plus_sign,,,,,null,,,,,,,,,,,,,,,,,,,,,,,,,,,,,,,
null,,learn_phase(without_color),718428,black_plus_sign,,,,,null,US_Cities_List/mm_hanover.png,US_Cities_List/mm_huntsville.png,,,,,,,,,,,,,,,,,,,,,,,,,,,,,
null,,black_cross(without_color),719385,blue,,,,,null,US_Cities_List/mm_hanover.png,US_Cities_List/mm_huntsville.png,,,,,,,,,,,,,,,,,,,,,,,,,,,,,
null,,rt_plussign_withcolor,719886,blue,,,,,null,US_Cities_List/mm_hanover.png,US_Cities_List/mm_huntsville.png,,,,,,,,,,,,,,,,,,,,,,,,,,,,,
1213.0999999940395,,rt_thecrossant_black,720933,black_plus_sign,,,,,49,,,1,0.9894736842105263,,,,,,,,,,,,,,,,,,,,,,,,,,,
null,,color_black,721035,black_plus_sign,,,,,null,,,,,,,,,,,,,,,,,,,,,,,,,,,,,,,
null,,learn_phase(without_color),723554,black_plus_sign,,,,,null,US_Cities_List/nat_shreveport.png,US_Cities_List/nat_newhope.png,,,,,,,,,,,,,,,,,,,,,,,,,,,,,
null,,black_cross(without_color),724196,green,,,,,null,US_Cities_List/nat_shreveport.png,US_Cities_List/nat_newhope.png,,,,,,,,,,,,,,,,,,,,,,,,,,,,,
null,,rt_plussign_withcolor,724698,green,,,,,null,US_Cities_List/nat_shreveport.png,US_Cities_List/nat_newhope.png,,,,,,,,,,,,,,,,,,,,,,,,,,,,,
1214.300000011921,,rt_thecrossant_black,726059,black_plus_sign,,,,,50,,,1,0.9895833333333334,,,,,,,,,,,,,,,,,,,,,,,,,,,
null,,color_black,726161,black_plus_sign,,,,,null,,,,,,,,,,,,,,,,,,,,,,,,,,,,,,,
null,,learn_phase(without_color),728692,black_plus_sign,,,,,null,US_Cities_List/mm_hotsprings.png,US_Cities_List/mm_gatlinburg.png,,,,,,,,,,,,,,,,,,,,,,,,,,,,,
null,,black_cross(without_color),729381,blue,,,,,null,US_Cities_List/mm_hotsprings.png,US_Cities_List/mm_gatlinburg.png,,,,,,,,,,,,,,,,,,,,,,,,,,,,,
null,,rt_plussign_withcolor,729887,blue,,,,,null,US_Cities_List/mm_hotsprings.png,US_Cities_List/mm_gatlinburg.png,,,,,,,,,,,,,,,,,,,,,,,,,,,,,
789.7999999821186,,rt_thecrossant_black,731202,black_plus_sign,,,,,49,,,1,0.9896907216494846,,,,,,,,,,,,,,,,,,,,,,,,,,,
null,,color_black,731304,black_plus_sign,,,,,null,,,,,,,,,,,,,,,,,,,,,,,,,,,,,,,
null,,learn_phase(without_color),733822,black_plus_sign,,,,,null,US_Cities_List/mm_carmel.png,US_Cities_List/mm_huntsville.png,,,,,,,,,,,,,,,,,,,,,,,,,,,,,
null,,black_cross(without_color),734797,green,,,,,null,US_Cities_List/mm_carmel.png,US_Cities_List/mm_huntsville.png,,,,,,,,,,,,,,,,,,,,,,,,,,,,,
null,,rt_plussign_withcolor,735298,green,,,,,null,US_Cities_List/mm_carmel.png,US_Cities_List/mm_huntsville.png,,,,,,,,,,,,,,,,,,,,,,,,,,,,,
977.9000000059605,,rt_thecrossant_black,736329,black_plus_sign,,,,,50,,,1,0.9897959183673469,,,,,,,,,,,,,,,,,,,,,,,,,,,
null,,color_black,736431,black_plus_sign,,,,,null,,,,,,,,,,,,,,,,,,,,,,,,,,,,,,,
null,,learn_phase(without_color),738948,black_plus_sign,,,,,null,US_Cities_List/mm_racine.png,US_Cities_List/mm_hanover.png,,,,,,,,,,,,,,,,,,,,,,,,,,,,,
null,,black_cross(without_color),739375,blue,,,,,null,US_Cities_List/mm_racine.png,US_Cities_List/mm_hanover.png,,,,,,,,,,,,,,,,,,,,,,,,,,,,,
null,,rt_plussign_withcolor,739877,blue,,,,,null,US_Cities_List/mm_racine.png,US_Cities_List/mm_hanover.png,,,,,,,,,,,,,,,,,,,,,,,,,,,,,
1244.3999999761581,,rt_thecrossant_black,741455,black_plus_sign,,,,,49,,,1,0.98989898989899,,,,,,,,,,,,,,,,,,,,,,,,,,,
null,,color_black,741556,black_plus_sign,,,,,null,,,,,,,,,,,,,,,,,,,,,,,,,,,,,,,
null,,learn_phase(without_color),744075,black_plus_sign,,,,,null,US_Cities_List/nat_newhope.png,US_Cities_List/mm_racine.png,,,,,,,,,,,,,,,,,,,,,,,,,,,,,
null,,black_cross(without_color),744818,blue,,,,,null,US_Cities_List/nat_newhope.png,US_Cities_List/mm_racine.png,,,,,,,,,,,,,,,,,,,,,,,,,,,,,
null,,rt_plussign_withcolor,745327,blue,,,,,null,US_Cities_List/nat_newhope.png,US_Cities_List/mm_racine.png,,,,,,,,,,,,,,,,,,,,,,,,,,,,,
606.5,,rt_thecrossant_black,746588,black_plus_sign,,,,,49,,,1,0.99,,,,,,,,,,,,,,,,,,,,,,,,,,,
null,,color_black,746690,black_plus_sign,,,,,null,,,,,,,,,,,,,,,,,,,,,,,,,,,,,,,
null,,learn_phase(without_color),749208,black_plus_sign,,,,,null,US_Cities_List/nat_shreveport.png,US_Cities_List/mm_hanover.png,,,,,,,,,,,,,,,,,,,,,,,,,,,,,
null,,black_cross(without_color),749831,green,,,,,null,US_Cities_List/nat_shreveport.png,US_Cities_List/mm_hanover.png,,,,,,,,,,,,,,,,,,,,,,,,,,,,,
null,,rt_plussign_withcolor,750332,green,,,,,null,US_Cities_List/nat_shreveport.png,US_Cities_List/mm_hanover.png,,,,,,,,,,,,,,,,,,,,,,,,,,,,,
934.0999999940395,,rt_thecrossant_black,751715,black_plus_sign,,,,,50,,,1,0.9900990099009901,,,,,,,,,,,,,,,,,,,,,,,,,,,
null,,color_black,751816,black_plus_sign,,,,,null,,,,,,,,,,,,,,,,,,,,,,,,,,,,,,,
null,,learn_phase(without_color),754338,black_plus_sign,,,,,null,US_Cities_List/nat_shreveport.png,US_Cities_List/nat_newhope.png,,,,,,,,,,,,,,,,,,,,,,,,,,,,,
null,,black_cross(without_color),754753,blue,,,,,null,US_Cities_List/nat_shreveport.png,US_Cities_List/nat_newhope.png,,,,,,,,,,,,,,,,,,,,,,,,,,,,,
null,,rt_plussign_withcolor,755255,blue,,,,,null,US_Cities_List/nat_shreveport.png,US_Cities_List/nat_newhope.png,,,,,,,,,,,,,,,,,,,,,,,,,,,,,
1026.0999999940395,,rt_thecrossant_black,756843,black_plus_sign,,,,,49,,,1,0.9901960784313726,,,,,,,,,,,,,,,,,,,,,,,,,,,
null,,color_black,756945,black_plus_sign,,,,,null,,,,,,,,,,,,,,,,,,,,,,,,,,,,,,,
null,,learn_phase(without_color),759460,black_plus_sign,,,,,null,US_Cities_List/mm_hotsprings.png,US_Cities_List/nat_westpalmbeach.png,,,,,,,,,,,,,,,,,,,,,,,,,,,,,
null,,black_cross(without_color),760475,green,,,,,null,US_Cities_List/mm_hotsprings.png,US_Cities_List/nat_westpalmbeach.png,,,,,,,,,,,,,,,,,,,,,,,,,,,,,
null,,rt_plussign_withcolor,760977,green,,,,,null,US_Cities_List/mm_hotsprings.png,US_Cities_List/nat_westpalmbeach.png,,,,,,,,,,,,,,,,,,,,,,,,,,,,,
538.3000000119209,,rt_thecrossant_black,761983,black_plus_sign,,,,,50,,,1,0.9902912621359223,,,,,,,,,,,,,,,,,,,,,,,,,,,
null,,color_black,762084,black_plus_sign,,,,,null,,,,,,,,,,,,,,,,,,,,,,,,,,,,,,,
null,,learn_phase(without_color),764606,black_plus_sign,,,,,null,US_Cities_List/nat_newhope.png,US_Cities_List/mm_hotsprings.png,,,,,,,,,,,,,,,,,,,,,,,,,,,,,
null,,black_cross(without_color),765510,green,,,,,null,US_Cities_List/nat_newhope.png,US_Cities_List/mm_hotsprings.png,,,,,,,,,,,,,,,,,,,,,,,,,,,,,
null,,rt_plussign_withcolor,766012,green,,,,,null,US_Cities_List/nat_newhope.png,US_Cities_List/mm_hotsprings.png,,,,,,,,,,,,,,,,,,,,,,,,,,,,,
1416.5999999940395,,rt_thecrossant_black,767111,black_plus_sign,,,,,50,,,1,0.9903846153846154,,,,,,,,,,,,,,,,,,,,,,,,,,,
null,,color_black,767213,black_plus_sign,,,,,null,,,,,,,,,,,,,,,,,,,,,,,,,,,,,,,
null,,learn_phase(without_color),769733,black_plus_sign,,,,,null,US_Cities_List/nat_newhope.png,US_Cities_List/mm_racine.png,,,,,,,,,,,,,,,,,,,,,,,,,,,,,
null,,black_cross(without_color),770210,green,,,,,null,US_Cities_List/nat_newhope.png,US_Cities_List/mm_racine.png,,,,,,,,,,,,,,,,,,,,,,,,,,,,,
null,,rt_plussign_withcolor,770723,green,,,,,null,US_Cities_List/nat_newhope.png,US_Cities_List/mm_racine.png,,,,,,,,,,,,,,,,,,,,,,,,,,,,,
1025.2000000178814,,rt_thecrossant_black,772251,black_plus_sign,,,,,50,,,1,0.9904761904761905,,,,,,,,,,,,,,,,,,,,,,,,,,,
null,,color_black,772352,black_plus_sign,,,,,null,,,,,,,,,,,,,,,,,,,,,,,,,,,,,,,
null,,learn_phase(without_color),774871,black_plus_sign,,,,,null,US_Cities_List/nat_shreveport.png,US_Cities_List/nat_newhope.png,,,,,,,,,,,,,,,,,,,,,,,,,,,,,
null,,black_cross(without_color),775569,blue,,,,,null,US_Cities_List/nat_shreveport.png,US_Cities_List/nat_newhope.png,,,,,,,,,,,,,,,,,,,,,,,,,,,,,
null,,rt_plussign_withcolor,776071,blue,,,,,null,US_Cities_List/nat_shreveport.png,US_Cities_List/nat_newhope.png,,,,,,,,,,,,,,,,,,,,,,,,,,,,,
625,,rt_thecrossant_black,777380,black_plus_sign,,,,,49,,,1,0.9905660377358491,,,,,,,,,,,,,,,,,,,,,,,,,,,
null,,color_black,777482,black_plus_sign,,,,,null,,,,,,,,,,,,,,,,,,,,,,,,,,,,,,,
null,,learn_phase(without_color),779998,black_plus_sign,,,,,null,US_Cities_List/mm_boulder.png,US_Cities_List/nat_cornwall.png,,,,,,,,,,,,,,,,,,,,,,,,,,,,,
null,,black_cross(without_color),780562,green,,,,,null,US_Cities_List/mm_boulder.png,US_Cities_List/nat_cornwall.png,,,,,,,,,,,,,,,,,,,,,,,,,,,,,
487.30000001192093,,rt_plussign_withcolor,781064,green,,,,,50,US_Cities_List/mm_boulder.png,US_Cities_List/nat_cornwall.png,,,,,,,,,,,,,,,,,,,,,,,,,,,,,
null,,rt_thecrossant_black,782505,black_plus_sign,,,,,null,,,1,0.9906542056074766,,,,,,,,,,,,,,,,,,,,,,,,,,,
null,,color_black,782617,black_plus_sign,,,,,null,,,,,,,,,,,,,,,,,,,,,,,,,,,,,,,
null,,learn_phase(without_color),785136,black_plus_sign,,,,,null,US_Cities_List/mm_hotsprings.png,US_Cities_List/mm_gatlinburg.png,,,,,,,,,,,,,,,,,,,,,,,,,,,,,
null,,black_cross(without_color),786090,blue,,,,,null,US_Cities_List/mm_hotsprings.png,US_Cities_List/mm_gatlinburg.png,,,,,,,,,,,,,,,,,,,,,,,,,,,,,
null,,rt_plussign_withcolor,786592,blue,,,,,null,US_Cities_List/mm_hotsprings.png,US_Cities_List/mm_gatlinburg.png,,,,,,,,,,,,,,,,,,,,,,,,,,,,,
670.9000000059605,,rt_thecrossant_black,787643,black_plus_sign,,,,,49,,,1,0.9907407407407407,,,,,,,,,,,,,,,,,,,,,,,,,,,
null,,color_black,787745,black_plus_sign,,,,,null,,,,,,,,,,,,,,,,,,,,,,,,,,,,,,,
null,,learn_phase(without_color),790262,black_plus_sign,,,,,null,US_Cities_List/mm_hotsprings.png,US_Cities_List/nat_westpalmbeach.png,,,,,,,,,,,,,,,,,,,,,,,,,,,,,
null,,black_cross(without_color),791310,green,,,,,null,US_Cities_List/mm_hotsprings.png,US_Cities_List/nat_westpalmbeach.png,,,,,,,,,,,,,,,,,,,,,,,,,,,,,
null,,rt_plussign_withcolor,791812,green,,,,,null,US_Cities_List/mm_hotsprings.png,US_Cities_List/nat_westpalmbeach.png,,,,,,,,,,,,,,,,,,,,,,,,,,,,,
1057.2999999821186,,rt_thecrossant_black,792768,black_plus_sign,,,,,50,,,1,0.9908256880733946,,,,,,,,,,,,,,,,,,,,,,,,,,,
null,,color_black,792870,black_plus_sign,,,,,null,,,,,,,,,,,,,,,,,,,,,,,,,,,,,,,
null,,learn_phase(without_color),795385,black_plus_sign,,,,,null,US_Cities_List/mm_gatlinburg.png,US_Cities_List/mm_racine.png,,,,,,,,,,,,,,,,,,,,,,,,,,,,,
null,,black_cross(without_color),796212,green,,,,,null,US_Cities_List/mm_gatlinburg.png,US_Cities_List/mm_racine.png,,,,,,,,,,,,,,,,,,,,,,,,,,,,,
485.7000000178814,,rt_plussign_withcolor,796714,green,,,,,50,US_Cities_List/mm_gatlinburg.png,US_Cities_List/mm_racine.png,,,,,,,,,,,,,,,,,,,,,,,,,,,,,
null,,rt_thecrossant_black,797892,black_plus_sign,,,,,null,,,1,0.990909090909091,,,,,,,,,,,,,,,,,,,,,,,,,,,
null,,color_black,797993,black_plus_sign,,,,,null,,,,,,,,,,,,,,,,,,,,,,,,,,,,,,,
null,,learn_phase(without_color),800510,black_plus_sign,,,,,null,US_Cities_List/mm_carmel.png,US_Cities_List/nat_leesburg.png,,,,,,,,,,,,,,,,,,,,,,,,,,,,,
null,,black_cross(without_color),801342,green,,,,,null,US_Cities_List/mm_carmel.png,US_Cities_List/nat_leesburg.png,,,,,,,,,,,,,,,,,,,,,,,,,,,,,
413.10000002384186,,rt_plussign_withcolor,801847,green,,,,,50,US_Cities_List/mm_carmel.png,US_Cities_List/nat_leesburg.png,,,,,,,,,,,,,,,,,,,,,,,,,,,,,
null,,rt_thecrossant_black,803019,black_plus_sign,,,,,null,,,1,0.990990990990991,,,,,,,,,,,,,,,,,,,,,,,,,,,
null,,color_black,803121,black_plus_sign,,,,,null,,,,,,,,,,,,,,,,,,,,,,,,,,,,,,,
null,,learn_phase(without_color),805638,black_plus_sign,,,,,null,US_Cities_List/nat_cornwall.png,US_Cities_List/nat_shreveport.png,,,,,,,,,,,,,,,,,,,,,,,,,,,,,
null,,black_cross(without_color),806541,blue,,,,,null,US_Cities_List/nat_cornwall.png,US_Cities_List/nat_shreveport.png,,,,,,,,,,,,,,,,,,,,,,,,,,,,,
414.80000001192093,,rt_plussign_withcolor,807042,blue,,,,,49,US_Cities_List/nat_cornwall.png,US_Cities_List/nat_shreveport.png,,,,,,,,,,,,,,,,,,,,,,,,,,,,,
null,,rt_thecrossant_black,808143,black_plus_sign,,,,,null,,,1,0.9910714285714286,,,,,,,,,,,,,,,,,,,,,,,,,,,
null,,color_black,808245,black_plus_sign,,,,,null,,,,,,,,,,,,,,,,,,,,,,,,,,,,,,,
null,,learn_phase(without_color),810758,black_plus_sign,,,,,null,US_Cities_List/mm_hanover.png,US_Cities_List/mm_huntsville.png,,,,,,,,,,,,,,,,,,,,,,,,,,,,,
null,,black_cross(without_color),811273,blue,,,,,null,US_Cities_List/mm_hanover.png,US_Cities_List/mm_huntsville.png,,,,,,,,,,,,,,,,,,,,,,,,,,,,,
null,,rt_plussign_withcolor,811775,blue,,,,,null,US_Cities_List/mm_hanover.png,US_Cities_List/mm_huntsville.png,,,,,,,,,,,,,,,,,,,,,,,,,,,,,
1012.1999999880791,,rt_thecrossant_black,813266,black_plus_sign,,,,,49,,,1,0.9911504424778761,,,,,,,,,,,,,,,,,,,,,,,,,,,
null,,color_black,813368,black_plus_sign,,,,,null,,,,,,,,,,,,,,,,,,,,,,,,,,,,,,,
null,,learn_phase(without_color),815888,black_plus_sign,,,,,null,US_Cities_List/mm_carmel.png,US_Cities_List/nat_leesburg.png,,,,,,,,,,,,,,,,,,,,,,,,,,,,,
null,,black_cross(without_color),816709,green,,,,,null,US_Cities_List/mm_carmel.png,US_Cities_List/nat_leesburg.png,,,,,,,,,,,,,,,,,,,,,,,,,,,,,
null,,rt_plussign_withcolor,817211,green,,,,,null,US_Cities_List/mm_carmel.png,US_Cities_List/nat_leesburg.png,,,,,,,,,,,,,,,,,,,,,,,,,,,,,
675.5,,rt_thecrossant_black,818394,black_plus_sign,,,,,50,,,1,0.9912280701754386,,,,,,,,,,,,,,,,,,,,,,,,,,,
null,,color_black,818497,black_plus_sign,,,,,null,,,,,,,,,,,,,,,,,,,,,,,,,,,,,,,
null,,learn_phase(without_color),821014,black_plus_sign,,,,,null,US_Cities_List/nat_newhope.png,US_Cities_List/mm_racine.png,,,,,,,,,,,,,,,,,,,,,,,,,,,,,
null,,black_cross(without_color),821819,blue,,,,,null,US_Cities_List/nat_newhope.png,US_Cities_List/mm_racine.png,,,,,,,,,,,,,,,,,,,,,,,,,,,,,
400.09999999403954,,rt_plussign_withcolor,822321,blue,,,,,49,US_Cities_List/nat_newhope.png,US_Cities_List/mm_racine.png,,,,,,,,,,,,,,,,,,,,,,,,,,,,,
null,,rt_thecrossant_black,823530,black_plus_sign,,,,,null,,,1,0.991304347826087,,,,,,,,,,,,,,,,,,,,,,,,,,,
null,,color_black,823633,black_plus_sign,,,,,null,,,,,,,,,,,,,,,,,,,,,,,,,,,,,,,
null,,learn_phase(without_color),826150,black_plus_sign,,,,,null,US_Cities_List/mm_gatlinburg.png,US_Cities_List/mm_racine.png,,,,,,,,,,,,,,,,,,,,,,,,,,,,,
null,,black_cross(without_color),827128,green,,,,,null,US_Cities_List/mm_gatlinburg.png,US_Cities_List/mm_racine.png,,,,,,,,,,,,,,,,,,,,,,,,,,,,,
null,,rt_plussign_withcolor,827630,green,,,,,null,US_Cities_List/mm_gatlinburg.png,US_Cities_List/mm_racine.png,,,,,,,,,,,,,,,,,,,,,,,,,,,,,
1036.5999999940395,,rt_thecrossant_black,828661,black_plus_sign,,,,,50,,,1,0.9913793103448276,,,,,,,,,,,,,,,,,,,,,,,,,,,
null,,color_black,828764,black_plus_sign,,,,,null,,,,,,,,,,,,,,,,,,,,,,,,,,,,,,,
null,,learn_phase(without_color),831279,black_plus_sign,,,,,null,US_Cities_List/mm_hanover.png,US_Cities_List/mm_huntsville.png,,,,,,,,,,,,,,,,,,,,,,,,,,,,,
null,,black_cross(without_color),832167,green,,,,,null,US_Cities_List/mm_hanover.png,US_Cities_List/mm_huntsville.png,,,,,,,,,,,,,,,,,,,,,,,,,,,,,
null,,rt_plussign_withcolor,832668,green,,,,,null,US_Cities_List/mm_hanover.png,US_Cities_List/mm_huntsville.png,,,,,,,,,,,,,,,,,,,,,,,,,,,,,
1295.199999988079,,rt_thecrossant_black,833784,black_plus_sign,,,,,50,,,1,0.9914529914529915,,,,,,,,,,,,,,,,,,,,,,,,,,,
null,,color_black,833887,black_plus_sign,,,,,null,,,,,,,,,,,,,,,,,,,,,,,,,,,,,,,
null,,learn_phase(without_color),836407,black_plus_sign,,,,,null,US_Cities_List/mm_hotsprings.png,US_Cities_List/mm_racine.png,,,,,,,,,,,,,,,,,,,,,,,,,,,,,
null,,black_cross(without_color),837056,blue,,,,,null,US_Cities_List/mm_hotsprings.png,US_Cities_List/mm_racine.png,,,,,,,,,,,,,,,,,,,,,,,,,,,,,
null,,rt_plussign_withcolor,837559,blue,,,,,null,US_Cities_List/mm_hotsprings.png,US_Cities_List/mm_racine.png,,,,,,,,,,,,,,,,,,,,,,,,,,,,,
1133.800000011921,,rt_thecrossant_black,838916,black_plus_sign,,,,,49,,,1,0.9915254237288136,,,,,,,,,,,,,,,,,,,,,,,,,,,
null,,color_black,839018,black_plus_sign,,,,,null,,,,,,,,,,,,,,,,,,,,,,,,,,,,,,,
null,,learn_phase(without_color),841533,black_plus_sign,,,,,null,US_Cities_List/mm_hanover.png,US_Cities_List/mm_huntsville.png,,,,,,,,,,,,,,,,,,,,,,,,,,,,,
null,,black_cross(without_color),842211,green,,,,,null,US_Cities_List/mm_hanover.png,US_Cities_List/mm_huntsville.png,,,,,,,,,,,,,,,,,,,,,,,,,,,,,
447.80000001192093,,rt_plussign_withcolor,842713,green,,,,,50,US_Cities_List/mm_hanover.png,US_Cities_List/mm_huntsville.png,,,,,,,,,,,,,,,,,,,,,,,,,,,,,
null,,rt_thecrossant_black,844039,black_plus_sign,,,,,null,,,1,0.9915966386554622,,,,,,,,,,,,,,,,,,,,,,,,,,,
null,,color_black,844141,black_plus_sign,,,,,null,,,,,,,,,,,,,,,,,,,,,,,,,,,,,,,
null,,learn_phase(without_color),846661,black_plus_sign,,,,,null,US_Cities_List/nat_cornwall.png,US_Cities_List/nat_shreveport.png,,,,,,,,,,,,,,,,,,,,,,,,,,,,,
null,,black_cross(without_color),847666,green,,,,,null,US_Cities_List/nat_cornwall.png,US_Cities_List/nat_shreveport.png,,,,,,,,,,,,,,,,,,,,,,,,,,,,,
null,,rt_plussign_withcolor,848167,green,,,,,null,US_Cities_List/nat_cornwall.png,US_Cities_List/nat_shreveport.png,,,,,,,,,,,,,,,,,,,,,,,,,,,,,
892.5,,rt_thecrossant_black,849168,black_plus_sign,,,,,50,,,1,0.9916666666666667,,,,,,,,,,,,,,,,,,,,,,,,,,,
null,,color_black,849269,black_plus_sign,,,,,null,,,,,,,,,,,,,,,,,,,,,,,,,,,,,,,
null,,learn_phase(without_color),851790,black_plus_sign,,,,,null,US_Cities_List/mm_hotsprings.png,US_Cities_List/mm_racine.png,,,,,,,,,,,,,,,,,,,,,,,,,,,,,
null,,black_cross(without_color),852528,blue,,,,,null,US_Cities_List/mm_hotsprings.png,US_Cities_List/mm_racine.png,,,,,,,,,,,,,,,,,,,,,,,,,,,,,
null,,rt_plussign_withcolor,853029,blue,,,,,null,US_Cities_List/mm_hotsprings.png,US_Cities_List/mm_racine.png,,,,,,,,,,,,,,,,,,,,,,,,,,,,,
1211.8999999761581,,rt_thecrossant_black,854296,black_plus_sign,,,,,49,,,1,0.9917355371900827,,,,,,,,,,,,,,,,,,,,,,,,,,,
null,,color_black,854398,black_plus_sign,,,,,null,,,,,,,,,,,,,,,,,,,,,,,,,,,,,,,
null,,learn_phase(without_color),856918,black_plus_sign,,,,,null,US_Cities_List/mm_hotsprings.png,US_Cities_List/mm_gatlinburg.png,,,,,,,,,,,,,,,,,,,,,,,,,,,,,
null,,black_cross(without_color),857488,green,,,,,null,US_Cities_List/mm_hotsprings.png,US_Cities_List/mm_gatlinburg.png,,,,,,,,,,,,,,,,,,,,,,,,,,,,,
null,,rt_plussign_withcolor,857991,green,,,,,null,US_Cities_List/mm_hotsprings.png,US_Cities_List/mm_gatlinburg.png,,,,,,,,,,,,,,,,,,,,,,,,,,,,,
1095.7999999821186,,rt_thecrossant_black,859432,black_plus_sign,,,,,50,,,1,0.9918032786885246,,,,,,,,,,,,,,,,,,,,,,,,,,,
null,,color_black,859533,black_plus_sign,,,,,null,,,,,,,,,,,,,,,,,,,,,,,,,,,,,,,
null,,learn_phase(without_color),862054,black_plus_sign,,,,,null,US_Cities_List/mm_hotsprings.png,US_Cities_List/mm_racine.png,,,,,,,,,,,,,,,,,,,,,,,,,,,,,
null,,black_cross(without_color),862865,green,,,,,null,US_Cities_List/mm_hotsprings.png,US_Cities_List/mm_racine.png,,,,,,,,,,,,,,,,,,,,,,,,,,,,,
427.09999999403954,,rt_plussign_withcolor,863367,green,,,,,50,US_Cities_List/mm_hotsprings.png,US_Cities_List/mm_racine.png,,,,,,,,,,,,,,,,,,,,,,,,,,,,,
null,,rt_thecrossant_black,864558,black_plus_sign,,,,,null,,,1,0.991869918699187,,,,,,,,,,,,,,,,,,,,,,,,,,,
null,,color_black,864660,black_plus_sign,,,,,null,,,,,,,,,,,,,,,,,,,,,,,,,,,,,,,
null,,learn_phase(without_color),867175,black_plus_sign,,,,,null,US_Cities_List/mm_hanover.png,US_Cities_List/mm_huntsville.png,,,,,,,,,,,,,,,,,,,,,,,,,,,,,
null,,black_cross(without_color),867973,blue,,,,,null,US_Cities_List/mm_hanover.png,US_Cities_List/mm_huntsville.png,,,,,,,,,,,,,,,,,,,,,,,,,,,,,
414.19999998807907,,rt_plussign_withcolor,868476,blue,,,,,49,US_Cities_List/mm_hanover.png,US_Cities_List/mm_huntsville.png,,,,,,,,,,,,,,,,,,,,,,,,,,,,,
null,,rt_thecrossant_black,869683,black_plus_sign,,,,,null,,,1,0.9919354838709677,,,,,,,,,,,,,,,,,,,,,,,,,,,
null,,color_black,869785,black_plus_sign,,,,,null,,,,,,,,,,,,,,,,,,,,,,,,,,,,,,,
null,,learn_phase(without_color),872302,black_plus_sign,,,,,null,US_Cities_List/nat_cornwall.png,US_Cities_List/mm_carmel.png,,,,,,,,,,,,,,,,,,,,,,,,,,,,,
null,,black_cross(without_color),872795,blue,,,,,null,US_Cities_List/nat_cornwall.png,US_Cities_List/mm_carmel.png,,,,,,,,,,,,,,,,,,,,,,,,,,,,,
465.09999999403954,,rt_plussign_withcolor,873296,blue,,,,,49,US_Cities_List/nat_cornwall.png,US_Cities_List/mm_carmel.png,,,,,,,,,,,,,,,,,,,,,,,,,,,,,
null,,rt_thecrossant_black,874819,black_plus_sign,,,,,null,,,1,0.992,,,,,,,,,,,,,,,,,,,,,,,,,,,
null,,color_black,874921,black_plus_sign,,,,,null,,,,,,,,,,,,,,,,,,,,,,,,,,,,,,,
null,,learn_phase(without_color),877439,black_plus_sign,,,,,null,US_Cities_List/nat_shreveport.png,US_Cities_List/mm_hanover.png,,,,,,,,,,,,,,,,,,,,,,,,,,,,,
null,,black_cross(without_color),878011,blue,,,,,null,US_Cities_List/nat_shreveport.png,US_Cities_List/mm_hanover.png,,,,,,,,,,,,,,,,,,,,,,,,,,,,,
null,,rt_plussign_withcolor,878527,blue,,,,,null,US_Cities_List/nat_shreveport.png,US_Cities_List/mm_hanover.png,,,,,,,,,,,,,,,,,,,,,,,,,,,,,
715.7999999821186,,rt_thecrossant_black,879959,black_plus_sign,,,,,49,,,1,0.9920634920634921,,,,,,,,,,,,,,,,,,,,,,,,,,,
null,,color_black,880061,black_plus_sign,,,,,null,,,,,,,,,,,,,,,,,,,,,,,,,,,,,,,
null,,learn_phase(without_color),882581,black_plus_sign,,,,,null,US_Cities_List/nat_shreveport.png,US_Cities_List/nat_newhope.png,,,,,,,,,,,,,,,,,,,,,,,,,,,,,
null,,black_cross(without_color),883210,blue,,,,,null,US_Cities_List/nat_shreveport.png,US_Cities_List/nat_newhope.png,,,,,,,,,,,,,,,,,,,,,,,,,,,,,
null,,rt_plussign_withcolor,883712,blue,,,,,null,US_Cities_List/nat_shreveport.png,US_Cities_List/nat_newhope.png,,,,,,,,,,,,,,,,,,,,,,,,,,,,,
698.5999999940395,,rt_thecrossant_black,885087,black_plus_sign,,,,,49,,,1,0.9921259842519685,,,,,,,,,,,,,,,,,,,,,,,,,,,
null,,color_black,885189,black_plus_sign,,,,,null,,,,,,,,,,,,,,,,,,,,,,,,,,,,,,,
null,,learn_phase(without_color),887711,black_plus_sign,,,,,null,US_Cities_List/nat_shreveport.png,US_Cities_List/nat_newhope.png,,,,,,,,,,,,,,,,,,,,,,,,,,,,,
null,,black_cross(without_color),888699,green,,,,,null,US_Cities_List/nat_shreveport.png,US_Cities_List/nat_newhope.png,,,,,,,,,,,,,,,,,,,,,,,,,,,,,
null,,rt_plussign_withcolor,889201,green,,,,,null,US_Cities_List/nat_shreveport.png,US_Cities_List/nat_newhope.png,,,,,,,,,,,,,,,,,,,,,,,,,,,,,
803.0999999940395,,rt_thecrossant_black,890217,black_plus_sign,,,,,50,,,1,0.9921875,,,,,,,,,,,,,,,,,,,,,,,,,,,
null,,color_black,890319,black_plus_sign,,,,,null,,,,,,,,,,,,,,,,,,,,,,,,,,,,,,,
6485,,intro_1,896805,instruct,,,0,,,,,,,,,,,,,,,,,,,,,,,,,,,,,,,,,
12296.300000011921,,intro_2,909102,instruct,,,1,Next,,,,,,,,,,,,,,,,,,,,,,,,,,,,,,,,
5334.299999982119,,directmemory_phase,914470,../static/images/US_Cities_List/mm_peoria.png,,,,,51,,,1,1,../static/images/US_Cities_List/nat_newhope.png,../static/images/US_Cities_List/mm_hotsprings.png,../static/images/US_Cities_List/mm_gatlinburg.png,../static/images/US_Cities_List/mm_gatlinburg.png,../static/images/US_Cities_List/mm_hotsprings.png,../static/images/US_Cities_List/nat_newhope.png,1,,,,,,,,,,,,,,,,,,,,
null,,html-keyboard-response,915474,<p></p>,,,,,null,,,,,,,,,,,,,,,,,,,,,,,,,,,,,,,
4957.799999982119,,directmemory_phase,920462,../static/images/US_Cities_List/mm_hanover.png,,,,,49,,,1,1,../static/images/US_Cities_List/mm_racine.png,../static/images/US_Cities_List/nat_leesburg.png,../static/images/US_Cities_List/mm_carmel.png,../static/images/US_Cities_List/mm_racine.png,../static/images/US_Cities_List/mm_carmel.png,../static/images/US_Cities_List/nat_leesburg.png,1,,,,,,,,,,,,,,,,,,,,
null,,html-keyboard-response,921465,<p></p>,,,,,null,,,,,,,,,,,,,,,,,,,,,,,,,,,,,,,
2833.7000000178814,,directmemory_phase,924334,../static/images/US_Cities_List/nat_cornwall.png,,,,,51,,,1,1,../static/images/US_Cities_List/mm_racine.png,../static/images/US_Cities_List/nat_newhope.png,../static/images/US_Cities_List/nat_shreveport.png,../static/images/US_Cities_List/nat_shreveport.png,../static/images/US_Cities_List/nat_newhope.png,../static/images/US_Cities_List/mm_racine.png,1,,,,,,,,,,,,,,,,,,,,
null,,html-keyboard-response,925337,<p></p>,,,,,null,,,,,,,,,,,,,,,,,,,,,,,,,,,,,,,
2854.9000000059605,,directmemory_phase,928222,../static/images/US_Cities_List/mm_huntsville.png,,,,,50,,,1,1,../static/images/US_Cities_List/nat_leesburg.png,../static/images/US_Cities_List/mm_hanover.png,../static/images/US_Cities_List/mm_peoria.png,../static/images/US_Cities_List/mm_hanover.png,../static/images/US_Cities_List/nat_leesburg.png,../static/images/US_Cities_List/mm_peoria.png,1,,,,,,,,,,,,,,,,,,,,
null,,html-keyboard-response,929225,<p></p>,,,,,null,,,,,,,,,,,,,,,,,,,,,,,,,,,,,,,
5129,,directmemory_phase,934382,../static/images/US_Cities_List/mm_racine.png,,,,,50,,,1,1,../static/images/US_Cities_List/mm_peoria.png,../static/images/US_Cities_List/mm_gatlinburg.png,../static/images/US_Cities_List/mm_carmel.png,../static/images/US_Cities_List/mm_gatlinburg.png,../static/images/US_Cities_List/mm_peoria.png,../static/images/US_Cities_List/mm_carmel.png,1,,,,,,,,,,,,,,,,,,,,
null,,html-keyboard-response,935386,<p></p>,,,,,null,,,,,,,,,,,,,,,,,,,,,,,,,,,,,,,
3102.9000000059605,,directmemory_phase,938518,../static/images/US_Cities_List/mm_hotsprings.png,,,,,50,,,1,1,../static/images/US_Cities_List/mm_peoria.png,../static/images/US_Cities_List/nat_newhope.png,../static/images/US_Cities_List/mm_carmel.png,../static/images/US_Cities_List/nat_newhope.png,../static/images/US_Cities_List/mm_peoria.png,../static/images/US_Cities_List/mm_carmel.png,1,,,,,,,,,,,,,,,,,,,,
null,,html-keyboard-response,939523,<p></p>,,,,,null,,,,,,,,,,,,,,,,,,,,,,,,,,,,,,,
2486.699999988079,,directmemory_phase,942038,../static/images/US_Cities_List/mm_gatlinburg.png,,,,,50,,,1,1,../static/images/US_Cities_List/nat_westpalmbeach.png,../static/images/US_Cities_List/mm_peoria.png,../static/images/US_Cities_List/mm_carmel.png,../static/images/US_Cities_List/mm_peoria.png,../static/images/US_Cities_List/nat_westpalmbeach.png,../static/images/US_Cities_List/mm_carmel.png,1,,,,,,,,,,,,,,,,,,,,
null,,html-keyboard-response,943042,<p></p>,,,,,null,,,,,,,,,,,,,,,,,,,,,,,,,,,,,,,
2349.300000011921,,directmemory_phase,945415,../static/images/US_Cities_List/nat_shreveport.png,,,,,49,,,0,0.875,../static/images/US_Cities_List/nat_westpalmbeach.png,../static/images/US_Cities_List/mm_boulder.png,../static/images/US_Cities_List/mm_hanover.png,../static/images/US_Cities_List/mm_hanover.png,../static/images/US_Cities_List/mm_boulder.png,../static/images/US_Cities_List/nat_westpalmbeach.png,0.5,closer,,,,,,,,,,,,,,,,,,,
null,,html-keyboard-response,946419,<p></p>,,,,,null,,,,,,,,,,,,,,,,,,,,,,,,,,,,,,,
5078.200000017881,,directmemory_phase,951527,../static/images/US_Cities_List/mm_hotsprings.png,,,,,49,,,0,0.7777777777777778,../static/images/US_Cities_List/mm_huntsville.png,../static/images/US_Cities_List/nat_shreveport.png,../static/images/US_Cities_List/mm_gatlinburg.png,../static/images/US_Cities_List/mm_gatlinburg.png,../static/images/US_Cities_List/nat_shreveport.png,../static/images/US_Cities_List/mm_huntsville.png,0.5,closer,,,,,,,,,,,,,,,,,,,
null,,html-keyboard-response,952531,<p></p>,,,,,null,,,,,,,,,,,,,,,,,,,,,,,,,,,,,,,
1958.0999999940395,,directmemory_phase,954519,../static/images/US_Cities_List/mm_hanover.png,,,,,50,,,0,0.7,../static/images/US_Cities_List/nat_leesburg.png,../static/images/US_Cities_List/mm_hotsprings.png,../static/images/US_Cities_List/nat_shreveport.png,../static/images/US_Cities_List/nat_shreveport.png,../static/images/US_Cities_List/mm_hotsprings.png,../static/images/US_Cities_List/nat_leesburg.png,0.5,closer,,,,,,,,,,,,,,,,,,,
null,,html-keyboard-response,955524,<p></p>,,,,,null,,,,,,,,,,,,,,,,,,,,,,,,,,,,,,,
4077.800000011921,,directmemory_phase,959630,../static/images/US_Cities_List/mm_hotsprings.png,,,,,51,,,0,0.6363636363636364,../static/images/US_Cities_List/mm_peoria.png,../static/images/US_Cities_List/mm_racine.png,../static/images/US_Cities_List/mm_huntsville.png,../static/images/US_Cities_List/mm_racine.png,../static/images/US_Cities_List/mm_peoria.png,../static/images/US_Cities_List/mm_huntsville.png,0.5,closer,,,,,,,,,,,,,,,,,,,
null,,html-keyboard-response,960633,<p></p>,,,,,null,,,,,,,,,,,,,,,,,,,,,,,,,,,,,,,
3370.5,,directmemory_phase,964038,../static/images/US_Cities_List/mm_carmel.png,,,,,50,,,0,0.5833333333333334,../static/images/US_Cities_List/nat_leesburg.png,../static/images/US_Cities_List/mm_hotsprings.png,../static/images/US_Cities_List/mm_boulder.png,../static/images/US_Cities_List/nat_leesburg.png,../static/images/US_Cities_List/mm_boulder.png,../static/images/US_Cities_List/mm_hotsprings.png,0.5,closer,,,,,,,,,,,,,,,,,,,
null,,html-keyboard-response,965042,<p></p>,,,,,null,,,,,,,,,,,,,,,,,,,,,,,,,,,,,,,
3740.300000011921,,directmemory_phase,968814,../static/images/US_Cities_List/nat_shreveport.png,,,,,50,,,1,0.6153846153846154,../static/images/US_Cities_List/mm_boulder.png,../static/images/US_Cities_List/nat_newhope.png,../static/images/US_Cities_List/nat_leesburg.png,../static/images/US_Cities_List/nat_newhope.png,../static/images/US_Cities_List/mm_boulder.png,../static/images/US_Cities_List/nat_leesburg.png,1,,,,,,,,,,,,,,,,,,,,
null,,html-keyboard-response,969820,<p></p>,,,,,null,,,,,,,,,,,,,,,,,,,,,,,,,,,,,,,
2207,,directmemory_phase,972055,../static/images/US_Cities_List/mm_carmel.png,,,,,49,,,0,0.5714285714285714,../static/images/US_Cities_List/mm_hotsprings.png,../static/images/US_Cities_List/nat_shreveport.png,../static/images/US_Cities_List/mm_huntsville.png,../static/images/US_Cities_List/mm_huntsville.png,../static/images/US_Cities_List/nat_shreveport.png,../static/images/US_Cities_List/mm_hotsprings.png,0.5,closer,,,,,,,,,,,,,,,,,,,
null,,html-keyboard-response,973073,<p></p>,,,,,null,,,,,,,,,,,,,,,,,,,,,,,,,,,,,,,
3015.699999988079,,directmemory_phase,976119,../static/images/US_Cities_List/nat_newhope.png,,,,,49,,,1,0.6,../static/images/US_Cities_List/nat_shreveport.png,../static/images/US_Cities_List/nat_leesburg.png,../static/images/US_Cities_List/mm_gatlinburg.png,../static/images/US_Cities_List/nat_shreveport.png,../static/images/US_Cities_List/mm_gatlinburg.png,../static/images/US_Cities_List/nat_leesburg.png,1,,,,,,,,,,,,,,,,,,,,
null,,html-keyboard-response,977123,<p></p>,,,,,null,,,,,,,,,,,,,,,,,,,,,,,,,,,,,,,
3521.300000011921,,directmemory_phase,980670,../static/images/US_Cities_List/nat_leesburg.png,,,,,51,,,1,0.625,../static/images/US_Cities_List/mm_boulder.png,../static/images/US_Cities_List/nat_cornwall.png,../static/images/US_Cities_List/mm_carmel.png,../static/images/US_Cities_List/mm_carmel.png,../static/images/US_Cities_List/nat_cornwall.png,../static/images/US_Cities_List/mm_boulder.png,1,,,,,,,,,,,,,,,,,,,,
null,,html-keyboard-response,981674,<p></p>,,,,,null,,,,,,,,,,,,,,,,,,,,,,,,,,,,,,,
2362,,directmemory_phase,984063,../static/images/US_Cities_List/mm_racine.png,,,,,50,,,1,0.6470588235294118,../static/images/US_Cities_List/nat_westpalmbeach.png,../static/images/US_Cities_List/mm_hanover.png,../static/images/US_Cities_List/mm_carmel.png,../static/images/US_Cities_List/mm_hanover.png,../static/images/US_Cities_List/nat_westpalmbeach.png,../static/images/US_Cities_List/mm_carmel.png,1,,,,,,,,,,,,,,,,,,,,
null,,html-keyboard-response,985067,<p></p>,,,,,null,,,,,,,,,,,,,,,,,,,,,,,,,,,,,,,
3936.4000000059605,,directmemory_phase,989031,../static/images/US_Cities_List/mm_gatlinburg.png,,,,,50,,,0,0.6111111111111112,../static/images/US_Cities_List/nat_shreveport.png,../static/images/US_Cities_List/nat_newhope.png,../static/images/US_Cities_List/mm_hotsprings.png,../static/images/US_Cities_List/mm_hotsprings.png,../static/images/US_Cities_List/nat_newhope.png,../static/images/US_Cities_List/nat_shreveport.png,0.5,closer,,,,,,,,,,,,,,,,,,,
null,,html-keyboard-response,990035,<p></p>,,,,,null,,,,,,,,,,,,,,,,,,,,,,,,,,,,,,,
4764.0999999940395,,directmemory_phase,994831,../static/images/US_Cities_List/mm_racine.png,,,,,50,,,0,0.5789473684210527,../static/images/US_Cities_List/mm_carmel.png,../static/images/US_Cities_List/mm_huntsville.png,../static/images/US_Cities_List/nat_newhope.png,../static/images/US_Cities_List/nat_newhope.png,../static/images/US_Cities_List/mm_huntsville.png,../static/images/US_Cities_List/mm_carmel.png,0.5,closer,,,,,,,,,,,,,,,,,,,
null,,html-keyboard-response,995835,<p></p>,,,,,null,,,,,,,,,,,,,,,,,,,,,,,,,,,,,,,
3636.300000011921,,directmemory_phase,999503,../static/images/US_Cities_List/mm_hotsprings.png,,,,,50,,,1,0.6,../static/images/US_Cities_List/nat_shreveport.png,../static/images/US_Cities_List/nat_westpalmbeach.png,../static/images/US_Cities_List/mm_boulder.png,../static/images/US_Cities_List/nat_westpalmbeach.png,../static/images/US_Cities_List/nat_shreveport.png,../static/images/US_Cities_List/mm_boulder.png,1,,,,,,,,,,,,,,,,,,,,
null,,html-keyboard-response,1000507,<p></p>,,,,,null,,,,,,,,,,,,,,,,,,,,,,,,,,,,,,,
3440.9000000059605,,directmemory_phase,1003976,../static/images/US_Cities_List/mm_gatlinburg.png,,,,,49,,,1,0.6190476190476191,../static/images/US_Cities_List/mm_racine.png,../static/images/US_Cities_List/mm_huntsville.png,../static/images/US_Cities_List/nat_westpalmbeach.png,../static/images/US_Cities_List/mm_racine.png,../static/images/US_Cities_List/nat_westpalmbeach.png,../static/images/US_Cities_List/mm_huntsville.png,1,,,,,,,,,,,,,,,,,,,,
null,,html-keyboard-response,1004980,<p></p>,,,,,null,,,,,,,,,,,,,,,,,,,,,,,,,,,,,,,
5391,,directmemory_phase,1010400,../static/images/US_Cities_List/nat_westpalmbeach.png,,,,,50,,,0,0.5909090909090909,../static/images/US_Cities_List/mm_huntsville.png,../static/images/US_Cities_List/mm_gatlinburg.png,../static/images/US_Cities_List/mm_hotsprings.png,../static/images/US_Cities_List/mm_hotsprings.png,../static/images/US_Cities_List/mm_gatlinburg.png,../static/images/US_Cities_List/mm_huntsville.png,0.5,closer,,,,,,,,,,,,,,,,,,,
null,,html-keyboard-response,1011404,<p></p>,,,,,null,,,,,,,,,,,,,,,,,,,,,,,,,,,,,,,
2901.4000000059605,,directmemory_phase,1014337,../static/images/US_Cities_List/nat_cornwall.png,,,,,49,,,0,0.5652173913043478,../static/images/US_Cities_List/mm_hanover.png,../static/images/US_Cities_List/mm_boulder.png,../static/images/US_Cities_List/mm_racine.png,../static/images/US_Cities_List/mm_boulder.png,../static/images/US_Cities_List/mm_hanover.png,../static/images/US_Cities_List/mm_racine.png,0.5,closer,,,,,,,,,,,,,,,,,,,
null,,html-keyboard-response,1015341,<p></p>,,,,,null,,,,,,,,,,,,,,,,,,,,,,,,,,,,,,,
3607,,directmemory_phase,1018983,../static/images/US_Cities_List/nat_newhope.png,,,,,50,,,0,0.5416666666666666,../static/images/US_Cities_List/mm_carmel.png,../static/images/US_Cities_List/mm_hanover.png,../static/images/US_Cities_List/mm_hotsprings.png,../static/images/US_Cities_List/mm_hotsprings.png,../static/images/US_Cities_List/mm_hanover.png,../static/images/US_Cities_List/mm_carmel.png,0.5,closer,,,,,,,,,,,,,,,,,,,
null,,html-keyboard-response,1019987,<p></p>,,,,,null,,,,,,,,,,,,,,,,,,,,,,,,,,,,,,,
