rt,responses,trial_type,time_elapsed,stimulus,cities,city_images,button_pressed,response,key_press,stimulus_left,stimulus_right,accuracy,cumulative_accuracy,stimulus_down_left,stimulus_down_mid,stimulus_down_right,stimulus_correct,stimulus_short,stimulus_far,weighted_accuracy,missedtrial,condition,specific_pairs,imgL_ID,imgR_ID,linedress,linedressed,image_position,unknowncity,testedstates,currentstate,otherstate,problems,smooth,distraction,strategies,easier,similar,comments
11581,{worker_id:66f02f508e8473f0362ed99e},id_enter,11584,intro,Huntsville; New Hope; Carmel; Shreveport; West Palm Beach; Peoria; Racine; Hot Springs; Boulder; Hanover; Cornwall; Gatlinburg; Leesburg,US_Cities_List/mm_huntsville.png; US_Cities_List/nat_newhope.png; US_Cities_List/mm_carmel.png; US_Cities_List/nat_shreveport.png; US_Cities_List/mm_westpalmbeach.png; US_Cities_List/nat_peoria.png; US_Cities_List/nat_racine.png; US_Cities_List/mm_hotsprings.png; US_Cities_List/nat_boulder.png; US_Cities_List/nat_hanover.png; US_Cities_List/nat_cornwall.png; US_Cities_List/mm_gatlinburg.png; US_Cities_List/nat_leesburg.png,,,,,,,,,,,,,,,,,,,,,,,,,,,,,,,,,
1460.5,,fullscreen,13054,make_fullscreen,,,0,,,,,,,,,,,,,,,,,,,,,,,,,,,,,,,,
1040.5,,intro_1,14096,instruct,,,0,,,,,,,,,,,,,,,,,,,,,,,,,,,,,,,,
892.5999999940395,,intro_2,14992,instruct,,,1,Next,,,,,,,,,,,,,,,,,,,,,,,,,,,,,,,
962.9000000059605,,intro_3,15957,instruct,,,1,Next,,,,,,,,,,,,,,,,,,,,,,,,,,,,,,,
1768,,intro_4,17727,instruct,,,1,Next,,,,,,,,,,,,,,,,,,,,,,,,,,,,,,,
905,,intro_5,18634,instruct,,,1,Next,,,,,,,,,,,,,,,,,,,,,,,,,,,,,,,
2562.2000000029802,,intro_6,21198,instruct,,,1,Next,,,,,,,,,,,,,,,,,,,,,,,,,,,,,,,
null,,prac_atten_color_black,21668,black_plus_sign,,,,,null,,,,,,,,,,,,,,,,,,,,,,,,,,,,,,
null,,prac_atten_color,22627,prac_stop_color,,,,,null,,,,,,,,,,,,,,,,,,,,,,,,,,,,,,
343.40000000596046,,prac_atten_color_black,24631,black_plus_sign,,,,,49,,,,,,,,,,,,,,,,,,,,,,,,,,,,,,
null,,prac_atten_color_black,25108,black_plus_sign,,,,,null,,,,,,,,,,,,,,,,,,,,,,,,,,,,,,
617.2999999970198,,prac_atten_color,26022,prac_stop_color,,,,,50,,,,,,,,,,,,,,,,,,,,,,,,,,,,,,
null,,prac_atten_color_black,28040,black_plus_sign,,,,,null,,,,,,,,,,,,,,,,,,,,,,,,,,,,,,
null,,prac_atten_color_black,28542,black_plus_sign,,,,,null,,,,,,,,,,,,,,,,,,,,,,,,,,,,,,
589.7999999970198,,prac_atten_color,29149,prac_stop_color,,,,,50,,,,,,,,,,,,,,,,,,,,,,,,,,,,,,
null,,prac_atten_color_black,31152,black_plus_sign,,,,,null,,,,,,,,,,,,,,,,,,,,,,,,,,,,,,
null,,prac_atten_color_black,31949,black_plus_sign,,,,,null,,,,,,,,,,,,,,,,,,,,,,,,,,,,,,
431.1000000089407,,prac_atten_color,32828,prac_stop_color,,,,,49,,,,,,,,,,,,,,,,,,,,,,,,,,,,,,
null,,prac_atten_color_black,34832,black_plus_sign,,,,,null,,,,,,,,,,,,,,,,,,,,,,,,,,,,,,
null,,prac_atten_color_black,35367,black_plus_sign,,,,,null,,,,,,,,,,,,,,,,,,,,,,,,,,,,,,
425.90000000596046,,prac_atten_color,36116,prac_stop_color,,,,,50,,,,,,,,,,,,,,,,,,,,,,,,,,,,,,
null,,prac_atten_color_black,38121,black_plus_sign,,,,,null,,,,,,,,,,,,,,,,,,,,,,,,,,,,,,
null,,prac_atten_color_black,38785,black_plus_sign,,,,,null,,,,,,,,,,,,,,,,,,,,,,,,,,,,,,
510.90000000596046,,prac_atten_color,39847,prac_stop_color,,,,,50,,,,,,,,,,,,,,,,,,,,,,,,,,,,,,
null,,prac_atten_color_black,41853,black_plus_sign,,,,,null,,,,,,,,,,,,,,,,,,,,,,,,,,,,,,
null,,prac_atten_color_black,42208,black_plus_sign,,,,,null,,,,,,,,,,,,,,,,,,,,,,,,,,,,,,
null,,prac_atten_color,42779,prac_stop_color,,,,,null,,,,,,,,,,,,,,,,,,,,,,,,,,,,,,
54.70000000298023,,prac_atten_color_black,44781,black_plus_sign,,,,,49,,,,,,,,,,,,,,,,,,,,,,,,,,,,,,
null,,prac_atten_color_black,45622,black_plus_sign,,,,,null,,,,,,,,,,,,,,,,,,,,,,,,,,,,,,
353.3999999910593,,prac_atten_color,46558,prac_stop_color,,,,,50,,,,,,,,,,,,,,,,,,,,,,,,,,,,,,
null,,prac_atten_color_black,48562,black_plus_sign,,,,,null,,,,,,,,,,,,,,,,,,,,,,,,,,,,,,
null,,prac_atten_color_black,49054,black_plus_sign,,,,,null,,,,,,,,,,,,,,,,,,,,,,,,,,,,,,
null,,prac_atten_color,49554,prac_stop_color,,,,,null,,,,,,,,,,,,,,,,,,,,,,,,,,,,,,
177,,prac_atten_color_black,51556,black_plus_sign,,,,,49,,,,,,,,,,,,,,,,,,,,,,,,,,,,,,
null,,prac_atten_color_black,52473,black_plus_sign,,,,,null,,,,,,,,,,,,,,,,,,,,,,,,,,,,,,
445.59999999403954,,prac_atten_color,53534,prac_stop_color,,,,,49,,,,,,,,,,,,,,,,,,,,,,,,,,,,,,
null,,prac_atten_color_black,55542,black_plus_sign,,,,,null,,,,,,,,,,,,,,,,,,,,,,,,,,,,,,
4805.29999999702,,attentioncheck_feedback,60350,cross_check_feedback,,,0,,,,,,,,,,,,,,,,,,,,,,,,,,,,,,,,
17043.09999999404,,last_instruct,77394,instruct,,,,,32,,,,,,,,,,,,,,,,,,,,,,,,,,,,,,
null,,learn_phase(without_color),79444,black_plus_sign,,,,,null,US_Cities_List/nat_peoria.png,US_Cities_List/nat_racine.png,,,,,,,,,,,,,,,,,,,,,,,,,,,,
null,,black_cross(without_color),80390,green,,,,,null,US_Cities_List/nat_peoria.png,US_Cities_List/nat_racine.png,,,,,,,,,,,,,,,,,,,,,,,,,,,,
null,,rt_plussign_withcolor,80907,green,,,,,null,US_Cities_List/nat_peoria.png,US_Cities_List/nat_racine.png,,,,,,,,,,,,,,,,,,,,,,,,,,,,
1688.199999988079,,rt_thecrossant_black,81981,black_plus_sign,,,,,49,,,0,0,,,,,,,,,,,,,,,,,,,,,,,,,,
null,,color_black,82087,black_plus_sign,,,,,null,,,,,,,,,,,,,,,,,,,,,,,,,,,,,,
null,,learn_phase(without_color),84651,black_plus_sign,,,,,null,US_Cities_List/nat_shreveport.png,US_Cities_List/mm_westpalmbeach.png,,,,,,,,,,,,,,,,,,,,,,,,,,,,
null,,black_cross(without_color),85156,green,,,,,null,US_Cities_List/nat_shreveport.png,US_Cities_List/mm_westpalmbeach.png,,,,,,,,,,,,,,,,,,,,,,,,,,,,
null,,rt_plussign_withcolor,85665,green,,,,,null,US_Cities_List/nat_shreveport.png,US_Cities_List/mm_westpalmbeach.png,,,,,,,,,,,,,,,,,,,,,,,,,,,,
null,,rt_thecrossant_black,87180,black_plus_sign,,,,,null,,,,0,,,,,,,,,,,,,,,,,,,,,,,,,,
null,,warning_page,90186,warning,,,,,null,,,,,,,,,,,,,,,,,,,,,,,,,,,,,,
null,,color_black,90293,black_plus_sign,,,,,null,,,,,,,,,,,,,,,,,,,,,,,,,,,,,,
null,,learn_phase(without_color),92843,black_plus_sign,,,,,null,US_Cities_List/nat_peoria.png,US_Cities_List/nat_boulder.png,,,,,,,,,,,,,,,,,,,,,,,,,,,,
null,,black_cross(without_color),93647,blue,,,,,null,US_Cities_List/nat_peoria.png,US_Cities_List/nat_boulder.png,,,,,,,,,,,,,,,,,,,,,,,,,,,,
450.70000000298023,,rt_plussign_withcolor,94151,blue,,,,,49,US_Cities_List/nat_peoria.png,US_Cities_List/nat_boulder.png,,,,,,,,,,,,,,,,,,,,,,,,,,,,
null,,rt_thecrossant_black,95366,black_plus_sign,,,,,null,,,1,0.5,,,,,,,,,,,,,,,,,,,,,,,,,,
null,,color_black,95477,black_plus_sign,,,,,null,,,,,,,,,,,,,,,,,,,,,,,,,,,,,,
null,,learn_phase(without_color),98025,black_plus_sign,,,,,null,US_Cities_List/mm_hotsprings.png,US_Cities_List/nat_hanover.png,,,,,,,,,,,,,,,,,,,,,,,,,,,,
null,,black_cross(without_color),99089,blue,,,,,null,US_Cities_List/mm_hotsprings.png,US_Cities_List/nat_hanover.png,,,,,,,,,,,,,,,,,,,,,,,,,,,,
null,,rt_plussign_withcolor,99600,blue,,,,,null,US_Cities_List/mm_hotsprings.png,US_Cities_List/nat_hanover.png,,,,,,,,,,,,,,,,,,,,,,,,,,,,
1140.7999999970198,,rt_thecrossant_black,100551,black_plus_sign,,,,,49,,,1,0.6666666666666666,,,,,,,,,,,,,,,,,,,,,,,,,,
null,,color_black,100655,black_plus_sign,,,,,null,,,,,,,,,,,,,,,,,,,,,,,,,,,,,,
null,,learn_phase(without_color),103216,black_plus_sign,,,,,null,US_Cities_List/mm_carmel.png,US_Cities_List/nat_cornwall.png,,,,,,,,,,,,,,,,,,,,,,,,,,,,
null,,black_cross(without_color),103695,green,,,,,null,US_Cities_List/mm_carmel.png,US_Cities_List/nat_cornwall.png,,,,,,,,,,,,,,,,,,,,,,,,,,,,
null,,rt_plussign_withcolor,104208,green,,,,,null,US_Cities_List/mm_carmel.png,US_Cities_List/nat_cornwall.png,,,,,,,,,,,,,,,,,,,,,,,,,,,,
1191.0999999940395,,rt_thecrossant_black,105742,black_plus_sign,,,,,50,,,1,0.75,,,,,,,,,,,,,,,,,,,,,,,,,,
null,,color_black,105844,black_plus_sign,,,,,null,,,,,,,,,,,,,,,,,,,,,,,,,,,,,,
null,,learn_phase(without_color),108398,black_plus_sign,,,,,null,US_Cities_List/nat_peoria.png,US_Cities_List/nat_boulder.png,,,,,,,,,,,,,,,,,,,,,,,,,,,,
null,,black_cross(without_color),109113,blue,,,,,null,US_Cities_List/nat_peoria.png,US_Cities_List/nat_boulder.png,,,,,,,,,,,,,,,,,,,,,,,,,,,,
491.3999999910593,,rt_plussign_withcolor,109620,blue,,,,,49,US_Cities_List/nat_peoria.png,US_Cities_List/nat_boulder.png,,,,,,,,,,,,,,,,,,,,,,,,,,,,
null,,rt_thecrossant_black,110925,black_plus_sign,,,,,null,,,1,0.8,,,,,,,,,,,,,,,,,,,,,,,,,,
null,,color_black,111038,black_plus_sign,,,,,null,,,,,,,,,,,,,,,,,,,,,,,,,,,,,,
null,,learn_phase(without_color),113591,black_plus_sign,,,,,null,US_Cities_List/mm_hotsprings.png,US_Cities_List/nat_boulder.png,,,,,,,,,,,,,,,,,,,,,,,,,,,,
null,,black_cross(without_color),114694,blue,,,,,null,US_Cities_List/mm_hotsprings.png,US_Cities_List/nat_boulder.png,,,,,,,,,,,,,,,,,,,,,,,,,,,,
431.30000001192093,,rt_plussign_withcolor,115201,blue,,,,,49,US_Cities_List/mm_hotsprings.png,US_Cities_List/nat_boulder.png,,,,,,,,,,,,,,,,,,,,,,,,,,,,
null,,rt_thecrossant_black,116117,black_plus_sign,,,,,null,,,1,0.8333333333333334,,,,,,,,,,,,,,,,,,,,,,,,,,
null,,color_black,116224,black_plus_sign,,,,,null,,,,,,,,,,,,,,,,,,,,,,,,,,,,,,
null,,learn_phase(without_color),118780,black_plus_sign,,,,,null,US_Cities_List/nat_shreveport.png,US_Cities_List/mm_gatlinburg.png,,,,,,,,,,,,,,,,,,,,,,,,,,,,
null,,black_cross(without_color),119685,blue,,,,,null,US_Cities_List/nat_shreveport.png,US_Cities_List/mm_gatlinburg.png,,,,,,,,,,,,,,,,,,,,,,,,,,,,
444.20000000298023,,rt_plussign_withcolor,120196,blue,,,,,49,US_Cities_List/nat_shreveport.png,US_Cities_List/mm_gatlinburg.png,,,,,,,,,,,,,,,,,,,,,,,,,,,,
null,,rt_thecrossant_black,121309,black_plus_sign,,,,,null,,,1,0.8571428571428571,,,,,,,,,,,,,,,,,,,,,,,,,,
null,,color_black,121415,black_plus_sign,,,,,null,,,,,,,,,,,,,,,,,,,,,,,,,,,,,,
null,,learn_phase(without_color),123963,black_plus_sign,,,,,null,US_Cities_List/mm_huntsville.png,US_Cities_List/nat_newhope.png,,,,,,,,,,,,,,,,,,,,,,,,,,,,
null,,black_cross(without_color),124846,green,,,,,null,US_Cities_List/mm_huntsville.png,US_Cities_List/nat_newhope.png,,,,,,,,,,,,,,,,,,,,,,,,,,,,
null,,rt_plussign_withcolor,125348,green,,,,,null,US_Cities_List/mm_huntsville.png,US_Cities_List/nat_newhope.png,,,,,,,,,,,,,,,,,,,,,,,,,,,,
1106.2999999970198,,rt_thecrossant_black,126482,black_plus_sign,,,,,50,,,1,0.875,,,,,,,,,,,,,,,,,,,,,,,,,,
null,,color_black,126584,black_plus_sign,,,,,null,,,,,,,,,,,,,,,,,,,,,,,,,,,,,,
null,,learn_phase(without_color),129137,black_plus_sign,,,,,null,US_Cities_List/mm_hotsprings.png,US_Cities_List/nat_hanover.png,,,,,,,,,,,,,,,,,,,,,,,,,,,,
null,,black_cross(without_color),129881,blue,,,,,null,US_Cities_List/mm_hotsprings.png,US_Cities_List/nat_hanover.png,,,,,,,,,,,,,,,,,,,,,,,,,,,,
null,,rt_plussign_withcolor,130386,blue,,,,,null,US_Cities_List/mm_hotsprings.png,US_Cities_List/nat_hanover.png,,,,,,,,,,,,,,,,,,,,,,,,,,,,
985.0999999940395,,rt_thecrossant_black,131667,black_plus_sign,,,,,49,,,1,0.8888888888888888,,,,,,,,,,,,,,,,,,,,,,,,,,
null,,color_black,131770,black_plus_sign,,,,,null,,,,,,,,,,,,,,,,,,,,,,,,,,,,,,
null,,learn_phase(without_color),134331,black_plus_sign,,,,,null,US_Cities_List/nat_newhope.png,US_Cities_List/nat_shreveport.png,,,,,,,,,,,,,,,,,,,,,,,,,,,,
null,,black_cross(without_color),134805,blue,,,,,null,US_Cities_List/nat_newhope.png,US_Cities_List/nat_shreveport.png,,,,,,,,,,,,,,,,,,,,,,,,,,,,
null,,rt_plussign_withcolor,135311,blue,,,,,null,US_Cities_List/nat_newhope.png,US_Cities_List/nat_shreveport.png,,,,,,,,,,,,,,,,,,,,,,,,,,,,
1143.800000011921,,rt_thecrossant_black,136861,black_plus_sign,,,,,49,,,1,0.9,,,,,,,,,,,,,,,,,,,,,,,,,,
null,,color_black,136969,black_plus_sign,,,,,null,,,,,,,,,,,,,,,,,,,,,,,,,,,,,,
null,,learn_phase(without_color),139519,black_plus_sign,,,,,null,US_Cities_List/nat_racine.png,US_Cities_List/nat_boulder.png,,,,,,,,,,,,,,,,,,,,,,,,,,,,
null,,black_cross(without_color),140467,green,,,,,null,US_Cities_List/nat_racine.png,US_Cities_List/nat_boulder.png,,,,,,,,,,,,,,,,,,,,,,,,,,,,
null,,rt_plussign_withcolor,140981,green,,,,,null,US_Cities_List/nat_racine.png,US_Cities_List/nat_boulder.png,,,,,,,,,,,,,,,,,,,,,,,,,,,,
767.2000000029802,,rt_thecrossant_black,142049,black_plus_sign,,,,,50,,,1,0.9090909090909091,,,,,,,,,,,,,,,,,,,,,,,,,,
null,,color_black,142157,black_plus_sign,,,,,null,,,,,,,,,,,,,,,,,,,,,,,,,,,,,,
null,,learn_phase(without_color),144713,black_plus_sign,,,,,null,US_Cities_List/nat_peoria.png,US_Cities_List/nat_racine.png,,,,,,,,,,,,,,,,,,,,,,,,,,,,
null,,black_cross(without_color),145700,green,,,,,null,US_Cities_List/nat_peoria.png,US_Cities_List/nat_racine.png,,,,,,,,,,,,,,,,,,,,,,,,,,,,
null,,rt_plussign_withcolor,146207,green,,,,,null,US_Cities_List/nat_peoria.png,US_Cities_List/nat_racine.png,,,,,,,,,,,,,,,,,,,,,,,,,,,,
1265.4000000059605,,rt_thecrossant_black,147236,black_plus_sign,,,,,49,,,0,0.8333333333333334,,,,,,,,,,,,,,,,,,,,,,,,,,
null,,color_black,147345,black_plus_sign,,,,,null,,,,,,,,,,,,,,,,,,,,,,,,,,,,,,
null,,learn_phase(without_color),149900,black_plus_sign,,,,,null,US_Cities_List/nat_racine.png,US_Cities_List/nat_leesburg.png,,,,,,,,,,,,,,,,,,,,,,,,,,,,
null,,black_cross(without_color),150816,green,,,,,null,US_Cities_List/nat_racine.png,US_Cities_List/nat_leesburg.png,,,,,,,,,,,,,,,,,,,,,,,,,,,,
null,,rt_plussign_withcolor,151328,green,,,,,null,US_Cities_List/nat_racine.png,US_Cities_List/nat_leesburg.png,,,,,,,,,,,,,,,,,,,,,,,,,,,,
1152.0999999940395,,rt_thecrossant_black,152436,black_plus_sign,,,,,50,,,1,0.8461538461538461,,,,,,,,,,,,,,,,,,,,,,,,,,
null,,color_black,152552,black_plus_sign,,,,,null,,,,,,,,,,,,,,,,,,,,,,,,,,,,,,
null,,learn_phase(without_color),155109,black_plus_sign,,,,,null,US_Cities_List/nat_shreveport.png,US_Cities_List/mm_gatlinburg.png,,,,,,,,,,,,,,,,,,,,,,,,,,,,
null,,black_cross(without_color),155869,blue,,,,,null,US_Cities_List/nat_shreveport.png,US_Cities_List/mm_gatlinburg.png,,,,,,,,,,,,,,,,,,,,,,,,,,,,
null,,rt_plussign_withcolor,156382,blue,,,,,null,US_Cities_List/nat_shreveport.png,US_Cities_List/mm_gatlinburg.png,,,,,,,,,,,,,,,,,,,,,,,,,,,,
1064.5999999940395,,rt_thecrossant_black,157657,black_plus_sign,,,,,49,,,1,0.8571428571428571,,,,,,,,,,,,,,,,,,,,,,,,,,
null,,color_black,157764,black_plus_sign,,,,,null,,,,,,,,,,,,,,,,,,,,,,,,,,,,,,
null,,learn_phase(without_color),160301,black_plus_sign,,,,,null,US_Cities_List/nat_racine.png,US_Cities_List/mm_hotsprings.png,,,,,,,,,,,,,,,,,,,,,,,,,,,,
null,,black_cross(without_color),160821,green,,,,,null,US_Cities_List/nat_racine.png,US_Cities_List/mm_hotsprings.png,,,,,,,,,,,,,,,,,,,,,,,,,,,,
null,,rt_plussign_withcolor,161322,green,,,,,null,US_Cities_List/nat_racine.png,US_Cities_List/mm_hotsprings.png,,,,,,,,,,,,,,,,,,,,,,,,,,,,
1027.1000000089407,,rt_thecrossant_black,162816,black_plus_sign,,,,,50,,,1,0.8666666666666667,,,,,,,,,,,,,,,,,,,,,,,,,,
null,,color_black,162921,black_plus_sign,,,,,null,,,,,,,,,,,,,,,,,,,,,,,,,,,,,,
null,,learn_phase(without_color),165469,black_plus_sign,,,,,null,US_Cities_List/nat_newhope.png,US_Cities_List/mm_carmel.png,,,,,,,,,,,,,,,,,,,,,,,,,,,,
null,,black_cross(without_color),166413,green,,,,,null,US_Cities_List/nat_newhope.png,US_Cities_List/mm_carmel.png,,,,,,,,,,,,,,,,,,,,,,,,,,,,
496.20000000298023,,rt_plussign_withcolor,166917,green,,,,,50,US_Cities_List/nat_newhope.png,US_Cities_List/mm_carmel.png,,,,,,,,,,,,,,,,,,,,,,,,,,,,
null,,rt_thecrossant_black,167986,black_plus_sign,,,,,null,,,1,0.875,,,,,,,,,,,,,,,,,,,,,,,,,,
null,,color_black,168089,black_plus_sign,,,,,null,,,,,,,,,,,,,,,,,,,,,,,,,,,,,,
null,,learn_phase(without_color),170636,black_plus_sign,,,,,null,US_Cities_List/nat_cornwall.png,US_Cities_List/mm_gatlinburg.png,,,,,,,,,,,,,,,,,,,,,,,,,,,,
null,,black_cross(without_color),171275,blue,,,,,null,US_Cities_List/nat_cornwall.png,US_Cities_List/mm_gatlinburg.png,,,,,,,,,,,,,,,,,,,,,,,,,,,,
null,,rt_plussign_withcolor,171786,blue,,,,,null,US_Cities_List/nat_cornwall.png,US_Cities_List/mm_gatlinburg.png,,,,,,,,,,,,,,,,,,,,,,,,,,,,
1121.0999999940395,,rt_thecrossant_black,173171,black_plus_sign,,,,,49,,,1,0.8823529411764706,,,,,,,,,,,,,,,,,,,,,,,,,,
null,,color_black,173275,black_plus_sign,,,,,null,,,,,,,,,,,,,,,,,,,,,,,,,,,,,,
null,,learn_phase(without_color),175836,black_plus_sign,,,,,null,US_Cities_List/mm_hotsprings.png,US_Cities_List/nat_hanover.png,,,,,,,,,,,,,,,,,,,,,,,,,,,,
null,,black_cross(without_color),176619,blue,,,,,null,US_Cities_List/mm_hotsprings.png,US_Cities_List/nat_hanover.png,,,,,,,,,,,,,,,,,,,,,,,,,,,,
null,,rt_plussign_withcolor,177132,blue,,,,,null,US_Cities_List/mm_hotsprings.png,US_Cities_List/nat_hanover.png,,,,,,,,,,,,,,,,,,,,,,,,,,,,
881.5,,rt_thecrossant_black,178364,black_plus_sign,,,,,49,,,1,0.8888888888888888,,,,,,,,,,,,,,,,,,,,,,,,,,
null,,color_black,178473,black_plus_sign,,,,,null,,,,,,,,,,,,,,,,,,,,,,,,,,,,,,
null,,learn_phase(without_color),181031,black_plus_sign,,,,,null,US_Cities_List/mm_huntsville.png,US_Cities_List/nat_newhope.png,,,,,,,,,,,,,,,,,,,,,,,,,,,,
null,,black_cross(without_color),182033,blue,,,,,null,US_Cities_List/mm_huntsville.png,US_Cities_List/nat_newhope.png,,,,,,,,,,,,,,,,,,,,,,,,,,,,
null,,rt_plussign_withcolor,182539,blue,,,,,null,US_Cities_List/mm_huntsville.png,US_Cities_List/nat_newhope.png,,,,,,,,,,,,,,,,,,,,,,,,,,,,
874.2000000029802,,rt_thecrossant_black,183553,black_plus_sign,,,,,49,,,1,0.8947368421052632,,,,,,,,,,,,,,,,,,,,,,,,,,
null,,color_black,183664,black_plus_sign,,,,,null,,,,,,,,,,,,,,,,,,,,,,,,,,,,,,
null,,learn_phase(without_color),186213,black_plus_sign,,,,,null,US_Cities_List/mm_carmel.png,US_Cities_List/nat_cornwall.png,,,,,,,,,,,,,,,,,,,,,,,,,,,,
null,,black_cross(without_color),187259,blue,,,,,null,US_Cities_List/mm_carmel.png,US_Cities_List/nat_cornwall.png,,,,,,,,,,,,,,,,,,,,,,,,,,,,
null,,rt_plussign_withcolor,187769,blue,,,,,null,US_Cities_List/mm_carmel.png,US_Cities_List/nat_cornwall.png,,,,,,,,,,,,,,,,,,,,,,,,,,,,
1106.2000000029802,,rt_thecrossant_black,188733,black_plus_sign,,,,,49,,,1,0.9,,,,,,,,,,,,,,,,,,,,,,,,,,
null,,color_black,188841,black_plus_sign,,,,,null,,,,,,,,,,,,,,,,,,,,,,,,,,,,,,
null,,learn_phase(without_color),191391,black_plus_sign,,,,,null,US_Cities_List/mm_hotsprings.png,US_Cities_List/nat_boulder.png,,,,,,,,,,,,,,,,,,,,,,,,,,,,
null,,black_cross(without_color),191919,green,,,,,null,US_Cities_List/mm_hotsprings.png,US_Cities_List/nat_boulder.png,,,,,,,,,,,,,,,,,,,,,,,,,,,,
null,,rt_plussign_withcolor,192421,green,,,,,null,US_Cities_List/mm_hotsprings.png,US_Cities_List/nat_boulder.png,,,,,,,,,,,,,,,,,,,,,,,,,,,,
1308.800000011921,,rt_thecrossant_black,193899,black_plus_sign,,,,,50,,,1,0.9047619047619048,,,,,,,,,,,,,,,,,,,,,,,,,,
null,,color_black,194005,black_plus_sign,,,,,null,,,,,,,,,,,,,,,,,,,,,,,,,,,,,,
null,,learn_phase(without_color),196571,black_plus_sign,,,,,null,US_Cities_List/nat_racine.png,US_Cities_List/mm_hotsprings.png,,,,,,,,,,,,,,,,,,,,,,,,,,,,
null,,black_cross(without_color),197022,green,,,,,null,US_Cities_List/nat_racine.png,US_Cities_List/mm_hotsprings.png,,,,,,,,,,,,,,,,,,,,,,,,,,,,
null,,rt_plussign_withcolor,197536,green,,,,,null,US_Cities_List/nat_racine.png,US_Cities_List/mm_hotsprings.png,,,,,,,,,,,,,,,,,,,,,,,,,,,,
1164.7999999970198,,rt_thecrossant_black,199097,black_plus_sign,,,,,50,,,1,0.9090909090909091,,,,,,,,,,,,,,,,,,,,,,,,,,
null,,color_black,199199,black_plus_sign,,,,,null,,,,,,,,,,,,,,,,,,,,,,,,,,,,,,
null,,learn_phase(without_color),201755,black_plus_sign,,,,,null,US_Cities_List/mm_carmel.png,US_Cities_List/nat_cornwall.png,,,,,,,,,,,,,,,,,,,,,,,,,,,,
null,,black_cross(without_color),202327,green,,,,,null,US_Cities_List/mm_carmel.png,US_Cities_List/nat_cornwall.png,,,,,,,,,,,,,,,,,,,,,,,,,,,,
null,,rt_plussign_withcolor,202830,green,,,,,null,US_Cities_List/mm_carmel.png,US_Cities_List/nat_cornwall.png,,,,,,,,,,,,,,,,,,,,,,,,,,,,
814.7999999970198,,rt_thecrossant_black,204279,black_plus_sign,,,,,50,,,1,0.9130434782608695,,,,,,,,,,,,,,,,,,,,,,,,,,
null,,color_black,204386,black_plus_sign,,,,,null,,,,,,,,,,,,,,,,,,,,,,,,,,,,,,
null,,learn_phase(without_color),206938,black_plus_sign,,,,,null,US_Cities_List/nat_shreveport.png,US_Cities_List/mm_gatlinburg.png,,,,,,,,,,,,,,,,,,,,,,,,,,,,
null,,black_cross(without_color),207469,blue,,,,,null,US_Cities_List/nat_shreveport.png,US_Cities_List/mm_gatlinburg.png,,,,,,,,,,,,,,,,,,,,,,,,,,,,
null,,rt_plussign_withcolor,207978,blue,,,,,null,US_Cities_List/nat_shreveport.png,US_Cities_List/mm_gatlinburg.png,,,,,,,,,,,,,,,,,,,,,,,,,,,,
753,,rt_thecrossant_black,209462,black_plus_sign,,,,,49,,,1,0.9166666666666666,,,,,,,,,,,,,,,,,,,,,,,,,,
null,,color_black,209571,black_plus_sign,,,,,null,,,,,,,,,,,,,,,,,,,,,,,,,,,,,,
null,,learn_phase(without_color),212137,black_plus_sign,,,,,null,US_Cities_List/mm_hotsprings.png,US_Cities_List/nat_hanover.png,,,,,,,,,,,,,,,,,,,,,,,,,,,,
null,,black_cross(without_color),212766,green,,,,,null,US_Cities_List/mm_hotsprings.png,US_Cities_List/nat_hanover.png,,,,,,,,,,,,,,,,,,,,,,,,,,,,
null,,rt_plussign_withcolor,213273,green,,,,,null,US_Cities_List/mm_hotsprings.png,US_Cities_List/nat_hanover.png,,,,,,,,,,,,,,,,,,,,,,,,,,,,
891.7000000029802,,rt_thecrossant_black,214668,black_plus_sign,,,,,50,,,1,0.92,,,,,,,,,,,,,,,,,,,,,,,,,,
null,,color_black,214776,black_plus_sign,,,,,null,,,,,,,,,,,,,,,,,,,,,,,,,,,,,,
null,,learn_phase(without_color),217336,black_plus_sign,,,,,null,US_Cities_List/nat_boulder.png,US_Cities_List/nat_cornwall.png,,,,,,,,,,,,,,,,,,,,,,,,,,,,
null,,black_cross(without_color),218334,blue,,,,,null,US_Cities_List/nat_boulder.png,US_Cities_List/nat_cornwall.png,,,,,,,,,,,,,,,,,,,,,,,,,,,,
null,,rt_plussign_withcolor,218846,blue,,,,,null,US_Cities_List/nat_boulder.png,US_Cities_List/nat_cornwall.png,,,,,,,,,,,,,,,,,,,,,,,,,,,,
1184.9000000059605,,rt_thecrossant_black,219875,black_plus_sign,,,,,49,,,1,0.9230769230769231,,,,,,,,,,,,,,,,,,,,,,,,,,
null,,color_black,219985,black_plus_sign,,,,,null,,,,,,,,,,,,,,,,,,,,,,,,,,,,,,
null,,learn_phase(without_color),222524,black_plus_sign,,,,,null,US_Cities_List/nat_racine.png,US_Cities_List/nat_leesburg.png,,,,,,,,,,,,,,,,,,,,,,,,,,,,
null,,black_cross(without_color),223111,green,,,,,null,US_Cities_List/nat_racine.png,US_Cities_List/nat_leesburg.png,,,,,,,,,,,,,,,,,,,,,,,,,,,,
null,,rt_plussign_withcolor,223622,green,,,,,null,US_Cities_List/nat_racine.png,US_Cities_List/nat_leesburg.png,,,,,,,,,,,,,,,,,,,,,,,,,,,,
1386.5,,rt_thecrossant_black,225052,black_plus_sign,,,,,50,,,1,0.9259259259259259,,,,,,,,,,,,,,,,,,,,,,,,,,
null,,color_black,225159,black_plus_sign,,,,,null,,,,,,,,,,,,,,,,,,,,,,,,,,,,,,
null,,learn_phase(without_color),227710,black_plus_sign,,,,,null,US_Cities_List/nat_racine.png,US_Cities_List/mm_hotsprings.png,,,,,,,,,,,,,,,,,,,,,,,,,,,,
null,,black_cross(without_color),228258,blue,,,,,null,US_Cities_List/nat_racine.png,US_Cities_List/mm_hotsprings.png,,,,,,,,,,,,,,,,,,,,,,,,,,,,
null,,rt_plussign_withcolor,228766,blue,,,,,null,US_Cities_List/nat_racine.png,US_Cities_List/mm_hotsprings.png,,,,,,,,,,,,,,,,,,,,,,,,,,,,
932.4000000059605,,rt_thecrossant_black,230238,black_plus_sign,,,,,49,,,1,0.9285714285714286,,,,,,,,,,,,,,,,,,,,,,,,,,
null,,color_black,230346,black_plus_sign,,,,,null,,,,,,,,,,,,,,,,,,,,,,,,,,,,,,
null,,learn_phase(without_color),232906,black_plus_sign,,,,,null,US_Cities_List/mm_hotsprings.png,US_Cities_List/nat_boulder.png,,,,,,,,,,,,,,,,,,,,,,,,,,,,
null,,black_cross(without_color),233629,green,,,,,null,US_Cities_List/mm_hotsprings.png,US_Cities_List/nat_boulder.png,,,,,,,,,,,,,,,,,,,,,,,,,,,,
null,,rt_plussign_withcolor,234137,green,,,,,null,US_Cities_List/mm_hotsprings.png,US_Cities_List/nat_boulder.png,,,,,,,,,,,,,,,,,,,,,,,,,,,,
770.0999999940395,,rt_thecrossant_black,235427,black_plus_sign,,,,,50,,,1,0.9310344827586207,,,,,,,,,,,,,,,,,,,,,,,,,,
null,,color_black,235529,black_plus_sign,,,,,null,,,,,,,,,,,,,,,,,,,,,,,,,,,,,,
null,,learn_phase(without_color),238092,black_plus_sign,,,,,null,US_Cities_List/nat_racine.png,US_Cities_List/nat_boulder.png,,,,,,,,,,,,,,,,,,,,,,,,,,,,
null,,black_cross(without_color),239007,blue,,,,,null,US_Cities_List/nat_racine.png,US_Cities_List/nat_boulder.png,,,,,,,,,,,,,,,,,,,,,,,,,,,,
null,,rt_plussign_withcolor,239510,blue,,,,,null,US_Cities_List/nat_racine.png,US_Cities_List/nat_boulder.png,,,,,,,,,,,,,,,,,,,,,,,,,,,,
1596.5999999940395,,rt_thecrossant_black,240610,black_plus_sign,,,,,49,,,1,0.9333333333333333,,,,,,,,,,,,,,,,,,,,,,,,,,
null,,color_black,240720,black_plus_sign,,,,,null,,,,,,,,,,,,,,,,,,,,,,,,,,,,,,
null,,learn_phase(without_color),243281,black_plus_sign,,,,,null,US_Cities_List/mm_hotsprings.png,US_Cities_List/nat_boulder.png,,,,,,,,,,,,,,,,,,,,,,,,,,,,
null,,black_cross(without_color),243820,blue,,,,,null,US_Cities_List/mm_hotsprings.png,US_Cities_List/nat_boulder.png,,,,,,,,,,,,,,,,,,,,,,,,,,,,
null,,rt_plussign_withcolor,244331,blue,,,,,null,US_Cities_List/mm_hotsprings.png,US_Cities_List/nat_boulder.png,,,,,,,,,,,,,,,,,,,,,,,,,,,,
2027,,rt_thecrossant_black,245798,black_plus_sign,,,,,49,,,1,0.9354838709677419,,,,,,,,,,,,,,,,,,,,,,,,,,
null,,color_black,245914,black_plus_sign,,,,,null,,,,,,,,,,,,,,,,,,,,,,,,,,,,,,
null,,learn_phase(without_color),248446,black_plus_sign,,,,,null,US_Cities_List/nat_shreveport.png,US_Cities_List/mm_gatlinburg.png,,,,,,,,,,,,,,,,,,,,,,,,,,,,
null,,black_cross(without_color),249250,green,,,,,null,US_Cities_List/nat_shreveport.png,US_Cities_List/mm_gatlinburg.png,,,,,,,,,,,,,,,,,,,,,,,,,,,,
null,,rt_plussign_withcolor,249765,green,,,,,null,US_Cities_List/nat_shreveport.png,US_Cities_List/mm_gatlinburg.png,,,,,,,,,,,,,,,,,,,,,,,,,,,,
1030.5,,rt_thecrossant_black,250991,black_plus_sign,,,,,50,,,1,0.9375,,,,,,,,,,,,,,,,,,,,,,,,,,
null,,color_black,251102,black_plus_sign,,,,,null,,,,,,,,,,,,,,,,,,,,,,,,,,,,,,
null,,learn_phase(without_color),253653,black_plus_sign,,,,,null,US_Cities_List/nat_newhope.png,US_Cities_List/mm_carmel.png,,,,,,,,,,,,,,,,,,,,,,,,,,,,
null,,black_cross(without_color),254177,blue,,,,,null,US_Cities_List/nat_newhope.png,US_Cities_List/mm_carmel.png,,,,,,,,,,,,,,,,,,,,,,,,,,,,
null,,rt_plussign_withcolor,254681,blue,,,,,null,US_Cities_List/nat_newhope.png,US_Cities_List/mm_carmel.png,,,,,,,,,,,,,,,,,,,,,,,,,,,,
1038.2999999970198,,rt_thecrossant_black,256188,black_plus_sign,,,,,49,,,1,0.9393939393939394,,,,,,,,,,,,,,,,,,,,,,,,,,
null,,color_black,256298,black_plus_sign,,,,,null,,,,,,,,,,,,,,,,,,,,,,,,,,,,,,
null,,learn_phase(without_color),258854,black_plus_sign,,,,,null,US_Cities_List/mm_hotsprings.png,US_Cities_List/nat_boulder.png,,,,,,,,,,,,,,,,,,,,,,,,,,,,
null,,black_cross(without_color),259817,blue,,,,,null,US_Cities_List/mm_hotsprings.png,US_Cities_List/nat_boulder.png,,,,,,,,,,,,,,,,,,,,,,,,,,,,
null,,rt_plussign_withcolor,260324,blue,,,,,null,US_Cities_List/mm_hotsprings.png,US_Cities_List/nat_boulder.png,,,,,,,,,,,,,,,,,,,,,,,,,,,,
1041.2000000029802,,rt_thecrossant_black,261378,black_plus_sign,,,,,49,,,1,0.9411764705882353,,,,,,,,,,,,,,,,,,,,,,,,,,
null,,color_black,261480,black_plus_sign,,,,,null,,,,,,,,,,,,,,,,,,,,,,,,,,,,,,
null,,learn_phase(without_color),264012,black_plus_sign,,,,,null,US_Cities_List/nat_boulder.png,US_Cities_List/nat_cornwall.png,,,,,,,,,,,,,,,,,,,,,,,,,,,,
null,,black_cross(without_color),265014,green,,,,,null,US_Cities_List/nat_boulder.png,US_Cities_List/nat_cornwall.png,,,,,,,,,,,,,,,,,,,,,,,,,,,,
null,,rt_plussign_withcolor,265522,green,,,,,null,US_Cities_List/nat_boulder.png,US_Cities_List/nat_cornwall.png,,,,,,,,,,,,,,,,,,,,,,,,,,,,
1409,,rt_thecrossant_black,266537,black_plus_sign,,,,,50,,,1,0.9428571428571428,,,,,,,,,,,,,,,,,,,,,,,,,,
null,,color_black,266650,black_plus_sign,,,,,null,,,,,,,,,,,,,,,,,,,,,,,,,,,,,,
null,,learn_phase(without_color),269209,black_plus_sign,,,,,null,US_Cities_List/nat_racine.png,US_Cities_List/mm_hotsprings.png,,,,,,,,,,,,,,,,,,,,,,,,,,,,
null,,black_cross(without_color),269744,green,,,,,null,US_Cities_List/nat_racine.png,US_Cities_List/mm_hotsprings.png,,,,,,,,,,,,,,,,,,,,,,,,,,,,
null,,rt_plussign_withcolor,270253,green,,,,,null,US_Cities_List/nat_racine.png,US_Cities_List/mm_hotsprings.png,,,,,,,,,,,,,,,,,,,,,,,,,,,,
1942.5,,rt_thecrossant_black,271750,black_plus_sign,,,,,50,,,1,0.9444444444444444,,,,,,,,,,,,,,,,,,,,,,,,,,
null,,color_black,271854,black_plus_sign,,,,,null,,,,,,,,,,,,,,,,,,,,,,,,,,,,,,
null,,learn_phase(without_color),274407,black_plus_sign,,,,,null,US_Cities_List/nat_boulder.png,US_Cities_List/nat_cornwall.png,,,,,,,,,,,,,,,,,,,,,,,,,,,,
null,,black_cross(without_color),275396,blue,,,,,null,US_Cities_List/nat_boulder.png,US_Cities_List/nat_cornwall.png,,,,,,,,,,,,,,,,,,,,,,,,,,,,
null,,rt_plussign_withcolor,275906,blue,,,,,null,US_Cities_List/nat_boulder.png,US_Cities_List/nat_cornwall.png,,,,,,,,,,,,,,,,,,,,,,,,,,,,
838.6000000089407,,rt_thecrossant_black,276931,black_plus_sign,,,,,49,,,1,0.9459459459459459,,,,,,,,,,,,,,,,,,,,,,,,,,
null,,color_black,277043,black_plus_sign,,,,,null,,,,,,,,,,,,,,,,,,,,,,,,,,,,,,
null,,learn_phase(without_color),279594,black_plus_sign,,,,,null,US_Cities_List/nat_newhope.png,US_Cities_List/mm_carmel.png,,,,,,,,,,,,,,,,,,,,,,,,,,,,
null,,black_cross(without_color),280243,green,,,,,null,US_Cities_List/nat_newhope.png,US_Cities_List/mm_carmel.png,,,,,,,,,,,,,,,,,,,,,,,,,,,,
null,,rt_plussign_withcolor,280749,green,,,,,null,US_Cities_List/nat_newhope.png,US_Cities_List/mm_carmel.png,,,,,,,,,,,,,,,,,,,,,,,,,,,,
1363.5999999940395,,rt_thecrossant_black,282115,black_plus_sign,,,,,50,,,1,0.9473684210526315,,,,,,,,,,,,,,,,,,,,,,,,,,
null,,color_black,282221,black_plus_sign,,,,,null,,,,,,,,,,,,,,,,,,,,,,,,,,,,,,
null,,learn_phase(without_color),284779,black_plus_sign,,,,,null,US_Cities_List/nat_peoria.png,US_Cities_List/nat_boulder.png,,,,,,,,,,,,,,,,,,,,,,,,,,,,
null,,black_cross(without_color),285296,blue,,,,,null,US_Cities_List/nat_peoria.png,US_Cities_List/nat_boulder.png,,,,,,,,,,,,,,,,,,,,,,,,,,,,
null,,rt_plussign_withcolor,285812,blue,,,,,null,US_Cities_List/nat_peoria.png,US_Cities_List/nat_boulder.png,,,,,,,,,,,,,,,,,,,,,,,,,,,,
1185,,rt_thecrossant_black,287308,black_plus_sign,,,,,49,,,1,0.9487179487179487,,,,,,,,,,,,,,,,,,,,,,,,,,
null,,color_black,287425,black_plus_sign,,,,,null,,,,,,,,,,,,,,,,,,,,,,,,,,,,,,
null,,learn_phase(without_color),289985,black_plus_sign,,,,,null,US_Cities_List/nat_boulder.png,US_Cities_List/nat_cornwall.png,,,,,,,,,,,,,,,,,,,,,,,,,,,,
null,,black_cross(without_color),290518,green,,,,,null,US_Cities_List/nat_boulder.png,US_Cities_List/nat_cornwall.png,,,,,,,,,,,,,,,,,,,,,,,,,,,,
null,,rt_plussign_withcolor,291025,green,,,,,null,US_Cities_List/nat_boulder.png,US_Cities_List/nat_cornwall.png,,,,,,,,,,,,,,,,,,,,,,,,,,,,
1233.8999999910593,,rt_thecrossant_black,292515,black_plus_sign,,,,,50,,,1,0.95,,,,,,,,,,,,,,,,,,,,,,,,,,
null,,color_black,292626,black_plus_sign,,,,,null,,,,,,,,,,,,,,,,,,,,,,,,,,,,,,
null,,learn_phase(without_color),295188,black_plus_sign,,,,,null,US_Cities_List/mm_carmel.png,US_Cities_List/nat_cornwall.png,,,,,,,,,,,,,,,,,,,,,,,,,,,,
null,,black_cross(without_color),296223,blue,,,,,null,US_Cities_List/mm_carmel.png,US_Cities_List/nat_cornwall.png,,,,,,,,,,,,,,,,,,,,,,,,,,,,
470.29999999701977,,rt_plussign_withcolor,296733,blue,,,,,49,US_Cities_List/mm_carmel.png,US_Cities_List/nat_cornwall.png,,,,,,,,,,,,,,,,,,,,,,,,,,,,
null,,rt_thecrossant_black,297727,black_plus_sign,,,,,null,,,1,0.9512195121951219,,,,,,,,,,,,,,,,,,,,,,,,,,
null,,color_black,297837,black_plus_sign,,,,,null,,,,,,,,,,,,,,,,,,,,,,,,,,,,,,
null,,learn_phase(without_color),300391,black_plus_sign,,,,,null,US_Cities_List/nat_shreveport.png,US_Cities_List/mm_westpalmbeach.png,,,,,,,,,,,,,,,,,,,,,,,,,,,,
null,,black_cross(without_color),301060,green,,,,,null,US_Cities_List/nat_shreveport.png,US_Cities_List/mm_westpalmbeach.png,,,,,,,,,,,,,,,,,,,,,,,,,,,,
null,,rt_plussign_withcolor,301575,green,,,,,null,US_Cities_List/nat_shreveport.png,US_Cities_List/mm_westpalmbeach.png,,,,,,,,,,,,,,,,,,,,,,,,,,,,
1557.199999988079,,rt_thecrossant_black,302929,black_plus_sign,,,,,50,,,1,0.9523809523809523,,,,,,,,,,,,,,,,,,,,,,,,,,
null,,color_black,303035,black_plus_sign,,,,,null,,,,,,,,,,,,,,,,,,,,,,,,,,,,,,
null,,learn_phase(without_color),305589,black_plus_sign,,,,,null,US_Cities_List/nat_racine.png,US_Cities_List/mm_hotsprings.png,,,,,,,,,,,,,,,,,,,,,,,,,,,,
null,,black_cross(without_color),306378,green,,,,,null,US_Cities_List/nat_racine.png,US_Cities_List/mm_hotsprings.png,,,,,,,,,,,,,,,,,,,,,,,,,,,,
null,,rt_plussign_withcolor,306895,green,,,,,null,US_Cities_List/nat_racine.png,US_Cities_List/mm_hotsprings.png,,,,,,,,,,,,,,,,,,,,,,,,,,,,
1368.0999999940395,,rt_thecrossant_black,308125,black_plus_sign,,,,,50,,,1,0.9534883720930233,,,,,,,,,,,,,,,,,,,,,,,,,,
null,,color_black,308228,black_plus_sign,,,,,null,,,,,,,,,,,,,,,,,,,,,,,,,,,,,,
null,,learn_phase(without_color),310774,black_plus_sign,,,,,null,US_Cities_List/nat_peoria.png,US_Cities_List/nat_boulder.png,,,,,,,,,,,,,,,,,,,,,,,,,,,,
null,,black_cross(without_color),311282,blue,,,,,null,US_Cities_List/nat_peoria.png,US_Cities_List/nat_boulder.png,,,,,,,,,,,,,,,,,,,,,,,,,,,,
null,,rt_plussign_withcolor,311785,blue,,,,,null,US_Cities_List/nat_peoria.png,US_Cities_List/nat_boulder.png,,,,,,,,,,,,,,,,,,,,,,,,,,,,
1254,,rt_thecrossant_black,313298,black_plus_sign,,,,,49,,,1,0.9545454545454546,,,,,,,,,,,,,,,,,,,,,,,,,,
null,,color_black,313410,black_plus_sign,,,,,null,,,,,,,,,,,,,,,,,,,,,,,,,,,,,,
null,,learn_phase(without_color),315961,black_plus_sign,,,,,null,US_Cities_List/nat_newhope.png,US_Cities_List/nat_shreveport.png,,,,,,,,,,,,,,,,,,,,,,,,,,,,
null,,black_cross(without_color),316964,blue,,,,,null,US_Cities_List/nat_newhope.png,US_Cities_List/nat_shreveport.png,,,,,,,,,,,,,,,,,,,,,,,,,,,,
null,,rt_plussign_withcolor,317472,blue,,,,,null,US_Cities_List/nat_newhope.png,US_Cities_List/nat_shreveport.png,,,,,,,,,,,,,,,,,,,,,,,,,,,,
1219.8999999910593,,rt_thecrossant_black,318496,black_plus_sign,,,,,49,,,1,0.9555555555555556,,,,,,,,,,,,,,,,,,,,,,,,,,
null,,color_black,318606,black_plus_sign,,,,,null,,,,,,,,,,,,,,,,,,,,,,,,,,,,,,
null,,learn_phase(without_color),321171,black_plus_sign,,,,,null,US_Cities_List/nat_newhope.png,US_Cities_List/mm_carmel.png,,,,,,,,,,,,,,,,,,,,,,,,,,,,
null,,black_cross(without_color),321887,green,,,,,null,US_Cities_List/nat_newhope.png,US_Cities_List/mm_carmel.png,,,,,,,,,,,,,,,,,,,,,,,,,,,,
null,,rt_plussign_withcolor,322389,green,,,,,null,US_Cities_List/nat_newhope.png,US_Cities_List/mm_carmel.png,,,,,,,,,,,,,,,,,,,,,,,,,,,,
1358,,rt_thecrossant_black,323700,black_plus_sign,,,,,50,,,1,0.9565217391304348,,,,,,,,,,,,,,,,,,,,,,,,,,
null,,color_black,323808,black_plus_sign,,,,,null,,,,,,,,,,,,,,,,,,,,,,,,,,,,,,
null,,learn_phase(without_color),326362,black_plus_sign,,,,,null,US_Cities_List/nat_peoria.png,US_Cities_List/nat_boulder.png,,,,,,,,,,,,,,,,,,,,,,,,,,,,
null,,black_cross(without_color),327310,green,,,,,null,US_Cities_List/nat_peoria.png,US_Cities_List/nat_boulder.png,,,,,,,,,,,,,,,,,,,,,,,,,,,,
null,,rt_plussign_withcolor,327821,green,,,,,null,US_Cities_List/nat_peoria.png,US_Cities_List/nat_boulder.png,,,,,,,,,,,,,,,,,,,,,,,,,,,,
1328,,rt_thecrossant_black,328901,black_plus_sign,,,,,50,,,1,0.9574468085106383,,,,,,,,,,,,,,,,,,,,,,,,,,
null,,color_black,329005,black_plus_sign,,,,,null,,,,,,,,,,,,,,,,,,,,,,,,,,,,,,
null,,learn_phase(without_color),331559,black_plus_sign,,,,,null,US_Cities_List/nat_shreveport.png,US_Cities_List/mm_westpalmbeach.png,,,,,,,,,,,,,,,,,,,,,,,,,,,,
null,,black_cross(without_color),331983,blue,,,,,null,US_Cities_List/nat_shreveport.png,US_Cities_List/mm_westpalmbeach.png,,,,,,,,,,,,,,,,,,,,,,,,,,,,
null,,rt_plussign_withcolor,332494,blue,,,,,null,US_Cities_List/nat_shreveport.png,US_Cities_List/mm_westpalmbeach.png,,,,,,,,,,,,,,,,,,,,,,,,,,,,
1149.5,,rt_thecrossant_black,334081,black_plus_sign,,,,,49,,,1,0.9583333333333334,,,,,,,,,,,,,,,,,,,,,,,,,,
null,,color_black,334186,black_plus_sign,,,,,null,,,,,,,,,,,,,,,,,,,,,,,,,,,,,,
null,,learn_phase(without_color),336738,black_plus_sign,,,,,null,US_Cities_List/nat_cornwall.png,US_Cities_List/mm_gatlinburg.png,,,,,,,,,,,,,,,,,,,,,,,,,,,,
null,,black_cross(without_color),337801,blue,,,,,null,US_Cities_List/nat_cornwall.png,US_Cities_List/mm_gatlinburg.png,,,,,,,,,,,,,,,,,,,,,,,,,,,,
null,,rt_plussign_withcolor,338319,blue,,,,,null,US_Cities_List/nat_cornwall.png,US_Cities_List/mm_gatlinburg.png,,,,,,,,,,,,,,,,,,,,,,,,,,,,
null,,rt_thecrossant_black,339275,black_plus_sign,,,,,null,,,,0.9583333333333334,,,,,,,,,,,,,,,,,,,,,,,,,,
null,,color_black,339378,black_plus_sign,,,,,null,,,,,,,,,,,,,,,,,,,,,,,,,,,,,,
null,,learn_phase(without_color),341938,black_plus_sign,,,,,null,US_Cities_List/nat_newhope.png,US_Cities_List/mm_carmel.png,,,,,,,,,,,,,,,,,,,,,,,,,,,,
null,,black_cross(without_color),342845,blue,,,,,null,US_Cities_List/nat_newhope.png,US_Cities_List/mm_carmel.png,,,,,,,,,,,,,,,,,,,,,,,,,,,,
null,,rt_plussign_withcolor,343355,blue,,,,,null,US_Cities_List/nat_newhope.png,US_Cities_List/mm_carmel.png,,,,,,,,,,,,,,,,,,,,,,,,,,,,
1437.2000000029802,,rt_thecrossant_black,344469,black_plus_sign,,,,,49,,,1,0.9591836734693877,,,,,,,,,,,,,,,,,,,,,,,,,,
null,,color_black,344577,black_plus_sign,,,,,null,,,,,,,,,,,,,,,,,,,,,,,,,,,,,,
null,,learn_phase(without_color),347130,black_plus_sign,,,,,null,US_Cities_List/nat_newhope.png,US_Cities_List/nat_shreveport.png,,,,,,,,,,,,,,,,,,,,,,,,,,,,
null,,black_cross(without_color),347693,blue,,,,,null,US_Cities_List/nat_newhope.png,US_Cities_List/nat_shreveport.png,,,,,,,,,,,,,,,,,,,,,,,,,,,,
null,,rt_plussign_withcolor,348210,blue,,,,,null,US_Cities_List/nat_newhope.png,US_Cities_List/nat_shreveport.png,,,,,,,,,,,,,,,,,,,,,,,,,,,,
1964.199999988079,,rt_thecrossant_black,349660,black_plus_sign,,,,,49,,,1,0.96,,,,,,,,,,,,,,,,,,,,,,,,,,
null,,color_black,349767,black_plus_sign,,,,,null,,,,,,,,,,,,,,,,,,,,,,,,,,,,,,
null,,learn_phase(without_color),352303,black_plus_sign,,,,,null,US_Cities_List/nat_shreveport.png,US_Cities_List/mm_westpalmbeach.png,,,,,,,,,,,,,,,,,,,,,,,,,,,,
null,,black_cross(without_color),352785,blue,,,,,null,US_Cities_List/nat_shreveport.png,US_Cities_List/mm_westpalmbeach.png,,,,,,,,,,,,,,,,,,,,,,,,,,,,
null,,rt_plussign_withcolor,353292,blue,,,,,null,US_Cities_List/nat_shreveport.png,US_Cities_List/mm_westpalmbeach.png,,,,,,,,,,,,,,,,,,,,,,,,,,,,
1204.5,,rt_thecrossant_black,354819,black_plus_sign,,,,,49,,,1,0.9607843137254902,,,,,,,,,,,,,,,,,,,,,,,,,,
null,,color_black,354935,black_plus_sign,,,,,null,,,,,,,,,,,,,,,,,,,,,,,,,,,,,,
null,,learn_phase(without_color),357495,black_plus_sign,,,,,null,US_Cities_List/nat_newhope.png,US_Cities_List/nat_shreveport.png,,,,,,,,,,,,,,,,,,,,,,,,,,,,
null,,black_cross(without_color),358119,blue,,,,,null,US_Cities_List/nat_newhope.png,US_Cities_List/nat_shreveport.png,,,,,,,,,,,,,,,,,,,,,,,,,,,,
null,,rt_plussign_withcolor,358631,blue,,,,,null,US_Cities_List/nat_newhope.png,US_Cities_List/nat_shreveport.png,,,,,,,,,,,,,,,,,,,,,,,,,,,,
919.7000000029802,,rt_thecrossant_black,360026,black_plus_sign,,,,,49,,,1,0.9615384615384616,,,,,,,,,,,,,,,,,,,,,,,,,,
null,,color_black,360136,black_plus_sign,,,,,null,,,,,,,,,,,,,,,,,,,,,,,,,,,,,,
null,,learn_phase(without_color),362689,black_plus_sign,,,,,null,US_Cities_List/mm_carmel.png,US_Cities_List/nat_cornwall.png,,,,,,,,,,,,,,,,,,,,,,,,,,,,
null,,black_cross(without_color),363548,green,,,,,null,US_Cities_List/mm_carmel.png,US_Cities_List/nat_cornwall.png,,,,,,,,,,,,,,,,,,,,,,,,,,,,
null,,rt_plussign_withcolor,364053,green,,,,,null,US_Cities_List/mm_carmel.png,US_Cities_List/nat_cornwall.png,,,,,,,,,,,,,,,,,,,,,,,,,,,,
1654.2999999970198,,rt_thecrossant_black,365211,black_plus_sign,,,,,50,,,1,0.9622641509433962,,,,,,,,,,,,,,,,,,,,,,,,,,
null,,color_black,365315,black_plus_sign,,,,,null,,,,,,,,,,,,,,,,,,,,,,,,,,,,,,
null,,learn_phase(without_color),367869,black_plus_sign,,,,,null,US_Cities_List/nat_shreveport.png,US_Cities_List/mm_gatlinburg.png,,,,,,,,,,,,,,,,,,,,,,,,,,,,
null,,black_cross(without_color),368838,blue,,,,,null,US_Cities_List/nat_shreveport.png,US_Cities_List/mm_gatlinburg.png,,,,,,,,,,,,,,,,,,,,,,,,,,,,
null,,rt_plussign_withcolor,369342,blue,,,,,null,US_Cities_List/nat_shreveport.png,US_Cities_List/mm_gatlinburg.png,,,,,,,,,,,,,,,,,,,,,,,,,,,,
1209.4000000059605,,rt_thecrossant_black,370379,black_plus_sign,,,,,49,,,1,0.9629629629629629,,,,,,,,,,,,,,,,,,,,,,,,,,
null,,color_black,370495,black_plus_sign,,,,,null,,,,,,,,,,,,,,,,,,,,,,,,,,,,,,
null,,learn_phase(without_color),373049,black_plus_sign,,,,,null,US_Cities_List/mm_huntsville.png,US_Cities_List/nat_newhope.png,,,,,,,,,,,,,,,,,,,,,,,,,,,,
null,,black_cross(without_color),374091,green,,,,,null,US_Cities_List/mm_huntsville.png,US_Cities_List/nat_newhope.png,,,,,,,,,,,,,,,,,,,,,,,,,,,,
null,,rt_plussign_withcolor,374601,green,,,,,null,US_Cities_List/mm_huntsville.png,US_Cities_List/nat_newhope.png,,,,,,,,,,,,,,,,,,,,,,,,,,,,
1794,,rt_thecrossant_black,375583,black_plus_sign,,,,,50,,,1,0.9636363636363636,,,,,,,,,,,,,,,,,,,,,,,,,,
null,,color_black,375699,black_plus_sign,,,,,null,,,,,,,,,,,,,,,,,,,,,,,,,,,,,,
null,,learn_phase(without_color),378247,black_plus_sign,,,,,null,US_Cities_List/nat_racine.png,US_Cities_List/mm_hotsprings.png,,,,,,,,,,,,,,,,,,,,,,,,,,,,
null,,black_cross(without_color),379305,green,,,,,null,US_Cities_List/nat_racine.png,US_Cities_List/mm_hotsprings.png,,,,,,,,,,,,,,,,,,,,,,,,,,,,
null,,rt_plussign_withcolor,379810,green,,,,,null,US_Cities_List/nat_racine.png,US_Cities_List/mm_hotsprings.png,,,,,,,,,,,,,,,,,,,,,,,,,,,,
null,,rt_thecrossant_black,380776,black_plus_sign,,,,,null,,,,0.9636363636363636,,,,,,,,,,,,,,,,,,,,,,,,,,
null,,color_black,380886,black_plus_sign,,,,,null,,,,,,,,,,,,,,,,,,,,,,,,,,,,,,
null,,learn_phase(without_color),383451,black_plus_sign,,,,,null,US_Cities_List/nat_shreveport.png,US_Cities_List/mm_westpalmbeach.png,,,,,,,,,,,,,,,,,,,,,,,,,,,,
null,,black_cross(without_color),383880,blue,,,,,null,US_Cities_List/nat_shreveport.png,US_Cities_List/mm_westpalmbeach.png,,,,,,,,,,,,,,,,,,,,,,,,,,,,
null,,rt_plussign_withcolor,384389,blue,,,,,null,US_Cities_List/nat_shreveport.png,US_Cities_List/mm_westpalmbeach.png,,,,,,,,,,,,,,,,,,,,,,,,,,,,
1427.9000000059605,,rt_thecrossant_black,385976,black_plus_sign,,,,,49,,,1,0.9642857142857143,,,,,,,,,,,,,,,,,,,,,,,,,,
null,,color_black,386085,black_plus_sign,,,,,null,,,,,,,,,,,,,,,,,,,,,,,,,,,,,,
null,,learn_phase(without_color),388644,black_plus_sign,,,,,null,US_Cities_List/nat_shreveport.png,US_Cities_List/mm_gatlinburg.png,,,,,,,,,,,,,,,,,,,,,,,,,,,,
null,,black_cross(without_color),389604,green,,,,,null,US_Cities_List/nat_shreveport.png,US_Cities_List/mm_gatlinburg.png,,,,,,,,,,,,,,,,,,,,,,,,,,,,
null,,rt_plussign_withcolor,390115,green,,,,,null,US_Cities_List/nat_shreveport.png,US_Cities_List/mm_gatlinburg.png,,,,,,,,,,,,,,,,,,,,,,,,,,,,
551.2000000029802,,rt_thecrossant_black,391181,black_plus_sign,,,,,50,,,1,0.9649122807017544,,,,,,,,,,,,,,,,,,,,,,,,,,
null,,color_black,391284,black_plus_sign,,,,,null,,,,,,,,,,,,,,,,,,,,,,,,,,,,,,
null,,learn_phase(without_color),393835,black_plus_sign,,,,,null,US_Cities_List/nat_cornwall.png,US_Cities_List/mm_gatlinburg.png,,,,,,,,,,,,,,,,,,,,,,,,,,,,
null,,black_cross(without_color),394704,green,,,,,null,US_Cities_List/nat_cornwall.png,US_Cities_List/mm_gatlinburg.png,,,,,,,,,,,,,,,,,,,,,,,,,,,,
null,,rt_plussign_withcolor,395214,green,,,,,null,US_Cities_List/nat_cornwall.png,US_Cities_List/mm_gatlinburg.png,,,,,,,,,,,,,,,,,,,,,,,,,,,,
1336.9000000059605,,rt_thecrossant_black,396366,black_plus_sign,,,,,50,,,1,0.9655172413793104,,,,,,,,,,,,,,,,,,,,,,,,,,
null,,color_black,396477,black_plus_sign,,,,,null,,,,,,,,,,,,,,,,,,,,,,,,,,,,,,
null,,learn_phase(without_color),399033,black_plus_sign,,,,,null,US_Cities_List/nat_racine.png,US_Cities_List/nat_leesburg.png,,,,,,,,,,,,,,,,,,,,,,,,,,,,
null,,black_cross(without_color),400116,blue,,,,,null,US_Cities_List/nat_racine.png,US_Cities_List/nat_leesburg.png,,,,,,,,,,,,,,,,,,,,,,,,,,,,
null,,rt_plussign_withcolor,400627,blue,,,,,null,US_Cities_List/nat_racine.png,US_Cities_List/nat_leesburg.png,,,,,,,,,,,,,,,,,,,,,,,,,,,,
1010.0999999940395,,rt_thecrossant_black,401553,black_plus_sign,,,,,49,,,1,0.9661016949152542,,,,,,,,,,,,,,,,,,,,,,,,,,
null,,color_black,401661,black_plus_sign,,,,,null,,,,,,,,,,,,,,,,,,,,,,,,,,,,,,
null,,learn_phase(without_color),404216,black_plus_sign,,,,,null,US_Cities_List/nat_racine.png,US_Cities_List/mm_hotsprings.png,,,,,,,,,,,,,,,,,,,,,,,,,,,,
null,,black_cross(without_color),405287,green,,,,,null,US_Cities_List/nat_racine.png,US_Cities_List/mm_hotsprings.png,,,,,,,,,,,,,,,,,,,,,,,,,,,,
null,,rt_plussign_withcolor,405794,green,,,,,null,US_Cities_List/nat_racine.png,US_Cities_List/mm_hotsprings.png,,,,,,,,,,,,,,,,,,,,,,,,,,,,
1535.7999999970198,,rt_thecrossant_black,406745,black_plus_sign,,,,,50,,,1,0.9666666666666667,,,,,,,,,,,,,,,,,,,,,,,,,,
null,,color_black,406855,black_plus_sign,,,,,null,,,,,,,,,,,,,,,,,,,,,,,,,,,,,,
null,,learn_phase(without_color),409414,black_plus_sign,,,,,null,US_Cities_List/nat_cornwall.png,US_Cities_List/mm_gatlinburg.png,,,,,,,,,,,,,,,,,,,,,,,,,,,,
null,,black_cross(without_color),410177,green,,,,,null,US_Cities_List/nat_cornwall.png,US_Cities_List/mm_gatlinburg.png,,,,,,,,,,,,,,,,,,,,,,,,,,,,
null,,rt_plussign_withcolor,410686,green,,,,,null,US_Cities_List/nat_cornwall.png,US_Cities_List/mm_gatlinburg.png,,,,,,,,,,,,,,,,,,,,,,,,,,,,
1628,,rt_thecrossant_black,411939,black_plus_sign,,,,,50,,,1,0.9672131147540983,,,,,,,,,,,,,,,,,,,,,,,,,,
null,,color_black,412045,black_plus_sign,,,,,null,,,,,,,,,,,,,,,,,,,,,,,,,,,,,,
null,,learn_phase(without_color),414604,black_plus_sign,,,,,null,US_Cities_List/nat_peoria.png,US_Cities_List/nat_boulder.png,,,,,,,,,,,,,,,,,,,,,,,,,,,,
null,,black_cross(without_color),415544,blue,,,,,null,US_Cities_List/nat_peoria.png,US_Cities_List/nat_boulder.png,,,,,,,,,,,,,,,,,,,,,,,,,,,,
314.40000000596046,,rt_plussign_withcolor,416051,blue,,,,,49,US_Cities_List/nat_peoria.png,US_Cities_List/nat_boulder.png,,,,,,,,,,,,,,,,,,,,,,,,,,,,
null,,rt_thecrossant_black,417131,black_plus_sign,,,,,null,,,1,0.967741935483871,,,,,,,,,,,,,,,,,,,,,,,,,,
null,,color_black,417235,black_plus_sign,,,,,null,,,,,,,,,,,,,,,,,,,,,,,,,,,,,,
null,,learn_phase(without_color),419787,black_plus_sign,,,,,null,US_Cities_List/nat_peoria.png,US_Cities_List/nat_racine.png,,,,,,,,,,,,,,,,,,,,,,,,,,,,
null,,black_cross(without_color),420875,green,,,,,null,US_Cities_List/nat_peoria.png,US_Cities_List/nat_racine.png,,,,,,,,,,,,,,,,,,,,,,,,,,,,
null,,rt_plussign_withcolor,421381,green,,,,,null,US_Cities_List/nat_peoria.png,US_Cities_List/nat_racine.png,,,,,,,,,,,,,,,,,,,,,,,,,,,,
1082.5,,rt_thecrossant_black,422309,black_plus_sign,,,,,50,,,1,0.9682539682539683,,,,,,,,,,,,,,,,,,,,,,,,,,
null,,color_black,422424,black_plus_sign,,,,,null,,,,,,,,,,,,,,,,,,,,,,,,,,,,,,
null,,learn_phase(without_color),424957,black_plus_sign,,,,,null,US_Cities_List/nat_cornwall.png,US_Cities_List/mm_gatlinburg.png,,,,,,,,,,,,,,,,,,,,,,,,,,,,
null,,black_cross(without_color),425417,green,,,,,null,US_Cities_List/nat_cornwall.png,US_Cities_List/mm_gatlinburg.png,,,,,,,,,,,,,,,,,,,,,,,,,,,,
null,,rt_plussign_withcolor,425923,green,,,,,null,US_Cities_List/nat_cornwall.png,US_Cities_List/mm_gatlinburg.png,,,,,,,,,,,,,,,,,,,,,,,,,,,,
1480.2000000029802,,rt_thecrossant_black,427479,black_plus_sign,,,,,50,,,1,0.96875,,,,,,,,,,,,,,,,,,,,,,,,,,
null,,color_black,427589,black_plus_sign,,,,,null,,,,,,,,,,,,,,,,,,,,,,,,,,,,,,
null,,learn_phase(without_color),430145,black_plus_sign,,,,,null,US_Cities_List/nat_racine.png,US_Cities_List/nat_leesburg.png,,,,,,,,,,,,,,,,,,,,,,,,,,,,
null,,black_cross(without_color),431046,blue,,,,,null,US_Cities_List/nat_racine.png,US_Cities_List/nat_leesburg.png,,,,,,,,,,,,,,,,,,,,,,,,,,,,
null,,rt_plussign_withcolor,431555,blue,,,,,null,US_Cities_List/nat_racine.png,US_Cities_List/nat_leesburg.png,,,,,,,,,,,,,,,,,,,,,,,,,,,,
814.7000000029802,,rt_thecrossant_black,432668,black_plus_sign,,,,,49,,,1,0.9692307692307692,,,,,,,,,,,,,,,,,,,,,,,,,,
null,,color_black,432779,black_plus_sign,,,,,null,,,,,,,,,,,,,,,,,,,,,,,,,,,,,,
null,,learn_phase(without_color),435333,black_plus_sign,,,,,null,US_Cities_List/nat_newhope.png,US_Cities_List/mm_carmel.png,,,,,,,,,,,,,,,,,,,,,,,,,,,,
null,,black_cross(without_color),435749,blue,,,,,null,US_Cities_List/nat_newhope.png,US_Cities_List/mm_carmel.png,,,,,,,,,,,,,,,,,,,,,,,,,,,,
null,,rt_plussign_withcolor,436252,blue,,,,,null,US_Cities_List/nat_newhope.png,US_Cities_List/mm_carmel.png,,,,,,,,,,,,,,,,,,,,,,,,,,,,
1351.7000000029802,,rt_thecrossant_black,437854,black_plus_sign,,,,,49,,,1,0.9696969696969697,,,,,,,,,,,,,,,,,,,,,,,,,,
null,,color_black,437968,black_plus_sign,,,,,null,,,,,,,,,,,,,,,,,,,,,,,,,,,,,,
null,,learn_phase(without_color),440507,black_plus_sign,,,,,null,US_Cities_List/mm_carmel.png,US_Cities_List/nat_cornwall.png,,,,,,,,,,,,,,,,,,,,,,,,,,,,
null,,black_cross(without_color),441229,green,,,,,null,US_Cities_List/mm_carmel.png,US_Cities_List/nat_cornwall.png,,,,,,,,,,,,,,,,,,,,,,,,,,,,
null,,rt_plussign_withcolor,441739,green,,,,,null,US_Cities_List/mm_carmel.png,US_Cities_List/nat_cornwall.png,,,,,,,,,,,,,,,,,,,,,,,,,,,,
678.0999999940395,,rt_thecrossant_black,443024,black_plus_sign,,,,,50,,,1,0.9701492537313433,,,,,,,,,,,,,,,,,,,,,,,,,,
null,,color_black,443142,black_plus_sign,,,,,null,,,,,,,,,,,,,,,,,,,,,,,,,,,,,,
null,,learn_phase(without_color),445698,black_plus_sign,,,,,null,US_Cities_List/nat_newhope.png,US_Cities_List/nat_shreveport.png,,,,,,,,,,,,,,,,,,,,,,,,,,,,
null,,black_cross(without_color),446159,blue,,,,,null,US_Cities_List/nat_newhope.png,US_Cities_List/nat_shreveport.png,,,,,,,,,,,,,,,,,,,,,,,,,,,,
null,,rt_plussign_withcolor,446666,blue,,,,,null,US_Cities_List/nat_newhope.png,US_Cities_List/nat_shreveport.png,,,,,,,,,,,,,,,,,,,,,,,,,,,,
1210.2000000029802,,rt_thecrossant_black,448213,black_plus_sign,,,,,49,,,1,0.9705882352941176,,,,,,,,,,,,,,,,,,,,,,,,,,
null,,color_black,448322,black_plus_sign,,,,,null,,,,,,,,,,,,,,,,,,,,,,,,,,,,,,
null,,learn_phase(without_color),450882,black_plus_sign,,,,,null,US_Cities_List/mm_hotsprings.png,US_Cities_List/nat_hanover.png,,,,,,,,,,,,,,,,,,,,,,,,,,,,
null,,black_cross(without_color),451860,green,,,,,null,US_Cities_List/mm_hotsprings.png,US_Cities_List/nat_hanover.png,,,,,,,,,,,,,,,,,,,,,,,,,,,,
null,,rt_plussign_withcolor,452377,green,,,,,null,US_Cities_List/mm_hotsprings.png,US_Cities_List/nat_hanover.png,,,,,,,,,,,,,,,,,,,,,,,,,,,,
659.9000000059605,,rt_thecrossant_black,453413,black_plus_sign,,,,,50,,,1,0.9710144927536232,,,,,,,,,,,,,,,,,,,,,,,,,,
null,,color_black,453531,black_plus_sign,,,,,null,,,,,,,,,,,,,,,,,,,,,,,,,,,,,,
null,,learn_phase(without_color),456088,black_plus_sign,,,,,null,US_Cities_List/nat_racine.png,US_Cities_List/nat_boulder.png,,,,,,,,,,,,,,,,,,,,,,,,,,,,
null,,black_cross(without_color),456776,blue,,,,,null,US_Cities_List/nat_racine.png,US_Cities_List/nat_boulder.png,,,,,,,,,,,,,,,,,,,,,,,,,,,,
null,,rt_plussign_withcolor,457281,blue,,,,,null,US_Cities_List/nat_racine.png,US_Cities_List/nat_boulder.png,,,,,,,,,,,,,,,,,,,,,,,,,,,,
1319.0999999940395,,rt_thecrossant_black,458611,black_plus_sign,,,,,49,,,1,0.9714285714285714,,,,,,,,,,,,,,,,,,,,,,,,,,
null,,color_black,458722,black_plus_sign,,,,,null,,,,,,,,,,,,,,,,,,,,,,,,,,,,,,
null,,learn_phase(without_color),461275,black_plus_sign,,,,,null,US_Cities_List/nat_boulder.png,US_Cities_List/nat_cornwall.png,,,,,,,,,,,,,,,,,,,,,,,,,,,,
null,,black_cross(without_color),462069,blue,,,,,null,US_Cities_List/nat_boulder.png,US_Cities_List/nat_cornwall.png,,,,,,,,,,,,,,,,,,,,,,,,,,,,
null,,rt_plussign_withcolor,462576,blue,,,,,null,US_Cities_List/nat_boulder.png,US_Cities_List/nat_cornwall.png,,,,,,,,,,,,,,,,,,,,,,,,,,,,
1048.5999999940395,,rt_thecrossant_black,463797,black_plus_sign,,,,,49,,,1,0.971830985915493,,,,,,,,,,,,,,,,,,,,,,,,,,
null,,color_black,463908,black_plus_sign,,,,,null,,,,,,,,,,,,,,,,,,,,,,,,,,,,,,
null,,learn_phase(without_color),466471,black_plus_sign,,,,,null,US_Cities_List/mm_hotsprings.png,US_Cities_List/nat_hanover.png,,,,,,,,,,,,,,,,,,,,,,,,,,,,
null,,black_cross(without_color),467321,blue,,,,,null,US_Cities_List/mm_hotsprings.png,US_Cities_List/nat_hanover.png,,,,,,,,,,,,,,,,,,,,,,,,,,,,
null,,rt_plussign_withcolor,467830,blue,,,,,null,US_Cities_List/mm_hotsprings.png,US_Cities_List/nat_hanover.png,,,,,,,,,,,,,,,,,,,,,,,,,,,,
1150.5,,rt_thecrossant_black,469005,black_plus_sign,,,,,49,,,1,0.9722222222222222,,,,,,,,,,,,,,,,,,,,,,,,,,
null,,color_black,469118,black_plus_sign,,,,,null,,,,,,,,,,,,,,,,,,,,,,,,,,,,,,
null,,learn_phase(without_color),471666,black_plus_sign,,,,,null,US_Cities_List/nat_peoria.png,US_Cities_List/nat_racine.png,,,,,,,,,,,,,,,,,,,,,,,,,,,,
null,,black_cross(without_color),472750,green,,,,,null,US_Cities_List/nat_peoria.png,US_Cities_List/nat_racine.png,,,,,,,,,,,,,,,,,,,,,,,,,,,,
null,,rt_plussign_withcolor,473267,green,,,,,null,US_Cities_List/nat_peoria.png,US_Cities_List/nat_racine.png,,,,,,,,,,,,,,,,,,,,,,,,,,,,
1048.5999999940395,,rt_thecrossant_black,474208,black_plus_sign,,,,,50,,,1,0.9726027397260274,,,,,,,,,,,,,,,,,,,,,,,,,,
null,,color_black,474318,black_plus_sign,,,,,null,,,,,,,,,,,,,,,,,,,,,,,,,,,,,,
null,,learn_phase(without_color),476886,black_plus_sign,,,,,null,US_Cities_List/nat_racine.png,US_Cities_List/nat_leesburg.png,,,,,,,,,,,,,,,,,,,,,,,,,,,,
null,,black_cross(without_color),477770,blue,,,,,null,US_Cities_List/nat_racine.png,US_Cities_List/nat_leesburg.png,,,,,,,,,,,,,,,,,,,,,,,,,,,,
null,,rt_plussign_withcolor,478273,blue,,,,,null,US_Cities_List/nat_racine.png,US_Cities_List/nat_leesburg.png,,,,,,,,,,,,,,,,,,,,,,,,,,,,
1392.0999999940395,,rt_thecrossant_black,479408,black_plus_sign,,,,,49,,,1,0.972972972972973,,,,,,,,,,,,,,,,,,,,,,,,,,
null,,color_black,479519,black_plus_sign,,,,,null,,,,,,,,,,,,,,,,,,,,,,,,,,,,,,
null,,learn_phase(without_color),482053,black_plus_sign,,,,,null,US_Cities_List/nat_cornwall.png,US_Cities_List/mm_gatlinburg.png,,,,,,,,,,,,,,,,,,,,,,,,,,,,
null,,black_cross(without_color),482956,blue,,,,,null,US_Cities_List/nat_cornwall.png,US_Cities_List/mm_gatlinburg.png,,,,,,,,,,,,,,,,,,,,,,,,,,,,
null,,rt_plussign_withcolor,483473,blue,,,,,null,US_Cities_List/nat_cornwall.png,US_Cities_List/mm_gatlinburg.png,,,,,,,,,,,,,,,,,,,,,,,,,,,,
1188.7000000029802,,rt_thecrossant_black,484594,black_plus_sign,,,,,49,,,1,0.9733333333333334,,,,,,,,,,,,,,,,,,,,,,,,,,
null,,color_black,484710,black_plus_sign,,,,,null,,,,,,,,,,,,,,,,,,,,,,,,,,,,,,
null,,learn_phase(without_color),487258,black_plus_sign,,,,,null,US_Cities_List/mm_huntsville.png,US_Cities_List/nat_newhope.png,,,,,,,,,,,,,,,,,,,,,,,,,,,,
null,,black_cross(without_color),487810,blue,,,,,null,US_Cities_List/mm_huntsville.png,US_Cities_List/nat_newhope.png,,,,,,,,,,,,,,,,,,,,,,,,,,,,
null,,rt_plussign_withcolor,488313,blue,,,,,null,US_Cities_List/mm_huntsville.png,US_Cities_List/nat_newhope.png,,,,,,,,,,,,,,,,,,,,,,,,,,,,
1175,,rt_thecrossant_black,489777,black_plus_sign,,,,,49,,,1,0.9736842105263158,,,,,,,,,,,,,,,,,,,,,,,,,,
null,,color_black,489887,black_plus_sign,,,,,null,,,,,,,,,,,,,,,,,,,,,,,,,,,,,,
null,,learn_phase(without_color),492439,black_plus_sign,,,,,null,US_Cities_List/nat_boulder.png,US_Cities_List/nat_cornwall.png,,,,,,,,,,,,,,,,,,,,,,,,,,,,
null,,black_cross(without_color),493416,green,,,,,null,US_Cities_List/nat_boulder.png,US_Cities_List/nat_cornwall.png,,,,,,,,,,,,,,,,,,,,,,,,,,,,
null,,rt_plussign_withcolor,493919,green,,,,,null,US_Cities_List/nat_boulder.png,US_Cities_List/nat_cornwall.png,,,,,,,,,,,,,,,,,,,,,,,,,,,,
863.2999999970198,,rt_thecrossant_black,494971,black_plus_sign,,,,,50,,,1,0.974025974025974,,,,,,,,,,,,,,,,,,,,,,,,,,
null,,color_black,495088,black_plus_sign,,,,,null,,,,,,,,,,,,,,,,,,,,,,,,,,,,,,
null,,learn_phase(without_color),497646,black_plus_sign,,,,,null,US_Cities_List/mm_hotsprings.png,US_Cities_List/nat_boulder.png,,,,,,,,,,,,,,,,,,,,,,,,,,,,
null,,black_cross(without_color),498727,green,,,,,null,US_Cities_List/mm_hotsprings.png,US_Cities_List/nat_boulder.png,,,,,,,,,,,,,,,,,,,,,,,,,,,,
null,,rt_plussign_withcolor,499236,green,,,,,null,US_Cities_List/mm_hotsprings.png,US_Cities_List/nat_boulder.png,,,,,,,,,,,,,,,,,,,,,,,,,,,,
1571.1000000089407,,rt_thecrossant_black,500178,black_plus_sign,,,,,50,,,1,0.9743589743589743,,,,,,,,,,,,,,,,,,,,,,,,,,
null,,color_black,500282,black_plus_sign,,,,,null,,,,,,,,,,,,,,,,,,,,,,,,,,,,,,
null,,learn_phase(without_color),502842,black_plus_sign,,,,,null,US_Cities_List/mm_huntsville.png,US_Cities_List/nat_newhope.png,,,,,,,,,,,,,,,,,,,,,,,,,,,,
null,,black_cross(without_color),503636,green,,,,,null,US_Cities_List/mm_huntsville.png,US_Cities_List/nat_newhope.png,,,,,,,,,,,,,,,,,,,,,,,,,,,,
null,,rt_plussign_withcolor,504139,green,,,,,null,US_Cities_List/mm_huntsville.png,US_Cities_List/nat_newhope.png,,,,,,,,,,,,,,,,,,,,,,,,,,,,
1333.4000000059605,,rt_thecrossant_black,505370,black_plus_sign,,,,,49,,,0,0.9620253164556962,,,,,,,,,,,,,,,,,,,,,,,,,,
null,,color_black,505485,black_plus_sign,,,,,null,,,,,,,,,,,,,,,,,,,,,,,,,,,,,,
null,,learn_phase(without_color),508049,black_plus_sign,,,,,null,US_Cities_List/mm_carmel.png,US_Cities_List/nat_cornwall.png,,,,,,,,,,,,,,,,,,,,,,,,,,,,
null,,black_cross(without_color),509019,green,,,,,null,US_Cities_List/mm_carmel.png,US_Cities_List/nat_cornwall.png,,,,,,,,,,,,,,,,,,,,,,,,,,,,
null,,rt_plussign_withcolor,509525,green,,,,,null,US_Cities_List/mm_carmel.png,US_Cities_List/nat_cornwall.png,,,,,,,,,,,,,,,,,,,,,,,,,,,,
null,,rt_thecrossant_black,510561,black_plus_sign,,,,,null,,,,0.9620253164556962,,,,,,,,,,,,,,,,,,,,,,,,,,
null,,warning_page,513568,warning,,,,,null,,,,,,,,,,,,,,,,,,,,,,,,,,,,,,
null,,color_black,513674,black_plus_sign,,,,,null,,,,,,,,,,,,,,,,,,,,,,,,,,,,,,
null,,learn_phase(without_color),516225,black_plus_sign,,,,,null,US_Cities_List/mm_hotsprings.png,US_Cities_List/nat_boulder.png,,,,,,,,,,,,,,,,,,,,,,,,,,,,
null,,black_cross(without_color),517025,blue,,,,,null,US_Cities_List/mm_hotsprings.png,US_Cities_List/nat_boulder.png,,,,,,,,,,,,,,,,,,,,,,,,,,,,
447.19999998807907,,rt_plussign_withcolor,517536,blue,,,,,49,US_Cities_List/mm_hotsprings.png,US_Cities_List/nat_boulder.png,,,,,,,,,,,,,,,,,,,,,,,,,,,,
null,,rt_thecrossant_black,518753,black_plus_sign,,,,,null,,,1,0.9625,,,,,,,,,,,,,,,,,,,,,,,,,,
null,,color_black,518869,black_plus_sign,,,,,null,,,,,,,,,,,,,,,,,,,,,,,,,,,,,,
null,,learn_phase(without_color),521428,black_plus_sign,,,,,null,US_Cities_List/nat_peoria.png,US_Cities_List/nat_boulder.png,,,,,,,,,,,,,,,,,,,,,,,,,,,,
null,,black_cross(without_color),522427,green,,,,,null,US_Cities_List/nat_peoria.png,US_Cities_List/nat_boulder.png,,,,,,,,,,,,,,,,,,,,,,,,,,,,
null,,rt_plussign_withcolor,522939,green,,,,,null,US_Cities_List/nat_peoria.png,US_Cities_List/nat_boulder.png,,,,,,,,,,,,,,,,,,,,,,,,,,,,
1026.3999999910593,,rt_thecrossant_black,523961,black_plus_sign,,,,,50,,,1,0.9629629629629629,,,,,,,,,,,,,,,,,,,,,,,,,,
null,,color_black,524071,black_plus_sign,,,,,null,,,,,,,,,,,,,,,,,,,,,,,,,,,,,,
null,,learn_phase(without_color),526633,black_plus_sign,,,,,null,US_Cities_List/nat_shreveport.png,US_Cities_List/mm_westpalmbeach.png,,,,,,,,,,,,,,,,,,,,,,,,,,,,
null,,black_cross(without_color),527079,green,,,,,null,US_Cities_List/nat_shreveport.png,US_Cities_List/mm_westpalmbeach.png,,,,,,,,,,,,,,,,,,,,,,,,,,,,
null,,rt_plussign_withcolor,527588,green,,,,,null,US_Cities_List/nat_shreveport.png,US_Cities_List/mm_westpalmbeach.png,,,,,,,,,,,,,,,,,,,,,,,,,,,,
1550.9000000059605,,rt_thecrossant_black,529158,black_plus_sign,,,,,50,,,1,0.9634146341463414,,,,,,,,,,,,,,,,,,,,,,,,,,
null,,color_black,529267,black_plus_sign,,,,,null,,,,,,,,,,,,,,,,,,,,,,,,,,,,,,
null,,learn_phase(without_color),531826,black_plus_sign,,,,,null,US_Cities_List/nat_newhope.png,US_Cities_List/nat_shreveport.png,,,,,,,,,,,,,,,,,,,,,,,,,,,,
null,,black_cross(without_color),532282,blue,,,,,null,US_Cities_List/nat_newhope.png,US_Cities_List/nat_shreveport.png,,,,,,,,,,,,,,,,,,,,,,,,,,,,
null,,rt_plussign_withcolor,532793,blue,,,,,null,US_Cities_List/nat_newhope.png,US_Cities_List/nat_shreveport.png,,,,,,,,,,,,,,,,,,,,,,,,,,,,
618.2999999970198,,rt_thecrossant_black,534352,black_plus_sign,,,,,49,,,1,0.963855421686747,,,,,,,,,,,,,,,,,,,,,,,,,,
null,,color_black,534467,black_plus_sign,,,,,null,,,,,,,,,,,,,,,,,,,,,,,,,,,,,,
null,,learn_phase(without_color),537021,black_plus_sign,,,,,null,US_Cities_List/mm_carmel.png,US_Cities_List/nat_peoria.png,,,,,,,,,,,,,,,,,,,,,,,,,,,,
null,,black_cross(without_color),537506,green,,,,,null,US_Cities_List/mm_carmel.png,US_Cities_List/nat_peoria.png,,,,,,,,,,,,,,,,,,,,,,,,,,,,
null,,rt_plussign_withcolor,538011,green,,,,,null,US_Cities_List/mm_carmel.png,US_Cities_List/nat_peoria.png,,,,,,,,,,,,,,,,,,,,,,,,,,,,
694.5999999940395,,rt_thecrossant_black,539533,black_plus_sign,,,,,50,,,1,0.9642857142857143,,,,,,,,,,,,,,,,,,,,,,,,,,
null,,color_black,539641,black_plus_sign,,,,,null,,,,,,,,,,,,,,,,,,,,,,,,,,,,,,
null,,learn_phase(without_color),542203,black_plus_sign,,,,,null,US_Cities_List/nat_peoria.png,US_Cities_List/nat_racine.png,,,,,,,,,,,,,,,,,,,,,,,,,,,,
null,,black_cross(without_color),543202,blue,,,,,null,US_Cities_List/nat_peoria.png,US_Cities_List/nat_racine.png,,,,,,,,,,,,,,,,,,,,,,,,,,,,
null,,rt_plussign_withcolor,543713,blue,,,,,null,US_Cities_List/nat_peoria.png,US_Cities_List/nat_racine.png,,,,,,,,,,,,,,,,,,,,,,,,,,,,
596.7999999970198,,rt_thecrossant_black,544738,black_plus_sign,,,,,49,,,1,0.9647058823529412,,,,,,,,,,,,,,,,,,,,,,,,,,
null,,color_black,544847,black_plus_sign,,,,,null,,,,,,,,,,,,,,,,,,,,,,,,,,,,,,
null,,learn_phase(without_color),547418,black_plus_sign,,,,,null,US_Cities_List/nat_racine.png,US_Cities_List/nat_boulder.png,,,,,,,,,,,,,,,,,,,,,,,,,,,,
null,,black_cross(without_color),548421,blue,,,,,null,US_Cities_List/nat_racine.png,US_Cities_List/nat_boulder.png,,,,,,,,,,,,,,,,,,,,,,,,,,,,
null,,rt_plussign_withcolor,548937,blue,,,,,null,US_Cities_List/nat_racine.png,US_Cities_List/nat_boulder.png,,,,,,,,,,,,,,,,,,,,,,,,,,,,
1197.3999999910593,,rt_thecrossant_black,549961,black_plus_sign,,,,,49,,,1,0.9651162790697675,,,,,,,,,,,,,,,,,,,,,,,,,,
null,,color_black,550072,black_plus_sign,,,,,null,,,,,,,,,,,,,,,,,,,,,,,,,,,,,,
null,,learn_phase(without_color),552627,black_plus_sign,,,,,null,US_Cities_List/mm_hotsprings.png,US_Cities_List/nat_boulder.png,,,,,,,,,,,,,,,,,,,,,,,,,,,,
null,,black_cross(without_color),553126,green,,,,,null,US_Cities_List/mm_hotsprings.png,US_Cities_List/nat_boulder.png,,,,,,,,,,,,,,,,,,,,,,,,,,,,
null,,rt_plussign_withcolor,553630,green,,,,,null,US_Cities_List/mm_hotsprings.png,US_Cities_List/nat_boulder.png,,,,,,,,,,,,,,,,,,,,,,,,,,,,
1240,,rt_thecrossant_black,555156,black_plus_sign,,,,,50,,,1,0.9655172413793104,,,,,,,,,,,,,,,,,,,,,,,,,,
null,,color_black,555258,black_plus_sign,,,,,null,,,,,,,,,,,,,,,,,,,,,,,,,,,,,,
null,,learn_phase(without_color),557818,black_plus_sign,,,,,null,US_Cities_List/nat_peoria.png,US_Cities_List/nat_racine.png,,,,,,,,,,,,,,,,,,,,,,,,,,,,
null,,black_cross(without_color),558417,green,,,,,null,US_Cities_List/nat_peoria.png,US_Cities_List/nat_racine.png,,,,,,,,,,,,,,,,,,,,,,,,,,,,
null,,rt_plussign_withcolor,558924,green,,,,,null,US_Cities_List/nat_peoria.png,US_Cities_List/nat_racine.png,,,,,,,,,,,,,,,,,,,,,,,,,,,,
735.8999999910593,,rt_thecrossant_black,560347,black_plus_sign,,,,,50,,,1,0.9659090909090909,,,,,,,,,,,,,,,,,,,,,,,,,,
null,,color_black,560450,black_plus_sign,,,,,null,,,,,,,,,,,,,,,,,,,,,,,,,,,,,,
null,,learn_phase(without_color),562997,black_plus_sign,,,,,null,US_Cities_List/mm_huntsville.png,US_Cities_List/nat_newhope.png,,,,,,,,,,,,,,,,,,,,,,,,,,,,
null,,black_cross(without_color),563926,blue,,,,,null,US_Cities_List/mm_huntsville.png,US_Cities_List/nat_newhope.png,,,,,,,,,,,,,,,,,,,,,,,,,,,,
null,,rt_plussign_withcolor,564433,blue,,,,,null,US_Cities_List/mm_huntsville.png,US_Cities_List/nat_newhope.png,,,,,,,,,,,,,,,,,,,,,,,,,,,,
1095.2999999970198,,rt_thecrossant_black,565519,black_plus_sign,,,,,49,,,1,0.9662921348314607,,,,,,,,,,,,,,,,,,,,,,,,,,
null,,color_black,565632,black_plus_sign,,,,,null,,,,,,,,,,,,,,,,,,,,,,,,,,,,,,
null,,learn_phase(without_color),568177,black_plus_sign,,,,,null,US_Cities_List/mm_hotsprings.png,US_Cities_List/nat_hanover.png,,,,,,,,,,,,,,,,,,,,,,,,,,,,
null,,black_cross(without_color),569258,blue,,,,,null,US_Cities_List/mm_hotsprings.png,US_Cities_List/nat_hanover.png,,,,,,,,,,,,,,,,,,,,,,,,,,,,
null,,rt_plussign_withcolor,569774,blue,,,,,null,US_Cities_List/mm_hotsprings.png,US_Cities_List/nat_hanover.png,,,,,,,,,,,,,,,,,,,,,,,,,,,,
1136.3999999910593,,rt_thecrossant_black,570716,black_plus_sign,,,,,49,,,1,0.9666666666666667,,,,,,,,,,,,,,,,,,,,,,,,,,
null,,color_black,570824,black_plus_sign,,,,,null,,,,,,,,,,,,,,,,,,,,,,,,,,,,,,
null,,learn_phase(without_color),573378,black_plus_sign,,,,,null,US_Cities_List/nat_racine.png,US_Cities_List/nat_boulder.png,,,,,,,,,,,,,,,,,,,,,,,,,,,,
null,,black_cross(without_color),573893,blue,,,,,null,US_Cities_List/nat_racine.png,US_Cities_List/nat_boulder.png,,,,,,,,,,,,,,,,,,,,,,,,,,,,
null,,rt_plussign_withcolor,574409,blue,,,,,null,US_Cities_List/nat_racine.png,US_Cities_List/nat_boulder.png,,,,,,,,,,,,,,,,,,,,,,,,,,,,
1218.800000011921,,rt_thecrossant_black,575905,black_plus_sign,,,,,49,,,1,0.967032967032967,,,,,,,,,,,,,,,,,,,,,,,,,,
null,,color_black,576022,black_plus_sign,,,,,null,,,,,,,,,,,,,,,,,,,,,,,,,,,,,,
null,,learn_phase(without_color),578586,black_plus_sign,,,,,null,US_Cities_List/mm_huntsville.png,US_Cities_List/nat_newhope.png,,,,,,,,,,,,,,,,,,,,,,,,,,,,
null,,black_cross(without_color),579168,green,,,,,null,US_Cities_List/mm_huntsville.png,US_Cities_List/nat_newhope.png,,,,,,,,,,,,,,,,,,,,,,,,,,,,
null,,rt_plussign_withcolor,579675,green,,,,,null,US_Cities_List/mm_huntsville.png,US_Cities_List/nat_newhope.png,,,,,,,,,,,,,,,,,,,,,,,,,,,,
696.7999999970198,,rt_thecrossant_black,581111,black_plus_sign,,,,,50,,,1,0.967391304347826,,,,,,,,,,,,,,,,,,,,,,,,,,
null,,color_black,581215,black_plus_sign,,,,,null,,,,,,,,,,,,,,,,,,,,,,,,,,,,,,
null,,learn_phase(without_color),583773,black_plus_sign,,,,,null,US_Cities_List/nat_racine.png,US_Cities_List/nat_leesburg.png,,,,,,,,,,,,,,,,,,,,,,,,,,,,
null,,black_cross(without_color),584695,blue,,,,,null,US_Cities_List/nat_racine.png,US_Cities_List/nat_leesburg.png,,,,,,,,,,,,,,,,,,,,,,,,,,,,
null,,rt_plussign_withcolor,585201,blue,,,,,null,US_Cities_List/nat_racine.png,US_Cities_List/nat_leesburg.png,,,,,,,,,,,,,,,,,,,,,,,,,,,,
887.2000000029802,,rt_thecrossant_black,586288,black_plus_sign,,,,,49,,,1,0.967741935483871,,,,,,,,,,,,,,,,,,,,,,,,,,
null,,color_black,586392,black_plus_sign,,,,,null,,,,,,,,,,,,,,,,,,,,,,,,,,,,,,
null,,learn_phase(without_color),588951,black_plus_sign,,,,,null,US_Cities_List/nat_cornwall.png,US_Cities_List/mm_gatlinburg.png,,,,,,,,,,,,,,,,,,,,,,,,,,,,
null,,black_cross(without_color),590033,green,,,,,null,US_Cities_List/nat_cornwall.png,US_Cities_List/mm_gatlinburg.png,,,,,,,,,,,,,,,,,,,,,,,,,,,,
472.79999999701977,,rt_plussign_withcolor,590536,green,,,,,50,US_Cities_List/nat_cornwall.png,US_Cities_List/mm_gatlinburg.png,,,,,,,,,,,,,,,,,,,,,,,,,,,,
null,,rt_thecrossant_black,591471,black_plus_sign,,,,,null,,,1,0.9680851063829787,,,,,,,,,,,,,,,,,,,,,,,,,,
null,,color_black,591585,black_plus_sign,,,,,null,,,,,,,,,,,,,,,,,,,,,,,,,,,,,,
null,,learn_phase(without_color),594134,black_plus_sign,,,,,null,US_Cities_List/nat_racine.png,US_Cities_List/nat_leesburg.png,,,,,,,,,,,,,,,,,,,,,,,,,,,,
null,,black_cross(without_color),594708,green,,,,,null,US_Cities_List/nat_racine.png,US_Cities_List/nat_leesburg.png,,,,,,,,,,,,,,,,,,,,,,,,,,,,
null,,rt_plussign_withcolor,595220,green,,,,,null,US_Cities_List/nat_racine.png,US_Cities_List/nat_leesburg.png,,,,,,,,,,,,,,,,,,,,,,,,,,,,
2534.2000000029802,,rt_thecrossant_black,596659,black_plus_sign,,,,,50,,,1,0.968421052631579,,,,,,,,,,,,,,,,,,,,,,,,,,
null,,color_black,596769,black_plus_sign,,,,,null,,,,,,,,,,,,,,,,,,,,,,,,,,,,,,
null,,learn_phase(without_color),599327,black_plus_sign,,,,,null,US_Cities_List/nat_newhope.png,US_Cities_List/nat_shreveport.png,,,,,,,,,,,,,,,,,,,,,,,,,,,,
null,,black_cross(without_color),599778,blue,,,,,null,US_Cities_List/nat_newhope.png,US_Cities_List/nat_shreveport.png,,,,,,,,,,,,,,,,,,,,,,,,,,,,
null,,rt_plussign_withcolor,600292,blue,,,,,null,US_Cities_List/nat_newhope.png,US_Cities_List/nat_shreveport.png,,,,,,,,,,,,,,,,,,,,,,,,,,,,
752.2999999970198,,rt_thecrossant_black,601864,black_plus_sign,,,,,49,,,1,0.96875,,,,,,,,,,,,,,,,,,,,,,,,,,
null,,color_black,601971,black_plus_sign,,,,,null,,,,,,,,,,,,,,,,,,,,,,,,,,,,,,
null,,learn_phase(without_color),604537,black_plus_sign,,,,,null,US_Cities_List/nat_newhope.png,US_Cities_List/mm_carmel.png,,,,,,,,,,,,,,,,,,,,,,,,,,,,
null,,black_cross(without_color),605602,green,,,,,null,US_Cities_List/nat_newhope.png,US_Cities_List/mm_carmel.png,,,,,,,,,,,,,,,,,,,,,,,,,,,,
null,,rt_plussign_withcolor,606107,green,,,,,null,US_Cities_List/nat_newhope.png,US_Cities_List/mm_carmel.png,,,,,,,,,,,,,,,,,,,,,,,,,,,,
700.0999999940395,,rt_thecrossant_black,607068,black_plus_sign,,,,,50,,,1,0.9690721649484536,,,,,,,,,,,,,,,,,,,,,,,,,,
null,,color_black,607175,black_plus_sign,,,,,null,,,,,,,,,,,,,,,,,,,,,,,,,,,,,,
null,,learn_phase(without_color),609738,black_plus_sign,,,,,null,US_Cities_List/nat_racine.png,US_Cities_List/mm_hotsprings.png,,,,,,,,,,,,,,,,,,,,,,,,,,,,
null,,black_cross(without_color),610165,blue,,,,,null,US_Cities_List/nat_racine.png,US_Cities_List/mm_hotsprings.png,,,,,,,,,,,,,,,,,,,,,,,,,,,,
null,,rt_plussign_withcolor,610678,blue,,,,,null,US_Cities_List/nat_racine.png,US_Cities_List/mm_hotsprings.png,,,,,,,,,,,,,,,,,,,,,,,,,,,,
1344.4000000059605,,rt_thecrossant_black,612269,black_plus_sign,,,,,49,,,1,0.9693877551020408,,,,,,,,,,,,,,,,,,,,,,,,,,
null,,color_black,612376,black_plus_sign,,,,,null,,,,,,,,,,,,,,,,,,,,,,,,,,,,,,
null,,learn_phase(without_color),614909,black_plus_sign,,,,,null,US_Cities_List/nat_newhope.png,US_Cities_List/mm_carmel.png,,,,,,,,,,,,,,,,,,,,,,,,,,,,
null,,black_cross(without_color),615577,green,,,,,null,US_Cities_List/nat_newhope.png,US_Cities_List/mm_carmel.png,,,,,,,,,,,,,,,,,,,,,,,,,,,,
null,,rt_plussign_withcolor,616079,green,,,,,null,US_Cities_List/nat_newhope.png,US_Cities_List/mm_carmel.png,,,,,,,,,,,,,,,,,,,,,,,,,,,,
850.5,,rt_thecrossant_black,617435,black_plus_sign,,,,,50,,,1,0.9696969696969697,,,,,,,,,,,,,,,,,,,,,,,,,,
null,,color_black,617552,black_plus_sign,,,,,null,,,,,,,,,,,,,,,,,,,,,,,,,,,,,,
null,,learn_phase(without_color),620096,black_plus_sign,,,,,null,US_Cities_List/nat_peoria.png,US_Cities_List/nat_boulder.png,,,,,,,,,,,,,,,,,,,,,,,,,,,,
null,,black_cross(without_color),621036,green,,,,,null,US_Cities_List/nat_peoria.png,US_Cities_List/nat_boulder.png,,,,,,,,,,,,,,,,,,,,,,,,,,,,
null,,rt_plussign_withcolor,621542,green,,,,,null,US_Cities_List/nat_peoria.png,US_Cities_List/nat_boulder.png,,,,,,,,,,,,,,,,,,,,,,,,,,,,
1003.8000000119209,,rt_thecrossant_black,622619,black_plus_sign,,,,,50,,,1,0.97,,,,,,,,,,,,,,,,,,,,,,,,,,
null,,color_black,622721,black_plus_sign,,,,,null,,,,,,,,,,,,,,,,,,,,,,,,,,,,,,
null,,learn_phase(without_color),625269,black_plus_sign,,,,,null,US_Cities_List/nat_racine.png,US_Cities_List/nat_boulder.png,,,,,,,,,,,,,,,,,,,,,,,,,,,,
null,,black_cross(without_color),626325,green,,,,,null,US_Cities_List/nat_racine.png,US_Cities_List/nat_boulder.png,,,,,,,,,,,,,,,,,,,,,,,,,,,,
null,,rt_plussign_withcolor,626828,green,,,,,null,US_Cities_List/nat_racine.png,US_Cities_List/nat_boulder.png,,,,,,,,,,,,,,,,,,,,,,,,,,,,
1110.3999999910593,,rt_thecrossant_black,627789,black_plus_sign,,,,,50,,,1,0.9702970297029703,,,,,,,,,,,,,,,,,,,,,,,,,,
null,,color_black,627900,black_plus_sign,,,,,null,,,,,,,,,,,,,,,,,,,,,,,,,,,,,,
null,,learn_phase(without_color),630450,black_plus_sign,,,,,null,US_Cities_List/mm_hotsprings.png,US_Cities_List/nat_hanover.png,,,,,,,,,,,,,,,,,,,,,,,,,,,,
null,,black_cross(without_color),631550,green,,,,,null,US_Cities_List/mm_hotsprings.png,US_Cities_List/nat_hanover.png,,,,,,,,,,,,,,,,,,,,,,,,,,,,
null,,rt_plussign_withcolor,632062,green,,,,,null,US_Cities_List/mm_hotsprings.png,US_Cities_List/nat_hanover.png,,,,,,,,,,,,,,,,,,,,,,,,,,,,
1338.6000000089407,,rt_thecrossant_black,632972,black_plus_sign,,,,,50,,,1,0.9705882352941176,,,,,,,,,,,,,,,,,,,,,,,,,,
null,,color_black,633080,black_plus_sign,,,,,null,,,,,,,,,,,,,,,,,,,,,,,,,,,,,,
null,,learn_phase(without_color),635634,black_plus_sign,,,,,null,US_Cities_List/nat_peoria.png,US_Cities_List/nat_racine.png,,,,,,,,,,,,,,,,,,,,,,,,,,,,
null,,black_cross(without_color),636522,green,,,,,null,US_Cities_List/nat_peoria.png,US_Cities_List/nat_racine.png,,,,,,,,,,,,,,,,,,,,,,,,,,,,
null,,rt_plussign_withcolor,637028,green,,,,,null,US_Cities_List/nat_peoria.png,US_Cities_List/nat_racine.png,,,,,,,,,,,,,,,,,,,,,,,,,,,,
1284.4000000059605,,rt_thecrossant_black,638152,black_plus_sign,,,,,50,,,1,0.970873786407767,,,,,,,,,,,,,,,,,,,,,,,,,,
null,,color_black,638256,black_plus_sign,,,,,null,,,,,,,,,,,,,,,,,,,,,,,,,,,,,,
null,,learn_phase(without_color),640818,black_plus_sign,,,,,null,US_Cities_List/nat_racine.png,US_Cities_List/nat_boulder.png,,,,,,,,,,,,,,,,,,,,,,,,,,,,
null,,black_cross(without_color),641616,green,,,,,null,US_Cities_List/nat_racine.png,US_Cities_List/nat_boulder.png,,,,,,,,,,,,,,,,,,,,,,,,,,,,
null,,rt_plussign_withcolor,642131,green,,,,,null,US_Cities_List/nat_racine.png,US_Cities_List/nat_boulder.png,,,,,,,,,,,,,,,,,,,,,,,,,,,,
995.5,,rt_thecrossant_black,643355,black_plus_sign,,,,,50,,,1,0.9711538461538461,,,,,,,,,,,,,,,,,,,,,,,,,,
null,,color_black,643472,black_plus_sign,,,,,null,,,,,,,,,,,,,,,,,,,,,,,,,,,,,,
null,,learn_phase(without_color),646031,black_plus_sign,,,,,null,US_Cities_List/mm_huntsville.png,US_Cities_List/nat_newhope.png,,,,,,,,,,,,,,,,,,,,,,,,,,,,
null,,black_cross(without_color),646573,blue,,,,,null,US_Cities_List/mm_huntsville.png,US_Cities_List/nat_newhope.png,,,,,,,,,,,,,,,,,,,,,,,,,,,,
null,,rt_plussign_withcolor,647082,blue,,,,,null,US_Cities_List/mm_huntsville.png,US_Cities_List/nat_newhope.png,,,,,,,,,,,,,,,,,,,,,,,,,,,,
1029.0999999940395,,rt_thecrossant_black,648556,black_plus_sign,,,,,49,,,1,0.9714285714285714,,,,,,,,,,,,,,,,,,,,,,,,,,
null,,color_black,648672,black_plus_sign,,,,,null,,,,,,,,,,,,,,,,,,,,,,,,,,,,,,
null,,learn_phase(without_color),651225,black_plus_sign,,,,,null,US_Cities_List/mm_carmel.png,US_Cities_List/nat_peoria.png,,,,,,,,,,,,,,,,,,,,,,,,,,,,
null,,black_cross(without_color),651707,blue,,,,,null,US_Cities_List/mm_carmel.png,US_Cities_List/nat_peoria.png,,,,,,,,,,,,,,,,,,,,,,,,,,,,
null,,rt_plussign_withcolor,652212,blue,,,,,null,US_Cities_List/mm_carmel.png,US_Cities_List/nat_peoria.png,,,,,,,,,,,,,,,,,,,,,,,,,,,,
651.0999999940395,,rt_thecrossant_black,653742,black_plus_sign,,,,,49,,,1,0.9716981132075472,,,,,,,,,,,,,,,,,,,,,,,,,,
null,,color_black,653851,black_plus_sign,,,,,null,,,,,,,,,,,,,,,,,,,,,,,,,,,,,,
null,,learn_phase(without_color),656411,black_plus_sign,,,,,null,US_Cities_List/nat_boulder.png,US_Cities_List/nat_cornwall.png,,,,,,,,,,,,,,,,,,,,,,,,,,,,
null,,black_cross(without_color),657351,blue,,,,,null,US_Cities_List/nat_boulder.png,US_Cities_List/nat_cornwall.png,,,,,,,,,,,,,,,,,,,,,,,,,,,,
null,,rt_plussign_withcolor,657862,blue,,,,,null,US_Cities_List/nat_boulder.png,US_Cities_List/nat_cornwall.png,,,,,,,,,,,,,,,,,,,,,,,,,,,,
640.0999999940395,,rt_thecrossant_black,658934,black_plus_sign,,,,,49,,,1,0.9719626168224299,,,,,,,,,,,,,,,,,,,,,,,,,,
null,,color_black,659051,black_plus_sign,,,,,null,,,,,,,,,,,,,,,,,,,,,,,,,,,,,,
null,,learn_phase(without_color),661611,black_plus_sign,,,,,null,US_Cities_List/nat_shreveport.png,US_Cities_List/mm_westpalmbeach.png,,,,,,,,,,,,,,,,,,,,,,,,,,,,
null,,black_cross(without_color),662362,green,,,,,null,US_Cities_List/nat_shreveport.png,US_Cities_List/mm_westpalmbeach.png,,,,,,,,,,,,,,,,,,,,,,,,,,,,
null,,rt_plussign_withcolor,662875,green,,,,,null,US_Cities_List/nat_shreveport.png,US_Cities_List/mm_westpalmbeach.png,,,,,,,,,,,,,,,,,,,,,,,,,,,,
1155.7000000029802,,rt_thecrossant_black,664140,black_plus_sign,,,,,50,,,1,0.9722222222222222,,,,,,,,,,,,,,,,,,,,,,,,,,
null,,color_black,664257,black_plus_sign,,,,,null,,,,,,,,,,,,,,,,,,,,,,,,,,,,,,
null,,learn_phase(without_color),666820,black_plus_sign,,,,,null,US_Cities_List/mm_carmel.png,US_Cities_List/nat_peoria.png,,,,,,,,,,,,,,,,,,,,,,,,,,,,
null,,black_cross(without_color),667660,blue,,,,,null,US_Cities_List/mm_carmel.png,US_Cities_List/nat_peoria.png,,,,,,,,,,,,,,,,,,,,,,,,,,,,
null,,rt_plussign_withcolor,668169,blue,,,,,null,US_Cities_List/mm_carmel.png,US_Cities_List/nat_peoria.png,,,,,,,,,,,,,,,,,,,,,,,,,,,,
1044.4000000059605,,rt_thecrossant_black,669336,black_plus_sign,,,,,49,,,1,0.9724770642201835,,,,,,,,,,,,,,,,,,,,,,,,,,
null,,color_black,669445,black_plus_sign,,,,,null,,,,,,,,,,,,,,,,,,,,,,,,,,,,,,
null,,learn_phase(without_color),672001,black_plus_sign,,,,,null,US_Cities_List/nat_shreveport.png,US_Cities_List/mm_gatlinburg.png,,,,,,,,,,,,,,,,,,,,,,,,,,,,
null,,black_cross(without_color),672497,green,,,,,null,US_Cities_List/nat_shreveport.png,US_Cities_List/mm_gatlinburg.png,,,,,,,,,,,,,,,,,,,,,,,,,,,,
null,,rt_plussign_withcolor,673009,green,,,,,null,US_Cities_List/nat_shreveport.png,US_Cities_List/mm_gatlinburg.png,,,,,,,,,,,,,,,,,,,,,,,,,,,,
1085,,rt_thecrossant_black,674532,black_plus_sign,,,,,50,,,1,0.9727272727272728,,,,,,,,,,,,,,,,,,,,,,,,,,
null,,color_black,674650,black_plus_sign,,,,,null,,,,,,,,,,,,,,,,,,,,,,,,,,,,,,
null,,learn_phase(without_color),677207,black_plus_sign,,,,,null,US_Cities_List/nat_cornwall.png,US_Cities_List/mm_gatlinburg.png,,,,,,,,,,,,,,,,,,,,,,,,,,,,
null,,black_cross(without_color),677917,blue,,,,,null,US_Cities_List/nat_cornwall.png,US_Cities_List/mm_gatlinburg.png,,,,,,,,,,,,,,,,,,,,,,,,,,,,
504.1000000089407,,rt_plussign_withcolor,678424,blue,,,,,49,US_Cities_List/nat_cornwall.png,US_Cities_List/mm_gatlinburg.png,,,,,,,,,,,,,,,,,,,,,,,,,,,,
null,,rt_thecrossant_black,679736,black_plus_sign,,,,,null,,,1,0.972972972972973,,,,,,,,,,,,,,,,,,,,,,,,,,
null,,color_black,679844,black_plus_sign,,,,,null,,,,,,,,,,,,,,,,,,,,,,,,,,,,,,
null,,learn_phase(without_color),682408,black_plus_sign,,,,,null,US_Cities_List/mm_carmel.png,US_Cities_List/nat_peoria.png,,,,,,,,,,,,,,,,,,,,,,,,,,,,
null,,black_cross(without_color),683342,blue,,,,,null,US_Cities_List/mm_carmel.png,US_Cities_List/nat_peoria.png,,,,,,,,,,,,,,,,,,,,,,,,,,,,
null,,rt_plussign_withcolor,683847,blue,,,,,null,US_Cities_List/mm_carmel.png,US_Cities_List/nat_peoria.png,,,,,,,,,,,,,,,,,,,,,,,,,,,,
930,,rt_thecrossant_black,684936,black_plus_sign,,,,,49,,,1,0.9732142857142857,,,,,,,,,,,,,,,,,,,,,,,,,,
null,,color_black,685043,black_plus_sign,,,,,null,,,,,,,,,,,,,,,,,,,,,,,,,,,,,,
null,,learn_phase(without_color),687574,black_plus_sign,,,,,null,US_Cities_List/nat_boulder.png,US_Cities_List/nat_cornwall.png,,,,,,,,,,,,,,,,,,,,,,,,,,,,
null,,black_cross(without_color),688558,green,,,,,null,US_Cities_List/nat_boulder.png,US_Cities_List/nat_cornwall.png,,,,,,,,,,,,,,,,,,,,,,,,,,,,
null,,rt_plussign_withcolor,689075,green,,,,,null,US_Cities_List/nat_boulder.png,US_Cities_List/nat_cornwall.png,,,,,,,,,,,,,,,,,,,,,,,,,,,,
1131.1000000089407,,rt_thecrossant_black,690101,black_plus_sign,,,,,50,,,1,0.9734513274336283,,,,,,,,,,,,,,,,,,,,,,,,,,
null,,color_black,690218,black_plus_sign,,,,,null,,,,,,,,,,,,,,,,,,,,,,,,,,,,,,
null,,learn_phase(without_color),692769,black_plus_sign,,,,,null,US_Cities_List/mm_carmel.png,US_Cities_List/nat_peoria.png,,,,,,,,,,,,,,,,,,,,,,,,,,,,
null,,black_cross(without_color),693816,blue,,,,,null,US_Cities_List/mm_carmel.png,US_Cities_List/nat_peoria.png,,,,,,,,,,,,,,,,,,,,,,,,,,,,
null,,rt_plussign_withcolor,694332,blue,,,,,null,US_Cities_List/mm_carmel.png,US_Cities_List/nat_peoria.png,,,,,,,,,,,,,,,,,,,,,,,,,,,,
1169.7000000029802,,rt_thecrossant_black,695297,black_plus_sign,,,,,49,,,1,0.9736842105263158,,,,,,,,,,,,,,,,,,,,,,,,,,
null,,color_black,695405,black_plus_sign,,,,,null,,,,,,,,,,,,,,,,,,,,,,,,,,,,,,
null,,learn_phase(without_color),697959,black_plus_sign,,,,,null,US_Cities_List/nat_newhope.png,US_Cities_List/nat_shreveport.png,,,,,,,,,,,,,,,,,,,,,,,,,,,,
null,,black_cross(without_color),698891,green,,,,,null,US_Cities_List/nat_newhope.png,US_Cities_List/nat_shreveport.png,,,,,,,,,,,,,,,,,,,,,,,,,,,,
null,,rt_plussign_withcolor,699395,green,,,,,null,US_Cities_List/nat_newhope.png,US_Cities_List/nat_shreveport.png,,,,,,,,,,,,,,,,,,,,,,,,,,,,
1367.5999999940395,,rt_thecrossant_black,700481,black_plus_sign,,,,,50,,,1,0.9739130434782609,,,,,,,,,,,,,,,,,,,,,,,,,,
null,,color_black,700586,black_plus_sign,,,,,null,,,,,,,,,,,,,,,,,,,,,,,,,,,,,,
null,,learn_phase(without_color),703151,black_plus_sign,,,,,null,US_Cities_List/mm_carmel.png,US_Cities_List/nat_peoria.png,,,,,,,,,,,,,,,,,,,,,,,,,,,,
null,,black_cross(without_color),703842,green,,,,,null,US_Cities_List/mm_carmel.png,US_Cities_List/nat_peoria.png,,,,,,,,,,,,,,,,,,,,,,,,,,,,
null,,rt_plussign_withcolor,704344,green,,,,,null,US_Cities_List/mm_carmel.png,US_Cities_List/nat_peoria.png,,,,,,,,,,,,,,,,,,,,,,,,,,,,
1207.2999999970198,,rt_thecrossant_black,705673,black_plus_sign,,,,,50,,,1,0.9741379310344828,,,,,,,,,,,,,,,,,,,,,,,,,,
null,,color_black,705789,black_plus_sign,,,,,null,,,,,,,,,,,,,,,,,,,,,,,,,,,,,,
null,,learn_phase(without_color),708340,black_plus_sign,,,,,null,US_Cities_List/nat_shreveport.png,US_Cities_List/mm_gatlinburg.png,,,,,,,,,,,,,,,,,,,,,,,,,,,,
null,,black_cross(without_color),709228,green,,,,,null,US_Cities_List/nat_shreveport.png,US_Cities_List/mm_gatlinburg.png,,,,,,,,,,,,,,,,,,,,,,,,,,,,
null,,rt_plussign_withcolor,709739,green,,,,,null,US_Cities_List/nat_shreveport.png,US_Cities_List/mm_gatlinburg.png,,,,,,,,,,,,,,,,,,,,,,,,,,,,
1320.0999999940395,,rt_thecrossant_black,710865,black_plus_sign,,,,,50,,,1,0.9743589743589743,,,,,,,,,,,,,,,,,,,,,,,,,,
null,,color_black,710978,black_plus_sign,,,,,null,,,,,,,,,,,,,,,,,,,,,,,,,,,,,,
null,,learn_phase(without_color),713535,black_plus_sign,,,,,null,US_Cities_List/nat_shreveport.png,US_Cities_List/mm_westpalmbeach.png,,,,,,,,,,,,,,,,,,,,,,,,,,,,
null,,black_cross(without_color),714246,blue,,,,,null,US_Cities_List/nat_shreveport.png,US_Cities_List/mm_westpalmbeach.png,,,,,,,,,,,,,,,,,,,,,,,,,,,,
null,,rt_plussign_withcolor,714749,blue,,,,,null,US_Cities_List/nat_shreveport.png,US_Cities_List/mm_westpalmbeach.png,,,,,,,,,,,,,,,,,,,,,,,,,,,,
1181.699999988079,,rt_thecrossant_black,716047,black_plus_sign,,,,,49,,,1,0.9745762711864406,,,,,,,,,,,,,,,,,,,,,,,,,,
null,,color_black,716165,black_plus_sign,,,,,null,,,,,,,,,,,,,,,,,,,,,,,,,,,,,,
null,,learn_phase(without_color),718730,black_plus_sign,,,,,null,US_Cities_List/nat_peoria.png,US_Cities_List/nat_racine.png,,,,,,,,,,,,,,,,,,,,,,,,,,,,
null,,black_cross(without_color),719380,blue,,,,,null,US_Cities_List/nat_peoria.png,US_Cities_List/nat_racine.png,,,,,,,,,,,,,,,,,,,,,,,,,,,,
null,,rt_plussign_withcolor,719893,blue,,,,,null,US_Cities_List/nat_peoria.png,US_Cities_List/nat_racine.png,,,,,,,,,,,,,,,,,,,,,,,,,,,,
961.2999999970198,,rt_thecrossant_black,721273,black_plus_sign,,,,,49,,,1,0.9747899159663865,,,,,,,,,,,,,,,,,,,,,,,,,,
null,,color_black,721382,black_plus_sign,,,,,null,,,,,,,,,,,,,,,,,,,,,,,,,,,,,,
null,,learn_phase(without_color),723942,black_plus_sign,,,,,null,US_Cities_List/nat_racine.png,US_Cities_List/nat_boulder.png,,,,,,,,,,,,,,,,,,,,,,,,,,,,
null,,black_cross(without_color),724609,blue,,,,,null,US_Cities_List/nat_racine.png,US_Cities_List/nat_boulder.png,,,,,,,,,,,,,,,,,,,,,,,,,,,,
null,,rt_plussign_withcolor,725118,blue,,,,,null,US_Cities_List/nat_racine.png,US_Cities_List/nat_boulder.png,,,,,,,,,,,,,,,,,,,,,,,,,,,,
804.2000000029802,,rt_thecrossant_black,726476,black_plus_sign,,,,,49,,,1,0.975,,,,,,,,,,,,,,,,,,,,,,,,,,
null,,color_black,726579,black_plus_sign,,,,,null,,,,,,,,,,,,,,,,,,,,,,,,,,,,,,
null,,learn_phase(without_color),729113,black_plus_sign,,,,,null,US_Cities_List/mm_carmel.png,US_Cities_List/nat_peoria.png,,,,,,,,,,,,,,,,,,,,,,,,,,,,
null,,black_cross(without_color),729650,blue,,,,,null,US_Cities_List/mm_carmel.png,US_Cities_List/nat_peoria.png,,,,,,,,,,,,,,,,,,,,,,,,,,,,
null,,rt_plussign_withcolor,730165,blue,,,,,null,US_Cities_List/mm_carmel.png,US_Cities_List/nat_peoria.png,,,,,,,,,,,,,,,,,,,,,,,,,,,,
915.2999999970198,,rt_thecrossant_black,731641,black_plus_sign,,,,,49,,,1,0.9752066115702479,,,,,,,,,,,,,,,,,,,,,,,,,,
null,,color_black,731752,black_plus_sign,,,,,null,,,,,,,,,,,,,,,,,,,,,,,,,,,,,,
null,,learn_phase(without_color),734298,black_plus_sign,,,,,null,US_Cities_List/nat_racine.png,US_Cities_List/nat_leesburg.png,,,,,,,,,,,,,,,,,,,,,,,,,,,,
null,,black_cross(without_color),735084,blue,,,,,null,US_Cities_List/nat_racine.png,US_Cities_List/nat_leesburg.png,,,,,,,,,,,,,,,,,,,,,,,,,,,,
null,,rt_plussign_withcolor,735596,blue,,,,,null,US_Cities_List/nat_racine.png,US_Cities_List/nat_leesburg.png,,,,,,,,,,,,,,,,,,,,,,,,,,,,
687.5999999940395,,rt_thecrossant_black,736825,black_plus_sign,,,,,49,,,1,0.9754098360655737,,,,,,,,,,,,,,,,,,,,,,,,,,
null,,color_black,736939,black_plus_sign,,,,,null,,,,,,,,,,,,,,,,,,,,,,,,,,,,,,
null,,learn_phase(without_color),739476,black_plus_sign,,,,,null,US_Cities_List/mm_carmel.png,US_Cities_List/nat_peoria.png,,,,,,,,,,,,,,,,,,,,,,,,,,,,
null,,black_cross(without_color),740214,blue,,,,,null,US_Cities_List/mm_carmel.png,US_Cities_List/nat_peoria.png,,,,,,,,,,,,,,,,,,,,,,,,,,,,
null,,rt_plussign_withcolor,740718,blue,,,,,null,US_Cities_List/mm_carmel.png,US_Cities_List/nat_peoria.png,,,,,,,,,,,,,,,,,,,,,,,,,,,,
1303.2999999970198,,rt_thecrossant_black,741992,black_plus_sign,,,,,49,,,1,0.975609756097561,,,,,,,,,,,,,,,,,,,,,,,,,,
null,,color_black,742100,black_plus_sign,,,,,null,,,,,,,,,,,,,,,,,,,,,,,,,,,,,,
null,,learn_phase(without_color),744653,black_plus_sign,,,,,null,US_Cities_List/mm_carmel.png,US_Cities_List/nat_cornwall.png,,,,,,,,,,,,,,,,,,,,,,,,,,,,
null,,black_cross(without_color),745209,green,,,,,null,US_Cities_List/mm_carmel.png,US_Cities_List/nat_cornwall.png,,,,,,,,,,,,,,,,,,,,,,,,,,,,
null,,rt_plussign_withcolor,745711,green,,,,,null,US_Cities_List/mm_carmel.png,US_Cities_List/nat_cornwall.png,,,,,,,,,,,,,,,,,,,,,,,,,,,,
1090.6000000089407,,rt_thecrossant_black,747173,black_plus_sign,,,,,50,,,1,0.9758064516129032,,,,,,,,,,,,,,,,,,,,,,,,,,
null,,color_black,747284,black_plus_sign,,,,,null,,,,,,,,,,,,,,,,,,,,,,,,,,,,,,
81992.09999999404,,intro_1,829278,instruct,,,0,,,,,,,,,,,,,,,,,,,,,,,,,,,,,,,,
20152.79999999702,,intro_2,849435,instruct,,,1,Next,,,,,,,,,,,,,,,,,,,,,,,,,,,,,,,
2454.7000000029802,,directmemory_phase,851943,../static/images/US_Cities_List/nat_leesburg.png,,,,,50,,,1,1,../static/images/US_Cities_List/nat_boulder.png,../static/images/US_Cities_List/nat_racine.png,../static/images/US_Cities_List/mm_gatlinburg.png,../static/images/US_Cities_List/nat_racine.png,../static/images/US_Cities_List/nat_boulder.png,../static/images/US_Cities_List/mm_gatlinburg.png,1,,,,,,,,,,,,,,,,,,,
null,,html-keyboard-response,852970,<p></p>,,,,,null,,,,,,,,,,,,,,,,,,,,,,,,,,,,,,
3305.6000000089407,,directmemory_phase,856332,../static/images/US_Cities_List/nat_boulder.png,,,,,49,,,0,0.5,../static/images/US_Cities_List/nat_newhope.png,../static/images/US_Cities_List/mm_gatlinburg.png,../static/images/US_Cities_List/nat_peoria.png,../static/images/US_Cities_List/nat_peoria.png,../static/images/US_Cities_List/mm_gatlinburg.png,../static/images/US_Cities_List/nat_newhope.png,0.5,closer,,,,,,,,,,,,,,,,,,
null,,html-keyboard-response,857346,<p></p>,,,,,null,,,,,,,,,,,,,,,,,,,,,,,,,,,,,,
3529.199999988079,,directmemory_phase,860948,../static/images/US_Cities_List/nat_shreveport.png,,,,,50,,,0,0.3333333333333333,../static/images/US_Cities_List/mm_gatlinburg.png,../static/images/US_Cities_List/mm_hotsprings.png,../static/images/US_Cities_List/nat_cornwall.png,../static/images/US_Cities_List/mm_gatlinburg.png,../static/images/US_Cities_List/nat_cornwall.png,../static/images/US_Cities_List/mm_hotsprings.png,0.5,closer,,,,,,,,,,,,,,,,,,
null,,html-keyboard-response,861956,<p></p>,,,,,null,,,,,,,,,,,,,,,,,,,,,,,,,,,,,,
3462.1000000089407,,directmemory_phase,865486,../static/images/US_Cities_List/nat_boulder.png,,,,,50,,,1,0.5,../static/images/US_Cities_List/nat_hanover.png,../static/images/US_Cities_List/nat_racine.png,../static/images/US_Cities_List/mm_westpalmbeach.png,../static/images/US_Cities_List/nat_racine.png,../static/images/US_Cities_List/nat_hanover.png,../static/images/US_Cities_List/mm_westpalmbeach.png,1,,,,,,,,,,,,,,,,,,,
null,,html-keyboard-response,866498,<p></p>,,,,,null,,,,,,,,,,,,,,,,,,,,,,,,,,,,,,
2082.1000000089407,,directmemory_phase,868651,../static/images/US_Cities_List/nat_peoria.png,,,,,50,,,0,0.4,../static/images/US_Cities_List/mm_westpalmbeach.png,../static/images/US_Cities_List/nat_leesburg.png,../static/images/US_Cities_List/mm_carmel.png,../static/images/US_Cities_List/mm_carmel.png,../static/images/US_Cities_List/nat_leesburg.png,../static/images/US_Cities_List/mm_westpalmbeach.png,0.5,closer,,,,,,,,,,,,,,,,,,
null,,html-keyboard-response,869665,<p></p>,,,,,null,,,,,,,,,,,,,,,,,,,,,,,,,,,,,,
2474.7999999970198,,directmemory_phase,872210,../static/images/US_Cities_List/mm_hotsprings.png,,,,,49,,,0,0.3333333333333333,../static/images/US_Cities_List/mm_gatlinburg.png,../static/images/US_Cities_List/nat_leesburg.png,../static/images/US_Cities_List/nat_boulder.png,../static/images/US_Cities_List/nat_boulder.png,../static/images/US_Cities_List/nat_leesburg.png,../static/images/US_Cities_List/mm_gatlinburg.png,0.5,closer,,,,,,,,,,,,,,,,,,
null,,html-keyboard-response,873223,<p></p>,,,,,null,,,,,,,,,,,,,,,,,,,,,,,,,,,,,,
1180.2000000029802,,directmemory_phase,874486,../static/images/US_Cities_List/mm_carmel.png,,,,,50,,,0,0.2857142857142857,../static/images/US_Cities_List/mm_hotsprings.png,../static/images/US_Cities_List/nat_shreveport.png,../static/images/US_Cities_List/nat_newhope.png,../static/images/US_Cities_List/nat_newhope.png,../static/images/US_Cities_List/nat_shreveport.png,../static/images/US_Cities_List/mm_hotsprings.png,0.5,closer,,,,,,,,,,,,,,,,,,
null,,html-keyboard-response,875502,<p></p>,,,,,null,,,,,,,,,,,,,,,,,,,,,,,,,,,,,,
2808.4000000059605,,directmemory_phase,878376,../static/images/US_Cities_List/mm_hotsprings.png,,,,,49,,,0,0.25,../static/images/US_Cities_List/mm_carmel.png,../static/images/US_Cities_List/nat_peoria.png,../static/images/US_Cities_List/nat_racine.png,../static/images/US_Cities_List/nat_racine.png,../static/images/US_Cities_List/nat_peoria.png,../static/images/US_Cities_List/mm_carmel.png,0.5,closer,,,,,,,,,,,,,,,,,,
null,,html-keyboard-response,879387,<p></p>,,,,,null,,,,,,,,,,,,,,,,,,,,,,,,,,,,,,
2673.7999999970198,,directmemory_phase,882115,../static/images/US_Cities_List/mm_gatlinburg.png,,,,,50,,,0,0.2222222222222222,../static/images/US_Cities_List/nat_hanover.png,../static/images/US_Cities_List/nat_newhope.png,../static/images/US_Cities_List/nat_cornwall.png,../static/images/US_Cities_List/nat_cornwall.png,../static/images/US_Cities_List/nat_newhope.png,../static/images/US_Cities_List/nat_hanover.png,0.5,closer,,,,,,,,,,,,,,,,,,
null,,html-keyboard-response,883133,<p></p>,,,,,null,,,,,,,,,,,,,,,,,,,,,,,,,,,,,,
3910.6000000089407,,directmemory_phase,887106,../static/images/US_Cities_List/mm_hotsprings.png,,,,,51,,,1,0.3,../static/images/US_Cities_List/mm_gatlinburg.png,../static/images/US_Cities_List/nat_peoria.png,../static/images/US_Cities_List/nat_hanover.png,../static/images/US_Cities_List/nat_hanover.png,../static/images/US_Cities_List/nat_peoria.png,../static/images/US_Cities_List/mm_gatlinburg.png,1,,,,,,,,,,,,,,,,,,,
null,,html-keyboard-response,888117,<p></p>,,,,,null,,,,,,,,,,,,,,,,,,,,,,,,,,,,,,
3399.7999999970198,,directmemory_phase,891583,../static/images/US_Cities_List/nat_shreveport.png,,,,,51,,,1,0.36363636363636365,../static/images/US_Cities_List/nat_peoria.png,../static/images/US_Cities_List/mm_carmel.png,../static/images/US_Cities_List/mm_westpalmbeach.png,../static/images/US_Cities_List/mm_westpalmbeach.png,../static/images/US_Cities_List/mm_carmel.png,../static/images/US_Cities_List/nat_peoria.png,1,,,,,,,,,,,,,,,,,,,
null,,html-keyboard-response,892596,<p></p>,,,,,null,,,,,,,,,,,,,,,,,,,,,,,,,,,,,,
3882,,directmemory_phase,896553,../static/images/US_Cities_List/nat_cornwall.png,,,,,50,,,1,0.4166666666666667,../static/images/US_Cities_List/nat_peoria.png,../static/images/US_Cities_List/mm_gatlinburg.png,../static/images/US_Cities_List/mm_westpalmbeach.png,../static/images/US_Cities_List/mm_gatlinburg.png,../static/images/US_Cities_List/nat_peoria.png,../static/images/US_Cities_List/mm_westpalmbeach.png,1,,,,,,,,,,,,,,,,,,,
null,,html-keyboard-response,897567,<p></p>,,,,,null,,,,,,,,,,,,,,,,,,,,,,,,,,,,,,
4201.899999991059,,directmemory_phase,901847,../static/images/US_Cities_List/nat_newhope.png,,,,,49,,,0,0.38461538461538464,../static/images/US_Cities_List/mm_hotsprings.png,../static/images/US_Cities_List/nat_peoria.png,../static/images/US_Cities_List/nat_shreveport.png,../static/images/US_Cities_List/nat_shreveport.png,../static/images/US_Cities_List/nat_peoria.png,../static/images/US_Cities_List/mm_hotsprings.png,0.5,closer,,,,,,,,,,,,,,,,,,
null,,html-keyboard-response,902867,<p></p>,,,,,null,,,,,,,,,,,,,,,,,,,,,,,,,,,,,,
3371.6000000089407,,directmemory_phase,906308,../static/images/US_Cities_List/nat_cornwall.png,,,,,50,,,0,0.35714285714285715,../static/images/US_Cities_List/mm_carmel.png,../static/images/US_Cities_List/mm_huntsville.png,../static/images/US_Cities_List/nat_peoria.png,../static/images/US_Cities_List/mm_carmel.png,../static/images/US_Cities_List/nat_peoria.png,../static/images/US_Cities_List/mm_huntsville.png,0.5,closer,,,,,,,,,,,,,,,,,,
null,,html-keyboard-response,907326,<p></p>,,,,,null,,,,,,,,,,,,,,,,,,,,,,,,,,,,,,
4037.7999999970198,,directmemory_phase,911431,../static/images/US_Cities_List/mm_gatlinburg.png,,,,,49,,,1,0.4,../static/images/US_Cities_List/nat_shreveport.png,../static/images/US_Cities_List/nat_leesburg.png,../static/images/US_Cities_List/nat_boulder.png,../static/images/US_Cities_List/nat_shreveport.png,../static/images/US_Cities_List/nat_boulder.png,../static/images/US_Cities_List/nat_leesburg.png,1,,,,,,,,,,,,,,,,,,,
null,,html-keyboard-response,912440,<p></p>,,,,,null,,,,,,,,,,,,,,,,,,,,,,,,,,,,,,
3556.199999988079,,directmemory_phase,916073,../static/images/US_Cities_List/nat_racine.png,,,,,50,,,0,0.375,../static/images/US_Cities_List/mm_hotsprings.png,../static/images/US_Cities_List/nat_newhope.png,../static/images/US_Cities_List/nat_hanover.png,../static/images/US_Cities_List/mm_hotsprings.png,../static/images/US_Cities_List/nat_hanover.png,../static/images/US_Cities_List/nat_newhope.png,0.5,closer,,,,,,,,,,,,,,,,,,
null,,html-keyboard-response,917097,<p></p>,,,,,null,,,,,,,,,,,,,,,,,,,,,,,,,,,,,,
3144,,directmemory_phase,920310,../static/images/US_Cities_List/mm_carmel.png,,,,,49,,,0,0.35294117647058826,../static/images/US_Cities_List/nat_hanover.png,../static/images/US_Cities_List/nat_boulder.png,../static/images/US_Cities_List/nat_peoria.png,../static/images/US_Cities_List/nat_peoria.png,../static/images/US_Cities_List/nat_boulder.png,../static/images/US_Cities_List/nat_hanover.png,0.5,closer,,,,,,,,,,,,,,,,,,
null,,html-keyboard-response,921318,<p></p>,,,,,null,,,,,,,,,,,,,,,,,,,,,,,,,,,,,,
3906.4000000059605,,directmemory_phase,925305,../static/images/US_Cities_List/nat_racine.png,,,,,49,,,1,0.3888888888888889,../static/images/US_Cities_List/nat_leesburg.png,../static/images/US_Cities_List/nat_newhope.png,../static/images/US_Cities_List/mm_carmel.png,../static/images/US_Cities_List/nat_leesburg.png,../static/images/US_Cities_List/mm_carmel.png,../static/images/US_Cities_List/nat_newhope.png,1,,,,,,,,,,,,,,,,,,,
null,,html-keyboard-response,926329,<p></p>,,,,,null,,,,,,,,,,,,,,,,,,,,,,,,,,,,,,
2099.7999999970198,,directmemory_phase,928491,../static/images/US_Cities_List/nat_boulder.png,,,,,49,,,1,0.42105263157894735,../static/images/US_Cities_List/nat_cornwall.png,../static/images/US_Cities_List/mm_huntsville.png,../static/images/US_Cities_List/nat_hanover.png,../static/images/US_Cities_List/nat_cornwall.png,../static/images/US_Cities_List/nat_hanover.png,../static/images/US_Cities_List/mm_huntsville.png,1,,,,,,,,,,,,,,,,,,,
null,,html-keyboard-response,929513,<p></p>,,,,,null,,,,,,,,,,,,,,,,,,,,,,,,,,,,,,
3135.6000000089407,,directmemory_phase,932719,../static/images/US_Cities_List/mm_huntsville.png,,,,,50,,,1,0.45,../static/images/US_Cities_List/nat_shreveport.png,../static/images/US_Cities_List/nat_newhope.png,../static/images/US_Cities_List/nat_racine.png,../static/images/US_Cities_List/nat_newhope.png,../static/images/US_Cities_List/nat_shreveport.png,../static/images/US_Cities_List/nat_racine.png,1,,,,,,,,,,,,,,,,,,,
null,,html-keyboard-response,933733,<p></p>,,,,,null,,,,,,,,,,,,,,,,,,,,,,,,,,,,,,
3635.4000000059605,,directmemory_phase,937433,../static/images/US_Cities_List/nat_racine.png,,,,,49,,,0,0.42857142857142855,../static/images/US_Cities_List/nat_shreveport.png,../static/images/US_Cities_List/nat_cornwall.png,../static/images/US_Cities_List/nat_boulder.png,../static/images/US_Cities_List/nat_boulder.png,../static/images/US_Cities_List/nat_cornwall.png,../static/images/US_Cities_List/nat_shreveport.png,0.5,closer,,,,,,,,,,,,,,,,,,
null,,html-keyboard-response,938456,<p></p>,,,,,null,,,,,,,,,,,,,,,,,,,,,,,,,,,,,,
3636.2000000029802,,directmemory_phase,942167,../static/images/US_Cities_List/nat_newhope.png,,,,,51,,,0,0.4090909090909091,../static/images/US_Cities_List/mm_huntsville.png,../static/images/US_Cities_List/mm_hotsprings.png,../static/images/US_Cities_List/mm_gatlinburg.png,../static/images/US_Cities_List/mm_huntsville.png,../static/images/US_Cities_List/mm_gatlinburg.png,../static/images/US_Cities_List/mm_hotsprings.png,0.5,closer,,,,,,,,,,,,,,,,,,
null,,html-keyboard-response,943186,<p></p>,,,,,null,,,,,,,,,,,,,,,,,,,,,,,,,,,,,,
2375.9000000059605,,directmemory_phase,945635,../static/images/US_Cities_List/nat_peoria.png,,,,,49,,,1,0.43478260869565216,../static/images/US_Cities_List/nat_boulder.png,../static/images/US_Cities_List/mm_gatlinburg.png,../static/images/US_Cities_List/mm_hotsprings.png,../static/images/US_Cities_List/nat_boulder.png,../static/images/US_Cities_List/mm_hotsprings.png,../static/images/US_Cities_List/mm_gatlinburg.png,1,,,,,,,,,,,,,,,,,,,
null,,html-keyboard-response,946643,<p></p>,,,,,null,,,,,,,,,,,,,,,,,,,,,,,,,,,,,,
3572.2000000029802,,directmemory_phase,950287,../static/images/US_Cities_List/mm_westpalmbeach.png,,,,,51,,,0,0.4166666666666667,../static/images/US_Cities_List/mm_gatlinburg.png,../static/images/US_Cities_List/nat_shreveport.png,../static/images/US_Cities_List/mm_huntsville.png,../static/images/US_Cities_List/nat_shreveport.png,../static/images/US_Cities_List/mm_gatlinburg.png,../static/images/US_Cities_List/mm_huntsville.png,0.5,closer,,,,,,,,,,,,,,,,,,
null,,html-keyboard-response,951306,<p></p>,,,,,null,,,,,,,,,,,,,,,,,,,,,,,,,,,,,,
