rt,responses,trial_type,time_elapsed,stimulus,cities,city_images,button_pressed,response,key_press,stimulus_left,stimulus_right,accuracy,cumulative_accuracy,stimulus_down_left,stimulus_down_mid,stimulus_down_right,stimulus_correct,stimulus_short,stimulus_far,weighted_accuracy,missedtrial,condition,specific_pairs,imgL_ID,imgR_ID,linedress,linedressed,image_position,unknowncity,testedstates,currentstate,otherstate,problems,smooth,distraction,strategies,easier,similar,comments
32185,{worker_id:67e1ab7aba45c5e515df8a71},id_enter,32196,intro,Racine; New Hope; Hot Springs; Peoria; Shreveport; West Palm Beach; Huntsville; Gatlinburg; Leesburg; Cornwall; Carmel; Boulder; Hanover,US_Cities_List/nat_racine.png; US_Cities_List/mm_newhope.png; US_Cities_List/mm_hotsprings.png; US_Cities_List/nat_peoria.png; US_Cities_List/nat_shreveport.png; US_Cities_List/nat_westpalmbeach.png; US_Cities_List/mm_huntsville.png; US_Cities_List/mm_gatlinburg.png; US_Cities_List/mm_leesburg.png; US_Cities_List/mm_cornwall.png; US_Cities_List/mm_carmel.png; US_Cities_List/nat_boulder.png; US_Cities_List/nat_hanover.png,,,,,,,,,,,,,,,,,,,,,,,,,,,,,,,,,
32544.300000071526,,fullscreen,64763,make_fullscreen,,,0,,,,,,,,,,,,,,,,,,,,,,,,,,,,,,,,
49518.5,,intro_1,114285,instruct,,,0,,,,,,,,,,,,,,,,,,,,,,,,,,,,,,,,
21645.100000023842,,intro_2,135936,instruct,,,0,Previous,,,,,,,,,,,,,,,,,,,,,,,,,,,,,,,
10895.299999952316,,intro_1,146836,instruct,,,0,,,,,,,,,,,,,,,,,,,,,,,,,,,,,,,,
15091.600000023842,,intro_2,161933,instruct,,,1,Next,,,,,,,,,,,,,,,,,,,,,,,,,,,,,,,
150838.19999992847,,intro_3,312776,instruct,,,1,Next,,,,,,,,,,,,,,,,,,,,,,,,,,,,,,,
49230.90000009537,,intro_4,362012,instruct,,,1,Next,,,,,,,,,,,,,,,,,,,,,,,,,,,,,,,
92568.60000002384,,intro_5,454584,instruct,,,1,Next,,,,,,,,,,,,,,,,,,,,,,,,,,,,,,,
120451.5,,intro_6,575046,instruct,,,1,Next,,,,,,,,,,,,,,,,,,,,,,,,,,,,,,,
null,,prac_atten_color_black,575393,black_plus_sign,,,,,null,,,,,,,,,,,,,,,,,,,,,,,,,,,,,,
613.7000000476837,,prac_atten_color,576468,prac_stop_color,,,,,49,,,,,,,,,,,,,,,,,,,,,,,,,,,,,,
null,,prac_atten_color_black,578478,black_plus_sign,,,,,null,,,,,,,,,,,,,,,,,,,,,,,,,,,,,,
null,,prac_atten_color_black,578829,black_plus_sign,,,,,null,,,,,,,,,,,,,,,,,,,,,,,,,,,,,,
null,,prac_atten_color,579652,prac_stop_color,,,,,null,,,,,,,,,,,,,,,,,,,,,,,,,,,,,,
275.7000000476837,,prac_atten_color_black,581664,black_plus_sign,,,,,50,,,,,,,,,,,,,,,,,,,,,,,,,,,,,,
null,,prac_atten_color_black,582277,black_plus_sign,,,,,null,,,,,,,,,,,,,,,,,,,,,,,,,,,,,,
509.10000002384186,,prac_atten_color,583336,prac_stop_color,,,,,50,,,,,,,,,,,,,,,,,,,,,,,,,,,,,,
null,,prac_atten_color_black,585344,black_plus_sign,,,,,null,,,,,,,,,,,,,,,,,,,,,,,,,,,,,,
null,,prac_atten_color_black,585704,black_plus_sign,,,,,null,,,,,,,,,,,,,,,,,,,,,,,,,,,,,,
455.8000000715256,,prac_atten_color,586197,prac_stop_color,,,,,49,,,,,,,,,,,,,,,,,,,,,,,,,,,,,,
null,,prac_atten_color_black,588210,black_plus_sign,,,,,null,,,,,,,,,,,,,,,,,,,,,,,,,,,,,,
null,,prac_atten_color_black,589128,black_plus_sign,,,,,null,,,,,,,,,,,,,,,,,,,,,,,,,,,,,,
643.8000000715256,,prac_atten_color,590048,prac_stop_color,,,,,50,,,,,,,,,,,,,,,,,,,,,,,,,,,,,,
null,,prac_atten_color_black,592055,black_plus_sign,,,,,null,,,,,,,,,,,,,,,,,,,,,,,,,,,,,,
null,,prac_atten_color_black,592551,black_plus_sign,,,,,null,,,,,,,,,,,,,,,,,,,,,,,,,,,,,,
569,,prac_atten_color,593163,prac_stop_color,,,,,50,,,,,,,,,,,,,,,,,,,,,,,,,,,,,,
null,,prac_atten_color_black,595174,black_plus_sign,,,,,null,,,,,,,,,,,,,,,,,,,,,,,,,,,,,,
null,,prac_atten_color_black,595973,black_plus_sign,,,,,null,,,,,,,,,,,,,,,,,,,,,,,,,,,,,,
428.89999997615814,,prac_atten_color,596688,prac_stop_color,,,,,50,,,,,,,,,,,,,,,,,,,,,,,,,,,,,,
null,,prac_atten_color_black,598691,black_plus_sign,,,,,null,,,,,,,,,,,,,,,,,,,,,,,,,,,,,,
8599.5,,attentioncheck_help,607295,instruct,,,,,32,,,,,,,,,,,,,,,,,,,,,,,,,,,,,,
null,,prac_atten_color_black,607998,black_plus_sign,,,,,null,,,,,,,,,,,,,,,,,,,,,,,,,,,,,,
null,,prac_atten_color,608609,prac_stop_color,,,,,null,,,,,,,,,,,,,,,,,,,,,,,,,,,,,,
164.5,,prac_atten_color_black,610618,black_plus_sign,,,,,50,,,,,,,,,,,,,,,,,,,,,,,,,,,,,,
null,,prac_atten_color_black,611420,black_plus_sign,,,,,null,,,,,,,,,,,,,,,,,,,,,,,,,,,,,,
707.2000000476837,,prac_atten_color,612327,prac_stop_color,,,,,49,,,,,,,,,,,,,,,,,,,,,,,,,,,,,,
null,,prac_atten_color_black,614334,black_plus_sign,,,,,null,,,,,,,,,,,,,,,,,,,,,,,,,,,,,,
null,,prac_atten_color_black,614845,black_plus_sign,,,,,null,,,,,,,,,,,,,,,,,,,,,,,,,,,,,,
null,,prac_atten_color,615466,prac_stop_color,,,,,null,,,,,,,,,,,,,,,,,,,,,,,,,,,,,,
228.29999995231628,,prac_atten_color_black,617474,black_plus_sign,,,,,49,,,,,,,,,,,,,,,,,,,,,,,,,,,,,,
10906.099999904633,,attentioncheck_feedback,628384,cross_check_feedback,,,0,,,,,,,,,,,,,,,,,,,,,,,,,,,,,,,,
14993.799999952316,,last_instruct,643383,instruct,,,,,32,,,,,,,,,,,,,,,,,,,,,,,,,,,,,,
null,,learn_phase(without_color),645459,black_plus_sign,,,,,null,US_Cities_List/mm_carmel.png,US_Cities_List/nat_boulder.png,,,,,,,,,,,,,,,,,,,,,,,,,,,,
null,,black_cross(without_color),646526,green,,,,,null,US_Cities_List/mm_carmel.png,US_Cities_List/nat_boulder.png,,,,,,,,,,,,,,,,,,,,,,,,,,,,
null,,rt_plussign_withcolor,647037,green,,,,,null,US_Cities_List/mm_carmel.png,US_Cities_List/nat_boulder.png,,,,,,,,,,,,,,,,,,,,,,,,,,,,
1661.3000000715256,,rt_thecrossant_black,647981,black_plus_sign,,,,,50,,,1,1,,,,,,,,,,,,,,,,,,,,,,,,,,
null,,color_black,648088,black_plus_sign,,,,,null,,,,,,,,,,,,,,,,,,,,,,,,,,,,,,
null,,learn_phase(without_color),650668,black_plus_sign,,,,,null,US_Cities_List/mm_gatlinburg.png,US_Cities_List/mm_cornwall.png,,,,,,,,,,,,,,,,,,,,,,,,,,,,
null,,black_cross(without_color),651501,green,,,,,null,US_Cities_List/mm_gatlinburg.png,US_Cities_List/mm_cornwall.png,,,,,,,,,,,,,,,,,,,,,,,,,,,,
506.2000000476837,,rt_plussign_withcolor,652012,green,,,,,50,US_Cities_List/mm_gatlinburg.png,US_Cities_List/mm_cornwall.png,,,,,,,,,,,,,,,,,,,,,,,,,,,,
null,,rt_thecrossant_black,653199,black_plus_sign,,,,,null,,,1,1,,,,,,,,,,,,,,,,,,,,,,,,,,
null,,color_black,653315,black_plus_sign,,,,,null,,,,,,,,,,,,,,,,,,,,,,,,,,,,,,
null,,learn_phase(without_color),655882,black_plus_sign,,,,,null,US_Cities_List/nat_westpalmbeach.png,US_Cities_List/mm_leesburg.png,,,,,,,,,,,,,,,,,,,,,,,,,,,,
null,,black_cross(without_color),656904,green,,,,,null,US_Cities_List/nat_westpalmbeach.png,US_Cities_List/mm_leesburg.png,,,,,,,,,,,,,,,,,,,,,,,,,,,,
null,,rt_plussign_withcolor,657420,green,,,,,null,US_Cities_List/nat_westpalmbeach.png,US_Cities_List/mm_leesburg.png,,,,,,,,,,,,,,,,,,,,,,,,,,,,
1101.6000000238419,,rt_thecrossant_black,658412,black_plus_sign,,,,,50,,,1,1,,,,,,,,,,,,,,,,,,,,,,,,,,
null,,color_black,658529,black_plus_sign,,,,,null,,,,,,,,,,,,,,,,,,,,,,,,,,,,,,
null,,learn_phase(without_color),661124,black_plus_sign,,,,,null,US_Cities_List/mm_leesburg.png,US_Cities_List/mm_carmel.png,,,,,,,,,,,,,,,,,,,,,,,,,,,,
null,,black_cross(without_color),661990,green,,,,,null,US_Cities_List/mm_leesburg.png,US_Cities_List/mm_carmel.png,,,,,,,,,,,,,,,,,,,,,,,,,,,,
null,,rt_plussign_withcolor,662503,green,,,,,null,US_Cities_List/mm_leesburg.png,US_Cities_List/mm_carmel.png,,,,,,,,,,,,,,,,,,,,,,,,,,,,
1140.2000000476837,,rt_thecrossant_black,663655,black_plus_sign,,,,,50,,,1,1,,,,,,,,,,,,,,,,,,,,,,,,,,
null,,color_black,663764,black_plus_sign,,,,,null,,,,,,,,,,,,,,,,,,,,,,,,,,,,,,
null,,learn_phase(without_color),666335,black_plus_sign,,,,,null,US_Cities_List/mm_hotsprings.png,US_Cities_List/nat_westpalmbeach.png,,,,,,,,,,,,,,,,,,,,,,,,,,,,
null,,black_cross(without_color),667133,blue,,,,,null,US_Cities_List/mm_hotsprings.png,US_Cities_List/nat_westpalmbeach.png,,,,,,,,,,,,,,,,,,,,,,,,,,,,
null,,rt_plussign_withcolor,667638,blue,,,,,null,US_Cities_List/mm_hotsprings.png,US_Cities_List/nat_westpalmbeach.png,,,,,,,,,,,,,,,,,,,,,,,,,,,,
1013.8999999761581,,rt_thecrossant_black,668857,black_plus_sign,,,,,49,,,1,1,,,,,,,,,,,,,,,,,,,,,,,,,,
null,,color_black,668975,black_plus_sign,,,,,null,,,,,,,,,,,,,,,,,,,,,,,,,,,,,,
null,,learn_phase(without_color),671550,black_plus_sign,,,,,null,US_Cities_List/mm_newhope.png,US_Cities_List/nat_peoria.png,,,,,,,,,,,,,,,,,,,,,,,,,,,,
null,,black_cross(without_color),672489,green,,,,,null,US_Cities_List/mm_newhope.png,US_Cities_List/nat_peoria.png,,,,,,,,,,,,,,,,,,,,,,,,,,,,
null,,rt_plussign_withcolor,672999,green,,,,,null,US_Cities_List/mm_newhope.png,US_Cities_List/nat_peoria.png,,,,,,,,,,,,,,,,,,,,,,,,,,,,
1012.6000000238419,,rt_thecrossant_black,674079,black_plus_sign,,,,,50,,,1,1,,,,,,,,,,,,,,,,,,,,,,,,,,
null,,color_black,674198,black_plus_sign,,,,,null,,,,,,,,,,,,,,,,,,,,,,,,,,,,,,
null,,learn_phase(without_color),676759,black_plus_sign,,,,,null,US_Cities_List/nat_westpalmbeach.png,US_Cities_List/mm_huntsville.png,,,,,,,,,,,,,,,,,,,,,,,,,,,,
null,,black_cross(without_color),677305,blue,,,,,null,US_Cities_List/nat_westpalmbeach.png,US_Cities_List/mm_huntsville.png,,,,,,,,,,,,,,,,,,,,,,,,,,,,
null,,rt_plussign_withcolor,677823,blue,,,,,null,US_Cities_List/nat_westpalmbeach.png,US_Cities_List/mm_huntsville.png,,,,,,,,,,,,,,,,,,,,,,,,,,,,
1090.7999999523163,,rt_thecrossant_black,679297,black_plus_sign,,,,,49,,,1,1,,,,,,,,,,,,,,,,,,,,,,,,,,
null,,color_black,679404,black_plus_sign,,,,,null,,,,,,,,,,,,,,,,,,,,,,,,,,,,,,
null,,learn_phase(without_color),681988,black_plus_sign,,,,,null,US_Cities_List/mm_newhope.png,US_Cities_List/nat_peoria.png,,,,,,,,,,,,,,,,,,,,,,,,,,,,
null,,black_cross(without_color),682701,blue,,,,,null,US_Cities_List/mm_newhope.png,US_Cities_List/nat_peoria.png,,,,,,,,,,,,,,,,,,,,,,,,,,,,
null,,rt_plussign_withcolor,683211,blue,,,,,null,US_Cities_List/mm_newhope.png,US_Cities_List/nat_peoria.png,,,,,,,,,,,,,,,,,,,,,,,,,,,,
754.7999999523163,,rt_thecrossant_black,684515,black_plus_sign,,,,,49,,,1,1,,,,,,,,,,,,,,,,,,,,,,,,,,
null,,color_black,684626,black_plus_sign,,,,,null,,,,,,,,,,,,,,,,,,,,,,,,,,,,,,
null,,learn_phase(without_color),687211,black_plus_sign,,,,,null,US_Cities_List/nat_peoria.png,US_Cities_List/nat_boulder.png,,,,,,,,,,,,,,,,,,,,,,,,,,,,
null,,black_cross(without_color),687754,blue,,,,,null,US_Cities_List/nat_peoria.png,US_Cities_List/nat_boulder.png,,,,,,,,,,,,,,,,,,,,,,,,,,,,
null,,rt_plussign_withcolor,688262,blue,,,,,null,US_Cities_List/nat_peoria.png,US_Cities_List/nat_boulder.png,,,,,,,,,,,,,,,,,,,,,,,,,,,,
989.1999999284744,,rt_thecrossant_black,689736,black_plus_sign,,,,,49,,,1,1,,,,,,,,,,,,,,,,,,,,,,,,,,
null,,color_black,689854,black_plus_sign,,,,,null,,,,,,,,,,,,,,,,,,,,,,,,,,,,,,
null,,learn_phase(without_color),692427,black_plus_sign,,,,,null,US_Cities_List/mm_huntsville.png,US_Cities_List/mm_leesburg.png,,,,,,,,,,,,,,,,,,,,,,,,,,,,
null,,black_cross(without_color),693217,green,,,,,null,US_Cities_List/mm_huntsville.png,US_Cities_List/mm_leesburg.png,,,,,,,,,,,,,,,,,,,,,,,,,,,,
null,,rt_plussign_withcolor,693727,green,,,,,null,US_Cities_List/mm_huntsville.png,US_Cities_List/mm_leesburg.png,,,,,,,,,,,,,,,,,,,,,,,,,,,,
795.5,,rt_thecrossant_black,694965,black_plus_sign,,,,,50,,,1,1,,,,,,,,,,,,,,,,,,,,,,,,,,
null,,color_black,695074,black_plus_sign,,,,,null,,,,,,,,,,,,,,,,,,,,,,,,,,,,,,
null,,learn_phase(without_color),697671,black_plus_sign,,,,,null,US_Cities_List/mm_carmel.png,US_Cities_List/nat_boulder.png,,,,,,,,,,,,,,,,,,,,,,,,,,,,
null,,black_cross(without_color),698623,green,,,,,null,US_Cities_List/mm_carmel.png,US_Cities_List/nat_boulder.png,,,,,,,,,,,,,,,,,,,,,,,,,,,,
null,,rt_plussign_withcolor,699132,green,,,,,null,US_Cities_List/mm_carmel.png,US_Cities_List/nat_boulder.png,,,,,,,,,,,,,,,,,,,,,,,,,,,,
1004,,rt_thecrossant_black,700203,black_plus_sign,,,,,50,,,1,1,,,,,,,,,,,,,,,,,,,,,,,,,,
null,,color_black,700312,black_plus_sign,,,,,null,,,,,,,,,,,,,,,,,,,,,,,,,,,,,,
null,,learn_phase(without_color),702888,black_plus_sign,,,,,null,US_Cities_List/nat_peoria.png,US_Cities_List/nat_shreveport.png,,,,,,,,,,,,,,,,,,,,,,,,,,,,
null,,black_cross(without_color),703514,green,,,,,null,US_Cities_List/nat_peoria.png,US_Cities_List/nat_shreveport.png,,,,,,,,,,,,,,,,,,,,,,,,,,,,
null,,rt_plussign_withcolor,704017,green,,,,,null,US_Cities_List/nat_peoria.png,US_Cities_List/nat_shreveport.png,,,,,,,,,,,,,,,,,,,,,,,,,,,,
1404.6000000238419,,rt_thecrossant_black,705409,black_plus_sign,,,,,50,,,1,1,,,,,,,,,,,,,,,,,,,,,,,,,,
null,,color_black,705519,black_plus_sign,,,,,null,,,,,,,,,,,,,,,,,,,,,,,,,,,,,,
null,,learn_phase(without_color),708098,black_plus_sign,,,,,null,US_Cities_List/mm_leesburg.png,US_Cities_List/mm_carmel.png,,,,,,,,,,,,,,,,,,,,,,,,,,,,
null,,black_cross(without_color),708827,blue,,,,,null,US_Cities_List/mm_leesburg.png,US_Cities_List/mm_carmel.png,,,,,,,,,,,,,,,,,,,,,,,,,,,,
null,,rt_plussign_withcolor,709332,blue,,,,,null,US_Cities_List/mm_leesburg.png,US_Cities_List/mm_carmel.png,,,,,,,,,,,,,,,,,,,,,,,,,,,,
1040.1999999284744,,rt_thecrossant_black,710618,black_plus_sign,,,,,49,,,1,1,,,,,,,,,,,,,,,,,,,,,,,,,,
null,,color_black,710738,black_plus_sign,,,,,null,,,,,,,,,,,,,,,,,,,,,,,,,,,,,,
null,,learn_phase(without_color),713352,black_plus_sign,,,,,null,US_Cities_List/mm_carmel.png,US_Cities_List/nat_boulder.png,,,,,,,,,,,,,,,,,,,,,,,,,,,,
null,,black_cross(without_color),713884,blue,,,,,null,US_Cities_List/mm_carmel.png,US_Cities_List/nat_boulder.png,,,,,,,,,,,,,,,,,,,,,,,,,,,,
null,,rt_plussign_withcolor,714391,blue,,,,,null,US_Cities_List/mm_carmel.png,US_Cities_List/nat_boulder.png,,,,,,,,,,,,,,,,,,,,,,,,,,,,
1159.7000000476837,,rt_thecrossant_black,715876,black_plus_sign,,,,,49,,,1,1,,,,,,,,,,,,,,,,,,,,,,,,,,
null,,color_black,715984,black_plus_sign,,,,,null,,,,,,,,,,,,,,,,,,,,,,,,,,,,,,
null,,learn_phase(without_color),718554,black_plus_sign,,,,,null,US_Cities_List/mm_huntsville.png,US_Cities_List/mm_gatlinburg.png,,,,,,,,,,,,,,,,,,,,,,,,,,,,
null,,black_cross(without_color),719228,blue,,,,,null,US_Cities_List/mm_huntsville.png,US_Cities_List/mm_gatlinburg.png,,,,,,,,,,,,,,,,,,,,,,,,,,,,
null,,rt_plussign_withcolor,719738,blue,,,,,null,US_Cities_List/mm_huntsville.png,US_Cities_List/mm_gatlinburg.png,,,,,,,,,,,,,,,,,,,,,,,,,,,,
885.1000000238419,,rt_thecrossant_black,721087,black_plus_sign,,,,,49,,,1,1,,,,,,,,,,,,,,,,,,,,,,,,,,
null,,color_black,721195,black_plus_sign,,,,,null,,,,,,,,,,,,,,,,,,,,,,,,,,,,,,
null,,learn_phase(without_color),723784,black_plus_sign,,,,,null,US_Cities_List/mm_huntsville.png,US_Cities_List/mm_leesburg.png,,,,,,,,,,,,,,,,,,,,,,,,,,,,
null,,black_cross(without_color),724494,green,,,,,null,US_Cities_List/mm_huntsville.png,US_Cities_List/mm_leesburg.png,,,,,,,,,,,,,,,,,,,,,,,,,,,,
null,,rt_plussign_withcolor,725003,green,,,,,null,US_Cities_List/mm_huntsville.png,US_Cities_List/mm_leesburg.png,,,,,,,,,,,,,,,,,,,,,,,,,,,,
1120.7999999523163,,rt_thecrossant_black,726314,black_plus_sign,,,,,50,,,1,1,,,,,,,,,,,,,,,,,,,,,,,,,,
null,,color_black,726422,black_plus_sign,,,,,null,,,,,,,,,,,,,,,,,,,,,,,,,,,,,,
null,,learn_phase(without_color),728986,black_plus_sign,,,,,null,US_Cities_List/nat_peoria.png,US_Cities_List/nat_shreveport.png,,,,,,,,,,,,,,,,,,,,,,,,,,,,
null,,black_cross(without_color),729421,blue,,,,,null,US_Cities_List/nat_peoria.png,US_Cities_List/nat_shreveport.png,,,,,,,,,,,,,,,,,,,,,,,,,,,,
null,,rt_plussign_withcolor,729928,blue,,,,,null,US_Cities_List/nat_peoria.png,US_Cities_List/nat_shreveport.png,,,,,,,,,,,,,,,,,,,,,,,,,,,,
1128.6000000238419,,rt_thecrossant_black,731511,black_plus_sign,,,,,49,,,1,1,,,,,,,,,,,,,,,,,,,,,,,,,,
null,,color_black,731627,black_plus_sign,,,,,null,,,,,,,,,,,,,,,,,,,,,,,,,,,,,,
null,,learn_phase(without_color),734206,black_plus_sign,,,,,null,US_Cities_List/nat_peoria.png,US_Cities_List/nat_boulder.png,,,,,,,,,,,,,,,,,,,,,,,,,,,,
null,,black_cross(without_color),735290,blue,,,,,null,US_Cities_List/nat_peoria.png,US_Cities_List/nat_boulder.png,,,,,,,,,,,,,,,,,,,,,,,,,,,,
null,,rt_plussign_withcolor,735804,blue,,,,,null,US_Cities_List/nat_peoria.png,US_Cities_List/nat_boulder.png,,,,,,,,,,,,,,,,,,,,,,,,,,,,
766.5,,rt_thecrossant_black,736737,black_plus_sign,,,,,49,,,1,1,,,,,,,,,,,,,,,,,,,,,,,,,,
null,,color_black,736845,black_plus_sign,,,,,null,,,,,,,,,,,,,,,,,,,,,,,,,,,,,,
null,,learn_phase(without_color),739399,black_plus_sign,,,,,null,US_Cities_List/mm_hotsprings.png,US_Cities_List/mm_carmel.png,,,,,,,,,,,,,,,,,,,,,,,,,,,,
null,,black_cross(without_color),739884,blue,,,,,null,US_Cities_List/mm_hotsprings.png,US_Cities_List/mm_carmel.png,,,,,,,,,,,,,,,,,,,,,,,,,,,,
null,,rt_plussign_withcolor,740397,blue,,,,,null,US_Cities_List/mm_hotsprings.png,US_Cities_List/mm_carmel.png,,,,,,,,,,,,,,,,,,,,,,,,,,,,
1328.7000000476837,,rt_thecrossant_black,741936,black_plus_sign,,,,,49,,,1,1,,,,,,,,,,,,,,,,,,,,,,,,,,
null,,color_black,742047,black_plus_sign,,,,,null,,,,,,,,,,,,,,,,,,,,,,,,,,,,,,
null,,learn_phase(without_color),744621,black_plus_sign,,,,,null,US_Cities_List/mm_gatlinburg.png,US_Cities_List/mm_cornwall.png,,,,,,,,,,,,,,,,,,,,,,,,,,,,
null,,black_cross(without_color),745166,green,,,,,null,US_Cities_List/mm_gatlinburg.png,US_Cities_List/mm_cornwall.png,,,,,,,,,,,,,,,,,,,,,,,,,,,,
null,,rt_plussign_withcolor,745670,green,,,,,null,US_Cities_List/mm_gatlinburg.png,US_Cities_List/mm_cornwall.png,,,,,,,,,,,,,,,,,,,,,,,,,,,,
993.1000000238419,,rt_thecrossant_black,747145,black_plus_sign,,,,,50,,,1,1,,,,,,,,,,,,,,,,,,,,,,,,,,
null,,color_black,747254,black_plus_sign,,,,,null,,,,,,,,,,,,,,,,,,,,,,,,,,,,,,
null,,learn_phase(without_color),749842,black_plus_sign,,,,,null,US_Cities_List/mm_hotsprings.png,US_Cities_List/mm_carmel.png,,,,,,,,,,,,,,,,,,,,,,,,,,,,
null,,black_cross(without_color),750456,blue,,,,,null,US_Cities_List/mm_hotsprings.png,US_Cities_List/mm_carmel.png,,,,,,,,,,,,,,,,,,,,,,,,,,,,
null,,rt_plussign_withcolor,750965,blue,,,,,null,US_Cities_List/mm_hotsprings.png,US_Cities_List/mm_carmel.png,,,,,,,,,,,,,,,,,,,,,,,,,,,,
972.7000000476837,,rt_thecrossant_black,752366,black_plus_sign,,,,,49,,,1,1,,,,,,,,,,,,,,,,,,,,,,,,,,
null,,color_black,752473,black_plus_sign,,,,,null,,,,,,,,,,,,,,,,,,,,,,,,,,,,,,
null,,learn_phase(without_color),755024,black_plus_sign,,,,,null,US_Cities_List/nat_westpalmbeach.png,US_Cities_List/mm_leesburg.png,,,,,,,,,,,,,,,,,,,,,,,,,,,,
null,,black_cross(without_color),755942,green,,,,,null,US_Cities_List/nat_westpalmbeach.png,US_Cities_List/mm_leesburg.png,,,,,,,,,,,,,,,,,,,,,,,,,,,,
null,,rt_plussign_withcolor,756446,green,,,,,null,US_Cities_List/nat_westpalmbeach.png,US_Cities_List/mm_leesburg.png,,,,,,,,,,,,,,,,,,,,,,,,,,,,
953.3999999761581,,rt_thecrossant_black,757555,black_plus_sign,,,,,50,,,1,1,,,,,,,,,,,,,,,,,,,,,,,,,,
null,,color_black,757663,black_plus_sign,,,,,null,,,,,,,,,,,,,,,,,,,,,,,,,,,,,,
null,,learn_phase(without_color),760278,black_plus_sign,,,,,null,US_Cities_List/mm_hotsprings.png,US_Cities_List/mm_carmel.png,,,,,,,,,,,,,,,,,,,,,,,,,,,,
null,,black_cross(without_color),760909,green,,,,,null,US_Cities_List/mm_hotsprings.png,US_Cities_List/mm_carmel.png,,,,,,,,,,,,,,,,,,,,,,,,,,,,
null,,rt_plussign_withcolor,761413,green,,,,,null,US_Cities_List/mm_hotsprings.png,US_Cities_List/mm_carmel.png,,,,,,,,,,,,,,,,,,,,,,,,,,,,
1539.0999999046326,,rt_thecrossant_black,762802,black_plus_sign,,,,,50,,,1,1,,,,,,,,,,,,,,,,,,,,,,,,,,
null,,color_black,762921,black_plus_sign,,,,,null,,,,,,,,,,,,,,,,,,,,,,,,,,,,,,
null,,learn_phase(without_color),765504,black_plus_sign,,,,,null,US_Cities_List/mm_carmel.png,US_Cities_List/nat_boulder.png,,,,,,,,,,,,,,,,,,,,,,,,,,,,
null,,black_cross(without_color),766315,blue,,,,,null,US_Cities_List/mm_carmel.png,US_Cities_List/nat_boulder.png,,,,,,,,,,,,,,,,,,,,,,,,,,,,
null,,rt_plussign_withcolor,766820,blue,,,,,null,US_Cities_List/mm_carmel.png,US_Cities_List/nat_boulder.png,,,,,,,,,,,,,,,,,,,,,,,,,,,,
831.7000000476837,,rt_thecrossant_black,768027,black_plus_sign,,,,,49,,,1,1,,,,,,,,,,,,,,,,,,,,,,,,,,
null,,color_black,768135,black_plus_sign,,,,,null,,,,,,,,,,,,,,,,,,,,,,,,,,,,,,
null,,learn_phase(without_color),770737,black_plus_sign,,,,,null,US_Cities_List/mm_hotsprings.png,US_Cities_List/mm_carmel.png,,,,,,,,,,,,,,,,,,,,,,,,,,,,
null,,black_cross(without_color),771286,blue,,,,,null,US_Cities_List/mm_hotsprings.png,US_Cities_List/mm_carmel.png,,,,,,,,,,,,,,,,,,,,,,,,,,,,
null,,rt_plussign_withcolor,771796,blue,,,,,null,US_Cities_List/mm_hotsprings.png,US_Cities_List/mm_carmel.png,,,,,,,,,,,,,,,,,,,,,,,,,,,,
1113.2999999523163,,rt_thecrossant_black,773260,black_plus_sign,,,,,49,,,1,1,,,,,,,,,,,,,,,,,,,,,,,,,,
null,,color_black,773369,black_plus_sign,,,,,null,,,,,,,,,,,,,,,,,,,,,,,,,,,,,,
null,,learn_phase(without_color),775953,black_plus_sign,,,,,null,US_Cities_List/nat_racine.png,US_Cities_List/mm_newhope.png,,,,,,,,,,,,,,,,,,,,,,,,,,,,
null,,black_cross(without_color),776579,blue,,,,,null,US_Cities_List/nat_racine.png,US_Cities_List/mm_newhope.png,,,,,,,,,,,,,,,,,,,,,,,,,,,,
null,,rt_plussign_withcolor,777091,blue,,,,,null,US_Cities_List/nat_racine.png,US_Cities_List/mm_newhope.png,,,,,,,,,,,,,,,,,,,,,,,,,,,,
912,,rt_thecrossant_black,778488,black_plus_sign,,,,,49,,,1,1,,,,,,,,,,,,,,,,,,,,,,,,,,
null,,color_black,778598,black_plus_sign,,,,,null,,,,,,,,,,,,,,,,,,,,,,,,,,,,,,
null,,learn_phase(without_color),781182,black_plus_sign,,,,,null,US_Cities_List/nat_peoria.png,US_Cities_List/nat_shreveport.png,,,,,,,,,,,,,,,,,,,,,,,,,,,,
null,,black_cross(without_color),782068,green,,,,,null,US_Cities_List/nat_peoria.png,US_Cities_List/nat_shreveport.png,,,,,,,,,,,,,,,,,,,,,,,,,,,,
null,,rt_plussign_withcolor,782572,green,,,,,null,US_Cities_List/nat_peoria.png,US_Cities_List/nat_shreveport.png,,,,,,,,,,,,,,,,,,,,,,,,,,,,
1025,,rt_thecrossant_black,783700,black_plus_sign,,,,,50,,,1,1,,,,,,,,,,,,,,,,,,,,,,,,,,
null,,color_black,783816,black_plus_sign,,,,,null,,,,,,,,,,,,,,,,,,,,,,,,,,,,,,
null,,learn_phase(without_color),786387,black_plus_sign,,,,,null,US_Cities_List/mm_huntsville.png,US_Cities_List/mm_gatlinburg.png,,,,,,,,,,,,,,,,,,,,,,,,,,,,
null,,black_cross(without_color),787122,blue,,,,,null,US_Cities_List/mm_huntsville.png,US_Cities_List/mm_gatlinburg.png,,,,,,,,,,,,,,,,,,,,,,,,,,,,
null,,rt_plussign_withcolor,787638,blue,,,,,null,US_Cities_List/mm_huntsville.png,US_Cities_List/mm_gatlinburg.png,,,,,,,,,,,,,,,,,,,,,,,,,,,,
1238.7000000476837,,rt_thecrossant_black,788929,black_plus_sign,,,,,49,,,1,1,,,,,,,,,,,,,,,,,,,,,,,,,,
null,,color_black,789036,black_plus_sign,,,,,null,,,,,,,,,,,,,,,,,,,,,,,,,,,,,,
null,,learn_phase(without_color),791610,black_plus_sign,,,,,null,US_Cities_List/mm_gatlinburg.png,US_Cities_List/mm_leesburg.png,,,,,,,,,,,,,,,,,,,,,,,,,,,,
null,,black_cross(without_color),792185,green,,,,,null,US_Cities_List/mm_gatlinburg.png,US_Cities_List/mm_leesburg.png,,,,,,,,,,,,,,,,,,,,,,,,,,,,
null,,rt_plussign_withcolor,792697,green,,,,,null,US_Cities_List/mm_gatlinburg.png,US_Cities_List/mm_leesburg.png,,,,,,,,,,,,,,,,,,,,,,,,,,,,
1053.4000000953674,,rt_thecrossant_black,794150,black_plus_sign,,,,,50,,,1,1,,,,,,,,,,,,,,,,,,,,,,,,,,
null,,color_black,794265,black_plus_sign,,,,,null,,,,,,,,,,,,,,,,,,,,,,,,,,,,,,
null,,learn_phase(without_color),796837,black_plus_sign,,,,,null,US_Cities_List/mm_gatlinburg.png,US_Cities_List/mm_cornwall.png,,,,,,,,,,,,,,,,,,,,,,,,,,,,
null,,black_cross(without_color),797382,green,,,,,null,US_Cities_List/mm_gatlinburg.png,US_Cities_List/mm_cornwall.png,,,,,,,,,,,,,,,,,,,,,,,,,,,,
null,,rt_plussign_withcolor,797892,green,,,,,null,US_Cities_List/mm_gatlinburg.png,US_Cities_List/mm_cornwall.png,,,,,,,,,,,,,,,,,,,,,,,,,,,,
1091.7999999523163,,rt_thecrossant_black,799364,black_plus_sign,,,,,50,,,1,1,,,,,,,,,,,,,,,,,,,,,,,,,,
null,,color_black,799477,black_plus_sign,,,,,null,,,,,,,,,,,,,,,,,,,,,,,,,,,,,,
null,,learn_phase(without_color),802062,black_plus_sign,,,,,null,US_Cities_List/mm_newhope.png,US_Cities_List/mm_hotsprings.png,,,,,,,,,,,,,,,,,,,,,,,,,,,,
null,,black_cross(without_color),803111,blue,,,,,null,US_Cities_List/mm_newhope.png,US_Cities_List/mm_hotsprings.png,,,,,,,,,,,,,,,,,,,,,,,,,,,,
null,,rt_plussign_withcolor,803619,blue,,,,,null,US_Cities_List/mm_newhope.png,US_Cities_List/mm_hotsprings.png,,,,,,,,,,,,,,,,,,,,,,,,,,,,
702.5999999046326,,rt_thecrossant_black,804585,black_plus_sign,,,,,49,,,1,1,,,,,,,,,,,,,,,,,,,,,,,,,,
null,,color_black,804694,black_plus_sign,,,,,null,,,,,,,,,,,,,,,,,,,,,,,,,,,,,,
null,,learn_phase(without_color),807274,black_plus_sign,,,,,null,US_Cities_List/mm_hotsprings.png,US_Cities_List/nat_westpalmbeach.png,,,,,,,,,,,,,,,,,,,,,,,,,,,,
null,,black_cross(without_color),808040,blue,,,,,null,US_Cities_List/mm_hotsprings.png,US_Cities_List/nat_westpalmbeach.png,,,,,,,,,,,,,,,,,,,,,,,,,,,,
null,,rt_plussign_withcolor,808548,blue,,,,,null,US_Cities_List/mm_hotsprings.png,US_Cities_List/nat_westpalmbeach.png,,,,,,,,,,,,,,,,,,,,,,,,,,,,
1508.5,,rt_thecrossant_black,809803,black_plus_sign,,,,,49,,,1,1,,,,,,,,,,,,,,,,,,,,,,,,,,
null,,color_black,809919,black_plus_sign,,,,,null,,,,,,,,,,,,,,,,,,,,,,,,,,,,,,
null,,learn_phase(without_color),812485,black_plus_sign,,,,,null,US_Cities_List/mm_huntsville.png,US_Cities_List/mm_gatlinburg.png,,,,,,,,,,,,,,,,,,,,,,,,,,,,
null,,black_cross(without_color),813368,green,,,,,null,US_Cities_List/mm_huntsville.png,US_Cities_List/mm_gatlinburg.png,,,,,,,,,,,,,,,,,,,,,,,,,,,,
null,,rt_plussign_withcolor,813886,green,,,,,null,US_Cities_List/mm_huntsville.png,US_Cities_List/mm_gatlinburg.png,,,,,,,,,,,,,,,,,,,,,,,,,,,,
1190.6999999284744,,rt_thecrossant_black,815023,black_plus_sign,,,,,50,,,1,1,,,,,,,,,,,,,,,,,,,,,,,,,,
null,,color_black,815138,black_plus_sign,,,,,null,,,,,,,,,,,,,,,,,,,,,,,,,,,,,,
null,,learn_phase(without_color),817714,black_plus_sign,,,,,null,US_Cities_List/mm_newhope.png,US_Cities_List/mm_hotsprings.png,,,,,,,,,,,,,,,,,,,,,,,,,,,,
null,,black_cross(without_color),818205,blue,,,,,null,US_Cities_List/mm_newhope.png,US_Cities_List/mm_hotsprings.png,,,,,,,,,,,,,,,,,,,,,,,,,,,,
null,,rt_plussign_withcolor,818711,blue,,,,,null,US_Cities_List/mm_newhope.png,US_Cities_List/mm_hotsprings.png,,,,,,,,,,,,,,,,,,,,,,,,,,,,
1207.1000000238419,,rt_thecrossant_black,820236,black_plus_sign,,,,,49,,,1,1,,,,,,,,,,,,,,,,,,,,,,,,,,
null,,color_black,820345,black_plus_sign,,,,,null,,,,,,,,,,,,,,,,,,,,,,,,,,,,,,
null,,learn_phase(without_color),822917,black_plus_sign,,,,,null,US_Cities_List/mm_gatlinburg.png,US_Cities_List/mm_cornwall.png,,,,,,,,,,,,,,,,,,,,,,,,,,,,
null,,black_cross(without_color),823449,blue,,,,,null,US_Cities_List/mm_gatlinburg.png,US_Cities_List/mm_cornwall.png,,,,,,,,,,,,,,,,,,,,,,,,,,,,
null,,rt_plussign_withcolor,823958,blue,,,,,null,US_Cities_List/mm_gatlinburg.png,US_Cities_List/mm_cornwall.png,,,,,,,,,,,,,,,,,,,,,,,,,,,,
877.8999999761581,,rt_thecrossant_black,825446,black_plus_sign,,,,,49,,,1,1,,,,,,,,,,,,,,,,,,,,,,,,,,
null,,color_black,825555,black_plus_sign,,,,,null,,,,,,,,,,,,,,,,,,,,,,,,,,,,,,
null,,learn_phase(without_color),828154,black_plus_sign,,,,,null,US_Cities_List/mm_leesburg.png,US_Cities_List/mm_carmel.png,,,,,,,,,,,,,,,,,,,,,,,,,,,,
null,,black_cross(without_color),828993,green,,,,,null,US_Cities_List/mm_leesburg.png,US_Cities_List/mm_carmel.png,,,,,,,,,,,,,,,,,,,,,,,,,,,,
null,,rt_plussign_withcolor,829506,green,,,,,null,US_Cities_List/mm_leesburg.png,US_Cities_List/mm_carmel.png,,,,,,,,,,,,,,,,,,,,,,,,,,,,
795.5,,rt_thecrossant_black,830696,black_plus_sign,,,,,50,,,1,1,,,,,,,,,,,,,,,,,,,,,,,,,,
null,,color_black,830802,black_plus_sign,,,,,null,,,,,,,,,,,,,,,,,,,,,,,,,,,,,,
null,,learn_phase(without_color),833367,black_plus_sign,,,,,null,US_Cities_List/mm_huntsville.png,US_Cities_List/nat_hanover.png,,,,,,,,,,,,,,,,,,,,,,,,,,,,
null,,black_cross(without_color),834006,green,,,,,null,US_Cities_List/mm_huntsville.png,US_Cities_List/nat_hanover.png,,,,,,,,,,,,,,,,,,,,,,,,,,,,
null,,rt_plussign_withcolor,834510,green,,,,,null,US_Cities_List/mm_huntsville.png,US_Cities_List/nat_hanover.png,,,,,,,,,,,,,,,,,,,,,,,,,,,,
1132.2999999523163,,rt_thecrossant_black,835891,black_plus_sign,,,,,50,,,1,1,,,,,,,,,,,,,,,,,,,,,,,,,,
null,,color_black,836001,black_plus_sign,,,,,null,,,,,,,,,,,,,,,,,,,,,,,,,,,,,,
null,,learn_phase(without_color),838576,black_plus_sign,,,,,null,US_Cities_List/mm_gatlinburg.png,US_Cities_List/mm_cornwall.png,,,,,,,,,,,,,,,,,,,,,,,,,,,,
null,,black_cross(without_color),839143,green,,,,,null,US_Cities_List/mm_gatlinburg.png,US_Cities_List/mm_cornwall.png,,,,,,,,,,,,,,,,,,,,,,,,,,,,
null,,rt_plussign_withcolor,839645,green,,,,,null,US_Cities_List/mm_gatlinburg.png,US_Cities_List/mm_cornwall.png,,,,,,,,,,,,,,,,,,,,,,,,,,,,
989.7000000476837,,rt_thecrossant_black,841099,black_plus_sign,,,,,50,,,1,1,,,,,,,,,,,,,,,,,,,,,,,,,,
null,,color_black,841215,black_plus_sign,,,,,null,,,,,,,,,,,,,,,,,,,,,,,,,,,,,,
null,,learn_phase(without_color),843790,black_plus_sign,,,,,null,US_Cities_List/mm_huntsville.png,US_Cities_List/mm_gatlinburg.png,,,,,,,,,,,,,,,,,,,,,,,,,,,,
null,,black_cross(without_color),844824,blue,,,,,null,US_Cities_List/mm_huntsville.png,US_Cities_List/mm_gatlinburg.png,,,,,,,,,,,,,,,,,,,,,,,,,,,,
null,,rt_plussign_withcolor,845329,blue,,,,,null,US_Cities_List/mm_huntsville.png,US_Cities_List/mm_gatlinburg.png,,,,,,,,,,,,,,,,,,,,,,,,,,,,
860.7999999523163,,rt_thecrossant_black,846315,black_plus_sign,,,,,49,,,1,1,,,,,,,,,,,,,,,,,,,,,,,,,,
null,,color_black,846423,black_plus_sign,,,,,null,,,,,,,,,,,,,,,,,,,,,,,,,,,,,,
null,,learn_phase(without_color),849022,black_plus_sign,,,,,null,US_Cities_List/mm_gatlinburg.png,US_Cities_List/mm_cornwall.png,,,,,,,,,,,,,,,,,,,,,,,,,,,,
null,,black_cross(without_color),849879,green,,,,,null,US_Cities_List/mm_gatlinburg.png,US_Cities_List/mm_cornwall.png,,,,,,,,,,,,,,,,,,,,,,,,,,,,
null,,rt_plussign_withcolor,850388,green,,,,,null,US_Cities_List/mm_gatlinburg.png,US_Cities_List/mm_cornwall.png,,,,,,,,,,,,,,,,,,,,,,,,,,,,
1555.1000000238419,,rt_thecrossant_black,851561,black_plus_sign,,,,,50,,,1,1,,,,,,,,,,,,,,,,,,,,,,,,,,
null,,color_black,851674,black_plus_sign,,,,,null,,,,,,,,,,,,,,,,,,,,,,,,,,,,,,
null,,learn_phase(without_color),854247,black_plus_sign,,,,,null,US_Cities_List/mm_huntsville.png,US_Cities_List/nat_hanover.png,,,,,,,,,,,,,,,,,,,,,,,,,,,,
null,,black_cross(without_color),854742,green,,,,,null,US_Cities_List/mm_huntsville.png,US_Cities_List/nat_hanover.png,,,,,,,,,,,,,,,,,,,,,,,,,,,,
null,,rt_plussign_withcolor,855247,green,,,,,null,US_Cities_List/mm_huntsville.png,US_Cities_List/nat_hanover.png,,,,,,,,,,,,,,,,,,,,,,,,,,,,
1394.8999999761581,,rt_thecrossant_black,856768,black_plus_sign,,,,,50,,,1,1,,,,,,,,,,,,,,,,,,,,,,,,,,
null,,color_black,856875,black_plus_sign,,,,,null,,,,,,,,,,,,,,,,,,,,,,,,,,,,,,
null,,learn_phase(without_color),859455,black_plus_sign,,,,,null,US_Cities_List/mm_hotsprings.png,US_Cities_List/nat_westpalmbeach.png,,,,,,,,,,,,,,,,,,,,,,,,,,,,
null,,black_cross(without_color),860407,green,,,,,null,US_Cities_List/mm_hotsprings.png,US_Cities_List/nat_westpalmbeach.png,,,,,,,,,,,,,,,,,,,,,,,,,,,,
null,,rt_plussign_withcolor,860915,green,,,,,null,US_Cities_List/mm_hotsprings.png,US_Cities_List/nat_westpalmbeach.png,,,,,,,,,,,,,,,,,,,,,,,,,,,,
675,,rt_thecrossant_black,861980,black_plus_sign,,,,,50,,,1,1,,,,,,,,,,,,,,,,,,,,,,,,,,
null,,color_black,862089,black_plus_sign,,,,,null,,,,,,,,,,,,,,,,,,,,,,,,,,,,,,
null,,learn_phase(without_color),864657,black_plus_sign,,,,,null,US_Cities_List/mm_leesburg.png,US_Cities_List/mm_carmel.png,,,,,,,,,,,,,,,,,,,,,,,,,,,,
null,,black_cross(without_color),865237,green,,,,,null,US_Cities_List/mm_leesburg.png,US_Cities_List/mm_carmel.png,,,,,,,,,,,,,,,,,,,,,,,,,,,,
null,,rt_plussign_withcolor,865746,green,,,,,null,US_Cities_List/mm_leesburg.png,US_Cities_List/mm_carmel.png,,,,,,,,,,,,,,,,,,,,,,,,,,,,
1372.7000000476837,,rt_thecrossant_black,867193,black_plus_sign,,,,,50,,,1,1,,,,,,,,,,,,,,,,,,,,,,,,,,
null,,color_black,867312,black_plus_sign,,,,,null,,,,,,,,,,,,,,,,,,,,,,,,,,,,,,
null,,learn_phase(without_color),869881,black_plus_sign,,,,,null,US_Cities_List/mm_hotsprings.png,US_Cities_List/nat_westpalmbeach.png,,,,,,,,,,,,,,,,,,,,,,,,,,,,
null,,black_cross(without_color),870440,green,,,,,null,US_Cities_List/mm_hotsprings.png,US_Cities_List/nat_westpalmbeach.png,,,,,,,,,,,,,,,,,,,,,,,,,,,,
null,,rt_plussign_withcolor,870946,green,,,,,null,US_Cities_List/mm_hotsprings.png,US_Cities_List/nat_westpalmbeach.png,,,,,,,,,,,,,,,,,,,,,,,,,,,,
1009.8999999761581,,rt_thecrossant_black,872408,black_plus_sign,,,,,50,,,1,1,,,,,,,,,,,,,,,,,,,,,,,,,,
null,,color_black,872519,black_plus_sign,,,,,null,,,,,,,,,,,,,,,,,,,,,,,,,,,,,,
null,,learn_phase(without_color),875081,black_plus_sign,,,,,null,US_Cities_List/mm_huntsville.png,US_Cities_List/mm_gatlinburg.png,,,,,,,,,,,,,,,,,,,,,,,,,,,,
null,,black_cross(without_color),875599,green,,,,,null,US_Cities_List/mm_huntsville.png,US_Cities_List/mm_gatlinburg.png,,,,,,,,,,,,,,,,,,,,,,,,,,,,
null,,rt_plussign_withcolor,876105,green,,,,,null,US_Cities_List/mm_huntsville.png,US_Cities_List/mm_gatlinburg.png,,,,,,,,,,,,,,,,,,,,,,,,,,,,
646.3999999761581,,rt_thecrossant_black,877609,black_plus_sign,,,,,50,,,1,1,,,,,,,,,,,,,,,,,,,,,,,,,,
null,,color_black,877718,black_plus_sign,,,,,null,,,,,,,,,,,,,,,,,,,,,,,,,,,,,,
null,,learn_phase(without_color),880300,black_plus_sign,,,,,null,US_Cities_List/mm_gatlinburg.png,US_Cities_List/mm_leesburg.png,,,,,,,,,,,,,,,,,,,,,,,,,,,,
null,,black_cross(without_color),881187,blue,,,,,null,US_Cities_List/mm_gatlinburg.png,US_Cities_List/mm_leesburg.png,,,,,,,,,,,,,,,,,,,,,,,,,,,,
null,,rt_plussign_withcolor,881696,blue,,,,,null,US_Cities_List/mm_gatlinburg.png,US_Cities_List/mm_leesburg.png,,,,,,,,,,,,,,,,,,,,,,,,,,,,
737.8999999761581,,rt_thecrossant_black,882835,black_plus_sign,,,,,49,,,1,1,,,,,,,,,,,,,,,,,,,,,,,,,,
null,,color_black,882939,black_plus_sign,,,,,null,,,,,,,,,,,,,,,,,,,,,,,,,,,,,,
null,,learn_phase(without_color),885516,black_plus_sign,,,,,null,US_Cities_List/mm_hotsprings.png,US_Cities_List/nat_westpalmbeach.png,,,,,,,,,,,,,,,,,,,,,,,,,,,,
null,,black_cross(without_color),886357,green,,,,,null,US_Cities_List/mm_hotsprings.png,US_Cities_List/nat_westpalmbeach.png,,,,,,,,,,,,,,,,,,,,,,,,,,,,
null,,rt_plussign_withcolor,886862,green,,,,,null,US_Cities_List/mm_hotsprings.png,US_Cities_List/nat_westpalmbeach.png,,,,,,,,,,,,,,,,,,,,,,,,,,,,
1319.7999999523163,,rt_thecrossant_black,888045,black_plus_sign,,,,,50,,,1,1,,,,,,,,,,,,,,,,,,,,,,,,,,
null,,color_black,888153,black_plus_sign,,,,,null,,,,,,,,,,,,,,,,,,,,,,,,,,,,,,
null,,learn_phase(without_color),890741,black_plus_sign,,,,,null,US_Cities_List/mm_gatlinburg.png,US_Cities_List/mm_cornwall.png,,,,,,,,,,,,,,,,,,,,,,,,,,,,
null,,black_cross(without_color),891204,blue,,,,,null,US_Cities_List/mm_gatlinburg.png,US_Cities_List/mm_cornwall.png,,,,,,,,,,,,,,,,,,,,,,,,,,,,
null,,rt_plussign_withcolor,891719,blue,,,,,null,US_Cities_List/mm_gatlinburg.png,US_Cities_List/mm_cornwall.png,,,,,,,,,,,,,,,,,,,,,,,,,,,,
1361.6000000238419,,rt_thecrossant_black,893277,black_plus_sign,,,,,49,,,1,1,,,,,,,,,,,,,,,,,,,,,,,,,,
null,,color_black,893393,black_plus_sign,,,,,null,,,,,,,,,,,,,,,,,,,,,,,,,,,,,,
null,,learn_phase(without_color),895977,black_plus_sign,,,,,null,US_Cities_List/nat_racine.png,US_Cities_List/mm_newhope.png,,,,,,,,,,,,,,,,,,,,,,,,,,,,
null,,black_cross(without_color),896576,green,,,,,null,US_Cities_List/nat_racine.png,US_Cities_List/mm_newhope.png,,,,,,,,,,,,,,,,,,,,,,,,,,,,
null,,rt_plussign_withcolor,897090,green,,,,,null,US_Cities_List/nat_racine.png,US_Cities_List/mm_newhope.png,,,,,,,,,,,,,,,,,,,,,,,,,,,,
1018.8000000715256,,rt_thecrossant_black,898529,black_plus_sign,,,,,50,,,1,1,,,,,,,,,,,,,,,,,,,,,,,,,,
null,,color_black,898638,black_plus_sign,,,,,null,,,,,,,,,,,,,,,,,,,,,,,,,,,,,,
null,,learn_phase(without_color),901216,black_plus_sign,,,,,null,US_Cities_List/mm_huntsville.png,US_Cities_List/mm_leesburg.png,,,,,,,,,,,,,,,,,,,,,,,,,,,,
null,,black_cross(without_color),901984,blue,,,,,null,US_Cities_List/mm_huntsville.png,US_Cities_List/mm_leesburg.png,,,,,,,,,,,,,,,,,,,,,,,,,,,,
null,,rt_plussign_withcolor,902491,blue,,,,,null,US_Cities_List/mm_huntsville.png,US_Cities_List/mm_leesburg.png,,,,,,,,,,,,,,,,,,,,,,,,,,,,
939,,rt_thecrossant_black,903741,black_plus_sign,,,,,49,,,1,1,,,,,,,,,,,,,,,,,,,,,,,,,,
null,,color_black,903852,black_plus_sign,,,,,null,,,,,,,,,,,,,,,,,,,,,,,,,,,,,,
null,,learn_phase(without_color),906434,black_plus_sign,,,,,null,US_Cities_List/nat_westpalmbeach.png,US_Cities_List/mm_huntsville.png,,,,,,,,,,,,,,,,,,,,,,,,,,,,
null,,black_cross(without_color),907177,green,,,,,null,US_Cities_List/nat_westpalmbeach.png,US_Cities_List/mm_huntsville.png,,,,,,,,,,,,,,,,,,,,,,,,,,,,
null,,rt_plussign_withcolor,907687,green,,,,,null,US_Cities_List/nat_westpalmbeach.png,US_Cities_List/mm_huntsville.png,,,,,,,,,,,,,,,,,,,,,,,,,,,,
1070.1000000238419,,rt_thecrossant_black,908964,black_plus_sign,,,,,50,,,1,1,,,,,,,,,,,,,,,,,,,,,,,,,,
null,,color_black,909077,black_plus_sign,,,,,null,,,,,,,,,,,,,,,,,,,,,,,,,,,,,,
null,,learn_phase(without_color),911630,black_plus_sign,,,,,null,US_Cities_List/mm_huntsville.png,US_Cities_List/mm_gatlinburg.png,,,,,,,,,,,,,,,,,,,,,,,,,,,,
null,,black_cross(without_color),912148,green,,,,,null,US_Cities_List/mm_huntsville.png,US_Cities_List/mm_gatlinburg.png,,,,,,,,,,,,,,,,,,,,,,,,,,,,
null,,rt_plussign_withcolor,912652,green,,,,,null,US_Cities_List/mm_huntsville.png,US_Cities_List/mm_gatlinburg.png,,,,,,,,,,,,,,,,,,,,,,,,,,,,
1246.0999999046326,,rt_thecrossant_black,914153,black_plus_sign,,,,,50,,,1,1,,,,,,,,,,,,,,,,,,,,,,,,,,
null,,color_black,914261,black_plus_sign,,,,,null,,,,,,,,,,,,,,,,,,,,,,,,,,,,,,
null,,learn_phase(without_color),916839,black_plus_sign,,,,,null,US_Cities_List/mm_newhope.png,US_Cities_List/mm_hotsprings.png,,,,,,,,,,,,,,,,,,,,,,,,,,,,
null,,black_cross(without_color),917422,blue,,,,,null,US_Cities_List/mm_newhope.png,US_Cities_List/mm_hotsprings.png,,,,,,,,,,,,,,,,,,,,,,,,,,,,
null,,rt_plussign_withcolor,917929,blue,,,,,null,US_Cities_List/mm_newhope.png,US_Cities_List/mm_hotsprings.png,,,,,,,,,,,,,,,,,,,,,,,,,,,,
892.3000000715256,,rt_thecrossant_black,919367,black_plus_sign,,,,,49,,,1,1,,,,,,,,,,,,,,,,,,,,,,,,,,
null,,color_black,919473,black_plus_sign,,,,,null,,,,,,,,,,,,,,,,,,,,,,,,,,,,,,
null,,learn_phase(without_color),922062,black_plus_sign,,,,,null,US_Cities_List/mm_newhope.png,US_Cities_List/nat_peoria.png,,,,,,,,,,,,,,,,,,,,,,,,,,,,
null,,black_cross(without_color),923025,blue,,,,,null,US_Cities_List/mm_newhope.png,US_Cities_List/nat_peoria.png,,,,,,,,,,,,,,,,,,,,,,,,,,,,
null,,rt_plussign_withcolor,923530,blue,,,,,null,US_Cities_List/mm_newhope.png,US_Cities_List/nat_peoria.png,,,,,,,,,,,,,,,,,,,,,,,,,,,,
1110.6000000238419,,rt_thecrossant_black,924585,black_plus_sign,,,,,49,,,1,1,,,,,,,,,,,,,,,,,,,,,,,,,,
null,,color_black,924701,black_plus_sign,,,,,null,,,,,,,,,,,,,,,,,,,,,,,,,,,,,,
null,,learn_phase(without_color),927307,black_plus_sign,,,,,null,US_Cities_List/mm_hotsprings.png,US_Cities_List/mm_carmel.png,,,,,,,,,,,,,,,,,,,,,,,,,,,,
null,,black_cross(without_color),928251,blue,,,,,null,US_Cities_List/mm_hotsprings.png,US_Cities_List/mm_carmel.png,,,,,,,,,,,,,,,,,,,,,,,,,,,,
null,,rt_plussign_withcolor,928769,blue,,,,,null,US_Cities_List/mm_hotsprings.png,US_Cities_List/mm_carmel.png,,,,,,,,,,,,,,,,,,,,,,,,,,,,
1161.3000000715256,,rt_thecrossant_black,929850,black_plus_sign,,,,,49,,,1,1,,,,,,,,,,,,,,,,,,,,,,,,,,
null,,color_black,929958,black_plus_sign,,,,,null,,,,,,,,,,,,,,,,,,,,,,,,,,,,,,
null,,learn_phase(without_color),932529,black_plus_sign,,,,,null,US_Cities_List/mm_gatlinburg.png,US_Cities_List/mm_leesburg.png,,,,,,,,,,,,,,,,,,,,,,,,,,,,
null,,black_cross(without_color),933348,green,,,,,null,US_Cities_List/mm_gatlinburg.png,US_Cities_List/mm_leesburg.png,,,,,,,,,,,,,,,,,,,,,,,,,,,,
null,,rt_plussign_withcolor,933858,green,,,,,null,US_Cities_List/mm_gatlinburg.png,US_Cities_List/mm_leesburg.png,,,,,,,,,,,,,,,,,,,,,,,,,,,,
1411.5,,rt_thecrossant_black,935061,black_plus_sign,,,,,50,,,1,1,,,,,,,,,,,,,,,,,,,,,,,,,,
null,,color_black,935170,black_plus_sign,,,,,null,,,,,,,,,,,,,,,,,,,,,,,,,,,,,,
null,,learn_phase(without_color),937730,black_plus_sign,,,,,null,US_Cities_List/nat_westpalmbeach.png,US_Cities_List/mm_leesburg.png,,,,,,,,,,,,,,,,,,,,,,,,,,,,
null,,black_cross(without_color),938453,green,,,,,null,US_Cities_List/nat_westpalmbeach.png,US_Cities_List/mm_leesburg.png,,,,,,,,,,,,,,,,,,,,,,,,,,,,
null,,rt_plussign_withcolor,938966,green,,,,,null,US_Cities_List/nat_westpalmbeach.png,US_Cities_List/mm_leesburg.png,,,,,,,,,,,,,,,,,,,,,,,,,,,,
1150.5,,rt_thecrossant_black,940266,black_plus_sign,,,,,50,,,1,1,,,,,,,,,,,,,,,,,,,,,,,,,,
null,,color_black,940374,black_plus_sign,,,,,null,,,,,,,,,,,,,,,,,,,,,,,,,,,,,,
null,,learn_phase(without_color),942955,black_plus_sign,,,,,null,US_Cities_List/mm_hotsprings.png,US_Cities_List/mm_carmel.png,,,,,,,,,,,,,,,,,,,,,,,,,,,,
null,,black_cross(without_color),943533,green,,,,,null,US_Cities_List/mm_hotsprings.png,US_Cities_List/mm_carmel.png,,,,,,,,,,,,,,,,,,,,,,,,,,,,
null,,rt_plussign_withcolor,944045,green,,,,,null,US_Cities_List/mm_hotsprings.png,US_Cities_List/mm_carmel.png,,,,,,,,,,,,,,,,,,,,,,,,,,,,
1030.6000000238419,,rt_thecrossant_black,945479,black_plus_sign,,,,,50,,,1,1,,,,,,,,,,,,,,,,,,,,,,,,,,
null,,color_black,945587,black_plus_sign,,,,,null,,,,,,,,,,,,,,,,,,,,,,,,,,,,,,
null,,learn_phase(without_color),948151,black_plus_sign,,,,,null,US_Cities_List/mm_huntsville.png,US_Cities_List/mm_gatlinburg.png,,,,,,,,,,,,,,,,,,,,,,,,,,,,
null,,black_cross(without_color),949215,blue,,,,,null,US_Cities_List/mm_huntsville.png,US_Cities_List/mm_gatlinburg.png,,,,,,,,,,,,,,,,,,,,,,,,,,,,
null,,rt_plussign_withcolor,949722,blue,,,,,null,US_Cities_List/mm_huntsville.png,US_Cities_List/mm_gatlinburg.png,,,,,,,,,,,,,,,,,,,,,,,,,,,,
1030.2000000476837,,rt_thecrossant_black,950677,black_plus_sign,,,,,49,,,1,1,,,,,,,,,,,,,,,,,,,,,,,,,,
null,,color_black,950792,black_plus_sign,,,,,null,,,,,,,,,,,,,,,,,,,,,,,,,,,,,,
null,,learn_phase(without_color),953356,black_plus_sign,,,,,null,US_Cities_List/mm_huntsville.png,US_Cities_List/mm_leesburg.png,,,,,,,,,,,,,,,,,,,,,,,,,,,,
null,,black_cross(without_color),954034,green,,,,,null,US_Cities_List/mm_huntsville.png,US_Cities_List/mm_leesburg.png,,,,,,,,,,,,,,,,,,,,,,,,,,,,
null,,rt_plussign_withcolor,954546,green,,,,,null,US_Cities_List/mm_huntsville.png,US_Cities_List/mm_leesburg.png,,,,,,,,,,,,,,,,,,,,,,,,,,,,
1320,,rt_thecrossant_black,955887,black_plus_sign,,,,,50,,,1,1,,,,,,,,,,,,,,,,,,,,,,,,,,
null,,color_black,955996,black_plus_sign,,,,,null,,,,,,,,,,,,,,,,,,,,,,,,,,,,,,
null,,learn_phase(without_color),958575,black_plus_sign,,,,,null,US_Cities_List/nat_racine.png,US_Cities_List/mm_newhope.png,,,,,,,,,,,,,,,,,,,,,,,,,,,,
null,,black_cross(without_color),959659,green,,,,,null,US_Cities_List/nat_racine.png,US_Cities_List/mm_newhope.png,,,,,,,,,,,,,,,,,,,,,,,,,,,,
null,,rt_plussign_withcolor,960169,green,,,,,null,US_Cities_List/nat_racine.png,US_Cities_List/mm_newhope.png,,,,,,,,,,,,,,,,,,,,,,,,,,,,
1043.3999999761581,,rt_thecrossant_black,961102,black_plus_sign,,,,,50,,,1,1,,,,,,,,,,,,,,,,,,,,,,,,,,
null,,color_black,961210,black_plus_sign,,,,,null,,,,,,,,,,,,,,,,,,,,,,,,,,,,,,
null,,learn_phase(without_color),963784,black_plus_sign,,,,,null,US_Cities_List/mm_gatlinburg.png,US_Cities_List/mm_leesburg.png,,,,,,,,,,,,,,,,,,,,,,,,,,,,
null,,black_cross(without_color),964575,blue,,,,,null,US_Cities_List/mm_gatlinburg.png,US_Cities_List/mm_leesburg.png,,,,,,,,,,,,,,,,,,,,,,,,,,,,
null,,rt_plussign_withcolor,965086,blue,,,,,null,US_Cities_List/mm_gatlinburg.png,US_Cities_List/mm_leesburg.png,,,,,,,,,,,,,,,,,,,,,,,,,,,,
1644.8999999761581,,rt_thecrossant_black,966314,black_plus_sign,,,,,49,,,1,1,,,,,,,,,,,,,,,,,,,,,,,,,,
null,,color_black,966422,black_plus_sign,,,,,null,,,,,,,,,,,,,,,,,,,,,,,,,,,,,,
null,,learn_phase(without_color),969016,black_plus_sign,,,,,null,US_Cities_List/mm_carmel.png,US_Cities_List/nat_boulder.png,,,,,,,,,,,,,,,,,,,,,,,,,,,,
null,,black_cross(without_color),969950,blue,,,,,null,US_Cities_List/mm_carmel.png,US_Cities_List/nat_boulder.png,,,,,,,,,,,,,,,,,,,,,,,,,,,,
null,,rt_plussign_withcolor,970453,blue,,,,,null,US_Cities_List/mm_carmel.png,US_Cities_List/nat_boulder.png,,,,,,,,,,,,,,,,,,,,,,,,,,,,
963.2999999523163,,rt_thecrossant_black,971540,black_plus_sign,,,,,49,,,1,1,,,,,,,,,,,,,,,,,,,,,,,,,,
null,,color_black,971651,black_plus_sign,,,,,null,,,,,,,,,,,,,,,,,,,,,,,,,,,,,,
null,,learn_phase(without_color),974220,black_plus_sign,,,,,null,US_Cities_List/nat_racine.png,US_Cities_List/mm_newhope.png,,,,,,,,,,,,,,,,,,,,,,,,,,,,
null,,black_cross(without_color),974980,blue,,,,,null,US_Cities_List/nat_racine.png,US_Cities_List/mm_newhope.png,,,,,,,,,,,,,,,,,,,,,,,,,,,,
null,,rt_plussign_withcolor,975488,blue,,,,,null,US_Cities_List/nat_racine.png,US_Cities_List/mm_newhope.png,,,,,,,,,,,,,,,,,,,,,,,,,,,,
1405.5,,rt_thecrossant_black,976749,black_plus_sign,,,,,49,,,1,1,,,,,,,,,,,,,,,,,,,,,,,,,,
null,,color_black,976859,black_plus_sign,,,,,null,,,,,,,,,,,,,,,,,,,,,,,,,,,,,,
null,,learn_phase(without_color),979455,black_plus_sign,,,,,null,US_Cities_List/mm_newhope.png,US_Cities_List/mm_hotsprings.png,,,,,,,,,,,,,,,,,,,,,,,,,,,,
null,,black_cross(without_color),980403,blue,,,,,null,US_Cities_List/mm_newhope.png,US_Cities_List/mm_hotsprings.png,,,,,,,,,,,,,,,,,,,,,,,,,,,,
null,,rt_plussign_withcolor,980909,blue,,,,,null,US_Cities_List/mm_newhope.png,US_Cities_List/mm_hotsprings.png,,,,,,,,,,,,,,,,,,,,,,,,,,,,
1240,,rt_thecrossant_black,981984,black_plus_sign,,,,,49,,,1,1,,,,,,,,,,,,,,,,,,,,,,,,,,
null,,color_black,982093,black_plus_sign,,,,,null,,,,,,,,,,,,,,,,,,,,,,,,,,,,,,
null,,learn_phase(without_color),984687,black_plus_sign,,,,,null,US_Cities_List/nat_racine.png,US_Cities_List/mm_newhope.png,,,,,,,,,,,,,,,,,,,,,,,,,,,,
null,,black_cross(without_color),985423,green,,,,,null,US_Cities_List/nat_racine.png,US_Cities_List/mm_newhope.png,,,,,,,,,,,,,,,,,,,,,,,,,,,,
null,,rt_plussign_withcolor,985929,green,,,,,null,US_Cities_List/nat_racine.png,US_Cities_List/mm_newhope.png,,,,,,,,,,,,,,,,,,,,,,,,,,,,
1537.7000000476837,,rt_thecrossant_black,987225,black_plus_sign,,,,,50,,,1,1,,,,,,,,,,,,,,,,,,,,,,,,,,
null,,color_black,987344,black_plus_sign,,,,,null,,,,,,,,,,,,,,,,,,,,,,,,,,,,,,
null,,learn_phase(without_color),989918,black_plus_sign,,,,,null,US_Cities_List/nat_peoria.png,US_Cities_List/nat_shreveport.png,,,,,,,,,,,,,,,,,,,,,,,,,,,,
null,,black_cross(without_color),990493,blue,,,,,null,US_Cities_List/nat_peoria.png,US_Cities_List/nat_shreveport.png,,,,,,,,,,,,,,,,,,,,,,,,,,,,
null,,rt_plussign_withcolor,991002,blue,,,,,null,US_Cities_List/nat_peoria.png,US_Cities_List/nat_shreveport.png,,,,,,,,,,,,,,,,,,,,,,,,,,,,
1148.1000000238419,,rt_thecrossant_black,992453,black_plus_sign,,,,,49,,,1,1,,,,,,,,,,,,,,,,,,,,,,,,,,
null,,color_black,992571,black_plus_sign,,,,,null,,,,,,,,,,,,,,,,,,,,,,,,,,,,,,
null,,learn_phase(without_color),995140,black_plus_sign,,,,,null,US_Cities_List/mm_gatlinburg.png,US_Cities_List/mm_leesburg.png,,,,,,,,,,,,,,,,,,,,,,,,,,,,
null,,black_cross(without_color),995914,blue,,,,,null,US_Cities_List/mm_gatlinburg.png,US_Cities_List/mm_leesburg.png,,,,,,,,,,,,,,,,,,,,,,,,,,,,
null,,rt_plussign_withcolor,996426,blue,,,,,null,US_Cities_List/mm_gatlinburg.png,US_Cities_List/mm_leesburg.png,,,,,,,,,,,,,,,,,,,,,,,,,,,,
1056.7000000476837,,rt_thecrossant_black,997675,black_plus_sign,,,,,49,,,1,1,,,,,,,,,,,,,,,,,,,,,,,,,,
null,,color_black,997785,black_plus_sign,,,,,null,,,,,,,,,,,,,,,,,,,,,,,,,,,,,,
null,,learn_phase(without_color),1000350,black_plus_sign,,,,,null,US_Cities_List/mm_huntsville.png,US_Cities_List/nat_hanover.png,,,,,,,,,,,,,,,,,,,,,,,,,,,,
null,,black_cross(without_color),1000823,blue,,,,,null,US_Cities_List/mm_huntsville.png,US_Cities_List/nat_hanover.png,,,,,,,,,,,,,,,,,,,,,,,,,,,,
null,,rt_plussign_withcolor,1001338,blue,,,,,null,US_Cities_List/mm_huntsville.png,US_Cities_List/nat_hanover.png,,,,,,,,,,,,,,,,,,,,,,,,,,,,
959.8999999761581,,rt_thecrossant_black,1002896,black_plus_sign,,,,,49,,,1,1,,,,,,,,,,,,,,,,,,,,,,,,,,
null,,color_black,1003004,black_plus_sign,,,,,null,,,,,,,,,,,,,,,,,,,,,,,,,,,,,,
null,,learn_phase(without_color),1005576,black_plus_sign,,,,,null,US_Cities_List/nat_westpalmbeach.png,US_Cities_List/mm_leesburg.png,,,,,,,,,,,,,,,,,,,,,,,,,,,,
null,,black_cross(without_color),1006629,blue,,,,,null,US_Cities_List/nat_westpalmbeach.png,US_Cities_List/mm_leesburg.png,,,,,,,,,,,,,,,,,,,,,,,,,,,,
null,,rt_plussign_withcolor,1007139,blue,,,,,null,US_Cities_List/nat_westpalmbeach.png,US_Cities_List/mm_leesburg.png,,,,,,,,,,,,,,,,,,,,,,,,,,,,
807.7000000476837,,rt_thecrossant_black,1008109,black_plus_sign,,,,,49,,,1,1,,,,,,,,,,,,,,,,,,,,,,,,,,
null,,color_black,1008220,black_plus_sign,,,,,null,,,,,,,,,,,,,,,,,,,,,,,,,,,,,,
null,,learn_phase(without_color),1010781,black_plus_sign,,,,,null,US_Cities_List/mm_hotsprings.png,US_Cities_List/mm_carmel.png,,,,,,,,,,,,,,,,,,,,,,,,,,,,
null,,black_cross(without_color),1011446,green,,,,,null,US_Cities_List/mm_hotsprings.png,US_Cities_List/mm_carmel.png,,,,,,,,,,,,,,,,,,,,,,,,,,,,
null,,rt_plussign_withcolor,1011954,green,,,,,null,US_Cities_List/mm_hotsprings.png,US_Cities_List/mm_carmel.png,,,,,,,,,,,,,,,,,,,,,,,,,,,,
1403,,rt_thecrossant_black,1013311,black_plus_sign,,,,,50,,,1,1,,,,,,,,,,,,,,,,,,,,,,,,,,
null,,color_black,1013421,black_plus_sign,,,,,null,,,,,,,,,,,,,,,,,,,,,,,,,,,,,,
null,,learn_phase(without_color),1016012,black_plus_sign,,,,,null,US_Cities_List/mm_hotsprings.png,US_Cities_List/nat_westpalmbeach.png,,,,,,,,,,,,,,,,,,,,,,,,,,,,
null,,black_cross(without_color),1017116,blue,,,,,null,US_Cities_List/mm_hotsprings.png,US_Cities_List/nat_westpalmbeach.png,,,,,,,,,,,,,,,,,,,,,,,,,,,,
null,,rt_plussign_withcolor,1017621,blue,,,,,null,US_Cities_List/mm_hotsprings.png,US_Cities_List/nat_westpalmbeach.png,,,,,,,,,,,,,,,,,,,,,,,,,,,,
971,,rt_thecrossant_black,1018538,black_plus_sign,,,,,49,,,1,1,,,,,,,,,,,,,,,,,,,,,,,,,,
null,,color_black,1018650,black_plus_sign,,,,,null,,,,,,,,,,,,,,,,,,,,,,,,,,,,,,
null,,learn_phase(without_color),1021234,black_plus_sign,,,,,null,US_Cities_List/nat_westpalmbeach.png,US_Cities_List/mm_huntsville.png,,,,,,,,,,,,,,,,,,,,,,,,,,,,
null,,black_cross(without_color),1021768,green,,,,,null,US_Cities_List/nat_westpalmbeach.png,US_Cities_List/mm_huntsville.png,,,,,,,,,,,,,,,,,,,,,,,,,,,,
null,,rt_plussign_withcolor,1022278,green,,,,,null,US_Cities_List/nat_westpalmbeach.png,US_Cities_List/mm_huntsville.png,,,,,,,,,,,,,,,,,,,,,,,,,,,,
1545.3999999761581,,rt_thecrossant_black,1023760,black_plus_sign,,,,,50,,,1,1,,,,,,,,,,,,,,,,,,,,,,,,,,
null,,color_black,1023870,black_plus_sign,,,,,null,,,,,,,,,,,,,,,,,,,,,,,,,,,,,,
null,,learn_phase(without_color),1026433,black_plus_sign,,,,,null,US_Cities_List/nat_westpalmbeach.png,US_Cities_List/mm_leesburg.png,,,,,,,,,,,,,,,,,,,,,,,,,,,,
null,,black_cross(without_color),1027423,blue,,,,,null,US_Cities_List/nat_westpalmbeach.png,US_Cities_List/mm_leesburg.png,,,,,,,,,,,,,,,,,,,,,,,,,,,,
null,,rt_plussign_withcolor,1027938,blue,,,,,null,US_Cities_List/nat_westpalmbeach.png,US_Cities_List/mm_leesburg.png,,,,,,,,,,,,,,,,,,,,,,,,,,,,
860.6999999284744,,rt_thecrossant_black,1028966,black_plus_sign,,,,,49,,,1,1,,,,,,,,,,,,,,,,,,,,,,,,,,
null,,color_black,1029076,black_plus_sign,,,,,null,,,,,,,,,,,,,,,,,,,,,,,,,,,,,,
null,,learn_phase(without_color),1031622,black_plus_sign,,,,,null,US_Cities_List/mm_newhope.png,US_Cities_List/nat_peoria.png,,,,,,,,,,,,,,,,,,,,,,,,,,,,
null,,black_cross(without_color),1032539,blue,,,,,null,US_Cities_List/mm_newhope.png,US_Cities_List/nat_peoria.png,,,,,,,,,,,,,,,,,,,,,,,,,,,,
null,,rt_plussign_withcolor,1033044,blue,,,,,null,US_Cities_List/mm_newhope.png,US_Cities_List/nat_peoria.png,,,,,,,,,,,,,,,,,,,,,,,,,,,,
1422,,rt_thecrossant_black,1034147,black_plus_sign,,,,,49,,,1,1,,,,,,,,,,,,,,,,,,,,,,,,,,
null,,color_black,1034263,black_plus_sign,,,,,null,,,,,,,,,,,,,,,,,,,,,,,,,,,,,,
null,,learn_phase(without_color),1036827,black_plus_sign,,,,,null,US_Cities_List/mm_huntsville.png,US_Cities_List/nat_hanover.png,,,,,,,,,,,,,,,,,,,,,,,,,,,,
null,,black_cross(without_color),1037602,green,,,,,null,US_Cities_List/mm_huntsville.png,US_Cities_List/nat_hanover.png,,,,,,,,,,,,,,,,,,,,,,,,,,,,
null,,rt_plussign_withcolor,1038109,green,,,,,null,US_Cities_List/mm_huntsville.png,US_Cities_List/nat_hanover.png,,,,,,,,,,,,,,,,,,,,,,,,,,,,
1353.8999999761581,,rt_thecrossant_black,1039366,black_plus_sign,,,,,50,,,1,1,,,,,,,,,,,,,,,,,,,,,,,,,,
null,,color_black,1039479,black_plus_sign,,,,,null,,,,,,,,,,,,,,,,,,,,,,,,,,,,,,
null,,learn_phase(without_color),1042050,black_plus_sign,,,,,null,US_Cities_List/nat_racine.png,US_Cities_List/mm_newhope.png,,,,,,,,,,,,,,,,,,,,,,,,,,,,
null,,black_cross(without_color),1042774,blue,,,,,null,US_Cities_List/nat_racine.png,US_Cities_List/mm_newhope.png,,,,,,,,,,,,,,,,,,,,,,,,,,,,
null,,rt_plussign_withcolor,1043279,blue,,,,,null,US_Cities_List/nat_racine.png,US_Cities_List/mm_newhope.png,,,,,,,,,,,,,,,,,,,,,,,,,,,,
970.5,,rt_thecrossant_black,1044578,black_plus_sign,,,,,49,,,1,1,,,,,,,,,,,,,,,,,,,,,,,,,,
null,,color_black,1044697,black_plus_sign,,,,,null,,,,,,,,,,,,,,,,,,,,,,,,,,,,,,
null,,learn_phase(without_color),1047265,black_plus_sign,,,,,null,US_Cities_List/mm_newhope.png,US_Cities_List/nat_peoria.png,,,,,,,,,,,,,,,,,,,,,,,,,,,,
null,,black_cross(without_color),1047961,green,,,,,null,US_Cities_List/mm_newhope.png,US_Cities_List/nat_peoria.png,,,,,,,,,,,,,,,,,,,,,,,,,,,,
null,,rt_plussign_withcolor,1048466,green,,,,,null,US_Cities_List/mm_newhope.png,US_Cities_List/nat_peoria.png,,,,,,,,,,,,,,,,,,,,,,,,,,,,
1179.0999999046326,,rt_thecrossant_black,1049785,black_plus_sign,,,,,50,,,1,1,,,,,,,,,,,,,,,,,,,,,,,,,,
null,,color_black,1049891,black_plus_sign,,,,,null,,,,,,,,,,,,,,,,,,,,,,,,,,,,,,
null,,learn_phase(without_color),1052474,black_plus_sign,,,,,null,US_Cities_List/mm_newhope.png,US_Cities_List/mm_hotsprings.png,,,,,,,,,,,,,,,,,,,,,,,,,,,,
null,,black_cross(without_color),1053159,blue,,,,,null,US_Cities_List/mm_newhope.png,US_Cities_List/mm_hotsprings.png,,,,,,,,,,,,,,,,,,,,,,,,,,,,
null,,rt_plussign_withcolor,1053670,blue,,,,,null,US_Cities_List/mm_newhope.png,US_Cities_List/mm_hotsprings.png,,,,,,,,,,,,,,,,,,,,,,,,,,,,
1085.6000000238419,,rt_thecrossant_black,1055008,black_plus_sign,,,,,49,,,1,1,,,,,,,,,,,,,,,,,,,,,,,,,,
null,,color_black,1055116,black_plus_sign,,,,,null,,,,,,,,,,,,,,,,,,,,,,,,,,,,,,
null,,learn_phase(without_color),1057686,black_plus_sign,,,,,null,US_Cities_List/nat_westpalmbeach.png,US_Cities_List/mm_huntsville.png,,,,,,,,,,,,,,,,,,,,,,,,,,,,
null,,black_cross(without_color),1058199,green,,,,,null,US_Cities_List/nat_westpalmbeach.png,US_Cities_List/mm_huntsville.png,,,,,,,,,,,,,,,,,,,,,,,,,,,,
null,,rt_plussign_withcolor,1058710,green,,,,,null,US_Cities_List/nat_westpalmbeach.png,US_Cities_List/mm_huntsville.png,,,,,,,,,,,,,,,,,,,,,,,,,,,,
1054.6999999284744,,rt_thecrossant_black,1060213,black_plus_sign,,,,,50,,,1,1,,,,,,,,,,,,,,,,,,,,,,,,,,
null,,color_black,1060323,black_plus_sign,,,,,null,,,,,,,,,,,,,,,,,,,,,,,,,,,,,,
null,,learn_phase(without_color),1062916,black_plus_sign,,,,,null,US_Cities_List/mm_newhope.png,US_Cities_List/nat_peoria.png,,,,,,,,,,,,,,,,,,,,,,,,,,,,
null,,black_cross(without_color),1063605,blue,,,,,null,US_Cities_List/mm_newhope.png,US_Cities_List/nat_peoria.png,,,,,,,,,,,,,,,,,,,,,,,,,,,,
null,,rt_plussign_withcolor,1064115,blue,,,,,null,US_Cities_List/mm_newhope.png,US_Cities_List/nat_peoria.png,,,,,,,,,,,,,,,,,,,,,,,,,,,,
890.2000000476837,,rt_thecrossant_black,1065440,black_plus_sign,,,,,49,,,1,1,,,,,,,,,,,,,,,,,,,,,,,,,,
null,,color_black,1065560,black_plus_sign,,,,,null,,,,,,,,,,,,,,,,,,,,,,,,,,,,,,
null,,learn_phase(without_color),1068159,black_plus_sign,,,,,null,US_Cities_List/mm_hotsprings.png,US_Cities_List/nat_westpalmbeach.png,,,,,,,,,,,,,,,,,,,,,,,,,,,,
null,,black_cross(without_color),1069035,blue,,,,,null,US_Cities_List/mm_hotsprings.png,US_Cities_List/nat_westpalmbeach.png,,,,,,,,,,,,,,,,,,,,,,,,,,,,
null,,rt_plussign_withcolor,1069540,blue,,,,,null,US_Cities_List/mm_hotsprings.png,US_Cities_List/nat_westpalmbeach.png,,,,,,,,,,,,,,,,,,,,,,,,,,,,
1036.7000000476837,,rt_thecrossant_black,1070678,black_plus_sign,,,,,49,,,1,1,,,,,,,,,,,,,,,,,,,,,,,,,,
null,,color_black,1070789,black_plus_sign,,,,,null,,,,,,,,,,,,,,,,,,,,,,,,,,,,,,
null,,learn_phase(without_color),1073379,black_plus_sign,,,,,null,US_Cities_List/mm_newhope.png,US_Cities_List/mm_hotsprings.png,,,,,,,,,,,,,,,,,,,,,,,,,,,,
null,,black_cross(without_color),1074221,blue,,,,,null,US_Cities_List/mm_newhope.png,US_Cities_List/mm_hotsprings.png,,,,,,,,,,,,,,,,,,,,,,,,,,,,
null,,rt_plussign_withcolor,1074729,blue,,,,,null,US_Cities_List/mm_newhope.png,US_Cities_List/mm_hotsprings.png,,,,,,,,,,,,,,,,,,,,,,,,,,,,
1092.1000000238419,,rt_thecrossant_black,1075901,black_plus_sign,,,,,49,,,1,1,,,,,,,,,,,,,,,,,,,,,,,,,,
null,,color_black,1076019,black_plus_sign,,,,,null,,,,,,,,,,,,,,,,,,,,,,,,,,,,,,
null,,learn_phase(without_color),1078592,black_plus_sign,,,,,null,US_Cities_List/nat_peoria.png,US_Cities_List/nat_boulder.png,,,,,,,,,,,,,,,,,,,,,,,,,,,,
null,,black_cross(without_color),1079465,blue,,,,,null,US_Cities_List/nat_peoria.png,US_Cities_List/nat_boulder.png,,,,,,,,,,,,,,,,,,,,,,,,,,,,
null,,rt_plussign_withcolor,1079971,blue,,,,,null,US_Cities_List/nat_peoria.png,US_Cities_List/nat_boulder.png,,,,,,,,,,,,,,,,,,,,,,,,,,,,
1008.5,,rt_thecrossant_black,1081114,black_plus_sign,,,,,49,,,1,1,,,,,,,,,,,,,,,,,,,,,,,,,,
null,,color_black,1081222,black_plus_sign,,,,,null,,,,,,,,,,,,,,,,,,,,,,,,,,,,,,
null,,learn_phase(without_color),1083789,black_plus_sign,,,,,null,US_Cities_List/nat_westpalmbeach.png,US_Cities_List/mm_huntsville.png,,,,,,,,,,,,,,,,,,,,,,,,,,,,
null,,black_cross(without_color),1084901,green,,,,,null,US_Cities_List/nat_westpalmbeach.png,US_Cities_List/mm_huntsville.png,,,,,,,,,,,,,,,,,,,,,,,,,,,,
null,,rt_plussign_withcolor,1085405,green,,,,,null,US_Cities_List/nat_westpalmbeach.png,US_Cities_List/mm_huntsville.png,,,,,,,,,,,,,,,,,,,,,,,,,,,,
1382.2999999523163,,rt_thecrossant_black,1086319,black_plus_sign,,,,,50,,,1,1,,,,,,,,,,,,,,,,,,,,,,,,,,
null,,color_black,1086436,black_plus_sign,,,,,null,,,,,,,,,,,,,,,,,,,,,,,,,,,,,,
null,,learn_phase(without_color),1089020,black_plus_sign,,,,,null,US_Cities_List/nat_westpalmbeach.png,US_Cities_List/mm_leesburg.png,,,,,,,,,,,,,,,,,,,,,,,,,,,,
null,,black_cross(without_color),1089954,blue,,,,,null,US_Cities_List/nat_westpalmbeach.png,US_Cities_List/mm_leesburg.png,,,,,,,,,,,,,,,,,,,,,,,,,,,,
null,,rt_plussign_withcolor,1090457,blue,,,,,null,US_Cities_List/nat_westpalmbeach.png,US_Cities_List/mm_leesburg.png,,,,,,,,,,,,,,,,,,,,,,,,,,,,
1616,,rt_thecrossant_black,1091544,black_plus_sign,,,,,49,,,1,1,,,,,,,,,,,,,,,,,,,,,,,,,,
null,,color_black,1091652,black_plus_sign,,,,,null,,,,,,,,,,,,,,,,,,,,,,,,,,,,,,
null,,learn_phase(without_color),1094210,black_plus_sign,,,,,null,US_Cities_List/nat_peoria.png,US_Cities_List/nat_boulder.png,,,,,,,,,,,,,,,,,,,,,,,,,,,,
null,,black_cross(without_color),1094992,green,,,,,null,US_Cities_List/nat_peoria.png,US_Cities_List/nat_boulder.png,,,,,,,,,,,,,,,,,,,,,,,,,,,,
null,,rt_plussign_withcolor,1095498,green,,,,,null,US_Cities_List/nat_peoria.png,US_Cities_List/nat_boulder.png,,,,,,,,,,,,,,,,,,,,,,,,,,,,
1367.3000000715256,,rt_thecrossant_black,1096735,black_plus_sign,,,,,50,,,1,1,,,,,,,,,,,,,,,,,,,,,,,,,,
null,,color_black,1096842,black_plus_sign,,,,,null,,,,,,,,,,,,,,,,,,,,,,,,,,,,,,
null,,learn_phase(without_color),1099435,black_plus_sign,,,,,null,US_Cities_List/mm_leesburg.png,US_Cities_List/mm_carmel.png,,,,,,,,,,,,,,,,,,,,,,,,,,,,
null,,black_cross(without_color),1099962,blue,,,,,null,US_Cities_List/mm_leesburg.png,US_Cities_List/mm_carmel.png,,,,,,,,,,,,,,,,,,,,,,,,,,,,
null,,rt_plussign_withcolor,1100478,blue,,,,,null,US_Cities_List/mm_leesburg.png,US_Cities_List/mm_carmel.png,,,,,,,,,,,,,,,,,,,,,,,,,,,,
1067.5999999046326,,rt_thecrossant_black,1101973,black_plus_sign,,,,,49,,,1,1,,,,,,,,,,,,,,,,,,,,,,,,,,
null,,color_black,1102084,black_plus_sign,,,,,null,,,,,,,,,,,,,,,,,,,,,,,,,,,,,,
null,,learn_phase(without_color),1104668,black_plus_sign,,,,,null,US_Cities_List/mm_huntsville.png,US_Cities_List/nat_hanover.png,,,,,,,,,,,,,,,,,,,,,,,,,,,,
null,,black_cross(without_color),1105606,blue,,,,,null,US_Cities_List/mm_huntsville.png,US_Cities_List/nat_hanover.png,,,,,,,,,,,,,,,,,,,,,,,,,,,,
null,,rt_plussign_withcolor,1106124,blue,,,,,null,US_Cities_List/mm_huntsville.png,US_Cities_List/nat_hanover.png,,,,,,,,,,,,,,,,,,,,,,,,,,,,
790.5999999046326,,rt_thecrossant_black,1107196,black_plus_sign,,,,,49,,,1,1,,,,,,,,,,,,,,,,,,,,,,,,,,
null,,color_black,1107308,black_plus_sign,,,,,null,,,,,,,,,,,,,,,,,,,,,,,,,,,,,,
null,,learn_phase(without_color),1109899,black_plus_sign,,,,,null,US_Cities_List/nat_peoria.png,US_Cities_List/nat_boulder.png,,,,,,,,,,,,,,,,,,,,,,,,,,,,
null,,black_cross(without_color),1110578,blue,,,,,null,US_Cities_List/nat_peoria.png,US_Cities_List/nat_boulder.png,,,,,,,,,,,,,,,,,,,,,,,,,,,,
null,,rt_plussign_withcolor,1111087,blue,,,,,null,US_Cities_List/nat_peoria.png,US_Cities_List/nat_boulder.png,,,,,,,,,,,,,,,,,,,,,,,,,,,,
1198.2999999523163,,rt_thecrossant_black,1112434,black_plus_sign,,,,,49,,,1,1,,,,,,,,,,,,,,,,,,,,,,,,,,
null,,color_black,1112544,black_plus_sign,,,,,null,,,,,,,,,,,,,,,,,,,,,,,,,,,,,,
null,,learn_phase(without_color),1115141,black_plus_sign,,,,,null,US_Cities_List/mm_carmel.png,US_Cities_List/nat_boulder.png,,,,,,,,,,,,,,,,,,,,,,,,,,,,
null,,black_cross(without_color),1115633,green,,,,,null,US_Cities_List/mm_carmel.png,US_Cities_List/nat_boulder.png,,,,,,,,,,,,,,,,,,,,,,,,,,,,
null,,rt_plussign_withcolor,1116145,green,,,,,null,US_Cities_List/mm_carmel.png,US_Cities_List/nat_boulder.png,,,,,,,,,,,,,,,,,,,,,,,,,,,,
1103.2000000476837,,rt_thecrossant_black,1117684,black_plus_sign,,,,,50,,,1,1,,,,,,,,,,,,,,,,,,,,,,,,,,
null,,color_black,1117789,black_plus_sign,,,,,null,,,,,,,,,,,,,,,,,,,,,,,,,,,,,,
null,,learn_phase(without_color),1120374,black_plus_sign,,,,,null,US_Cities_List/mm_huntsville.png,US_Cities_List/nat_hanover.png,,,,,,,,,,,,,,,,,,,,,,,,,,,,
null,,black_cross(without_color),1120794,blue,,,,,null,US_Cities_List/mm_huntsville.png,US_Cities_List/nat_hanover.png,,,,,,,,,,,,,,,,,,,,,,,,,,,,
null,,rt_plussign_withcolor,1121302,blue,,,,,null,US_Cities_List/mm_huntsville.png,US_Cities_List/nat_hanover.png,,,,,,,,,,,,,,,,,,,,,,,,,,,,
948.5,,rt_thecrossant_black,1122910,black_plus_sign,,,,,49,,,1,1,,,,,,,,,,,,,,,,,,,,,,,,,,
null,,color_black,1123029,black_plus_sign,,,,,null,,,,,,,,,,,,,,,,,,,,,,,,,,,,,,
null,,learn_phase(without_color),1125633,black_plus_sign,,,,,null,US_Cities_List/nat_peoria.png,US_Cities_List/nat_boulder.png,,,,,,,,,,,,,,,,,,,,,,,,,,,,
null,,black_cross(without_color),1126050,green,,,,,null,US_Cities_List/nat_peoria.png,US_Cities_List/nat_boulder.png,,,,,,,,,,,,,,,,,,,,,,,,,,,,
null,,rt_plussign_withcolor,1126560,green,,,,,null,US_Cities_List/nat_peoria.png,US_Cities_List/nat_boulder.png,,,,,,,,,,,,,,,,,,,,,,,,,,,,
1160.8000000715256,,rt_thecrossant_black,1128161,black_plus_sign,,,,,50,,,1,1,,,,,,,,,,,,,,,,,,,,,,,,,,
null,,color_black,1128269,black_plus_sign,,,,,null,,,,,,,,,,,,,,,,,,,,,,,,,,,,,,
null,,learn_phase(without_color),1130833,black_plus_sign,,,,,null,US_Cities_List/mm_huntsville.png,US_Cities_List/mm_leesburg.png,,,,,,,,,,,,,,,,,,,,,,,,,,,,
null,,black_cross(without_color),1131790,green,,,,,null,US_Cities_List/mm_huntsville.png,US_Cities_List/mm_leesburg.png,,,,,,,,,,,,,,,,,,,,,,,,,,,,
null,,rt_plussign_withcolor,1132294,green,,,,,null,US_Cities_List/mm_huntsville.png,US_Cities_List/mm_leesburg.png,,,,,,,,,,,,,,,,,,,,,,,,,,,,
806.3999999761581,,rt_thecrossant_black,1133365,black_plus_sign,,,,,50,,,1,1,,,,,,,,,,,,,,,,,,,,,,,,,,
null,,color_black,1133472,black_plus_sign,,,,,null,,,,,,,,,,,,,,,,,,,,,,,,,,,,,,
null,,learn_phase(without_color),1136037,black_plus_sign,,,,,null,US_Cities_List/nat_peoria.png,US_Cities_List/nat_shreveport.png,,,,,,,,,,,,,,,,,,,,,,,,,,,,
null,,black_cross(without_color),1136789,blue,,,,,null,US_Cities_List/nat_peoria.png,US_Cities_List/nat_shreveport.png,,,,,,,,,,,,,,,,,,,,,,,,,,,,
null,,rt_plussign_withcolor,1137298,blue,,,,,null,US_Cities_List/nat_peoria.png,US_Cities_List/nat_shreveport.png,,,,,,,,,,,,,,,,,,,,,,,,,,,,
1110.8000000715256,,rt_thecrossant_black,1138573,black_plus_sign,,,,,49,,,1,1,,,,,,,,,,,,,,,,,,,,,,,,,,
null,,color_black,1138680,black_plus_sign,,,,,null,,,,,,,,,,,,,,,,,,,,,,,,,,,,,,
null,,learn_phase(without_color),1141225,black_plus_sign,,,,,null,US_Cities_List/mm_hotsprings.png,US_Cities_List/nat_westpalmbeach.png,,,,,,,,,,,,,,,,,,,,,,,,,,,,
null,,black_cross(without_color),1141775,blue,,,,,null,US_Cities_List/mm_hotsprings.png,US_Cities_List/nat_westpalmbeach.png,,,,,,,,,,,,,,,,,,,,,,,,,,,,
null,,rt_plussign_withcolor,1142293,blue,,,,,null,US_Cities_List/mm_hotsprings.png,US_Cities_List/nat_westpalmbeach.png,,,,,,,,,,,,,,,,,,,,,,,,,,,,
1073.3999999761581,,rt_thecrossant_black,1143768,black_plus_sign,,,,,49,,,1,1,,,,,,,,,,,,,,,,,,,,,,,,,,
null,,color_black,1143878,black_plus_sign,,,,,null,,,,,,,,,,,,,,,,,,,,,,,,,,,,,,
null,,learn_phase(without_color),1146458,black_plus_sign,,,,,null,US_Cities_List/mm_leesburg.png,US_Cities_List/mm_carmel.png,,,,,,,,,,,,,,,,,,,,,,,,,,,,
null,,black_cross(without_color),1146936,blue,,,,,null,US_Cities_List/mm_leesburg.png,US_Cities_List/mm_carmel.png,,,,,,,,,,,,,,,,,,,,,,,,,,,,
null,,rt_plussign_withcolor,1147455,blue,,,,,null,US_Cities_List/mm_leesburg.png,US_Cities_List/mm_carmel.png,,,,,,,,,,,,,,,,,,,,,,,,,,,,
826.3000000715256,,rt_thecrossant_black,1148991,black_plus_sign,,,,,49,,,1,1,,,,,,,,,,,,,,,,,,,,,,,,,,
null,,color_black,1149099,black_plus_sign,,,,,null,,,,,,,,,,,,,,,,,,,,,,,,,,,,,,
null,,learn_phase(without_color),1151640,black_plus_sign,,,,,null,US_Cities_List/mm_carmel.png,US_Cities_List/nat_boulder.png,,,,,,,,,,,,,,,,,,,,,,,,,,,,
null,,black_cross(without_color),1152301,blue,,,,,null,US_Cities_List/mm_carmel.png,US_Cities_List/nat_boulder.png,,,,,,,,,,,,,,,,,,,,,,,,,,,,
null,,rt_plussign_withcolor,1152807,blue,,,,,null,US_Cities_List/mm_carmel.png,US_Cities_List/nat_boulder.png,,,,,,,,,,,,,,,,,,,,,,,,,,,,
589.1999999284744,,rt_thecrossant_black,1154165,black_plus_sign,,,,,49,,,1,1,,,,,,,,,,,,,,,,,,,,,,,,,,
null,,color_black,1154284,black_plus_sign,,,,,null,,,,,,,,,,,,,,,,,,,,,,,,,,,,,,
null,,learn_phase(without_color),1156843,black_plus_sign,,,,,null,US_Cities_List/mm_huntsville.png,US_Cities_List/nat_hanover.png,,,,,,,,,,,,,,,,,,,,,,,,,,,,
null,,black_cross(without_color),1157742,green,,,,,null,US_Cities_List/mm_huntsville.png,US_Cities_List/nat_hanover.png,,,,,,,,,,,,,,,,,,,,,,,,,,,,
null,,rt_plussign_withcolor,1158251,green,,,,,null,US_Cities_List/mm_huntsville.png,US_Cities_List/nat_hanover.png,,,,,,,,,,,,,,,,,,,,,,,,,,,,
1057.7000000476837,,rt_thecrossant_black,1159370,black_plus_sign,,,,,50,,,1,1,,,,,,,,,,,,,,,,,,,,,,,,,,
null,,color_black,1159480,black_plus_sign,,,,,null,,,,,,,,,,,,,,,,,,,,,,,,,,,,,,
null,,learn_phase(without_color),1162060,black_plus_sign,,,,,null,US_Cities_List/mm_newhope.png,US_Cities_List/nat_peoria.png,,,,,,,,,,,,,,,,,,,,,,,,,,,,
null,,black_cross(without_color),1162862,green,,,,,null,US_Cities_List/mm_newhope.png,US_Cities_List/nat_peoria.png,,,,,,,,,,,,,,,,,,,,,,,,,,,,
null,,rt_plussign_withcolor,1163374,green,,,,,null,US_Cities_List/mm_newhope.png,US_Cities_List/nat_peoria.png,,,,,,,,,,,,,,,,,,,,,,,,,,,,
1307.8999999761581,,rt_thecrossant_black,1164593,black_plus_sign,,,,,50,,,1,1,,,,,,,,,,,,,,,,,,,,,,,,,,
null,,color_black,1164714,black_plus_sign,,,,,null,,,,,,,,,,,,,,,,,,,,,,,,,,,,,,
null,,learn_phase(without_color),1167319,black_plus_sign,,,,,null,US_Cities_List/mm_carmel.png,US_Cities_List/nat_boulder.png,,,,,,,,,,,,,,,,,,,,,,,,,,,,
null,,black_cross(without_color),1167920,green,,,,,null,US_Cities_List/mm_carmel.png,US_Cities_List/nat_boulder.png,,,,,,,,,,,,,,,,,,,,,,,,,,,,
null,,rt_plussign_withcolor,1168432,green,,,,,null,US_Cities_List/mm_carmel.png,US_Cities_List/nat_boulder.png,,,,,,,,,,,,,,,,,,,,,,,,,,,,
1307.3999999761581,,rt_thecrossant_black,1169865,black_plus_sign,,,,,50,,,1,1,,,,,,,,,,,,,,,,,,,,,,,,,,
null,,color_black,1169974,black_plus_sign,,,,,null,,,,,,,,,,,,,,,,,,,,,,,,,,,,,,
null,,learn_phase(without_color),1172543,black_plus_sign,,,,,null,US_Cities_List/nat_westpalmbeach.png,US_Cities_List/mm_huntsville.png,,,,,,,,,,,,,,,,,,,,,,,,,,,,
null,,black_cross(without_color),1173277,blue,,,,,null,US_Cities_List/nat_westpalmbeach.png,US_Cities_List/mm_huntsville.png,,,,,,,,,,,,,,,,,,,,,,,,,,,,
null,,rt_plussign_withcolor,1173787,blue,,,,,null,US_Cities_List/nat_westpalmbeach.png,US_Cities_List/mm_huntsville.png,,,,,,,,,,,,,,,,,,,,,,,,,,,,
946.7999999523163,,rt_thecrossant_black,1175069,black_plus_sign,,,,,49,,,1,1,,,,,,,,,,,,,,,,,,,,,,,,,,
null,,color_black,1175179,black_plus_sign,,,,,null,,,,,,,,,,,,,,,,,,,,,,,,,,,,,,
null,,learn_phase(without_color),1177772,black_plus_sign,,,,,null,US_Cities_List/mm_leesburg.png,US_Cities_List/mm_carmel.png,,,,,,,,,,,,,,,,,,,,,,,,,,,,
null,,black_cross(without_color),1178810,blue,,,,,null,US_Cities_List/mm_leesburg.png,US_Cities_List/mm_carmel.png,,,,,,,,,,,,,,,,,,,,,,,,,,,,
null,,rt_plussign_withcolor,1179318,blue,,,,,null,US_Cities_List/mm_leesburg.png,US_Cities_List/mm_carmel.png,,,,,,,,,,,,,,,,,,,,,,,,,,,,
1123.3999999761581,,rt_thecrossant_black,1180307,black_plus_sign,,,,,49,,,1,1,,,,,,,,,,,,,,,,,,,,,,,,,,
null,,color_black,1180418,black_plus_sign,,,,,null,,,,,,,,,,,,,,,,,,,,,,,,,,,,,,
null,,learn_phase(without_color),1182992,black_plus_sign,,,,,null,US_Cities_List/mm_gatlinburg.png,US_Cities_List/mm_cornwall.png,,,,,,,,,,,,,,,,,,,,,,,,,,,,
null,,black_cross(without_color),1183846,green,,,,,null,US_Cities_List/mm_gatlinburg.png,US_Cities_List/mm_cornwall.png,,,,,,,,,,,,,,,,,,,,,,,,,,,,
null,,rt_plussign_withcolor,1184354,green,,,,,null,US_Cities_List/mm_gatlinburg.png,US_Cities_List/mm_cornwall.png,,,,,,,,,,,,,,,,,,,,,,,,,,,,
1495.8999999761581,,rt_thecrossant_black,1185519,black_plus_sign,,,,,50,,,1,1,,,,,,,,,,,,,,,,,,,,,,,,,,
null,,color_black,1185629,black_plus_sign,,,,,null,,,,,,,,,,,,,,,,,,,,,,,,,,,,,,
null,,learn_phase(without_color),1188199,black_plus_sign,,,,,null,US_Cities_List/mm_newhope.png,US_Cities_List/mm_hotsprings.png,,,,,,,,,,,,,,,,,,,,,,,,,,,,
null,,black_cross(without_color),1188983,blue,,,,,null,US_Cities_List/mm_newhope.png,US_Cities_List/mm_hotsprings.png,,,,,,,,,,,,,,,,,,,,,,,,,,,,
null,,rt_plussign_withcolor,1189490,blue,,,,,null,US_Cities_List/mm_newhope.png,US_Cities_List/mm_hotsprings.png,,,,,,,,,,,,,,,,,,,,,,,,,,,,
1733.1000000238419,,rt_thecrossant_black,1190735,black_plus_sign,,,,,49,,,1,1,,,,,,,,,,,,,,,,,,,,,,,,,,
null,,color_black,1190843,black_plus_sign,,,,,null,,,,,,,,,,,,,,,,,,,,,,,,,,,,,,
null,,learn_phase(without_color),1193401,black_plus_sign,,,,,null,US_Cities_List/mm_huntsville.png,US_Cities_List/mm_gatlinburg.png,,,,,,,,,,,,,,,,,,,,,,,,,,,,
null,,black_cross(without_color),1194074,blue,,,,,null,US_Cities_List/mm_huntsville.png,US_Cities_List/mm_gatlinburg.png,,,,,,,,,,,,,,,,,,,,,,,,,,,,
null,,rt_plussign_withcolor,1194584,blue,,,,,null,US_Cities_List/mm_huntsville.png,US_Cities_List/mm_gatlinburg.png,,,,,,,,,,,,,,,,,,,,,,,,,,,,
1340.5999999046326,,rt_thecrossant_black,1195925,black_plus_sign,,,,,49,,,1,1,,,,,,,,,,,,,,,,,,,,,,,,,,
null,,color_black,1196035,black_plus_sign,,,,,null,,,,,,,,,,,,,,,,,,,,,,,,,,,,,,
null,,learn_phase(without_color),1198610,black_plus_sign,,,,,null,US_Cities_List/mm_leesburg.png,US_Cities_List/mm_carmel.png,,,,,,,,,,,,,,,,,,,,,,,,,,,,
null,,black_cross(without_color),1199346,blue,,,,,null,US_Cities_List/mm_leesburg.png,US_Cities_List/mm_carmel.png,,,,,,,,,,,,,,,,,,,,,,,,,,,,
null,,rt_plussign_withcolor,1199854,blue,,,,,null,US_Cities_List/mm_leesburg.png,US_Cities_List/mm_carmel.png,,,,,,,,,,,,,,,,,,,,,,,,,,,,
960.2999999523163,,rt_thecrossant_black,1201149,black_plus_sign,,,,,49,,,1,1,,,,,,,,,,,,,,,,,,,,,,,,,,
null,,color_black,1201259,black_plus_sign,,,,,null,,,,,,,,,,,,,,,,,,,,,,,,,,,,,,
null,,learn_phase(without_color),1203834,black_plus_sign,,,,,null,US_Cities_List/nat_westpalmbeach.png,US_Cities_List/mm_leesburg.png,,,,,,,,,,,,,,,,,,,,,,,,,,,,
null,,black_cross(without_color),1204446,blue,,,,,null,US_Cities_List/nat_westpalmbeach.png,US_Cities_List/mm_leesburg.png,,,,,,,,,,,,,,,,,,,,,,,,,,,,
null,,rt_plussign_withcolor,1204954,blue,,,,,null,US_Cities_List/nat_westpalmbeach.png,US_Cities_List/mm_leesburg.png,,,,,,,,,,,,,,,,,,,,,,,,,,,,
1226.1000000238419,,rt_thecrossant_black,1206365,black_plus_sign,,,,,49,,,1,1,,,,,,,,,,,,,,,,,,,,,,,,,,
null,,color_black,1206477,black_plus_sign,,,,,null,,,,,,,,,,,,,,,,,,,,,,,,,,,,,,
null,,learn_phase(without_color),1209073,black_plus_sign,,,,,null,US_Cities_List/mm_newhope.png,US_Cities_List/mm_hotsprings.png,,,,,,,,,,,,,,,,,,,,,,,,,,,,
null,,black_cross(without_color),1209688,green,,,,,null,US_Cities_List/mm_newhope.png,US_Cities_List/mm_hotsprings.png,,,,,,,,,,,,,,,,,,,,,,,,,,,,
null,,rt_plussign_withcolor,1210196,green,,,,,null,US_Cities_List/mm_newhope.png,US_Cities_List/mm_hotsprings.png,,,,,,,,,,,,,,,,,,,,,,,,,,,,
1021.7000000476837,,rt_thecrossant_black,1211599,black_plus_sign,,,,,50,,,1,1,,,,,,,,,,,,,,,,,,,,,,,,,,
null,,color_black,1211714,black_plus_sign,,,,,null,,,,,,,,,,,,,,,,,,,,,,,,,,,,,,
null,,learn_phase(without_color),1214303,black_plus_sign,,,,,null,US_Cities_List/nat_racine.png,US_Cities_List/mm_newhope.png,,,,,,,,,,,,,,,,,,,,,,,,,,,,
null,,black_cross(without_color),1214953,blue,,,,,null,US_Cities_List/nat_racine.png,US_Cities_List/mm_newhope.png,,,,,,,,,,,,,,,,,,,,,,,,,,,,
null,,rt_plussign_withcolor,1215462,blue,,,,,null,US_Cities_List/nat_racine.png,US_Cities_List/mm_newhope.png,,,,,,,,,,,,,,,,,,,,,,,,,,,,
1016.7999999523163,,rt_thecrossant_black,1216828,black_plus_sign,,,,,49,,,1,1,,,,,,,,,,,,,,,,,,,,,,,,,,
null,,color_black,1216939,black_plus_sign,,,,,null,,,,,,,,,,,,,,,,,,,,,,,,,,,,,,
null,,learn_phase(without_color),1219522,black_plus_sign,,,,,null,US_Cities_List/mm_huntsville.png,US_Cities_List/mm_leesburg.png,,,,,,,,,,,,,,,,,,,,,,,,,,,,
null,,black_cross(without_color),1220266,blue,,,,,null,US_Cities_List/mm_huntsville.png,US_Cities_List/mm_leesburg.png,,,,,,,,,,,,,,,,,,,,,,,,,,,,
null,,rt_plussign_withcolor,1220769,blue,,,,,null,US_Cities_List/mm_huntsville.png,US_Cities_List/mm_leesburg.png,,,,,,,,,,,,,,,,,,,,,,,,,,,,
1054.7999999523163,,rt_thecrossant_black,1222041,black_plus_sign,,,,,49,,,1,1,,,,,,,,,,,,,,,,,,,,,,,,,,
null,,color_black,1222149,black_plus_sign,,,,,null,,,,,,,,,,,,,,,,,,,,,,,,,,,,,,
null,,learn_phase(without_color),1224719,black_plus_sign,,,,,null,US_Cities_List/nat_peoria.png,US_Cities_List/nat_shreveport.png,,,,,,,,,,,,,,,,,,,,,,,,,,,,
null,,black_cross(without_color),1225608,blue,,,,,null,US_Cities_List/nat_peoria.png,US_Cities_List/nat_shreveport.png,,,,,,,,,,,,,,,,,,,,,,,,,,,,
null,,rt_plussign_withcolor,1226124,blue,,,,,null,US_Cities_List/nat_peoria.png,US_Cities_List/nat_shreveport.png,,,,,,,,,,,,,,,,,,,,,,,,,,,,
865.8999999761581,,rt_thecrossant_black,1227270,black_plus_sign,,,,,49,,,1,1,,,,,,,,,,,,,,,,,,,,,,,,,,
null,,color_black,1227388,black_plus_sign,,,,,null,,,,,,,,,,,,,,,,,,,,,,,,,,,,,,
null,,learn_phase(without_color),1229964,black_plus_sign,,,,,null,US_Cities_List/nat_westpalmbeach.png,US_Cities_List/mm_huntsville.png,,,,,,,,,,,,,,,,,,,,,,,,,,,,
null,,black_cross(without_color),1230635,green,,,,,null,US_Cities_List/nat_westpalmbeach.png,US_Cities_List/mm_huntsville.png,,,,,,,,,,,,,,,,,,,,,,,,,,,,
null,,rt_plussign_withcolor,1231147,green,,,,,null,US_Cities_List/nat_westpalmbeach.png,US_Cities_List/mm_huntsville.png,,,,,,,,,,,,,,,,,,,,,,,,,,,,
1404.1999999284744,,rt_thecrossant_black,1232494,black_plus_sign,,,,,50,,,1,1,,,,,,,,,,,,,,,,,,,,,,,,,,
null,,color_black,1232608,black_plus_sign,,,,,null,,,,,,,,,,,,,,,,,,,,,,,,,,,,,,
null,,learn_phase(without_color),1235213,black_plus_sign,,,,,null,US_Cities_List/mm_hotsprings.png,US_Cities_List/mm_carmel.png,,,,,,,,,,,,,,,,,,,,,,,,,,,,
null,,black_cross(without_color),1235913,green,,,,,null,US_Cities_List/mm_hotsprings.png,US_Cities_List/mm_carmel.png,,,,,,,,,,,,,,,,,,,,,,,,,,,,
null,,rt_plussign_withcolor,1236423,green,,,,,null,US_Cities_List/mm_hotsprings.png,US_Cities_List/mm_carmel.png,,,,,,,,,,,,,,,,,,,,,,,,,,,,
1042.6000000238419,,rt_thecrossant_black,1237732,black_plus_sign,,,,,50,,,1,1,,,,,,,,,,,,,,,,,,,,,,,,,,
null,,color_black,1237844,black_plus_sign,,,,,null,,,,,,,,,,,,,,,,,,,,,,,,,,,,,,
null,,learn_phase(without_color),1240439,black_plus_sign,,,,,null,US_Cities_List/nat_peoria.png,US_Cities_List/nat_shreveport.png,,,,,,,,,,,,,,,,,,,,,,,,,,,,
null,,black_cross(without_color),1241248,green,,,,,null,US_Cities_List/nat_peoria.png,US_Cities_List/nat_shreveport.png,,,,,,,,,,,,,,,,,,,,,,,,,,,,
null,,rt_plussign_withcolor,1241756,green,,,,,null,US_Cities_List/nat_peoria.png,US_Cities_List/nat_shreveport.png,,,,,,,,,,,,,,,,,,,,,,,,,,,,
1017.1000000238419,,rt_thecrossant_black,1242957,black_plus_sign,,,,,50,,,1,1,,,,,,,,,,,,,,,,,,,,,,,,,,
null,,color_black,1243066,black_plus_sign,,,,,null,,,,,,,,,,,,,,,,,,,,,,,,,,,,,,
null,,learn_phase(without_color),1245627,black_plus_sign,,,,,null,US_Cities_List/nat_westpalmbeach.png,US_Cities_List/mm_leesburg.png,,,,,,,,,,,,,,,,,,,,,,,,,,,,
null,,black_cross(without_color),1246394,blue,,,,,null,US_Cities_List/nat_westpalmbeach.png,US_Cities_List/mm_leesburg.png,,,,,,,,,,,,,,,,,,,,,,,,,,,,
null,,rt_plussign_withcolor,1246909,blue,,,,,null,US_Cities_List/nat_westpalmbeach.png,US_Cities_List/mm_leesburg.png,,,,,,,,,,,,,,,,,,,,,,,,,,,,
1327.3999999761581,,rt_thecrossant_black,1248153,black_plus_sign,,,,,49,,,1,1,,,,,,,,,,,,,,,,,,,,,,,,,,
null,,color_black,1248259,black_plus_sign,,,,,null,,,,,,,,,,,,,,,,,,,,,,,,,,,,,,
null,,learn_phase(without_color),1250824,black_plus_sign,,,,,null,US_Cities_List/mm_huntsville.png,US_Cities_List/mm_leesburg.png,,,,,,,,,,,,,,,,,,,,,,,,,,,,
null,,black_cross(without_color),1251350,green,,,,,null,US_Cities_List/mm_huntsville.png,US_Cities_List/mm_leesburg.png,,,,,,,,,,,,,,,,,,,,,,,,,,,,
null,,rt_plussign_withcolor,1251863,green,,,,,null,US_Cities_List/mm_huntsville.png,US_Cities_List/mm_leesburg.png,,,,,,,,,,,,,,,,,,,,,,,,,,,,
1196,,rt_thecrossant_black,1253352,black_plus_sign,,,,,50,,,1,1,,,,,,,,,,,,,,,,,,,,,,,,,,
null,,color_black,1253464,black_plus_sign,,,,,null,,,,,,,,,,,,,,,,,,,,,,,,,,,,,,
null,,learn_phase(without_color),1256037,black_plus_sign,,,,,null,US_Cities_List/mm_newhope.png,US_Cities_List/nat_peoria.png,,,,,,,,,,,,,,,,,,,,,,,,,,,,
null,,black_cross(without_color),1257126,green,,,,,null,US_Cities_List/mm_newhope.png,US_Cities_List/nat_peoria.png,,,,,,,,,,,,,,,,,,,,,,,,,,,,
null,,rt_plussign_withcolor,1257644,green,,,,,null,US_Cities_List/mm_newhope.png,US_Cities_List/nat_peoria.png,,,,,,,,,,,,,,,,,,,,,,,,,,,,
879.8999999761581,,rt_thecrossant_black,1258574,black_plus_sign,,,,,50,,,1,1,,,,,,,,,,,,,,,,,,,,,,,,,,
null,,color_black,1258686,black_plus_sign,,,,,null,,,,,,,,,,,,,,,,,,,,,,,,,,,,,,
null,,learn_phase(without_color),1261252,black_plus_sign,,,,,null,US_Cities_List/mm_huntsville.png,US_Cities_List/mm_leesburg.png,,,,,,,,,,,,,,,,,,,,,,,,,,,,
null,,black_cross(without_color),1262068,blue,,,,,null,US_Cities_List/mm_huntsville.png,US_Cities_List/mm_leesburg.png,,,,,,,,,,,,,,,,,,,,,,,,,,,,
null,,rt_plussign_withcolor,1262578,blue,,,,,null,US_Cities_List/mm_huntsville.png,US_Cities_List/mm_leesburg.png,,,,,,,,,,,,,,,,,,,,,,,,,,,,
1460.6000000238419,,rt_thecrossant_black,1263784,black_plus_sign,,,,,49,,,1,1,,,,,,,,,,,,,,,,,,,,,,,,,,
null,,color_black,1263893,black_plus_sign,,,,,null,,,,,,,,,,,,,,,,,,,,,,,,,,,,,,
null,,learn_phase(without_color),1266484,black_plus_sign,,,,,null,US_Cities_List/nat_racine.png,US_Cities_List/mm_newhope.png,,,,,,,,,,,,,,,,,,,,,,,,,,,,
null,,black_cross(without_color),1267408,blue,,,,,null,US_Cities_List/nat_racine.png,US_Cities_List/mm_newhope.png,,,,,,,,,,,,,,,,,,,,,,,,,,,,
null,,rt_plussign_withcolor,1267923,blue,,,,,null,US_Cities_List/nat_racine.png,US_Cities_List/mm_newhope.png,,,,,,,,,,,,,,,,,,,,,,,,,,,,
980.5,,rt_thecrossant_black,1269021,black_plus_sign,,,,,49,,,1,1,,,,,,,,,,,,,,,,,,,,,,,,,,
null,,color_black,1269130,black_plus_sign,,,,,null,,,,,,,,,,,,,,,,,,,,,,,,,,,,,,
null,,learn_phase(without_color),1271699,black_plus_sign,,,,,null,US_Cities_List/nat_peoria.png,US_Cities_List/nat_boulder.png,,,,,,,,,,,,,,,,,,,,,,,,,,,,
null,,black_cross(without_color),1272640,green,,,,,null,US_Cities_List/nat_peoria.png,US_Cities_List/nat_boulder.png,,,,,,,,,,,,,,,,,,,,,,,,,,,,
null,,rt_plussign_withcolor,1273154,green,,,,,null,US_Cities_List/nat_peoria.png,US_Cities_List/nat_boulder.png,,,,,,,,,,,,,,,,,,,,,,,,,,,,
1254.5,,rt_thecrossant_black,1274242,black_plus_sign,,,,,50,,,1,1,,,,,,,,,,,,,,,,,,,,,,,,,,
null,,color_black,1274351,black_plus_sign,,,,,null,,,,,,,,,,,,,,,,,,,,,,,,,,,,,,
null,,learn_phase(without_color),1276935,black_plus_sign,,,,,null,US_Cities_List/nat_peoria.png,US_Cities_List/nat_shreveport.png,,,,,,,,,,,,,,,,,,,,,,,,,,,,
null,,black_cross(without_color),1277875,green,,,,,null,US_Cities_List/nat_peoria.png,US_Cities_List/nat_shreveport.png,,,,,,,,,,,,,,,,,,,,,,,,,,,,
null,,rt_plussign_withcolor,1278384,green,,,,,null,US_Cities_List/nat_peoria.png,US_Cities_List/nat_shreveport.png,,,,,,,,,,,,,,,,,,,,,,,,,,,,
1176.7999999523163,,rt_thecrossant_black,1279466,black_plus_sign,,,,,50,,,1,1,,,,,,,,,,,,,,,,,,,,,,,,,,
null,,color_black,1279584,black_plus_sign,,,,,null,,,,,,,,,,,,,,,,,,,,,,,,,,,,,,
null,,learn_phase(without_color),1282170,black_plus_sign,,,,,null,US_Cities_List/mm_gatlinburg.png,US_Cities_List/mm_leesburg.png,,,,,,,,,,,,,,,,,,,,,,,,,,,,
null,,black_cross(without_color),1282953,green,,,,,null,US_Cities_List/mm_gatlinburg.png,US_Cities_List/mm_leesburg.png,,,,,,,,,,,,,,,,,,,,,,,,,,,,
null,,rt_plussign_withcolor,1283466,green,,,,,null,US_Cities_List/mm_gatlinburg.png,US_Cities_List/mm_leesburg.png,,,,,,,,,,,,,,,,,,,,,,,,,,,,
1434.3999999761581,,rt_thecrossant_black,1284698,black_plus_sign,,,,,50,,,1,1,,,,,,,,,,,,,,,,,,,,,,,,,,
null,,color_black,1284804,black_plus_sign,,,,,null,,,,,,,,,,,,,,,,,,,,,,,,,,,,,,
null,,learn_phase(without_color),1287372,black_plus_sign,,,,,null,US_Cities_List/nat_westpalmbeach.png,US_Cities_List/mm_huntsville.png,,,,,,,,,,,,,,,,,,,,,,,,,,,,
null,,black_cross(without_color),1288282,green,,,,,null,US_Cities_List/nat_westpalmbeach.png,US_Cities_List/mm_huntsville.png,,,,,,,,,,,,,,,,,,,,,,,,,,,,
null,,rt_plussign_withcolor,1288789,green,,,,,null,US_Cities_List/nat_westpalmbeach.png,US_Cities_List/mm_huntsville.png,,,,,,,,,,,,,,,,,,,,,,,,,,,,
1312.8000000715256,,rt_thecrossant_black,1289894,black_plus_sign,,,,,50,,,1,1,,,,,,,,,,,,,,,,,,,,,,,,,,
null,,color_black,1290015,black_plus_sign,,,,,null,,,,,,,,,,,,,,,,,,,,,,,,,,,,,,
null,,learn_phase(without_color),1292590,black_plus_sign,,,,,null,US_Cities_List/mm_huntsville.png,US_Cities_List/nat_hanover.png,,,,,,,,,,,,,,,,,,,,,,,,,,,,
null,,black_cross(without_color),1293056,blue,,,,,null,US_Cities_List/mm_huntsville.png,US_Cities_List/nat_hanover.png,,,,,,,,,,,,,,,,,,,,,,,,,,,,
null,,rt_plussign_withcolor,1293569,blue,,,,,null,US_Cities_List/mm_huntsville.png,US_Cities_List/nat_hanover.png,,,,,,,,,,,,,,,,,,,,,,,,,,,,
1342.2999999523163,,rt_thecrossant_black,1295125,black_plus_sign,,,,,49,,,1,1,,,,,,,,,,,,,,,,,,,,,,,,,,
null,,color_black,1295237,black_plus_sign,,,,,null,,,,,,,,,,,,,,,,,,,,,,,,,,,,,,
null,,learn_phase(without_color),1297827,black_plus_sign,,,,,null,US_Cities_List/mm_gatlinburg.png,US_Cities_List/mm_leesburg.png,,,,,,,,,,,,,,,,,,,,,,,,,,,,
null,,black_cross(without_color),1298368,green,,,,,null,US_Cities_List/mm_gatlinburg.png,US_Cities_List/mm_leesburg.png,,,,,,,,,,,,,,,,,,,,,,,,,,,,
null,,rt_plussign_withcolor,1298873,green,,,,,null,US_Cities_List/mm_gatlinburg.png,US_Cities_List/mm_leesburg.png,,,,,,,,,,,,,,,,,,,,,,,,,,,,
1091.1000000238419,,rt_thecrossant_black,1300344,black_plus_sign,,,,,50,,,1,1,,,,,,,,,,,,,,,,,,,,,,,,,,
null,,color_black,1300455,black_plus_sign,,,,,null,,,,,,,,,,,,,,,,,,,,,,,,,,,,,,
null,,learn_phase(without_color),1303042,black_plus_sign,,,,,null,US_Cities_List/mm_gatlinburg.png,US_Cities_List/mm_leesburg.png,,,,,,,,,,,,,,,,,,,,,,,,,,,,
null,,black_cross(without_color),1303560,blue,,,,,null,US_Cities_List/mm_gatlinburg.png,US_Cities_List/mm_leesburg.png,,,,,,,,,,,,,,,,,,,,,,,,,,,,
null,,rt_plussign_withcolor,1304070,blue,,,,,null,US_Cities_List/mm_gatlinburg.png,US_Cities_List/mm_leesburg.png,,,,,,,,,,,,,,,,,,,,,,,,,,,,
950.4000000953674,,rt_thecrossant_black,1305572,black_plus_sign,,,,,49,,,1,1,,,,,,,,,,,,,,,,,,,,,,,,,,
null,,color_black,1305691,black_plus_sign,,,,,null,,,,,,,,,,,,,,,,,,,,,,,,,,,,,,
null,,learn_phase(without_color),1308288,black_plus_sign,,,,,null,US_Cities_List/nat_peoria.png,US_Cities_List/nat_boulder.png,,,,,,,,,,,,,,,,,,,,,,,,,,,,
null,,black_cross(without_color),1309017,blue,,,,,null,US_Cities_List/nat_peoria.png,US_Cities_List/nat_boulder.png,,,,,,,,,,,,,,,,,,,,,,,,,,,,
null,,rt_plussign_withcolor,1309523,blue,,,,,null,US_Cities_List/nat_peoria.png,US_Cities_List/nat_boulder.png,,,,,,,,,,,,,,,,,,,,,,,,,,,,
925.2000000476837,,rt_thecrossant_black,1310814,black_plus_sign,,,,,49,,,1,1,,,,,,,,,,,,,,,,,,,,,,,,,,
null,,color_black,1310924,black_plus_sign,,,,,null,,,,,,,,,,,,,,,,,,,,,,,,,,,,,,
11704.800000071526,,intro_1,1322634,instruct,,,0,,,,,,,,,,,,,,,,,,,,,,,,,,,,,,,,
22452,,intro_2,1345096,instruct,,,1,Next,,,,,,,,,,,,,,,,,,,,,,,,,,,,,,,
5136.399999976158,,directmemory_phase,1350308,../static/images/US_Cities_List/mm_huntsville.png,,,,,51,,,1,1,../static/images/US_Cities_List/nat_boulder.png,../static/images/US_Cities_List/mm_hotsprings.png,../static/images/US_Cities_List/nat_westpalmbeach.png,../static/images/US_Cities_List/nat_westpalmbeach.png,../static/images/US_Cities_List/mm_hotsprings.png,../static/images/US_Cities_List/nat_boulder.png,1,,,,,,,,,,,,,,,,,,,
null,,html-keyboard-response,1351332,<p></p>,,,,,null,,,,,,,,,,,,,,,,,,,,,,,,,,,,,,
null,,directmemory_phase,1357874,../static/images/US_Cities_List/nat_peoria.png,,,,,null,,,0,0.5,../static/images/US_Cities_List/mm_gatlinburg.png,../static/images/US_Cities_List/mm_hotsprings.png,../static/images/US_Cities_List/mm_newhope.png,../static/images/US_Cities_List/mm_newhope.png,../static/images/US_Cities_List/mm_hotsprings.png,../static/images/US_Cities_List/mm_gatlinburg.png,0,,,,,,,,,,,,,,,,,,,
null,,html-keyboard-response,1358894,<p></p>,,,,,null,,,,,,,,,,,,,,,,,,,,,,,,,,,,,,
3381.600000023842,,directmemory_phase,1362404,../static/images/US_Cities_List/nat_westpalmbeach.png,,,,,49,,,1,0.6666666666666666,../static/images/US_Cities_List/mm_leesburg.png,../static/images/US_Cities_List/nat_peoria.png,../static/images/US_Cities_List/mm_carmel.png,../static/images/US_Cities_List/mm_leesburg.png,../static/images/US_Cities_List/mm_carmel.png,../static/images/US_Cities_List/nat_peoria.png,1,,,,,,,,,,,,,,,,,,,
null,,html-keyboard-response,1363421,<p></p>,,,,,null,,,,,,,,,,,,,,,,,,,,,,,,,,,,,,
3662.899999976158,,directmemory_phase,1367233,../static/images/US_Cities_List/nat_peoria.png,,,,,51,,,1,0.75,../static/images/US_Cities_List/mm_huntsville.png,../static/images/US_Cities_List/nat_racine.png,../static/images/US_Cities_List/nat_boulder.png,../static/images/US_Cities_List/nat_boulder.png,../static/images/US_Cities_List/nat_racine.png,../static/images/US_Cities_List/mm_huntsville.png,1,,,,,,,,,,,,,,,,,,,
null,,html-keyboard-response,1368246,<p></p>,,,,,null,,,,,,,,,,,,,,,,,,,,,,,,,,,,,,
3378.399999976158,,directmemory_phase,1371742,../static/images/US_Cities_List/mm_carmel.png,,,,,49,,,1,0.8,../static/images/US_Cities_List/mm_leesburg.png,../static/images/US_Cities_List/mm_cornwall.png,../static/images/US_Cities_List/nat_westpalmbeach.png,../static/images/US_Cities_List/mm_leesburg.png,../static/images/US_Cities_List/nat_westpalmbeach.png,../static/images/US_Cities_List/mm_cornwall.png,1,,,,,,,,,,,,,,,,,,,
null,,html-keyboard-response,1372759,<p></p>,,,,,null,,,,,,,,,,,,,,,,,,,,,,,,,,,,,,
2463.100000023842,,directmemory_phase,1375353,../static/images/US_Cities_List/mm_huntsville.png,,,,,51,,,1,0.8333333333333334,../static/images/US_Cities_List/nat_boulder.png,../static/images/US_Cities_List/mm_cornwall.png,../static/images/US_Cities_List/nat_hanover.png,../static/images/US_Cities_List/nat_hanover.png,../static/images/US_Cities_List/mm_cornwall.png,../static/images/US_Cities_List/nat_boulder.png,1,,,,,,,,,,,,,,,,,,,
null,,html-keyboard-response,1376365,<p></p>,,,,,null,,,,,,,,,,,,,,,,,,,,,,,,,,,,,,
3444.600000023842,,directmemory_phase,1379857,../static/images/US_Cities_List/mm_cornwall.png,,,,,51,,,1,0.8571428571428571,../static/images/US_Cities_List/nat_boulder.png,../static/images/US_Cities_List/mm_leesburg.png,../static/images/US_Cities_List/mm_gatlinburg.png,../static/images/US_Cities_List/mm_gatlinburg.png,../static/images/US_Cities_List/mm_leesburg.png,../static/images/US_Cities_List/nat_boulder.png,1,,,,,,,,,,,,,,,,,,,
null,,html-keyboard-response,1380876,<p></p>,,,,,null,,,,,,,,,,,,,,,,,,,,,,,,,,,,,,
2821.3000000715256,,directmemory_phase,1383811,../static/images/US_Cities_List/mm_newhope.png,,,,,51,,,1,0.875,../static/images/US_Cities_List/mm_huntsville.png,../static/images/US_Cities_List/nat_shreveport.png,../static/images/US_Cities_List/nat_racine.png,../static/images/US_Cities_List/nat_racine.png,../static/images/US_Cities_List/nat_shreveport.png,../static/images/US_Cities_List/mm_huntsville.png,1,,,,,,,,,,,,,,,,,,,
null,,html-keyboard-response,1384829,<p></p>,,,,,null,,,,,,,,,,,,,,,,,,,,,,,,,,,,,,
3299.7000000476837,,directmemory_phase,1388240,../static/images/US_Cities_List/mm_hotsprings.png,,,,,49,,,1,0.8888888888888888,../static/images/US_Cities_List/nat_westpalmbeach.png,../static/images/US_Cities_List/mm_cornwall.png,../static/images/US_Cities_List/nat_peoria.png,../static/images/US_Cities_List/nat_westpalmbeach.png,../static/images/US_Cities_List/nat_peoria.png,../static/images/US_Cities_List/mm_cornwall.png,1,,,,,,,,,,,,,,,,,,,
null,,html-keyboard-response,1389260,<p></p>,,,,,null,,,,,,,,,,,,,,,,,,,,,,,,,,,,,,
2567.899999976158,,directmemory_phase,1391958,../static/images/US_Cities_List/mm_newhope.png,,,,,51,,,1,0.9,../static/images/US_Cities_List/mm_gatlinburg.png,../static/images/US_Cities_List/nat_westpalmbeach.png,../static/images/US_Cities_List/nat_peoria.png,../static/images/US_Cities_List/nat_peoria.png,../static/images/US_Cities_List/nat_westpalmbeach.png,../static/images/US_Cities_List/mm_gatlinburg.png,1,,,,,,,,,,,,,,,,,,,
null,,html-keyboard-response,1392975,<p></p>,,,,,null,,,,,,,,,,,,,,,,,,,,,,,,,,,,,,
4899.699999928474,,directmemory_phase,1398008,../static/images/US_Cities_List/mm_hotsprings.png,,,,,51,,,0,0.8181818181818182,../static/images/US_Cities_List/mm_carmel.png,../static/images/US_Cities_List/nat_hanover.png,../static/images/US_Cities_List/mm_huntsville.png,../static/images/US_Cities_List/mm_carmel.png,../static/images/US_Cities_List/mm_huntsville.png,../static/images/US_Cities_List/nat_hanover.png,0.5,closer,,,,,,,,,,,,,,,,,,
null,,html-keyboard-response,1399022,<p></p>,,,,,null,,,,,,,,,,,,,,,,,,,,,,,,,,,,,,
5141.100000023842,,directmemory_phase,1404277,../static/images/US_Cities_List/mm_huntsville.png,,,,,50,,,0,0.75,../static/images/US_Cities_List/nat_peoria.png,../static/images/US_Cities_List/mm_cornwall.png,../static/images/US_Cities_List/mm_gatlinburg.png,../static/images/US_Cities_List/mm_gatlinburg.png,../static/images/US_Cities_List/mm_cornwall.png,../static/images/US_Cities_List/nat_peoria.png,0.5,closer,,,,,,,,,,,,,,,,,,
null,,html-keyboard-response,1405294,<p></p>,,,,,null,,,,,,,,,,,,,,,,,,,,,,,,,,,,,,
2482,,directmemory_phase,1407875,../static/images/US_Cities_List/nat_westpalmbeach.png,,,,,51,,,1,0.7692307692307693,../static/images/US_Cities_List/nat_boulder.png,../static/images/US_Cities_List/mm_carmel.png,../static/images/US_Cities_List/mm_hotsprings.png,../static/images/US_Cities_List/mm_hotsprings.png,../static/images/US_Cities_List/mm_carmel.png,../static/images/US_Cities_List/nat_boulder.png,1,,,,,,,,,,,,,,,,,,,
null,,html-keyboard-response,1408891,<p></p>,,,,,null,,,,,,,,,,,,,,,,,,,,,,,,,,,,,,
3931.2000000476837,,directmemory_phase,1412942,../static/images/US_Cities_List/mm_gatlinburg.png,,,,,51,,,1,0.7857142857142857,../static/images/US_Cities_List/mm_newhope.png,../static/images/US_Cities_List/nat_westpalmbeach.png,../static/images/US_Cities_List/mm_huntsville.png,../static/images/US_Cities_List/mm_huntsville.png,../static/images/US_Cities_List/nat_westpalmbeach.png,../static/images/US_Cities_List/mm_newhope.png,1,,,,,,,,,,,,,,,,,,,
null,,html-keyboard-response,1413955,<p></p>,,,,,null,,,,,,,,,,,,,,,,,,,,,,,,,,,,,,
3154.899999976158,,directmemory_phase,1417243,../static/images/US_Cities_List/mm_hotsprings.png,,,,,50,,,0,0.7333333333333333,../static/images/US_Cities_List/mm_newhope.png,../static/images/US_Cities_List/mm_gatlinburg.png,../static/images/US_Cities_List/nat_boulder.png,../static/images/US_Cities_List/mm_newhope.png,../static/images/US_Cities_List/nat_boulder.png,../static/images/US_Cities_List/mm_gatlinburg.png,0.5,closer,,,,,,,,,,,,,,,,,,
null,,html-keyboard-response,1418265,<p></p>,,,,,null,,,,,,,,,,,,,,,,,,,,,,,,,,,,,,
5670.299999952316,,directmemory_phase,1424086,../static/images/US_Cities_List/nat_shreveport.png,,,,,49,,,0,0.6875,../static/images/US_Cities_List/nat_boulder.png,../static/images/US_Cities_List/nat_peoria.png,../static/images/US_Cities_List/mm_carmel.png,../static/images/US_Cities_List/nat_peoria.png,../static/images/US_Cities_List/nat_boulder.png,../static/images/US_Cities_List/mm_carmel.png,0.5,closer,,,,,,,,,,,,,,,,,,
null,,html-keyboard-response,1425104,<p></p>,,,,,null,,,,,,,,,,,,,,,,,,,,,,,,,,,,,,
3585.0999999046326,,directmemory_phase,1428798,../static/images/US_Cities_List/nat_westpalmbeach.png,,,,,50,,,1,0.7058823529411765,../static/images/US_Cities_List/mm_carmel.png,../static/images/US_Cities_List/mm_huntsville.png,../static/images/US_Cities_List/nat_boulder.png,../static/images/US_Cities_List/mm_huntsville.png,../static/images/US_Cities_List/mm_carmel.png,../static/images/US_Cities_List/nat_boulder.png,1,,,,,,,,,,,,,,,,,,,
null,,html-keyboard-response,1429810,<p></p>,,,,,null,,,,,,,,,,,,,,,,,,,,,,,,,,,,,,
null,,directmemory_phase,1436466,../static/images/US_Cities_List/nat_boulder.png,,,,,null,,,0,0.6666666666666666,../static/images/US_Cities_List/nat_peoria.png,../static/images/US_Cities_List/nat_hanover.png,../static/images/US_Cities_List/mm_leesburg.png,../static/images/US_Cities_List/nat_peoria.png,../static/images/US_Cities_List/mm_leesburg.png,../static/images/US_Cities_List/nat_hanover.png,0,,,,,,,,,,,,,,,,,,,
null,,html-keyboard-response,1437485,<p></p>,,,,,null,,,,,,,,,,,,,,,,,,,,,,,,,,,,,,
2517.7000000476837,,directmemory_phase,1440131,../static/images/US_Cities_List/mm_carmel.png,,,,,49,,,1,0.6842105263157895,../static/images/US_Cities_List/mm_hotsprings.png,../static/images/US_Cities_List/mm_cornwall.png,../static/images/US_Cities_List/nat_westpalmbeach.png,../static/images/US_Cities_List/mm_hotsprings.png,../static/images/US_Cities_List/nat_westpalmbeach.png,../static/images/US_Cities_List/mm_cornwall.png,1,,,,,,,,,,,,,,,,,,,
null,,html-keyboard-response,1441153,<p></p>,,,,,null,,,,,,,,,,,,,,,,,,,,,,,,,,,,,,
3497.6999999284744,,directmemory_phase,1444759,../static/images/US_Cities_List/mm_leesburg.png,,,,,49,,,1,0.7,../static/images/US_Cities_List/mm_huntsville.png,../static/images/US_Cities_List/nat_racine.png,../static/images/US_Cities_List/nat_hanover.png,../static/images/US_Cities_List/mm_huntsville.png,../static/images/US_Cities_List/nat_hanover.png,../static/images/US_Cities_List/nat_racine.png,1,,,,,,,,,,,,,,,,,,,
null,,html-keyboard-response,1445775,<p></p>,,,,,null,,,,,,,,,,,,,,,,,,,,,,,,,,,,,,
3458.899999976158,,directmemory_phase,1449337,../static/images/US_Cities_List/nat_peoria.png,,,,,50,,,1,0.7142857142857143,../static/images/US_Cities_List/nat_racine.png,../static/images/US_Cities_List/nat_shreveport.png,../static/images/US_Cities_List/nat_westpalmbeach.png,../static/images/US_Cities_List/nat_shreveport.png,../static/images/US_Cities_List/nat_racine.png,../static/images/US_Cities_List/nat_westpalmbeach.png,1,,,,,,,,,,,,,,,,,,,
null,,html-keyboard-response,1450362,<p></p>,,,,,null,,,,,,,,,,,,,,,,,,,,,,,,,,,,,,
3496.5,,directmemory_phase,1453993,../static/images/US_Cities_List/mm_leesburg.png,,,,,51,,,0,0.6818181818181818,../static/images/US_Cities_List/nat_westpalmbeach.png,../static/images/US_Cities_List/nat_racine.png,../static/images/US_Cities_List/mm_cornwall.png,../static/images/US_Cities_List/nat_westpalmbeach.png,../static/images/US_Cities_List/mm_cornwall.png,../static/images/US_Cities_List/nat_racine.png,0.5,closer,,,,,,,,,,,,,,,,,,
null,,html-keyboard-response,1455012,<p></p>,,,,,null,,,,,,,,,,,,,,,,,,,,,,,,,,,,,,
3270.899999976158,,directmemory_phase,1458400,../static/images/US_Cities_List/nat_boulder.png,,,,,49,,,0,0.6521739130434783,../static/images/US_Cities_List/mm_cornwall.png,../static/images/US_Cities_List/nat_shreveport.png,../static/images/US_Cities_List/mm_carmel.png,../static/images/US_Cities_List/mm_carmel.png,../static/images/US_Cities_List/nat_shreveport.png,../static/images/US_Cities_List/mm_cornwall.png,0.5,closer,,,,,,,,,,,,,,,,,,
null,,html-keyboard-response,1459413,<p></p>,,,,,null,,,,,,,,,,,,,,,,,,,,,,,,,,,,,,
2378.6999999284744,,directmemory_phase,1461943,../static/images/US_Cities_List/mm_gatlinburg.png,,,,,50,,,0,0.625,../static/images/US_Cities_List/nat_boulder.png,../static/images/US_Cities_List/mm_carmel.png,../static/images/US_Cities_List/mm_cornwall.png,../static/images/US_Cities_List/mm_cornwall.png,../static/images/US_Cities_List/mm_carmel.png,../static/images/US_Cities_List/nat_boulder.png,0.5,closer,,,,,,,,,,,,,,,,,,
null,,html-keyboard-response,1462964,<p></p>,,,,,null,,,,,,,,,,,,,,,,,,,,,,,,,,,,,,
1523.5,,directmemory_phase,1464595,../static/images/US_Cities_List/mm_leesburg.png,,,,,51,,,1,0.64,../static/images/US_Cities_List/nat_peoria.png,../static/images/US_Cities_List/mm_hotsprings.png,../static/images/US_Cities_List/mm_carmel.png,../static/images/US_Cities_List/mm_carmel.png,../static/images/US_Cities_List/mm_hotsprings.png,../static/images/US_Cities_List/nat_peoria.png,1,,,,,,,,,,,,,,,,,,,
null,,html-keyboard-response,1465614,<p></p>,,,,,null,,,,,,,,,,,,,,,,,,,,,,,,,,,,,,
4350.799999952316,,directmemory_phase,1470102,../static/images/US_Cities_List/mm_newhope.png,,,,,49,,,1,0.6538461538461539,../static/images/US_Cities_List/mm_hotsprings.png,../static/images/US_Cities_List/mm_huntsville.png,../static/images/US_Cities_List/nat_shreveport.png,../static/images/US_Cities_List/mm_hotsprings.png,../static/images/US_Cities_List/nat_shreveport.png,../static/images/US_Cities_List/mm_huntsville.png,1,,,,,,,,,,,,,,,,,,,
null,,html-keyboard-response,1471120,<p></p>,,,,,null,,,,,,,,,,,,,,,,,,,,,,,,,,,,,,
4334.699999928474,,directmemory_phase,1475540,../static/images/US_Cities_List/mm_huntsville.png,,,,,50,,,0,0.6296296296296297,../static/images/US_Cities_List/mm_leesburg.png,../static/images/US_Cities_List/nat_boulder.png,../static/images/US_Cities_List/mm_hotsprings.png,../static/images/US_Cities_List/mm_leesburg.png,../static/images/US_Cities_List/mm_hotsprings.png,../static/images/US_Cities_List/nat_boulder.png,0.5,closer,,,,,,,,,,,,,,,,,,
