rt,responses,trial_type,time_elapsed,stimulus,cities,city_images,button_pressed,response,key_press,stimulus_left,stimulus_right,accuracy,cumulative_accuracy,stimulus_down_left,stimulus_down_mid,stimulus_down_right,stimulus_correct,stimulus_short,stimulus_far,weighted_accuracy,missedtrial,condition,specific_pairs,imgL_ID,imgR_ID,linedress,linedressed,image_position,unknowncity,testedstates,currentstate,otherstate,problems,smooth,distraction,strategies,easier,similar,comments
141572.10000002384,{worker_id:68185abbd5fdcf1dd077fb3e},id_enter,141585,intro,Cornwall; Hanover; Huntsville; West Palm Beach; New Hope; Boulder; Racine; Peoria; Shreveport; Leesburg; Gatlinburg; Carmel; Hot Springs,US_Cities_List/nat_cornwall.png; US_Cities_List/mm_hanover.png; US_Cities_List/nat_huntsville.png; US_Cities_List/mm_westpalmbeach.png; US_Cities_List/nat_newhope.png; US_Cities_List/nat_boulder.png; US_Cities_List/nat_racine.png; US_Cities_List/nat_peoria.png; US_Cities_List/mm_shreveport.png; US_Cities_List/nat_leesburg.png; US_Cities_List/nat_gatlinburg.png; US_Cities_List/mm_carmel.png; US_Cities_List/nat_hotsprings.png,,,,,,,,,,,,,,,,,,,,,,,,,,,,,,,,,
30533.80000001192,,fullscreen,172152,make_fullscreen,,,0,,,,,,,,,,,,,,,,,,,,,,,,,,,,,,,,
45673.60000002384,,intro_1,217891,instruct,,,0,,,,,,,,,,,,,,,,,,,,,,,,,,,,,,,,
50067.59999996424,,intro_2,267968,instruct,,,1,Next,,,,,,,,,,,,,,,,,,,,,,,,,,,,,,,
25297.900000035763,,intro_3,293276,instruct,,,1,Next,,,,,,,,,,,,,,,,,,,,,,,,,,,,,,,
44142.80000001192,,intro_4,337425,instruct,,,1,Next,,,,,,,,,,,,,,,,,,,,,,,,,,,,,,,
16965,,intro_5,354397,instruct,,,1,Next,,,,,,,,,,,,,,,,,,,,,,,,,,,,,,,
92302.69999998808,,intro_6,446707,instruct,,,1,Next,,,,,,,,,,,,,,,,,,,,,,,,,,,,,,,
null,,prac_atten_color_black,447206,black_plus_sign,,,,,null,,,,,,,,,,,,,,,,,,,,,,,,,,,,,,
null,,prac_atten_color,448132,prac_stop_color,,,,,null,,,,,,,,,,,,,,,,,,,,,,,,,,,,,,
null,,prac_atten_color_black,450142,black_plus_sign,,,,,null,,,,,,,,,,,,,,,,,,,,,,,,,,,,,,
14474.5,,attentioncheck_help,464632,instruct,,,,,32,,,,,,,,,,,,,,,,,,,,,,,,,,,,,,
null,,prac_atten_color_black,465131,black_plus_sign,,,,,null,,,,,,,,,,,,,,,,,,,,,,,,,,,,,,
null,,prac_atten_color,465620,prac_stop_color,,,,,null,,,,,,,,,,,,,,,,,,,,,,,,,,,,,,
471.19999998807907,,prac_atten_color_black,467626,black_plus_sign,,,,,50,,,,,,,,,,,,,,,,,,,,,,,,,,,,,,
null,,prac_atten_color_black,468554,black_plus_sign,,,,,null,,,,,,,,,,,,,,,,,,,,,,,,,,,,,,
null,,prac_atten_color,469072,prac_stop_color,,,,,null,,,,,,,,,,,,,,,,,,,,,,,,,,,,,,
721,,prac_atten_color_black,471081,black_plus_sign,,,,,50,,,,,,,,,,,,,,,,,,,,,,,,,,,,,,
null,,prac_atten_color_black,471994,black_plus_sign,,,,,null,,,,,,,,,,,,,,,,,,,,,,,,,,,,,,
578.3000000119209,,prac_atten_color,472703,prac_stop_color,,,,,49,,,,,,,,,,,,,,,,,,,,,,,,,,,,,,
null,,prac_atten_color_black,474708,black_plus_sign,,,,,null,,,,,,,,,,,,,,,,,,,,,,,,,,,,,,
null,,prac_atten_color_black,475408,black_plus_sign,,,,,null,,,,,,,,,,,,,,,,,,,,,,,,,,,,,,
551.8999999761581,,prac_atten_color,476098,prac_stop_color,,,,,50,,,,,,,,,,,,,,,,,,,,,,,,,,,,,,
null,,prac_atten_color_black,478108,black_plus_sign,,,,,null,,,,,,,,,,,,,,,,,,,,,,,,,,,,,,
null,,prac_atten_color_black,478837,black_plus_sign,,,,,null,,,,,,,,,,,,,,,,,,,,,,,,,,,,,,
null,,prac_atten_color,479355,prac_stop_color,,,,,null,,,,,,,,,,,,,,,,,,,,,,,,,,,,,,
246.30000001192093,,prac_atten_color_black,481363,black_plus_sign,,,,,50,,,,,,,,,,,,,,,,,,,,,,,,,,,,,,
null,,prac_atten_color_black,482264,black_plus_sign,,,,,null,,,,,,,,,,,,,,,,,,,,,,,,,,,,,,
null,,prac_atten_color,483100,prac_stop_color,,,,,null,,,,,,,,,,,,,,,,,,,,,,,,,,,,,,
27,,prac_atten_color_black,485106,black_plus_sign,,,,,49,,,,,,,,,,,,,,,,,,,,,,,,,,,,,,
null,,prac_atten_color_black,485683,black_plus_sign,,,,,null,,,,,,,,,,,,,,,,,,,,,,,,,,,,,,
770.1000000238419,,prac_atten_color,486637,prac_stop_color,,,,,50,,,,,,,,,,,,,,,,,,,,,,,,,,,,,,
null,,prac_atten_color_black,488645,black_plus_sign,,,,,null,,,,,,,,,,,,,,,,,,,,,,,,,,,,,,
null,,prac_atten_color_black,489104,black_plus_sign,,,,,null,,,,,,,,,,,,,,,,,,,,,,,,,,,,,,
null,,prac_atten_color,489794,prac_stop_color,,,,,null,,,,,,,,,,,,,,,,,,,,,,,,,,,,,,
311.5,,prac_atten_color_black,491800,black_plus_sign,,,,,49,,,,,,,,,,,,,,,,,,,,,,,,,,,,,,
null,,prac_atten_color_black,492535,black_plus_sign,,,,,null,,,,,,,,,,,,,,,,,,,,,,,,,,,,,,
null,,prac_atten_color,493426,prac_stop_color,,,,,null,,,,,,,,,,,,,,,,,,,,,,,,,,,,,,
6.599999964237213,,prac_atten_color_black,495432,black_plus_sign,,,,,49,,,,,,,,,,,,,,,,,,,,,,,,,,,,,,
20605.30000001192,,attentioncheck_feedback,516049,cross_check_feedback,,,0,,,,,,,,,,,,,,,,,,,,,,,,,,,,,,,,
34778.19999998808,,last_instruct,550836,instruct,,,,,32,,,,,,,,,,,,,,,,,,,,,,,,,,,,,,
null,,learn_phase(without_color),552933,black_plus_sign,,,,,null,US_Cities_List/mm_westpalmbeach.png,US_Cities_List/mm_carmel.png,,,,,,,,,,,,,,,,,,,,,,,,,,,,
null,,black_cross(without_color),553847,blue,,,,,null,US_Cities_List/mm_westpalmbeach.png,US_Cities_List/mm_carmel.png,,,,,,,,,,,,,,,,,,,,,,,,,,,,
null,,rt_plussign_withcolor,554355,blue,,,,,null,US_Cities_List/mm_westpalmbeach.png,US_Cities_List/mm_carmel.png,,,,,,,,,,,,,,,,,,,,,,,,,,,,
1480.699999988079,,rt_thecrossant_black,555455,black_plus_sign,,,,,49,,,1,1,,,,,,,,,,,,,,,,,,,,,,,,,,
null,,color_black,555567,black_plus_sign,,,,,null,,,,,,,,,,,,,,,,,,,,,,,,,,,,,,
null,,learn_phase(without_color),558188,black_plus_sign,,,,,null,US_Cities_List/nat_peoria.png,US_Cities_List/mm_shreveport.png,,,,,,,,,,,,,,,,,,,,,,,,,,,,
null,,black_cross(without_color),558754,blue,,,,,null,US_Cities_List/nat_peoria.png,US_Cities_List/mm_shreveport.png,,,,,,,,,,,,,,,,,,,,,,,,,,,,
null,,rt_plussign_withcolor,559260,blue,,,,,null,US_Cities_List/nat_peoria.png,US_Cities_List/mm_shreveport.png,,,,,,,,,,,,,,,,,,,,,,,,,,,,
1232.199999988079,,rt_thecrossant_black,560712,black_plus_sign,,,,,49,,,1,1,,,,,,,,,,,,,,,,,,,,,,,,,,
null,,color_black,560820,black_plus_sign,,,,,null,,,,,,,,,,,,,,,,,,,,,,,,,,,,,,
null,,learn_phase(without_color),563453,black_plus_sign,,,,,null,US_Cities_List/nat_huntsville.png,US_Cities_List/nat_boulder.png,,,,,,,,,,,,,,,,,,,,,,,,,,,,
null,,black_cross(without_color),564112,green,,,,,null,US_Cities_List/nat_huntsville.png,US_Cities_List/nat_boulder.png,,,,,,,,,,,,,,,,,,,,,,,,,,,,
null,,rt_plussign_withcolor,564638,green,,,,,null,US_Cities_List/nat_huntsville.png,US_Cities_List/nat_boulder.png,,,,,,,,,,,,,,,,,,,,,,,,,,,,
780.3000000119209,,rt_thecrossant_black,565999,black_plus_sign,,,,,50,,,1,1,,,,,,,,,,,,,,,,,,,,,,,,,,
null,,color_black,566108,black_plus_sign,,,,,null,,,,,,,,,,,,,,,,,,,,,,,,,,,,,,
null,,learn_phase(without_color),568732,black_plus_sign,,,,,null,US_Cities_List/nat_gatlinburg.png,US_Cities_List/mm_carmel.png,,,,,,,,,,,,,,,,,,,,,,,,,,,,
null,,black_cross(without_color),569166,green,,,,,null,US_Cities_List/nat_gatlinburg.png,US_Cities_List/mm_carmel.png,,,,,,,,,,,,,,,,,,,,,,,,,,,,
null,,rt_plussign_withcolor,569678,green,,,,,null,US_Cities_List/nat_gatlinburg.png,US_Cities_List/mm_carmel.png,,,,,,,,,,,,,,,,,,,,,,,,,,,,
1141.699999988079,,rt_thecrossant_black,571260,black_plus_sign,,,,,50,,,1,1,,,,,,,,,,,,,,,,,,,,,,,,,,
null,,color_black,571368,black_plus_sign,,,,,null,,,,,,,,,,,,,,,,,,,,,,,,,,,,,,
null,,learn_phase(without_color),573993,black_plus_sign,,,,,null,US_Cities_List/mm_westpalmbeach.png,US_Cities_List/nat_newhope.png,,,,,,,,,,,,,,,,,,,,,,,,,,,,
null,,black_cross(without_color),574990,green,,,,,null,US_Cities_List/mm_westpalmbeach.png,US_Cities_List/nat_newhope.png,,,,,,,,,,,,,,,,,,,,,,,,,,,,
null,,rt_plussign_withcolor,575499,green,,,,,null,US_Cities_List/mm_westpalmbeach.png,US_Cities_List/nat_newhope.png,,,,,,,,,,,,,,,,,,,,,,,,,,,,
724.4000000357628,,rt_thecrossant_black,576520,black_plus_sign,,,,,50,,,1,1,,,,,,,,,,,,,,,,,,,,,,,,,,
null,,color_black,576631,black_plus_sign,,,,,null,,,,,,,,,,,,,,,,,,,,,,,,,,,,,,
null,,learn_phase(without_color),579244,black_plus_sign,,,,,null,US_Cities_List/mm_hanover.png,US_Cities_List/nat_huntsville.png,,,,,,,,,,,,,,,,,,,,,,,,,,,,
null,,black_cross(without_color),579797,blue,,,,,null,US_Cities_List/mm_hanover.png,US_Cities_List/nat_huntsville.png,,,,,,,,,,,,,,,,,,,,,,,,,,,,
null,,rt_plussign_withcolor,580303,blue,,,,,null,US_Cities_List/mm_hanover.png,US_Cities_List/nat_huntsville.png,,,,,,,,,,,,,,,,,,,,,,,,,,,,
1427.5,,rt_thecrossant_black,581766,black_plus_sign,,,,,49,,,1,1,,,,,,,,,,,,,,,,,,,,,,,,,,
null,,color_black,581873,black_plus_sign,,,,,null,,,,,,,,,,,,,,,,,,,,,,,,,,,,,,
null,,learn_phase(without_color),584506,black_plus_sign,,,,,null,US_Cities_List/nat_gatlinburg.png,US_Cities_List/mm_carmel.png,,,,,,,,,,,,,,,,,,,,,,,,,,,,
null,,black_cross(without_color),585496,green,,,,,null,US_Cities_List/nat_gatlinburg.png,US_Cities_List/mm_carmel.png,,,,,,,,,,,,,,,,,,,,,,,,,,,,
null,,rt_plussign_withcolor,586002,green,,,,,null,US_Cities_List/nat_gatlinburg.png,US_Cities_List/mm_carmel.png,,,,,,,,,,,,,,,,,,,,,,,,,,,,
940.3999999761581,,rt_thecrossant_black,587028,black_plus_sign,,,,,50,,,1,1,,,,,,,,,,,,,,,,,,,,,,,,,,
null,,color_black,587135,black_plus_sign,,,,,null,,,,,,,,,,,,,,,,,,,,,,,,,,,,,,
null,,learn_phase(without_color),589752,black_plus_sign,,,,,null,US_Cities_List/nat_boulder.png,US_Cities_List/mm_shreveport.png,,,,,,,,,,,,,,,,,,,,,,,,,,,,
null,,black_cross(without_color),590534,green,,,,,null,US_Cities_List/nat_boulder.png,US_Cities_List/mm_shreveport.png,,,,,,,,,,,,,,,,,,,,,,,,,,,,
null,,rt_plussign_withcolor,591038,green,,,,,null,US_Cities_List/nat_boulder.png,US_Cities_List/mm_shreveport.png,,,,,,,,,,,,,,,,,,,,,,,,,,,,
1483,,rt_thecrossant_black,592282,black_plus_sign,,,,,50,,,1,1,,,,,,,,,,,,,,,,,,,,,,,,,,
null,,color_black,592392,black_plus_sign,,,,,null,,,,,,,,,,,,,,,,,,,,,,,,,,,,,,
null,,learn_phase(without_color),594995,black_plus_sign,,,,,null,US_Cities_List/nat_peoria.png,US_Cities_List/mm_shreveport.png,,,,,,,,,,,,,,,,,,,,,,,,,,,,
null,,black_cross(without_color),595707,blue,,,,,null,US_Cities_List/nat_peoria.png,US_Cities_List/mm_shreveport.png,,,,,,,,,,,,,,,,,,,,,,,,,,,,
null,,rt_plussign_withcolor,596213,blue,,,,,null,US_Cities_List/nat_peoria.png,US_Cities_List/mm_shreveport.png,,,,,,,,,,,,,,,,,,,,,,,,,,,,
1318.8999999761581,,rt_thecrossant_black,597518,black_plus_sign,,,,,49,,,1,1,,,,,,,,,,,,,,,,,,,,,,,,,,
null,,color_black,597628,black_plus_sign,,,,,null,,,,,,,,,,,,,,,,,,,,,,,,,,,,,,
null,,learn_phase(without_color),600234,black_plus_sign,,,,,null,US_Cities_List/nat_huntsville.png,US_Cities_List/nat_gatlinburg.png,,,,,,,,,,,,,,,,,,,,,,,,,,,,
null,,black_cross(without_color),600881,green,,,,,null,US_Cities_List/nat_huntsville.png,US_Cities_List/nat_gatlinburg.png,,,,,,,,,,,,,,,,,,,,,,,,,,,,
null,,rt_plussign_withcolor,601396,green,,,,,null,US_Cities_List/nat_huntsville.png,US_Cities_List/nat_gatlinburg.png,,,,,,,,,,,,,,,,,,,,,,,,,,,,
1083.9000000357628,,rt_thecrossant_black,602775,black_plus_sign,,,,,50,,,1,1,,,,,,,,,,,,,,,,,,,,,,,,,,
null,,color_black,602883,black_plus_sign,,,,,null,,,,,,,,,,,,,,,,,,,,,,,,,,,,,,
null,,learn_phase(without_color),605489,black_plus_sign,,,,,null,US_Cities_List/nat_gatlinburg.png,US_Cities_List/mm_carmel.png,,,,,,,,,,,,,,,,,,,,,,,,,,,,
null,,black_cross(without_color),606318,blue,,,,,null,US_Cities_List/nat_gatlinburg.png,US_Cities_List/mm_carmel.png,,,,,,,,,,,,,,,,,,,,,,,,,,,,
null,,rt_plussign_withcolor,606826,blue,,,,,null,US_Cities_List/nat_gatlinburg.png,US_Cities_List/mm_carmel.png,,,,,,,,,,,,,,,,,,,,,,,,,,,,
1226.8999999761581,,rt_thecrossant_black,608013,black_plus_sign,,,,,49,,,1,1,,,,,,,,,,,,,,,,,,,,,,,,,,
null,,color_black,608123,black_plus_sign,,,,,null,,,,,,,,,,,,,,,,,,,,,,,,,,,,,,
null,,learn_phase(without_color),610745,black_plus_sign,,,,,null,US_Cities_List/nat_peoria.png,US_Cities_List/mm_shreveport.png,,,,,,,,,,,,,,,,,,,,,,,,,,,,
null,,black_cross(without_color),611280,green,,,,,null,US_Cities_List/nat_peoria.png,US_Cities_List/mm_shreveport.png,,,,,,,,,,,,,,,,,,,,,,,,,,,,
null,,rt_plussign_withcolor,611787,green,,,,,null,US_Cities_List/nat_peoria.png,US_Cities_List/mm_shreveport.png,,,,,,,,,,,,,,,,,,,,,,,,,,,,
1229.699999988079,,rt_thecrossant_black,613284,black_plus_sign,,,,,50,,,1,1,,,,,,,,,,,,,,,,,,,,,,,,,,
null,,color_black,613402,black_plus_sign,,,,,null,,,,,,,,,,,,,,,,,,,,,,,,,,,,,,
null,,learn_phase(without_color),616023,black_plus_sign,,,,,null,US_Cities_List/nat_boulder.png,US_Cities_List/nat_racine.png,,,,,,,,,,,,,,,,,,,,,,,,,,,,
null,,black_cross(without_color),616862,blue,,,,,null,US_Cities_List/nat_boulder.png,US_Cities_List/nat_racine.png,,,,,,,,,,,,,,,,,,,,,,,,,,,,
null,,rt_plussign_withcolor,617365,blue,,,,,null,US_Cities_List/nat_boulder.png,US_Cities_List/nat_racine.png,,,,,,,,,,,,,,,,,,,,,,,,,,,,
1460.3999999761581,,rt_thecrossant_black,618550,black_plus_sign,,,,,49,,,1,1,,,,,,,,,,,,,,,,,,,,,,,,,,
null,,color_black,618660,black_plus_sign,,,,,null,,,,,,,,,,,,,,,,,,,,,,,,,,,,,,
null,,learn_phase(without_color),621256,black_plus_sign,,,,,null,US_Cities_List/mm_hanover.png,US_Cities_List/mm_westpalmbeach.png,,,,,,,,,,,,,,,,,,,,,,,,,,,,
null,,black_cross(without_color),621839,blue,,,,,null,US_Cities_List/mm_hanover.png,US_Cities_List/mm_westpalmbeach.png,,,,,,,,,,,,,,,,,,,,,,,,,,,,
null,,rt_plussign_withcolor,622345,blue,,,,,null,US_Cities_List/mm_hanover.png,US_Cities_List/mm_westpalmbeach.png,,,,,,,,,,,,,,,,,,,,,,,,,,,,
2352.100000023842,,rt_thecrossant_black,623783,black_plus_sign,,,,,49,,,1,1,,,,,,,,,,,,,,,,,,,,,,,,,,
null,,color_black,623894,black_plus_sign,,,,,null,,,,,,,,,,,,,,,,,,,,,,,,,,,,,,
null,,learn_phase(without_color),626529,black_plus_sign,,,,,null,US_Cities_List/mm_westpalmbeach.png,US_Cities_List/mm_carmel.png,,,,,,,,,,,,,,,,,,,,,,,,,,,,
null,,black_cross(without_color),627421,blue,,,,,null,US_Cities_List/mm_westpalmbeach.png,US_Cities_List/mm_carmel.png,,,,,,,,,,,,,,,,,,,,,,,,,,,,
null,,rt_plussign_withcolor,627928,blue,,,,,null,US_Cities_List/mm_westpalmbeach.png,US_Cities_List/mm_carmel.png,,,,,,,,,,,,,,,,,,,,,,,,,,,,
1440.8999999761581,,rt_thecrossant_black,629075,black_plus_sign,,,,,49,,,1,1,,,,,,,,,,,,,,,,,,,,,,,,,,
null,,color_black,629184,black_plus_sign,,,,,null,,,,,,,,,,,,,,,,,,,,,,,,,,,,,,
null,,learn_phase(without_color),631789,black_plus_sign,,,,,null,US_Cities_List/mm_shreveport.png,US_Cities_List/nat_gatlinburg.png,,,,,,,,,,,,,,,,,,,,,,,,,,,,
null,,black_cross(without_color),632500,green,,,,,null,US_Cities_List/mm_shreveport.png,US_Cities_List/nat_gatlinburg.png,,,,,,,,,,,,,,,,,,,,,,,,,,,,
null,,rt_plussign_withcolor,633006,green,,,,,null,US_Cities_List/mm_shreveport.png,US_Cities_List/nat_gatlinburg.png,,,,,,,,,,,,,,,,,,,,,,,,,,,,
1555.5,,rt_thecrossant_black,634312,black_plus_sign,,,,,50,,,1,1,,,,,,,,,,,,,,,,,,,,,,,,,,
null,,color_black,634422,black_plus_sign,,,,,null,,,,,,,,,,,,,,,,,,,,,,,,,,,,,,
null,,learn_phase(without_color),637011,black_plus_sign,,,,,null,US_Cities_List/mm_hanover.png,US_Cities_List/nat_huntsville.png,,,,,,,,,,,,,,,,,,,,,,,,,,,,
null,,black_cross(without_color),637874,green,,,,,null,US_Cities_List/mm_hanover.png,US_Cities_List/nat_huntsville.png,,,,,,,,,,,,,,,,,,,,,,,,,,,,
null,,rt_plussign_withcolor,638380,green,,,,,null,US_Cities_List/mm_hanover.png,US_Cities_List/nat_huntsville.png,,,,,,,,,,,,,,,,,,,,,,,,,,,,
null,,rt_thecrossant_black,639538,black_plus_sign,,,,,null,,,,1,,,,,,,,,,,,,,,,,,,,,,,,,,
null,,color_black,639646,black_plus_sign,,,,,null,,,,,,,,,,,,,,,,,,,,,,,,,,,,,,
null,,learn_phase(without_color),642278,black_plus_sign,,,,,null,US_Cities_List/nat_huntsville.png,US_Cities_List/nat_boulder.png,,,,,,,,,,,,,,,,,,,,,,,,,,,,
null,,black_cross(without_color),642835,green,,,,,null,US_Cities_List/nat_huntsville.png,US_Cities_List/nat_boulder.png,,,,,,,,,,,,,,,,,,,,,,,,,,,,
null,,rt_plussign_withcolor,643341,green,,,,,null,US_Cities_List/nat_huntsville.png,US_Cities_List/nat_boulder.png,,,,,,,,,,,,,,,,,,,,,,,,,,,,
1745.3999999761581,,rt_thecrossant_black,644811,black_plus_sign,,,,,50,,,1,1,,,,,,,,,,,,,,,,,,,,,,,,,,
null,,color_black,644920,black_plus_sign,,,,,null,,,,,,,,,,,,,,,,,,,,,,,,,,,,,,
null,,learn_phase(without_color),647538,black_plus_sign,,,,,null,US_Cities_List/nat_gatlinburg.png,US_Cities_List/mm_carmel.png,,,,,,,,,,,,,,,,,,,,,,,,,,,,
null,,black_cross(without_color),648633,blue,,,,,null,US_Cities_List/nat_gatlinburg.png,US_Cities_List/mm_carmel.png,,,,,,,,,,,,,,,,,,,,,,,,,,,,
null,,rt_plussign_withcolor,649145,blue,,,,,null,US_Cities_List/nat_gatlinburg.png,US_Cities_List/mm_carmel.png,,,,,,,,,,,,,,,,,,,,,,,,,,,,
null,,rt_thecrossant_black,650066,black_plus_sign,,,,,null,,,,1,,,,,,,,,,,,,,,,,,,,,,,,,,
null,,color_black,650173,black_plus_sign,,,,,null,,,,,,,,,,,,,,,,,,,,,,,,,,,,,,
null,,learn_phase(without_color),652836,black_plus_sign,,,,,null,US_Cities_List/nat_racine.png,US_Cities_List/mm_shreveport.png,,,,,,,,,,,,,,,,,,,,,,,,,,,,
null,,black_cross(without_color),653850,green,,,,,null,US_Cities_List/nat_racine.png,US_Cities_List/mm_shreveport.png,,,,,,,,,,,,,,,,,,,,,,,,,,,,
null,,rt_plussign_withcolor,654356,green,,,,,null,US_Cities_List/nat_racine.png,US_Cities_List/mm_shreveport.png,,,,,,,,,,,,,,,,,,,,,,,,,,,,
null,,rt_thecrossant_black,655358,black_plus_sign,,,,,null,,,,1,,,,,,,,,,,,,,,,,,,,,,,,,,
null,,warning_page,658371,warning,,,,,null,,,,,,,,,,,,,,,,,,,,,,,,,,,,,,
null,,color_black,658477,black_plus_sign,,,,,null,,,,,,,,,,,,,,,,,,,,,,,,,,,,,,
null,,learn_phase(without_color),661135,black_plus_sign,,,,,null,US_Cities_List/nat_boulder.png,US_Cities_List/nat_racine.png,,,,,,,,,,,,,,,,,,,,,,,,,,,,
null,,black_cross(without_color),662133,blue,,,,,null,US_Cities_List/nat_boulder.png,US_Cities_List/nat_racine.png,,,,,,,,,,,,,,,,,,,,,,,,,,,,
null,,rt_plussign_withcolor,662639,blue,,,,,null,US_Cities_List/nat_boulder.png,US_Cities_List/nat_racine.png,,,,,,,,,,,,,,,,,,,,,,,,,,,,
2061.399999976158,,rt_thecrossant_black,663657,black_plus_sign,,,,,49,,,1,1,,,,,,,,,,,,,,,,,,,,,,,,,,
null,,color_black,663768,black_plus_sign,,,,,null,,,,,,,,,,,,,,,,,,,,,,,,,,,,,,
null,,learn_phase(without_color),666400,black_plus_sign,,,,,null,US_Cities_List/nat_racine.png,US_Cities_List/nat_hotsprings.png,,,,,,,,,,,,,,,,,,,,,,,,,,,,
null,,black_cross(without_color),666970,blue,,,,,null,US_Cities_List/nat_racine.png,US_Cities_List/nat_hotsprings.png,,,,,,,,,,,,,,,,,,,,,,,,,,,,
null,,rt_plussign_withcolor,667476,blue,,,,,null,US_Cities_List/nat_racine.png,US_Cities_List/nat_hotsprings.png,,,,,,,,,,,,,,,,,,,,,,,,,,,,
1853.800000011921,,rt_thecrossant_black,668925,black_plus_sign,,,,,49,,,1,1,,,,,,,,,,,,,,,,,,,,,,,,,,
null,,color_black,669066,black_plus_sign,,,,,null,,,,,,,,,,,,,,,,,,,,,,,,,,,,,,
null,,learn_phase(without_color),671681,black_plus_sign,,,,,null,US_Cities_List/nat_racine.png,US_Cities_List/mm_shreveport.png,,,,,,,,,,,,,,,,,,,,,,,,,,,,
null,,black_cross(without_color),672769,blue,,,,,null,US_Cities_List/nat_racine.png,US_Cities_List/mm_shreveport.png,,,,,,,,,,,,,,,,,,,,,,,,,,,,
null,,rt_plussign_withcolor,673273,blue,,,,,null,US_Cities_List/nat_racine.png,US_Cities_List/mm_shreveport.png,,,,,,,,,,,,,,,,,,,,,,,,,,,,
1487.9000000357628,,rt_thecrossant_black,674198,black_plus_sign,,,,,49,,,1,1,,,,,,,,,,,,,,,,,,,,,,,,,,
null,,color_black,674319,black_plus_sign,,,,,null,,,,,,,,,,,,,,,,,,,,,,,,,,,,,,
null,,learn_phase(without_color),676934,black_plus_sign,,,,,null,US_Cities_List/mm_hanover.png,US_Cities_List/nat_huntsville.png,,,,,,,,,,,,,,,,,,,,,,,,,,,,
null,,black_cross(without_color),677399,green,,,,,null,US_Cities_List/mm_hanover.png,US_Cities_List/nat_huntsville.png,,,,,,,,,,,,,,,,,,,,,,,,,,,,
null,,rt_plussign_withcolor,677903,green,,,,,null,US_Cities_List/mm_hanover.png,US_Cities_List/nat_huntsville.png,,,,,,,,,,,,,,,,,,,,,,,,,,,,
null,,rt_thecrossant_black,679452,black_plus_sign,,,,,null,,,,1,,,,,,,,,,,,,,,,,,,,,,,,,,
null,,color_black,679559,black_plus_sign,,,,,null,,,,,,,,,,,,,,,,,,,,,,,,,,,,,,
null,,learn_phase(without_color),682147,black_plus_sign,,,,,null,US_Cities_List/nat_huntsville.png,US_Cities_List/nat_boulder.png,,,,,,,,,,,,,,,,,,,,,,,,,,,,
null,,black_cross(without_color),682813,green,,,,,null,US_Cities_List/nat_huntsville.png,US_Cities_List/nat_boulder.png,,,,,,,,,,,,,,,,,,,,,,,,,,,,
null,,rt_plussign_withcolor,683316,green,,,,,null,US_Cities_List/nat_huntsville.png,US_Cities_List/nat_boulder.png,,,,,,,,,,,,,,,,,,,,,,,,,,,,
null,,rt_thecrossant_black,684665,black_plus_sign,,,,,null,,,,1,,,,,,,,,,,,,,,,,,,,,,,,,,
null,,warning_page,687679,warning,,,,,null,,,,,,,,,,,,,,,,,,,,,,,,,,,,,,
null,,color_black,687785,black_plus_sign,,,,,null,,,,,,,,,,,,,,,,,,,,,,,,,,,,,,
null,,learn_phase(without_color),690420,black_plus_sign,,,,,null,US_Cities_List/nat_cornwall.png,US_Cities_List/mm_hanover.png,,,,,,,,,,,,,,,,,,,,,,,,,,,,
null,,black_cross(without_color),691099,green,,,,,null,US_Cities_List/nat_cornwall.png,US_Cities_List/mm_hanover.png,,,,,,,,,,,,,,,,,,,,,,,,,,,,
null,,rt_plussign_withcolor,691601,green,,,,,null,US_Cities_List/nat_cornwall.png,US_Cities_List/mm_hanover.png,,,,,,,,,,,,,,,,,,,,,,,,,,,,
null,,rt_thecrossant_black,692935,black_plus_sign,,,,,null,,,,1,,,,,,,,,,,,,,,,,,,,,,,,,,
null,,warning_page,695945,warning,,,,,null,,,,,,,,,,,,,,,,,,,,,,,,,,,,,,
null,,color_black,696048,black_plus_sign,,,,,null,,,,,,,,,,,,,,,,,,,,,,,,,,,,,,
null,,learn_phase(without_color),698649,black_plus_sign,,,,,null,US_Cities_List/mm_westpalmbeach.png,US_Cities_List/nat_newhope.png,,,,,,,,,,,,,,,,,,,,,,,,,,,,
null,,black_cross(without_color),699320,green,,,,,null,US_Cities_List/mm_westpalmbeach.png,US_Cities_List/nat_newhope.png,,,,,,,,,,,,,,,,,,,,,,,,,,,,
503.60000002384186,,rt_plussign_withcolor,699833,green,,,,,50,US_Cities_List/mm_westpalmbeach.png,US_Cities_List/nat_newhope.png,,,,,,,,,,,,,,,,,,,,,,,,,,,,
null,,rt_thecrossant_black,701181,black_plus_sign,,,,,null,,,1,1,,,,,,,,,,,,,,,,,,,,,,,,,,
null,,color_black,701286,black_plus_sign,,,,,null,,,,,,,,,,,,,,,,,,,,,,,,,,,,,,
null,,learn_phase(without_color),703931,black_plus_sign,,,,,null,US_Cities_List/mm_hanover.png,US_Cities_List/mm_westpalmbeach.png,,,,,,,,,,,,,,,,,,,,,,,,,,,,
null,,black_cross(without_color),704695,blue,,,,,null,US_Cities_List/mm_hanover.png,US_Cities_List/mm_westpalmbeach.png,,,,,,,,,,,,,,,,,,,,,,,,,,,,
null,,rt_plussign_withcolor,705202,blue,,,,,null,US_Cities_List/mm_hanover.png,US_Cities_List/mm_westpalmbeach.png,,,,,,,,,,,,,,,,,,,,,,,,,,,,
936.9000000357628,,rt_thecrossant_black,706458,black_plus_sign,,,,,49,,,1,1,,,,,,,,,,,,,,,,,,,,,,,,,,
null,,color_black,706562,black_plus_sign,,,,,null,,,,,,,,,,,,,,,,,,,,,,,,,,,,,,
null,,learn_phase(without_color),709168,black_plus_sign,,,,,null,US_Cities_List/nat_peoria.png,US_Cities_List/nat_leesburg.png,,,,,,,,,,,,,,,,,,,,,,,,,,,,
null,,black_cross(without_color),710110,green,,,,,null,US_Cities_List/nat_peoria.png,US_Cities_List/nat_leesburg.png,,,,,,,,,,,,,,,,,,,,,,,,,,,,
null,,rt_plussign_withcolor,710623,green,,,,,null,US_Cities_List/nat_peoria.png,US_Cities_List/nat_leesburg.png,,,,,,,,,,,,,,,,,,,,,,,,,,,,
953.8000000119209,,rt_thecrossant_black,711701,black_plus_sign,,,,,50,,,1,1,,,,,,,,,,,,,,,,,,,,,,,,,,
null,,color_black,711811,black_plus_sign,,,,,null,,,,,,,,,,,,,,,,,,,,,,,,,,,,,,
null,,learn_phase(without_color),714482,black_plus_sign,,,,,null,US_Cities_List/mm_westpalmbeach.png,US_Cities_List/nat_newhope.png,,,,,,,,,,,,,,,,,,,,,,,,,,,,
null,,black_cross(without_color),714961,blue,,,,,null,US_Cities_List/mm_westpalmbeach.png,US_Cities_List/nat_newhope.png,,,,,,,,,,,,,,,,,,,,,,,,,,,,
null,,rt_plussign_withcolor,715472,blue,,,,,null,US_Cities_List/mm_westpalmbeach.png,US_Cities_List/nat_newhope.png,,,,,,,,,,,,,,,,,,,,,,,,,,,,
1387.199999988079,,rt_thecrossant_black,717016,black_plus_sign,,,,,49,,,1,1,,,,,,,,,,,,,,,,,,,,,,,,,,
null,,color_black,717127,black_plus_sign,,,,,null,,,,,,,,,,,,,,,,,,,,,,,,,,,,,,
null,,learn_phase(without_color),719747,black_plus_sign,,,,,null,US_Cities_List/nat_peoria.png,US_Cities_List/nat_leesburg.png,,,,,,,,,,,,,,,,,,,,,,,,,,,,
null,,black_cross(without_color),720808,green,,,,,null,US_Cities_List/nat_peoria.png,US_Cities_List/nat_leesburg.png,,,,,,,,,,,,,,,,,,,,,,,,,,,,
null,,rt_plussign_withcolor,721313,green,,,,,null,US_Cities_List/nat_peoria.png,US_Cities_List/nat_leesburg.png,,,,,,,,,,,,,,,,,,,,,,,,,,,,
882.3999999761581,,rt_thecrossant_black,722269,black_plus_sign,,,,,50,,,1,1,,,,,,,,,,,,,,,,,,,,,,,,,,
null,,color_black,722381,black_plus_sign,,,,,null,,,,,,,,,,,,,,,,,,,,,,,,,,,,,,
null,,learn_phase(without_color),725007,black_plus_sign,,,,,null,US_Cities_List/nat_huntsville.png,US_Cities_List/nat_boulder.png,,,,,,,,,,,,,,,,,,,,,,,,,,,,
null,,black_cross(without_color),726093,blue,,,,,null,US_Cities_List/nat_huntsville.png,US_Cities_List/nat_boulder.png,,,,,,,,,,,,,,,,,,,,,,,,,,,,
null,,rt_plussign_withcolor,726603,blue,,,,,null,US_Cities_List/nat_huntsville.png,US_Cities_List/nat_boulder.png,,,,,,,,,,,,,,,,,,,,,,,,,,,,
1462.300000011921,,rt_thecrossant_black,727534,black_plus_sign,,,,,49,,,1,1,,,,,,,,,,,,,,,,,,,,,,,,,,
null,,color_black,727642,black_plus_sign,,,,,null,,,,,,,,,,,,,,,,,,,,,,,,,,,,,,
null,,learn_phase(without_color),730398,black_plus_sign,,,,,null,US_Cities_List/nat_boulder.png,US_Cities_List/mm_shreveport.png,,,,,,,,,,,,,,,,,,,,,,,,,,,,
null,,black_cross(without_color),731348,blue,,,,,null,US_Cities_List/nat_boulder.png,US_Cities_List/mm_shreveport.png,,,,,,,,,,,,,,,,,,,,,,,,,,,,
null,,rt_plussign_withcolor,731852,blue,,,,,null,US_Cities_List/nat_boulder.png,US_Cities_List/mm_shreveport.png,,,,,,,,,,,,,,,,,,,,,,,,,,,,
1629.800000011921,,rt_thecrossant_black,732919,black_plus_sign,,,,,49,,,1,1,,,,,,,,,,,,,,,,,,,,,,,,,,
null,,color_black,733026,black_plus_sign,,,,,null,,,,,,,,,,,,,,,,,,,,,,,,,,,,,,
null,,learn_phase(without_color),735622,black_plus_sign,,,,,null,US_Cities_List/nat_huntsville.png,US_Cities_List/nat_gatlinburg.png,,,,,,,,,,,,,,,,,,,,,,,,,,,,
null,,black_cross(without_color),736172,green,,,,,null,US_Cities_List/nat_huntsville.png,US_Cities_List/nat_gatlinburg.png,,,,,,,,,,,,,,,,,,,,,,,,,,,,
null,,rt_plussign_withcolor,736679,green,,,,,null,US_Cities_List/nat_huntsville.png,US_Cities_List/nat_gatlinburg.png,,,,,,,,,,,,,,,,,,,,,,,,,,,,
1531.5,,rt_thecrossant_black,738162,black_plus_sign,,,,,50,,,1,1,,,,,,,,,,,,,,,,,,,,,,,,,,
null,,color_black,738287,black_plus_sign,,,,,null,,,,,,,,,,,,,,,,,,,,,,,,,,,,,,
null,,learn_phase(without_color),740912,black_plus_sign,,,,,null,US_Cities_List/mm_hanover.png,US_Cities_List/mm_westpalmbeach.png,,,,,,,,,,,,,,,,,,,,,,,,,,,,
null,,black_cross(without_color),741329,green,,,,,null,US_Cities_List/mm_hanover.png,US_Cities_List/mm_westpalmbeach.png,,,,,,,,,,,,,,,,,,,,,,,,,,,,
null,,rt_plussign_withcolor,741838,green,,,,,null,US_Cities_List/mm_hanover.png,US_Cities_List/mm_westpalmbeach.png,,,,,,,,,,,,,,,,,,,,,,,,,,,,
1250,,rt_thecrossant_black,743442,black_plus_sign,,,,,50,,,1,1,,,,,,,,,,,,,,,,,,,,,,,,,,
null,,color_black,743569,black_plus_sign,,,,,null,,,,,,,,,,,,,,,,,,,,,,,,,,,,,,
null,,learn_phase(without_color),746196,black_plus_sign,,,,,null,US_Cities_List/nat_boulder.png,US_Cities_List/mm_shreveport.png,,,,,,,,,,,,,,,,,,,,,,,,,,,,
null,,black_cross(without_color),747116,blue,,,,,null,US_Cities_List/nat_boulder.png,US_Cities_List/mm_shreveport.png,,,,,,,,,,,,,,,,,,,,,,,,,,,,
null,,rt_plussign_withcolor,747622,blue,,,,,null,US_Cities_List/nat_boulder.png,US_Cities_List/mm_shreveport.png,,,,,,,,,,,,,,,,,,,,,,,,,,,,
703.5999999642372,,rt_thecrossant_black,748721,black_plus_sign,,,,,49,,,1,1,,,,,,,,,,,,,,,,,,,,,,,,,,
null,,color_black,748829,black_plus_sign,,,,,null,,,,,,,,,,,,,,,,,,,,,,,,,,,,,,
null,,learn_phase(without_color),751459,black_plus_sign,,,,,null,US_Cities_List/mm_shreveport.png,US_Cities_List/nat_gatlinburg.png,,,,,,,,,,,,,,,,,,,,,,,,,,,,
null,,black_cross(without_color),752314,blue,,,,,null,US_Cities_List/mm_shreveport.png,US_Cities_List/nat_gatlinburg.png,,,,,,,,,,,,,,,,,,,,,,,,,,,,
null,,rt_plussign_withcolor,752820,blue,,,,,null,US_Cities_List/mm_shreveport.png,US_Cities_List/nat_gatlinburg.png,,,,,,,,,,,,,,,,,,,,,,,,,,,,
1517.0999999642372,,rt_thecrossant_black,753985,black_plus_sign,,,,,49,,,1,1,,,,,,,,,,,,,,,,,,,,,,,,,,
null,,color_black,754093,black_plus_sign,,,,,null,,,,,,,,,,,,,,,,,,,,,,,,,,,,,,
null,,learn_phase(without_color),756801,black_plus_sign,,,,,null,US_Cities_List/nat_huntsville.png,US_Cities_List/nat_boulder.png,,,,,,,,,,,,,,,,,,,,,,,,,,,,
null,,black_cross(without_color),757458,blue,,,,,null,US_Cities_List/nat_huntsville.png,US_Cities_List/nat_boulder.png,,,,,,,,,,,,,,,,,,,,,,,,,,,,
null,,rt_plussign_withcolor,757970,blue,,,,,null,US_Cities_List/nat_huntsville.png,US_Cities_List/nat_boulder.png,,,,,,,,,,,,,,,,,,,,,,,,,,,,
1373.3999999761581,,rt_thecrossant_black,759337,black_plus_sign,,,,,49,,,1,1,,,,,,,,,,,,,,,,,,,,,,,,,,
null,,color_black,759447,black_plus_sign,,,,,null,,,,,,,,,,,,,,,,,,,,,,,,,,,,,,
null,,learn_phase(without_color),762040,black_plus_sign,,,,,null,US_Cities_List/nat_racine.png,US_Cities_List/nat_peoria.png,,,,,,,,,,,,,,,,,,,,,,,,,,,,
null,,black_cross(without_color),762465,green,,,,,null,US_Cities_List/nat_racine.png,US_Cities_List/nat_peoria.png,,,,,,,,,,,,,,,,,,,,,,,,,,,,
null,,rt_plussign_withcolor,762969,green,,,,,null,US_Cities_List/nat_racine.png,US_Cities_List/nat_peoria.png,,,,,,,,,,,,,,,,,,,,,,,,,,,,
1100.5999999642372,,rt_thecrossant_black,764555,black_plus_sign,,,,,50,,,1,1,,,,,,,,,,,,,,,,,,,,,,,,,,
null,,color_black,764658,black_plus_sign,,,,,null,,,,,,,,,,,,,,,,,,,,,,,,,,,,,,
null,,learn_phase(without_color),767259,black_plus_sign,,,,,null,US_Cities_List/nat_huntsville.png,US_Cities_List/nat_boulder.png,,,,,,,,,,,,,,,,,,,,,,,,,,,,
null,,black_cross(without_color),767970,green,,,,,null,US_Cities_List/nat_huntsville.png,US_Cities_List/nat_boulder.png,,,,,,,,,,,,,,,,,,,,,,,,,,,,
null,,rt_plussign_withcolor,768491,green,,,,,null,US_Cities_List/nat_huntsville.png,US_Cities_List/nat_boulder.png,,,,,,,,,,,,,,,,,,,,,,,,,,,,
1048.9000000357628,,rt_thecrossant_black,769801,black_plus_sign,,,,,50,,,1,1,,,,,,,,,,,,,,,,,,,,,,,,,,
null,,color_black,769906,black_plus_sign,,,,,null,,,,,,,,,,,,,,,,,,,,,,,,,,,,,,
null,,learn_phase(without_color),772590,black_plus_sign,,,,,null,US_Cities_List/mm_westpalmbeach.png,US_Cities_List/mm_carmel.png,,,,,,,,,,,,,,,,,,,,,,,,,,,,
null,,black_cross(without_color),773623,blue,,,,,null,US_Cities_List/mm_westpalmbeach.png,US_Cities_List/mm_carmel.png,,,,,,,,,,,,,,,,,,,,,,,,,,,,
null,,rt_plussign_withcolor,774128,blue,,,,,null,US_Cities_List/mm_westpalmbeach.png,US_Cities_List/mm_carmel.png,,,,,,,,,,,,,,,,,,,,,,,,,,,,
1267.2999999523163,,rt_thecrossant_black,775114,black_plus_sign,,,,,49,,,1,1,,,,,,,,,,,,,,,,,,,,,,,,,,
null,,color_black,775222,black_plus_sign,,,,,null,,,,,,,,,,,,,,,,,,,,,,,,,,,,,,
null,,learn_phase(without_color),777831,black_plus_sign,,,,,null,US_Cities_List/mm_hanover.png,US_Cities_List/nat_huntsville.png,,,,,,,,,,,,,,,,,,,,,,,,,,,,
null,,black_cross(without_color),778774,green,,,,,null,US_Cities_List/mm_hanover.png,US_Cities_List/nat_huntsville.png,,,,,,,,,,,,,,,,,,,,,,,,,,,,
null,,rt_plussign_withcolor,779282,green,,,,,null,US_Cities_List/mm_hanover.png,US_Cities_List/nat_huntsville.png,,,,,,,,,,,,,,,,,,,,,,,,,,,,
1673.300000011921,,rt_thecrossant_black,780354,black_plus_sign,,,,,50,,,1,1,,,,,,,,,,,,,,,,,,,,,,,,,,
null,,color_black,780474,black_plus_sign,,,,,null,,,,,,,,,,,,,,,,,,,,,,,,,,,,,,
null,,learn_phase(without_color),783137,black_plus_sign,,,,,null,US_Cities_List/nat_cornwall.png,US_Cities_List/mm_hanover.png,,,,,,,,,,,,,,,,,,,,,,,,,,,,
null,,black_cross(without_color),783847,blue,,,,,null,US_Cities_List/nat_cornwall.png,US_Cities_List/mm_hanover.png,,,,,,,,,,,,,,,,,,,,,,,,,,,,
null,,rt_plussign_withcolor,784355,blue,,,,,null,US_Cities_List/nat_cornwall.png,US_Cities_List/mm_hanover.png,,,,,,,,,,,,,,,,,,,,,,,,,,,,
1497.699999988079,,rt_thecrossant_black,785667,black_plus_sign,,,,,49,,,1,1,,,,,,,,,,,,,,,,,,,,,,,,,,
null,,color_black,785781,black_plus_sign,,,,,null,,,,,,,,,,,,,,,,,,,,,,,,,,,,,,
null,,learn_phase(without_color),788413,black_plus_sign,,,,,null,US_Cities_List/mm_shreveport.png,US_Cities_List/nat_gatlinburg.png,,,,,,,,,,,,,,,,,,,,,,,,,,,,
null,,black_cross(without_color),789230,blue,,,,,null,US_Cities_List/mm_shreveport.png,US_Cities_List/nat_gatlinburg.png,,,,,,,,,,,,,,,,,,,,,,,,,,,,
null,,rt_plussign_withcolor,789735,blue,,,,,null,US_Cities_List/mm_shreveport.png,US_Cities_List/nat_gatlinburg.png,,,,,,,,,,,,,,,,,,,,,,,,,,,,
1350.5,,rt_thecrossant_black,790934,black_plus_sign,,,,,49,,,1,1,,,,,,,,,,,,,,,,,,,,,,,,,,
null,,color_black,791049,black_plus_sign,,,,,null,,,,,,,,,,,,,,,,,,,,,,,,,,,,,,
null,,learn_phase(without_color),793657,black_plus_sign,,,,,null,US_Cities_List/nat_boulder.png,US_Cities_List/mm_shreveport.png,,,,,,,,,,,,,,,,,,,,,,,,,,,,
null,,black_cross(without_color),794315,green,,,,,null,US_Cities_List/nat_boulder.png,US_Cities_List/mm_shreveport.png,,,,,,,,,,,,,,,,,,,,,,,,,,,,
null,,rt_plussign_withcolor,794825,green,,,,,null,US_Cities_List/nat_boulder.png,US_Cities_List/mm_shreveport.png,,,,,,,,,,,,,,,,,,,,,,,,,,,,
1459,,rt_thecrossant_black,796181,black_plus_sign,,,,,50,,,1,1,,,,,,,,,,,,,,,,,,,,,,,,,,
null,,color_black,796291,black_plus_sign,,,,,null,,,,,,,,,,,,,,,,,,,,,,,,,,,,,,
null,,learn_phase(without_color),798876,black_plus_sign,,,,,null,US_Cities_List/nat_peoria.png,US_Cities_List/nat_leesburg.png,,,,,,,,,,,,,,,,,,,,,,,,,,,,
null,,black_cross(without_color),799323,blue,,,,,null,US_Cities_List/nat_peoria.png,US_Cities_List/nat_leesburg.png,,,,,,,,,,,,,,,,,,,,,,,,,,,,
null,,rt_plussign_withcolor,799830,blue,,,,,null,US_Cities_List/nat_peoria.png,US_Cities_List/nat_leesburg.png,,,,,,,,,,,,,,,,,,,,,,,,,,,,
1090.699999988079,,rt_thecrossant_black,801402,black_plus_sign,,,,,49,,,1,1,,,,,,,,,,,,,,,,,,,,,,,,,,
null,,color_black,801512,black_plus_sign,,,,,null,,,,,,,,,,,,,,,,,,,,,,,,,,,,,,
null,,learn_phase(without_color),804122,black_plus_sign,,,,,null,US_Cities_List/mm_westpalmbeach.png,US_Cities_List/nat_newhope.png,,,,,,,,,,,,,,,,,,,,,,,,,,,,
null,,black_cross(without_color),804687,blue,,,,,null,US_Cities_List/mm_westpalmbeach.png,US_Cities_List/nat_newhope.png,,,,,,,,,,,,,,,,,,,,,,,,,,,,
null,,rt_plussign_withcolor,805195,blue,,,,,null,US_Cities_List/mm_westpalmbeach.png,US_Cities_List/nat_newhope.png,,,,,,,,,,,,,,,,,,,,,,,,,,,,
945.1999999880791,,rt_thecrossant_black,806646,black_plus_sign,,,,,49,,,1,1,,,,,,,,,,,,,,,,,,,,,,,,,,
null,,color_black,806754,black_plus_sign,,,,,null,,,,,,,,,,,,,,,,,,,,,,,,,,,,,,
null,,learn_phase(without_color),809342,black_plus_sign,,,,,null,US_Cities_List/nat_boulder.png,US_Cities_List/nat_racine.png,,,,,,,,,,,,,,,,,,,,,,,,,,,,
null,,black_cross(without_color),809950,green,,,,,null,US_Cities_List/nat_boulder.png,US_Cities_List/nat_racine.png,,,,,,,,,,,,,,,,,,,,,,,,,,,,
null,,rt_plussign_withcolor,810458,green,,,,,null,US_Cities_List/nat_boulder.png,US_Cities_List/nat_racine.png,,,,,,,,,,,,,,,,,,,,,,,,,,,,
921.8999999761581,,rt_thecrossant_black,811867,black_plus_sign,,,,,50,,,1,1,,,,,,,,,,,,,,,,,,,,,,,,,,
null,,color_black,811977,black_plus_sign,,,,,null,,,,,,,,,,,,,,,,,,,,,,,,,,,,,,
null,,learn_phase(without_color),814749,black_plus_sign,,,,,null,US_Cities_List/nat_racine.png,US_Cities_List/nat_hotsprings.png,,,,,,,,,,,,,,,,,,,,,,,,,,,,
null,,black_cross(without_color),815434,blue,,,,,null,US_Cities_List/nat_racine.png,US_Cities_List/nat_hotsprings.png,,,,,,,,,,,,,,,,,,,,,,,,,,,,
null,,rt_plussign_withcolor,815941,blue,,,,,null,US_Cities_List/nat_racine.png,US_Cities_List/nat_hotsprings.png,,,,,,,,,,,,,,,,,,,,,,,,,,,,
1135.199999988079,,rt_thecrossant_black,817290,black_plus_sign,,,,,49,,,1,1,,,,,,,,,,,,,,,,,,,,,,,,,,
null,,color_black,817398,black_plus_sign,,,,,null,,,,,,,,,,,,,,,,,,,,,,,,,,,,,,
null,,learn_phase(without_color),820068,black_plus_sign,,,,,null,US_Cities_List/nat_racine.png,US_Cities_List/mm_shreveport.png,,,,,,,,,,,,,,,,,,,,,,,,,,,,
null,,black_cross(without_color),820608,blue,,,,,null,US_Cities_List/nat_racine.png,US_Cities_List/mm_shreveport.png,,,,,,,,,,,,,,,,,,,,,,,,,,,,
null,,rt_plussign_withcolor,821111,blue,,,,,null,US_Cities_List/nat_racine.png,US_Cities_List/mm_shreveport.png,,,,,,,,,,,,,,,,,,,,,,,,,,,,
1197.8999999761581,,rt_thecrossant_black,822594,black_plus_sign,,,,,49,,,1,1,,,,,,,,,,,,,,,,,,,,,,,,,,
null,,color_black,822701,black_plus_sign,,,,,null,,,,,,,,,,,,,,,,,,,,,,,,,,,,,,
null,,learn_phase(without_color),825289,black_plus_sign,,,,,null,US_Cities_List/nat_huntsville.png,US_Cities_List/nat_boulder.png,,,,,,,,,,,,,,,,,,,,,,,,,,,,
null,,black_cross(without_color),826091,blue,,,,,null,US_Cities_List/nat_huntsville.png,US_Cities_List/nat_boulder.png,,,,,,,,,,,,,,,,,,,,,,,,,,,,
null,,rt_plussign_withcolor,826595,blue,,,,,null,US_Cities_List/nat_huntsville.png,US_Cities_List/nat_boulder.png,,,,,,,,,,,,,,,,,,,,,,,,,,,,
955.8999999761581,,rt_thecrossant_black,827807,black_plus_sign,,,,,49,,,1,1,,,,,,,,,,,,,,,,,,,,,,,,,,
null,,color_black,827920,black_plus_sign,,,,,null,,,,,,,,,,,,,,,,,,,,,,,,,,,,,,
null,,learn_phase(without_color),830551,black_plus_sign,,,,,null,US_Cities_List/nat_racine.png,US_Cities_List/nat_peoria.png,,,,,,,,,,,,,,,,,,,,,,,,,,,,
null,,black_cross(without_color),831522,blue,,,,,null,US_Cities_List/nat_racine.png,US_Cities_List/nat_peoria.png,,,,,,,,,,,,,,,,,,,,,,,,,,,,
null,,rt_plussign_withcolor,832026,blue,,,,,null,US_Cities_List/nat_racine.png,US_Cities_List/nat_peoria.png,,,,,,,,,,,,,,,,,,,,,,,,,,,,
970.6000000238419,,rt_thecrossant_black,833084,black_plus_sign,,,,,49,,,1,1,,,,,,,,,,,,,,,,,,,,,,,,,,
null,,color_black,833193,black_plus_sign,,,,,null,,,,,,,,,,,,,,,,,,,,,,,,,,,,,,
null,,learn_phase(without_color),835832,black_plus_sign,,,,,null,US_Cities_List/nat_racine.png,US_Cities_List/mm_shreveport.png,,,,,,,,,,,,,,,,,,,,,,,,,,,,
null,,black_cross(without_color),836570,green,,,,,null,US_Cities_List/nat_racine.png,US_Cities_List/mm_shreveport.png,,,,,,,,,,,,,,,,,,,,,,,,,,,,
null,,rt_plussign_withcolor,837075,green,,,,,null,US_Cities_List/nat_racine.png,US_Cities_List/mm_shreveport.png,,,,,,,,,,,,,,,,,,,,,,,,,,,,
1432.300000011921,,rt_thecrossant_black,838353,black_plus_sign,,,,,50,,,1,1,,,,,,,,,,,,,,,,,,,,,,,,,,
null,,color_black,838468,black_plus_sign,,,,,null,,,,,,,,,,,,,,,,,,,,,,,,,,,,,,
null,,learn_phase(without_color),841118,black_plus_sign,,,,,null,US_Cities_List/nat_boulder.png,US_Cities_List/mm_shreveport.png,,,,,,,,,,,,,,,,,,,,,,,,,,,,
null,,black_cross(without_color),842056,green,,,,,null,US_Cities_List/nat_boulder.png,US_Cities_List/mm_shreveport.png,,,,,,,,,,,,,,,,,,,,,,,,,,,,
null,,rt_plussign_withcolor,842560,green,,,,,null,US_Cities_List/nat_boulder.png,US_Cities_List/mm_shreveport.png,,,,,,,,,,,,,,,,,,,,,,,,,,,,
1186,,rt_thecrossant_black,843639,black_plus_sign,,,,,50,,,1,1,,,,,,,,,,,,,,,,,,,,,,,,,,
null,,color_black,843749,black_plus_sign,,,,,null,,,,,,,,,,,,,,,,,,,,,,,,,,,,,,
null,,learn_phase(without_color),846370,black_plus_sign,,,,,null,US_Cities_List/mm_shreveport.png,US_Cities_List/nat_gatlinburg.png,,,,,,,,,,,,,,,,,,,,,,,,,,,,
null,,black_cross(without_color),847416,blue,,,,,null,US_Cities_List/mm_shreveport.png,US_Cities_List/nat_gatlinburg.png,,,,,,,,,,,,,,,,,,,,,,,,,,,,
null,,rt_plussign_withcolor,847922,blue,,,,,null,US_Cities_List/mm_shreveport.png,US_Cities_List/nat_gatlinburg.png,,,,,,,,,,,,,,,,,,,,,,,,,,,,
1394.5,,rt_thecrossant_black,848898,black_plus_sign,,,,,49,,,1,1,,,,,,,,,,,,,,,,,,,,,,,,,,
null,,color_black,849008,black_plus_sign,,,,,null,,,,,,,,,,,,,,,,,,,,,,,,,,,,,,
null,,learn_phase(without_color),851637,black_plus_sign,,,,,null,US_Cities_List/nat_boulder.png,US_Cities_List/nat_racine.png,,,,,,,,,,,,,,,,,,,,,,,,,,,,
null,,black_cross(without_color),852425,green,,,,,null,US_Cities_List/nat_boulder.png,US_Cities_List/nat_racine.png,,,,,,,,,,,,,,,,,,,,,,,,,,,,
null,,rt_plussign_withcolor,852933,green,,,,,null,US_Cities_List/nat_boulder.png,US_Cities_List/nat_racine.png,,,,,,,,,,,,,,,,,,,,,,,,,,,,
2026,,rt_thecrossant_black,854158,black_plus_sign,,,,,50,,,1,1,,,,,,,,,,,,,,,,,,,,,,,,,,
null,,color_black,854269,black_plus_sign,,,,,null,,,,,,,,,,,,,,,,,,,,,,,,,,,,,,
null,,learn_phase(without_color),856994,black_plus_sign,,,,,null,US_Cities_List/nat_gatlinburg.png,US_Cities_List/mm_carmel.png,,,,,,,,,,,,,,,,,,,,,,,,,,,,
null,,black_cross(without_color),857642,blue,,,,,null,US_Cities_List/nat_gatlinburg.png,US_Cities_List/mm_carmel.png,,,,,,,,,,,,,,,,,,,,,,,,,,,,
null,,rt_plussign_withcolor,858155,blue,,,,,null,US_Cities_List/nat_gatlinburg.png,US_Cities_List/mm_carmel.png,,,,,,,,,,,,,,,,,,,,,,,,,,,,
1142.5,,rt_thecrossant_black,859530,black_plus_sign,,,,,49,,,1,1,,,,,,,,,,,,,,,,,,,,,,,,,,
null,,color_black,859639,black_plus_sign,,,,,null,,,,,,,,,,,,,,,,,,,,,,,,,,,,,,
null,,learn_phase(without_color),862356,black_plus_sign,,,,,null,US_Cities_List/nat_boulder.png,US_Cities_List/mm_shreveport.png,,,,,,,,,,,,,,,,,,,,,,,,,,,,
null,,black_cross(without_color),863053,green,,,,,null,US_Cities_List/nat_boulder.png,US_Cities_List/mm_shreveport.png,,,,,,,,,,,,,,,,,,,,,,,,,,,,
null,,rt_plussign_withcolor,863559,green,,,,,null,US_Cities_List/nat_boulder.png,US_Cities_List/mm_shreveport.png,,,,,,,,,,,,,,,,,,,,,,,,,,,,
1059.6000000238419,,rt_thecrossant_black,864880,black_plus_sign,,,,,50,,,1,1,,,,,,,,,,,,,,,,,,,,,,,,,,
null,,color_black,864989,black_plus_sign,,,,,null,,,,,,,,,,,,,,,,,,,,,,,,,,,,,,
null,,learn_phase(without_color),867620,black_plus_sign,,,,,null,US_Cities_List/mm_westpalmbeach.png,US_Cities_List/mm_carmel.png,,,,,,,,,,,,,,,,,,,,,,,,,,,,
null,,black_cross(without_color),868447,blue,,,,,null,US_Cities_List/mm_westpalmbeach.png,US_Cities_List/mm_carmel.png,,,,,,,,,,,,,,,,,,,,,,,,,,,,
null,,rt_plussign_withcolor,868952,blue,,,,,null,US_Cities_List/mm_westpalmbeach.png,US_Cities_List/mm_carmel.png,,,,,,,,,,,,,,,,,,,,,,,,,,,,
1174,,rt_thecrossant_black,870141,black_plus_sign,,,,,49,,,1,1,,,,,,,,,,,,,,,,,,,,,,,,,,
null,,color_black,870252,black_plus_sign,,,,,null,,,,,,,,,,,,,,,,,,,,,,,,,,,,,,
null,,learn_phase(without_color),872952,black_plus_sign,,,,,null,US_Cities_List/nat_gatlinburg.png,US_Cities_List/mm_carmel.png,,,,,,,,,,,,,,,,,,,,,,,,,,,,
null,,black_cross(without_color),873533,blue,,,,,null,US_Cities_List/nat_gatlinburg.png,US_Cities_List/mm_carmel.png,,,,,,,,,,,,,,,,,,,,,,,,,,,,
null,,rt_plussign_withcolor,874042,blue,,,,,null,US_Cities_List/nat_gatlinburg.png,US_Cities_List/mm_carmel.png,,,,,,,,,,,,,,,,,,,,,,,,,,,,
1240.5,,rt_thecrossant_black,875484,black_plus_sign,,,,,49,,,1,1,,,,,,,,,,,,,,,,,,,,,,,,,,
null,,color_black,875594,black_plus_sign,,,,,null,,,,,,,,,,,,,,,,,,,,,,,,,,,,,,
null,,learn_phase(without_color),878222,black_plus_sign,,,,,null,US_Cities_List/mm_westpalmbeach.png,US_Cities_List/nat_newhope.png,,,,,,,,,,,,,,,,,,,,,,,,,,,,
null,,black_cross(without_color),879165,blue,,,,,null,US_Cities_List/mm_westpalmbeach.png,US_Cities_List/nat_newhope.png,,,,,,,,,,,,,,,,,,,,,,,,,,,,
null,,rt_plussign_withcolor,879671,blue,,,,,null,US_Cities_List/mm_westpalmbeach.png,US_Cities_List/nat_newhope.png,,,,,,,,,,,,,,,,,,,,,,,,,,,,
1043.800000011921,,rt_thecrossant_black,880750,black_plus_sign,,,,,49,,,1,1,,,,,,,,,,,,,,,,,,,,,,,,,,
null,,color_black,880860,black_plus_sign,,,,,null,,,,,,,,,,,,,,,,,,,,,,,,,,,,,,
null,,learn_phase(without_color),883498,black_plus_sign,,,,,null,US_Cities_List/nat_peoria.png,US_Cities_List/mm_shreveport.png,,,,,,,,,,,,,,,,,,,,,,,,,,,,
null,,black_cross(without_color),884019,green,,,,,null,US_Cities_List/nat_peoria.png,US_Cities_List/mm_shreveport.png,,,,,,,,,,,,,,,,,,,,,,,,,,,,
null,,rt_plussign_withcolor,884527,green,,,,,null,US_Cities_List/nat_peoria.png,US_Cities_List/mm_shreveport.png,,,,,,,,,,,,,,,,,,,,,,,,,,,,
1252.2999999523163,,rt_thecrossant_black,886025,black_plus_sign,,,,,50,,,1,1,,,,,,,,,,,,,,,,,,,,,,,,,,
null,,color_black,886134,black_plus_sign,,,,,null,,,,,,,,,,,,,,,,,,,,,,,,,,,,,,
null,,learn_phase(without_color),888743,black_plus_sign,,,,,null,US_Cities_List/nat_cornwall.png,US_Cities_List/mm_hanover.png,,,,,,,,,,,,,,,,,,,,,,,,,,,,
null,,black_cross(without_color),889506,green,,,,,null,US_Cities_List/nat_cornwall.png,US_Cities_List/mm_hanover.png,,,,,,,,,,,,,,,,,,,,,,,,,,,,
null,,rt_plussign_withcolor,890014,green,,,,,null,US_Cities_List/nat_cornwall.png,US_Cities_List/mm_hanover.png,,,,,,,,,,,,,,,,,,,,,,,,,,,,
976.0999999642372,,rt_thecrossant_black,891265,black_plus_sign,,,,,50,,,1,1,,,,,,,,,,,,,,,,,,,,,,,,,,
null,,color_black,891375,black_plus_sign,,,,,null,,,,,,,,,,,,,,,,,,,,,,,,,,,,,,
null,,learn_phase(without_color),894058,black_plus_sign,,,,,null,US_Cities_List/nat_gatlinburg.png,US_Cities_List/mm_carmel.png,,,,,,,,,,,,,,,,,,,,,,,,,,,,
null,,black_cross(without_color),894555,green,,,,,null,US_Cities_List/nat_gatlinburg.png,US_Cities_List/mm_carmel.png,,,,,,,,,,,,,,,,,,,,,,,,,,,,
null,,rt_plussign_withcolor,895062,green,,,,,null,US_Cities_List/nat_gatlinburg.png,US_Cities_List/mm_carmel.png,,,,,,,,,,,,,,,,,,,,,,,,,,,,
1465.300000011921,,rt_thecrossant_black,896582,black_plus_sign,,,,,50,,,1,1,,,,,,,,,,,,,,,,,,,,,,,,,,
null,,color_black,896693,black_plus_sign,,,,,null,,,,,,,,,,,,,,,,,,,,,,,,,,,,,,
null,,learn_phase(without_color),899277,black_plus_sign,,,,,null,US_Cities_List/nat_peoria.png,US_Cities_List/mm_shreveport.png,,,,,,,,,,,,,,,,,,,,,,,,,,,,
null,,black_cross(without_color),900044,green,,,,,null,US_Cities_List/nat_peoria.png,US_Cities_List/mm_shreveport.png,,,,,,,,,,,,,,,,,,,,,,,,,,,,
null,,rt_plussign_withcolor,900565,green,,,,,null,US_Cities_List/nat_peoria.png,US_Cities_List/mm_shreveport.png,,,,,,,,,,,,,,,,,,,,,,,,,,,,
1303.5,,rt_thecrossant_black,901810,black_plus_sign,,,,,50,,,1,1,,,,,,,,,,,,,,,,,,,,,,,,,,
null,,color_black,901920,black_plus_sign,,,,,null,,,,,,,,,,,,,,,,,,,,,,,,,,,,,,
null,,learn_phase(without_color),904547,black_plus_sign,,,,,null,US_Cities_List/mm_westpalmbeach.png,US_Cities_List/nat_newhope.png,,,,,,,,,,,,,,,,,,,,,,,,,,,,
null,,black_cross(without_color),905134,blue,,,,,null,US_Cities_List/mm_westpalmbeach.png,US_Cities_List/nat_newhope.png,,,,,,,,,,,,,,,,,,,,,,,,,,,,
null,,rt_plussign_withcolor,905646,blue,,,,,null,US_Cities_List/mm_westpalmbeach.png,US_Cities_List/nat_newhope.png,,,,,,,,,,,,,,,,,,,,,,,,,,,,
1246.7999999523163,,rt_thecrossant_black,907077,black_plus_sign,,,,,49,,,1,1,,,,,,,,,,,,,,,,,,,,,,,,,,
null,,color_black,907184,black_plus_sign,,,,,null,,,,,,,,,,,,,,,,,,,,,,,,,,,,,,
null,,learn_phase(without_color),909761,black_plus_sign,,,,,null,US_Cities_List/nat_huntsville.png,US_Cities_List/nat_boulder.png,,,,,,,,,,,,,,,,,,,,,,,,,,,,
null,,black_cross(without_color),910782,blue,,,,,null,US_Cities_List/nat_huntsville.png,US_Cities_List/nat_boulder.png,,,,,,,,,,,,,,,,,,,,,,,,,,,,
null,,rt_plussign_withcolor,911289,blue,,,,,null,US_Cities_List/nat_huntsville.png,US_Cities_List/nat_boulder.png,,,,,,,,,,,,,,,,,,,,,,,,,,,,
1045.699999988079,,rt_thecrossant_black,912284,black_plus_sign,,,,,49,,,1,1,,,,,,,,,,,,,,,,,,,,,,,,,,
null,,color_black,912394,black_plus_sign,,,,,null,,,,,,,,,,,,,,,,,,,,,,,,,,,,,,
null,,learn_phase(without_color),915030,black_plus_sign,,,,,null,US_Cities_List/nat_peoria.png,US_Cities_List/mm_shreveport.png,,,,,,,,,,,,,,,,,,,,,,,,,,,,
null,,black_cross(without_color),916046,blue,,,,,null,US_Cities_List/nat_peoria.png,US_Cities_List/mm_shreveport.png,,,,,,,,,,,,,,,,,,,,,,,,,,,,
null,,rt_plussign_withcolor,916555,blue,,,,,null,US_Cities_List/nat_peoria.png,US_Cities_List/mm_shreveport.png,,,,,,,,,,,,,,,,,,,,,,,,,,,,
1530.7000000476837,,rt_thecrossant_black,917561,black_plus_sign,,,,,49,,,1,1,,,,,,,,,,,,,,,,,,,,,,,,,,
null,,color_black,917670,black_plus_sign,,,,,null,,,,,,,,,,,,,,,,,,,,,,,,,,,,,,
null,,learn_phase(without_color),920300,black_plus_sign,,,,,null,US_Cities_List/mm_shreveport.png,US_Cities_List/nat_gatlinburg.png,,,,,,,,,,,,,,,,,,,,,,,,,,,,
null,,black_cross(without_color),920884,green,,,,,null,US_Cities_List/mm_shreveport.png,US_Cities_List/nat_gatlinburg.png,,,,,,,,,,,,,,,,,,,,,,,,,,,,
null,,rt_plussign_withcolor,921396,green,,,,,null,US_Cities_List/mm_shreveport.png,US_Cities_List/nat_gatlinburg.png,,,,,,,,,,,,,,,,,,,,,,,,,,,,
1476.5,,rt_thecrossant_black,922836,black_plus_sign,,,,,50,,,1,1,,,,,,,,,,,,,,,,,,,,,,,,,,
null,,color_black,922945,black_plus_sign,,,,,null,,,,,,,,,,,,,,,,,,,,,,,,,,,,,,
null,,learn_phase(without_color),925560,black_plus_sign,,,,,null,US_Cities_List/mm_hanover.png,US_Cities_List/nat_huntsville.png,,,,,,,,,,,,,,,,,,,,,,,,,,,,
null,,black_cross(without_color),926166,blue,,,,,null,US_Cities_List/mm_hanover.png,US_Cities_List/nat_huntsville.png,,,,,,,,,,,,,,,,,,,,,,,,,,,,
null,,rt_plussign_withcolor,926676,blue,,,,,null,US_Cities_List/mm_hanover.png,US_Cities_List/nat_huntsville.png,,,,,,,,,,,,,,,,,,,,,,,,,,,,
1073.2999999523163,,rt_thecrossant_black,928089,black_plus_sign,,,,,49,,,1,1,,,,,,,,,,,,,,,,,,,,,,,,,,
null,,color_black,928198,black_plus_sign,,,,,null,,,,,,,,,,,,,,,,,,,,,,,,,,,,,,
null,,learn_phase(without_color),930788,black_plus_sign,,,,,null,US_Cities_List/nat_racine.png,US_Cities_List/nat_peoria.png,,,,,,,,,,,,,,,,,,,,,,,,,,,,
null,,black_cross(without_color),931525,green,,,,,null,US_Cities_List/nat_racine.png,US_Cities_List/nat_peoria.png,,,,,,,,,,,,,,,,,,,,,,,,,,,,
null,,rt_plussign_withcolor,932030,green,,,,,null,US_Cities_List/nat_racine.png,US_Cities_List/nat_peoria.png,,,,,,,,,,,,,,,,,,,,,,,,,,,,
1008.7000000476837,,rt_thecrossant_black,933311,black_plus_sign,,,,,50,,,1,1,,,,,,,,,,,,,,,,,,,,,,,,,,
null,,color_black,933422,black_plus_sign,,,,,null,,,,,,,,,,,,,,,,,,,,,,,,,,,,,,
null,,learn_phase(without_color),936047,black_plus_sign,,,,,null,US_Cities_List/nat_cornwall.png,US_Cities_List/mm_hanover.png,,,,,,,,,,,,,,,,,,,,,,,,,,,,
null,,black_cross(without_color),936532,green,,,,,null,US_Cities_List/nat_cornwall.png,US_Cities_List/mm_hanover.png,,,,,,,,,,,,,,,,,,,,,,,,,,,,
null,,rt_plussign_withcolor,937040,green,,,,,null,US_Cities_List/nat_cornwall.png,US_Cities_List/mm_hanover.png,,,,,,,,,,,,,,,,,,,,,,,,,,,,
1253.5,,rt_thecrossant_black,938575,black_plus_sign,,,,,50,,,1,1,,,,,,,,,,,,,,,,,,,,,,,,,,
null,,color_black,938685,black_plus_sign,,,,,null,,,,,,,,,,,,,,,,,,,,,,,,,,,,,,
null,,learn_phase(without_color),941350,black_plus_sign,,,,,null,US_Cities_List/mm_shreveport.png,US_Cities_List/nat_gatlinburg.png,,,,,,,,,,,,,,,,,,,,,,,,,,,,
null,,black_cross(without_color),941907,blue,,,,,null,US_Cities_List/mm_shreveport.png,US_Cities_List/nat_gatlinburg.png,,,,,,,,,,,,,,,,,,,,,,,,,,,,
null,,rt_plussign_withcolor,942417,blue,,,,,null,US_Cities_List/mm_shreveport.png,US_Cities_List/nat_gatlinburg.png,,,,,,,,,,,,,,,,,,,,,,,,,,,,
957.5999999642372,,rt_thecrossant_black,943877,black_plus_sign,,,,,49,,,1,1,,,,,,,,,,,,,,,,,,,,,,,,,,
null,,color_black,943987,black_plus_sign,,,,,null,,,,,,,,,,,,,,,,,,,,,,,,,,,,,,
null,,learn_phase(without_color),946611,black_plus_sign,,,,,null,US_Cities_List/nat_boulder.png,US_Cities_List/mm_shreveport.png,,,,,,,,,,,,,,,,,,,,,,,,,,,,
null,,black_cross(without_color),947419,blue,,,,,null,US_Cities_List/nat_boulder.png,US_Cities_List/mm_shreveport.png,,,,,,,,,,,,,,,,,,,,,,,,,,,,
null,,rt_plussign_withcolor,947926,blue,,,,,null,US_Cities_List/nat_boulder.png,US_Cities_List/mm_shreveport.png,,,,,,,,,,,,,,,,,,,,,,,,,,,,
1058.5999999642372,,rt_thecrossant_black,949137,black_plus_sign,,,,,49,,,1,1,,,,,,,,,,,,,,,,,,,,,,,,,,
null,,color_black,949245,black_plus_sign,,,,,null,,,,,,,,,,,,,,,,,,,,,,,,,,,,,,
null,,learn_phase(without_color),951865,black_plus_sign,,,,,null,US_Cities_List/mm_westpalmbeach.png,US_Cities_List/nat_newhope.png,,,,,,,,,,,,,,,,,,,,,,,,,,,,
null,,black_cross(without_color),952936,blue,,,,,null,US_Cities_List/mm_westpalmbeach.png,US_Cities_List/nat_newhope.png,,,,,,,,,,,,,,,,,,,,,,,,,,,,
null,,rt_plussign_withcolor,953442,blue,,,,,null,US_Cities_List/mm_westpalmbeach.png,US_Cities_List/nat_newhope.png,,,,,,,,,,,,,,,,,,,,,,,,,,,,
1222.699999988079,,rt_thecrossant_black,954390,black_plus_sign,,,,,49,,,1,1,,,,,,,,,,,,,,,,,,,,,,,,,,
null,,color_black,954500,black_plus_sign,,,,,null,,,,,,,,,,,,,,,,,,,,,,,,,,,,,,
null,,learn_phase(without_color),957191,black_plus_sign,,,,,null,US_Cities_List/nat_peoria.png,US_Cities_List/nat_leesburg.png,,,,,,,,,,,,,,,,,,,,,,,,,,,,
null,,black_cross(without_color),957984,blue,,,,,null,US_Cities_List/nat_peoria.png,US_Cities_List/nat_leesburg.png,,,,,,,,,,,,,,,,,,,,,,,,,,,,
null,,rt_plussign_withcolor,958490,blue,,,,,null,US_Cities_List/nat_peoria.png,US_Cities_List/nat_leesburg.png,,,,,,,,,,,,,,,,,,,,,,,,,,,,
1871.199999988079,,rt_thecrossant_black,959721,black_plus_sign,,,,,49,,,1,1,,,,,,,,,,,,,,,,,,,,,,,,,,
null,,color_black,959827,black_plus_sign,,,,,null,,,,,,,,,,,,,,,,,,,,,,,,,,,,,,
null,,learn_phase(without_color),962524,black_plus_sign,,,,,null,US_Cities_List/nat_racine.png,US_Cities_List/mm_shreveport.png,,,,,,,,,,,,,,,,,,,,,,,,,,,,
null,,black_cross(without_color),963423,blue,,,,,null,US_Cities_List/nat_racine.png,US_Cities_List/mm_shreveport.png,,,,,,,,,,,,,,,,,,,,,,,,,,,,
null,,rt_plussign_withcolor,963930,blue,,,,,null,US_Cities_List/nat_racine.png,US_Cities_List/mm_shreveport.png,,,,,,,,,,,,,,,,,,,,,,,,,,,,
942.8000000119209,,rt_thecrossant_black,965051,black_plus_sign,,,,,49,,,1,1,,,,,,,,,,,,,,,,,,,,,,,,,,
null,,color_black,965165,black_plus_sign,,,,,null,,,,,,,,,,,,,,,,,,,,,,,,,,,,,,
null,,learn_phase(without_color),967764,black_plus_sign,,,,,null,US_Cities_List/nat_cornwall.png,US_Cities_List/mm_hanover.png,,,,,,,,,,,,,,,,,,,,,,,,,,,,
null,,black_cross(without_color),968776,blue,,,,,null,US_Cities_List/nat_cornwall.png,US_Cities_List/mm_hanover.png,,,,,,,,,,,,,,,,,,,,,,,,,,,,
null,,rt_plussign_withcolor,969284,blue,,,,,null,US_Cities_List/nat_cornwall.png,US_Cities_List/mm_hanover.png,,,,,,,,,,,,,,,,,,,,,,,,,,,,
1222.7000000476837,,rt_thecrossant_black,970288,black_plus_sign,,,,,49,,,1,1,,,,,,,,,,,,,,,,,,,,,,,,,,
null,,color_black,970397,black_plus_sign,,,,,null,,,,,,,,,,,,,,,,,,,,,,,,,,,,,,
null,,learn_phase(without_color),973034,black_plus_sign,,,,,null,US_Cities_List/nat_racine.png,US_Cities_List/nat_hotsprings.png,,,,,,,,,,,,,,,,,,,,,,,,,,,,
null,,black_cross(without_color),973891,blue,,,,,null,US_Cities_List/nat_racine.png,US_Cities_List/nat_hotsprings.png,,,,,,,,,,,,,,,,,,,,,,,,,,,,
null,,rt_plussign_withcolor,974402,blue,,,,,null,US_Cities_List/nat_racine.png,US_Cities_List/nat_hotsprings.png,,,,,,,,,,,,,,,,,,,,,,,,,,,,
1443.3999999761581,,rt_thecrossant_black,975574,black_plus_sign,,,,,49,,,1,1,,,,,,,,,,,,,,,,,,,,,,,,,,
null,,color_black,975685,black_plus_sign,,,,,null,,,,,,,,,,,,,,,,,,,,,,,,,,,,,,
null,,learn_phase(without_color),978322,black_plus_sign,,,,,null,US_Cities_List/nat_gatlinburg.png,US_Cities_List/mm_carmel.png,,,,,,,,,,,,,,,,,,,,,,,,,,,,
null,,black_cross(without_color),979081,green,,,,,null,US_Cities_List/nat_gatlinburg.png,US_Cities_List/mm_carmel.png,,,,,,,,,,,,,,,,,,,,,,,,,,,,
null,,rt_plussign_withcolor,979588,green,,,,,null,US_Cities_List/nat_gatlinburg.png,US_Cities_List/mm_carmel.png,,,,,,,,,,,,,,,,,,,,,,,,,,,,
1343.199999988079,,rt_thecrossant_black,980854,black_plus_sign,,,,,50,,,1,1,,,,,,,,,,,,,,,,,,,,,,,,,,
null,,color_black,980966,black_plus_sign,,,,,null,,,,,,,,,,,,,,,,,,,,,,,,,,,,,,
null,,learn_phase(without_color),983623,black_plus_sign,,,,,null,US_Cities_List/mm_westpalmbeach.png,US_Cities_List/nat_newhope.png,,,,,,,,,,,,,,,,,,,,,,,,,,,,
null,,black_cross(without_color),984231,green,,,,,null,US_Cities_List/mm_westpalmbeach.png,US_Cities_List/nat_newhope.png,,,,,,,,,,,,,,,,,,,,,,,,,,,,
null,,rt_plussign_withcolor,984738,green,,,,,null,US_Cities_List/mm_westpalmbeach.png,US_Cities_List/nat_newhope.png,,,,,,,,,,,,,,,,,,,,,,,,,,,,
1004.3999999761581,,rt_thecrossant_black,986153,black_plus_sign,,,,,50,,,1,1,,,,,,,,,,,,,,,,,,,,,,,,,,
null,,color_black,986264,black_plus_sign,,,,,null,,,,,,,,,,,,,,,,,,,,,,,,,,,,,,
null,,learn_phase(without_color),989063,black_plus_sign,,,,,null,US_Cities_List/mm_westpalmbeach.png,US_Cities_List/mm_carmel.png,,,,,,,,,,,,,,,,,,,,,,,,,,,,
null,,black_cross(without_color),989700,green,,,,,null,US_Cities_List/mm_westpalmbeach.png,US_Cities_List/mm_carmel.png,,,,,,,,,,,,,,,,,,,,,,,,,,,,
null,,rt_plussign_withcolor,990209,green,,,,,null,US_Cities_List/mm_westpalmbeach.png,US_Cities_List/mm_carmel.png,,,,,,,,,,,,,,,,,,,,,,,,,,,,
1104.0999999642372,,rt_thecrossant_black,991589,black_plus_sign,,,,,50,,,1,1,,,,,,,,,,,,,,,,,,,,,,,,,,
null,,color_black,991700,black_plus_sign,,,,,null,,,,,,,,,,,,,,,,,,,,,,,,,,,,,,
null,,learn_phase(without_color),994318,black_plus_sign,,,,,null,US_Cities_List/nat_huntsville.png,US_Cities_List/nat_gatlinburg.png,,,,,,,,,,,,,,,,,,,,,,,,,,,,
null,,black_cross(without_color),995110,blue,,,,,null,US_Cities_List/nat_huntsville.png,US_Cities_List/nat_gatlinburg.png,,,,,,,,,,,,,,,,,,,,,,,,,,,,
null,,rt_plussign_withcolor,995619,blue,,,,,null,US_Cities_List/nat_huntsville.png,US_Cities_List/nat_gatlinburg.png,,,,,,,,,,,,,,,,,,,,,,,,,,,,
801.1000000238419,,rt_thecrossant_black,996853,black_plus_sign,,,,,49,,,1,1,,,,,,,,,,,,,,,,,,,,,,,,,,
null,,color_black,996966,black_plus_sign,,,,,null,,,,,,,,,,,,,,,,,,,,,,,,,,,,,,
null,,learn_phase(without_color),999572,black_plus_sign,,,,,null,US_Cities_List/nat_racine.png,US_Cities_List/nat_peoria.png,,,,,,,,,,,,,,,,,,,,,,,,,,,,
null,,black_cross(without_color),1000239,green,,,,,null,US_Cities_List/nat_racine.png,US_Cities_List/nat_peoria.png,,,,,,,,,,,,,,,,,,,,,,,,,,,,
null,,rt_plussign_withcolor,1000744,green,,,,,null,US_Cities_List/nat_racine.png,US_Cities_List/nat_peoria.png,,,,,,,,,,,,,,,,,,,,,,,,,,,,
1604.3999999761581,,rt_thecrossant_black,1002094,black_plus_sign,,,,,50,,,1,1,,,,,,,,,,,,,,,,,,,,,,,,,,
null,,color_black,1002203,black_plus_sign,,,,,null,,,,,,,,,,,,,,,,,,,,,,,,,,,,,,
null,,learn_phase(without_color),1004843,black_plus_sign,,,,,null,US_Cities_List/mm_westpalmbeach.png,US_Cities_List/mm_carmel.png,,,,,,,,,,,,,,,,,,,,,,,,,,,,
null,,black_cross(without_color),1005724,blue,,,,,null,US_Cities_List/mm_westpalmbeach.png,US_Cities_List/mm_carmel.png,,,,,,,,,,,,,,,,,,,,,,,,,,,,
null,,rt_plussign_withcolor,1006228,blue,,,,,null,US_Cities_List/mm_westpalmbeach.png,US_Cities_List/mm_carmel.png,,,,,,,,,,,,,,,,,,,,,,,,,,,,
1156.8999999761581,,rt_thecrossant_black,1007362,black_plus_sign,,,,,49,,,1,1,,,,,,,,,,,,,,,,,,,,,,,,,,
null,,color_black,1007466,black_plus_sign,,,,,null,,,,,,,,,,,,,,,,,,,,,,,,,,,,,,
null,,learn_phase(without_color),1010085,black_plus_sign,,,,,null,US_Cities_List/nat_racine.png,US_Cities_List/nat_hotsprings.png,,,,,,,,,,,,,,,,,,,,,,,,,,,,
null,,black_cross(without_color),1010752,green,,,,,null,US_Cities_List/nat_racine.png,US_Cities_List/nat_hotsprings.png,,,,,,,,,,,,,,,,,,,,,,,,,,,,
null,,rt_plussign_withcolor,1011258,green,,,,,null,US_Cities_List/nat_racine.png,US_Cities_List/nat_hotsprings.png,,,,,,,,,,,,,,,,,,,,,,,,,,,,
1777.300000011921,,rt_thecrossant_black,1012607,black_plus_sign,,,,,50,,,1,1,,,,,,,,,,,,,,,,,,,,,,,,,,
null,,color_black,1012713,black_plus_sign,,,,,null,,,,,,,,,,,,,,,,,,,,,,,,,,,,,,
null,,learn_phase(without_color),1015382,black_plus_sign,,,,,null,US_Cities_List/nat_racine.png,US_Cities_List/nat_peoria.png,,,,,,,,,,,,,,,,,,,,,,,,,,,,
null,,black_cross(without_color),1016006,blue,,,,,null,US_Cities_List/nat_racine.png,US_Cities_List/nat_peoria.png,,,,,,,,,,,,,,,,,,,,,,,,,,,,
null,,rt_plussign_withcolor,1016511,blue,,,,,null,US_Cities_List/nat_racine.png,US_Cities_List/nat_peoria.png,,,,,,,,,,,,,,,,,,,,,,,,,,,,
907.3000000119209,,rt_thecrossant_black,1017904,black_plus_sign,,,,,49,,,1,1,,,,,,,,,,,,,,,,,,,,,,,,,,
null,,color_black,1018013,black_plus_sign,,,,,null,,,,,,,,,,,,,,,,,,,,,,,,,,,,,,
null,,learn_phase(without_color),1020627,black_plus_sign,,,,,null,US_Cities_List/nat_peoria.png,US_Cities_List/nat_leesburg.png,,,,,,,,,,,,,,,,,,,,,,,,,,,,
null,,black_cross(without_color),1021337,green,,,,,null,US_Cities_List/nat_peoria.png,US_Cities_List/nat_leesburg.png,,,,,,,,,,,,,,,,,,,,,,,,,,,,
null,,rt_plussign_withcolor,1021844,green,,,,,null,US_Cities_List/nat_peoria.png,US_Cities_List/nat_leesburg.png,,,,,,,,,,,,,,,,,,,,,,,,,,,,
893.0999999642372,,rt_thecrossant_black,1023156,black_plus_sign,,,,,50,,,1,1,,,,,,,,,,,,,,,,,,,,,,,,,,
null,,color_black,1023264,black_plus_sign,,,,,null,,,,,,,,,,,,,,,,,,,,,,,,,,,,,,
null,,learn_phase(without_color),1025867,black_plus_sign,,,,,null,US_Cities_List/nat_huntsville.png,US_Cities_List/nat_gatlinburg.png,,,,,,,,,,,,,,,,,,,,,,,,,,,,
null,,black_cross(without_color),1026467,green,,,,,null,US_Cities_List/nat_huntsville.png,US_Cities_List/nat_gatlinburg.png,,,,,,,,,,,,,,,,,,,,,,,,,,,,
null,,rt_plussign_withcolor,1026976,green,,,,,null,US_Cities_List/nat_huntsville.png,US_Cities_List/nat_gatlinburg.png,,,,,,,,,,,,,,,,,,,,,,,,,,,,
1364.800000011921,,rt_thecrossant_black,1028392,black_plus_sign,,,,,50,,,1,1,,,,,,,,,,,,,,,,,,,,,,,,,,
null,,color_black,1028498,black_plus_sign,,,,,null,,,,,,,,,,,,,,,,,,,,,,,,,,,,,,
null,,learn_phase(without_color),1031092,black_plus_sign,,,,,null,US_Cities_List/mm_hanover.png,US_Cities_List/mm_westpalmbeach.png,,,,,,,,,,,,,,,,,,,,,,,,,,,,
null,,black_cross(without_color),1031835,green,,,,,null,US_Cities_List/mm_hanover.png,US_Cities_List/mm_westpalmbeach.png,,,,,,,,,,,,,,,,,,,,,,,,,,,,
null,,rt_plussign_withcolor,1032341,green,,,,,null,US_Cities_List/mm_hanover.png,US_Cities_List/mm_westpalmbeach.png,,,,,,,,,,,,,,,,,,,,,,,,,,,,
1116.699999988079,,rt_thecrossant_black,1033627,black_plus_sign,,,,,50,,,1,1,,,,,,,,,,,,,,,,,,,,,,,,,,
null,,color_black,1033738,black_plus_sign,,,,,null,,,,,,,,,,,,,,,,,,,,,,,,,,,,,,
null,,learn_phase(without_color),1036323,black_plus_sign,,,,,null,US_Cities_List/nat_racine.png,US_Cities_List/nat_hotsprings.png,,,,,,,,,,,,,,,,,,,,,,,,,,,,
null,,black_cross(without_color),1037425,green,,,,,null,US_Cities_List/nat_racine.png,US_Cities_List/nat_hotsprings.png,,,,,,,,,,,,,,,,,,,,,,,,,,,,
null,,rt_plussign_withcolor,1037935,green,,,,,null,US_Cities_List/nat_racine.png,US_Cities_List/nat_hotsprings.png,,,,,,,,,,,,,,,,,,,,,,,,,,,,
866.8000000119209,,rt_thecrossant_black,1038856,black_plus_sign,,,,,50,,,1,1,,,,,,,,,,,,,,,,,,,,,,,,,,
null,,color_black,1038964,black_plus_sign,,,,,null,,,,,,,,,,,,,,,,,,,,,,,,,,,,,,
null,,learn_phase(without_color),1041591,black_plus_sign,,,,,null,US_Cities_List/nat_boulder.png,US_Cities_List/nat_racine.png,,,,,,,,,,,,,,,,,,,,,,,,,,,,
null,,black_cross(without_color),1042047,blue,,,,,null,US_Cities_List/nat_boulder.png,US_Cities_List/nat_racine.png,,,,,,,,,,,,,,,,,,,,,,,,,,,,
null,,rt_plussign_withcolor,1042554,blue,,,,,null,US_Cities_List/nat_boulder.png,US_Cities_List/nat_racine.png,,,,,,,,,,,,,,,,,,,,,,,,,,,,
1261.300000011921,,rt_thecrossant_black,1044116,black_plus_sign,,,,,49,,,1,1,,,,,,,,,,,,,,,,,,,,,,,,,,
null,,color_black,1044224,black_plus_sign,,,,,null,,,,,,,,,,,,,,,,,,,,,,,,,,,,,,
null,,learn_phase(without_color),1046811,black_plus_sign,,,,,null,US_Cities_List/nat_peoria.png,US_Cities_List/nat_leesburg.png,,,,,,,,,,,,,,,,,,,,,,,,,,,,
null,,black_cross(without_color),1047308,blue,,,,,null,US_Cities_List/nat_peoria.png,US_Cities_List/nat_leesburg.png,,,,,,,,,,,,,,,,,,,,,,,,,,,,
null,,rt_plussign_withcolor,1047816,blue,,,,,null,US_Cities_List/nat_peoria.png,US_Cities_List/nat_leesburg.png,,,,,,,,,,,,,,,,,,,,,,,,,,,,
881.1999999880791,,rt_thecrossant_black,1049341,black_plus_sign,,,,,49,,,1,1,,,,,,,,,,,,,,,,,,,,,,,,,,
null,,color_black,1049451,black_plus_sign,,,,,null,,,,,,,,,,,,,,,,,,,,,,,,,,,,,,
null,,learn_phase(without_color),1052193,black_plus_sign,,,,,null,US_Cities_List/nat_cornwall.png,US_Cities_List/mm_hanover.png,,,,,,,,,,,,,,,,,,,,,,,,,,,,
null,,black_cross(without_color),1052975,blue,,,,,null,US_Cities_List/nat_cornwall.png,US_Cities_List/mm_hanover.png,,,,,,,,,,,,,,,,,,,,,,,,,,,,
null,,rt_plussign_withcolor,1053489,blue,,,,,null,US_Cities_List/nat_cornwall.png,US_Cities_List/mm_hanover.png,,,,,,,,,,,,,,,,,,,,,,,,,,,,
750.5,,rt_thecrossant_black,1054729,black_plus_sign,,,,,49,,,1,1,,,,,,,,,,,,,,,,,,,,,,,,,,
null,,color_black,1054840,black_plus_sign,,,,,null,,,,,,,,,,,,,,,,,,,,,,,,,,,,,,
null,,learn_phase(without_color),1057481,black_plus_sign,,,,,null,US_Cities_List/nat_peoria.png,US_Cities_List/nat_leesburg.png,,,,,,,,,,,,,,,,,,,,,,,,,,,,
null,,black_cross(without_color),1058057,green,,,,,null,US_Cities_List/nat_peoria.png,US_Cities_List/nat_leesburg.png,,,,,,,,,,,,,,,,,,,,,,,,,,,,
null,,rt_plussign_withcolor,1058561,green,,,,,null,US_Cities_List/nat_peoria.png,US_Cities_List/nat_leesburg.png,,,,,,,,,,,,,,,,,,,,,,,,,,,,
1778.800000011921,,rt_thecrossant_black,1060001,black_plus_sign,,,,,50,,,1,1,,,,,,,,,,,,,,,,,,,,,,,,,,
null,,color_black,1060110,black_plus_sign,,,,,null,,,,,,,,,,,,,,,,,,,,,,,,,,,,,,
null,,learn_phase(without_color),1062719,black_plus_sign,,,,,null,US_Cities_List/nat_racine.png,US_Cities_List/nat_hotsprings.png,,,,,,,,,,,,,,,,,,,,,,,,,,,,
null,,black_cross(without_color),1063210,blue,,,,,null,US_Cities_List/nat_racine.png,US_Cities_List/nat_hotsprings.png,,,,,,,,,,,,,,,,,,,,,,,,,,,,
null,,rt_plussign_withcolor,1063719,blue,,,,,null,US_Cities_List/nat_racine.png,US_Cities_List/nat_hotsprings.png,,,,,,,,,,,,,,,,,,,,,,,,,,,,
718.6000000238419,,rt_thecrossant_black,1065246,black_plus_sign,,,,,49,,,1,1,,,,,,,,,,,,,,,,,,,,,,,,,,
null,,color_black,1065357,black_plus_sign,,,,,null,,,,,,,,,,,,,,,,,,,,,,,,,,,,,,
null,,learn_phase(without_color),1067978,black_plus_sign,,,,,null,US_Cities_List/nat_racine.png,US_Cities_List/nat_peoria.png,,,,,,,,,,,,,,,,,,,,,,,,,,,,
null,,black_cross(without_color),1068766,blue,,,,,null,US_Cities_List/nat_racine.png,US_Cities_List/nat_peoria.png,,,,,,,,,,,,,,,,,,,,,,,,,,,,
null,,rt_plussign_withcolor,1069270,blue,,,,,null,US_Cities_List/nat_racine.png,US_Cities_List/nat_peoria.png,,,,,,,,,,,,,,,,,,,,,,,,,,,,
861,,rt_thecrossant_black,1070498,black_plus_sign,,,,,49,,,1,1,,,,,,,,,,,,,,,,,,,,,,,,,,
null,,color_black,1070603,black_plus_sign,,,,,null,,,,,,,,,,,,,,,,,,,,,,,,,,,,,,
null,,learn_phase(without_color),1073201,black_plus_sign,,,,,null,US_Cities_List/mm_shreveport.png,US_Cities_List/nat_gatlinburg.png,,,,,,,,,,,,,,,,,,,,,,,,,,,,
null,,black_cross(without_color),1074073,blue,,,,,null,US_Cities_List/mm_shreveport.png,US_Cities_List/nat_gatlinburg.png,,,,,,,,,,,,,,,,,,,,,,,,,,,,
null,,rt_plussign_withcolor,1074584,blue,,,,,null,US_Cities_List/mm_shreveport.png,US_Cities_List/nat_gatlinburg.png,,,,,,,,,,,,,,,,,,,,,,,,,,,,
1089.800000011921,,rt_thecrossant_black,1075731,black_plus_sign,,,,,49,,,1,1,,,,,,,,,,,,,,,,,,,,,,,,,,
null,,color_black,1075840,black_plus_sign,,,,,null,,,,,,,,,,,,,,,,,,,,,,,,,,,,,,
null,,learn_phase(without_color),1078561,black_plus_sign,,,,,null,US_Cities_List/mm_hanover.png,US_Cities_List/mm_westpalmbeach.png,,,,,,,,,,,,,,,,,,,,,,,,,,,,
null,,black_cross(without_color),1079249,green,,,,,null,US_Cities_List/mm_hanover.png,US_Cities_List/mm_westpalmbeach.png,,,,,,,,,,,,,,,,,,,,,,,,,,,,
null,,rt_plussign_withcolor,1079755,green,,,,,null,US_Cities_List/mm_hanover.png,US_Cities_List/mm_westpalmbeach.png,,,,,,,,,,,,,,,,,,,,,,,,,,,,
1192.5,,rt_thecrossant_black,1081087,black_plus_sign,,,,,50,,,1,1,,,,,,,,,,,,,,,,,,,,,,,,,,
null,,color_black,1081197,black_plus_sign,,,,,null,,,,,,,,,,,,,,,,,,,,,,,,,,,,,,
null,,learn_phase(without_color),1083896,black_plus_sign,,,,,null,US_Cities_List/nat_cornwall.png,US_Cities_List/mm_hanover.png,,,,,,,,,,,,,,,,,,,,,,,,,,,,
null,,black_cross(without_color),1084770,blue,,,,,null,US_Cities_List/nat_cornwall.png,US_Cities_List/mm_hanover.png,,,,,,,,,,,,,,,,,,,,,,,,,,,,
null,,rt_plussign_withcolor,1085277,blue,,,,,null,US_Cities_List/nat_cornwall.png,US_Cities_List/mm_hanover.png,,,,,,,,,,,,,,,,,,,,,,,,,,,,
1211,,rt_thecrossant_black,1086423,black_plus_sign,,,,,49,,,1,1,,,,,,,,,,,,,,,,,,,,,,,,,,
null,,color_black,1086532,black_plus_sign,,,,,null,,,,,,,,,,,,,,,,,,,,,,,,,,,,,,
null,,learn_phase(without_color),1089121,black_plus_sign,,,,,null,US_Cities_List/nat_racine.png,US_Cities_List/mm_shreveport.png,,,,,,,,,,,,,,,,,,,,,,,,,,,,
null,,black_cross(without_color),1090000,blue,,,,,null,US_Cities_List/nat_racine.png,US_Cities_List/mm_shreveport.png,,,,,,,,,,,,,,,,,,,,,,,,,,,,
null,,rt_plussign_withcolor,1090509,blue,,,,,null,US_Cities_List/nat_racine.png,US_Cities_List/mm_shreveport.png,,,,,,,,,,,,,,,,,,,,,,,,,,,,
1254.3999999761581,,rt_thecrossant_black,1091656,black_plus_sign,,,,,49,,,1,1,,,,,,,,,,,,,,,,,,,,,,,,,,
null,,color_black,1091767,black_plus_sign,,,,,null,,,,,,,,,,,,,,,,,,,,,,,,,,,,,,
null,,learn_phase(without_color),1094401,black_plus_sign,,,,,null,US_Cities_List/mm_hanover.png,US_Cities_List/mm_westpalmbeach.png,,,,,,,,,,,,,,,,,,,,,,,,,,,,
null,,black_cross(without_color),1095228,blue,,,,,null,US_Cities_List/mm_hanover.png,US_Cities_List/mm_westpalmbeach.png,,,,,,,,,,,,,,,,,,,,,,,,,,,,
null,,rt_plussign_withcolor,1095734,blue,,,,,null,US_Cities_List/mm_hanover.png,US_Cities_List/mm_westpalmbeach.png,,,,,,,,,,,,,,,,,,,,,,,,,,,,
1390.3999999761581,,rt_thecrossant_black,1096927,black_plus_sign,,,,,49,,,1,1,,,,,,,,,,,,,,,,,,,,,,,,,,
null,,color_black,1097035,black_plus_sign,,,,,null,,,,,,,,,,,,,,,,,,,,,,,,,,,,,,
null,,learn_phase(without_color),1099816,black_plus_sign,,,,,null,US_Cities_List/nat_racine.png,US_Cities_List/mm_shreveport.png,,,,,,,,,,,,,,,,,,,,,,,,,,,,
null,,black_cross(without_color),1100348,blue,,,,,null,US_Cities_List/nat_racine.png,US_Cities_List/mm_shreveport.png,,,,,,,,,,,,,,,,,,,,,,,,,,,,
null,,rt_plussign_withcolor,1100858,blue,,,,,null,US_Cities_List/nat_racine.png,US_Cities_List/mm_shreveport.png,,,,,,,,,,,,,,,,,,,,,,,,,,,,
1031.8999999761581,,rt_thecrossant_black,1102351,black_plus_sign,,,,,49,,,1,1,,,,,,,,,,,,,,,,,,,,,,,,,,
null,,color_black,1102461,black_plus_sign,,,,,null,,,,,,,,,,,,,,,,,,,,,,,,,,,,,,
null,,learn_phase(without_color),1105046,black_plus_sign,,,,,null,US_Cities_List/nat_boulder.png,US_Cities_List/nat_racine.png,,,,,,,,,,,,,,,,,,,,,,,,,,,,
null,,black_cross(without_color),1105913,blue,,,,,null,US_Cities_List/nat_boulder.png,US_Cities_List/nat_racine.png,,,,,,,,,,,,,,,,,,,,,,,,,,,,
null,,rt_plussign_withcolor,1106419,blue,,,,,null,US_Cities_List/nat_boulder.png,US_Cities_List/nat_racine.png,,,,,,,,,,,,,,,,,,,,,,,,,,,,
1142,,rt_thecrossant_black,1107573,black_plus_sign,,,,,49,,,1,1,,,,,,,,,,,,,,,,,,,,,,,,,,
null,,color_black,1107682,black_plus_sign,,,,,null,,,,,,,,,,,,,,,,,,,,,,,,,,,,,,
null,,learn_phase(without_color),1110314,black_plus_sign,,,,,null,US_Cities_List/mm_hanover.png,US_Cities_List/mm_westpalmbeach.png,,,,,,,,,,,,,,,,,,,,,,,,,,,,
null,,black_cross(without_color),1110852,green,,,,,null,US_Cities_List/mm_hanover.png,US_Cities_List/mm_westpalmbeach.png,,,,,,,,,,,,,,,,,,,,,,,,,,,,
null,,rt_plussign_withcolor,1111361,green,,,,,null,US_Cities_List/mm_hanover.png,US_Cities_List/mm_westpalmbeach.png,,,,,,,,,,,,,,,,,,,,,,,,,,,,
1072,,rt_thecrossant_black,1112840,black_plus_sign,,,,,50,,,1,1,,,,,,,,,,,,,,,,,,,,,,,,,,
null,,color_black,1112943,black_plus_sign,,,,,null,,,,,,,,,,,,,,,,,,,,,,,,,,,,,,
null,,learn_phase(without_color),1115541,black_plus_sign,,,,,null,US_Cities_List/nat_peoria.png,US_Cities_List/mm_shreveport.png,,,,,,,,,,,,,,,,,,,,,,,,,,,,
null,,black_cross(without_color),1115985,blue,,,,,null,US_Cities_List/nat_peoria.png,US_Cities_List/mm_shreveport.png,,,,,,,,,,,,,,,,,,,,,,,,,,,,
null,,rt_plussign_withcolor,1116493,blue,,,,,null,US_Cities_List/nat_peoria.png,US_Cities_List/mm_shreveport.png,,,,,,,,,,,,,,,,,,,,,,,,,,,,
911.6999999880791,,rt_thecrossant_black,1118066,black_plus_sign,,,,,49,,,1,1,,,,,,,,,,,,,,,,,,,,,,,,,,
null,,color_black,1118172,black_plus_sign,,,,,null,,,,,,,,,,,,,,,,,,,,,,,,,,,,,,
null,,learn_phase(without_color),1120807,black_plus_sign,,,,,null,US_Cities_List/mm_shreveport.png,US_Cities_List/nat_gatlinburg.png,,,,,,,,,,,,,,,,,,,,,,,,,,,,
null,,black_cross(without_color),1121424,green,,,,,null,US_Cities_List/mm_shreveport.png,US_Cities_List/nat_gatlinburg.png,,,,,,,,,,,,,,,,,,,,,,,,,,,,
null,,rt_plussign_withcolor,1121931,green,,,,,null,US_Cities_List/mm_shreveport.png,US_Cities_List/nat_gatlinburg.png,,,,,,,,,,,,,,,,,,,,,,,,,,,,
558.8999999761581,,rt_thecrossant_black,1123334,black_plus_sign,,,,,50,,,1,1,,,,,,,,,,,,,,,,,,,,,,,,,,
null,,color_black,1123445,black_plus_sign,,,,,null,,,,,,,,,,,,,,,,,,,,,,,,,,,,,,
null,,learn_phase(without_color),1126086,black_plus_sign,,,,,null,US_Cities_List/mm_westpalmbeach.png,US_Cities_List/mm_carmel.png,,,,,,,,,,,,,,,,,,,,,,,,,,,,
null,,black_cross(without_color),1126958,blue,,,,,null,US_Cities_List/mm_westpalmbeach.png,US_Cities_List/mm_carmel.png,,,,,,,,,,,,,,,,,,,,,,,,,,,,
null,,rt_plussign_withcolor,1127464,blue,,,,,null,US_Cities_List/mm_westpalmbeach.png,US_Cities_List/mm_carmel.png,,,,,,,,,,,,,,,,,,,,,,,,,,,,
741,,rt_thecrossant_black,1128613,black_plus_sign,,,,,49,,,1,1,,,,,,,,,,,,,,,,,,,,,,,,,,
null,,color_black,1128723,black_plus_sign,,,,,null,,,,,,,,,,,,,,,,,,,,,,,,,,,,,,
null,,learn_phase(without_color),1131344,black_plus_sign,,,,,null,US_Cities_List/mm_hanover.png,US_Cities_List/mm_westpalmbeach.png,,,,,,,,,,,,,,,,,,,,,,,,,,,,
null,,black_cross(without_color),1131927,blue,,,,,null,US_Cities_List/mm_hanover.png,US_Cities_List/mm_westpalmbeach.png,,,,,,,,,,,,,,,,,,,,,,,,,,,,
null,,rt_plussign_withcolor,1132436,blue,,,,,null,US_Cities_List/mm_hanover.png,US_Cities_List/mm_westpalmbeach.png,,,,,,,,,,,,,,,,,,,,,,,,,,,,
1195.1000000238419,,rt_thecrossant_black,1133869,black_plus_sign,,,,,49,,,1,1,,,,,,,,,,,,,,,,,,,,,,,,,,
null,,color_black,1133975,black_plus_sign,,,,,null,,,,,,,,,,,,,,,,,,,,,,,,,,,,,,
null,,learn_phase(without_color),1136582,black_plus_sign,,,,,null,US_Cities_List/nat_boulder.png,US_Cities_List/nat_racine.png,,,,,,,,,,,,,,,,,,,,,,,,,,,,
null,,black_cross(without_color),1137272,green,,,,,null,US_Cities_List/nat_boulder.png,US_Cities_List/nat_racine.png,,,,,,,,,,,,,,,,,,,,,,,,,,,,
null,,rt_plussign_withcolor,1137778,green,,,,,null,US_Cities_List/nat_boulder.png,US_Cities_List/nat_racine.png,,,,,,,,,,,,,,,,,,,,,,,,,,,,
770.1999999880791,,rt_thecrossant_black,1139120,black_plus_sign,,,,,50,,,1,1,,,,,,,,,,,,,,,,,,,,,,,,,,
null,,color_black,1139223,black_plus_sign,,,,,null,,,,,,,,,,,,,,,,,,,,,,,,,,,,,,
null,,learn_phase(without_color),1141844,black_plus_sign,,,,,null,US_Cities_List/mm_westpalmbeach.png,US_Cities_List/mm_carmel.png,,,,,,,,,,,,,,,,,,,,,,,,,,,,
null,,black_cross(without_color),1142891,blue,,,,,null,US_Cities_List/mm_westpalmbeach.png,US_Cities_List/mm_carmel.png,,,,,,,,,,,,,,,,,,,,,,,,,,,,
null,,rt_plussign_withcolor,1143398,blue,,,,,null,US_Cities_List/mm_westpalmbeach.png,US_Cities_List/mm_carmel.png,,,,,,,,,,,,,,,,,,,,,,,,,,,,
913.5,,rt_thecrossant_black,1144373,black_plus_sign,,,,,49,,,1,1,,,,,,,,,,,,,,,,,,,,,,,,,,
null,,color_black,1144484,black_plus_sign,,,,,null,,,,,,,,,,,,,,,,,,,,,,,,,,,,,,
null,,learn_phase(without_color),1147113,black_plus_sign,,,,,null,US_Cities_List/nat_racine.png,US_Cities_List/nat_peoria.png,,,,,,,,,,,,,,,,,,,,,,,,,,,,
null,,black_cross(without_color),1147567,blue,,,,,null,US_Cities_List/nat_racine.png,US_Cities_List/nat_peoria.png,,,,,,,,,,,,,,,,,,,,,,,,,,,,
null,,rt_plussign_withcolor,1148072,blue,,,,,null,US_Cities_List/nat_racine.png,US_Cities_List/nat_peoria.png,,,,,,,,,,,,,,,,,,,,,,,,,,,,
1760.699999988079,,rt_thecrossant_black,1149637,black_plus_sign,,,,,49,,,1,1,,,,,,,,,,,,,,,,,,,,,,,,,,
null,,color_black,1149744,black_plus_sign,,,,,null,,,,,,,,,,,,,,,,,,,,,,,,,,,,,,
null,,learn_phase(without_color),1152521,black_plus_sign,,,,,null,US_Cities_List/nat_boulder.png,US_Cities_List/nat_racine.png,,,,,,,,,,,,,,,,,,,,,,,,,,,,
null,,black_cross(without_color),1153278,green,,,,,null,US_Cities_List/nat_boulder.png,US_Cities_List/nat_racine.png,,,,,,,,,,,,,,,,,,,,,,,,,,,,
null,,rt_plussign_withcolor,1153787,green,,,,,null,US_Cities_List/nat_boulder.png,US_Cities_List/nat_racine.png,,,,,,,,,,,,,,,,,,,,,,,,,,,,
1484.199999988079,,rt_thecrossant_black,1155049,black_plus_sign,,,,,50,,,1,1,,,,,,,,,,,,,,,,,,,,,,,,,,
null,,color_black,1155158,black_plus_sign,,,,,null,,,,,,,,,,,,,,,,,,,,,,,,,,,,,,
null,,learn_phase(without_color),1157807,black_plus_sign,,,,,null,US_Cities_List/mm_hanover.png,US_Cities_List/nat_huntsville.png,,,,,,,,,,,,,,,,,,,,,,,,,,,,
null,,black_cross(without_color),1158873,blue,,,,,null,US_Cities_List/mm_hanover.png,US_Cities_List/nat_huntsville.png,,,,,,,,,,,,,,,,,,,,,,,,,,,,
null,,rt_plussign_withcolor,1159382,blue,,,,,null,US_Cities_List/mm_hanover.png,US_Cities_List/nat_huntsville.png,,,,,,,,,,,,,,,,,,,,,,,,,,,,
957.5,,rt_thecrossant_black,1160338,black_plus_sign,,,,,49,,,1,1,,,,,,,,,,,,,,,,,,,,,,,,,,
null,,color_black,1160448,black_plus_sign,,,,,null,,,,,,,,,,,,,,,,,,,,,,,,,,,,,,
null,,learn_phase(without_color),1163060,black_plus_sign,,,,,null,US_Cities_List/nat_racine.png,US_Cities_List/nat_hotsprings.png,,,,,,,,,,,,,,,,,,,,,,,,,,,,
null,,black_cross(without_color),1163584,green,,,,,null,US_Cities_List/nat_racine.png,US_Cities_List/nat_hotsprings.png,,,,,,,,,,,,,,,,,,,,,,,,,,,,
null,,rt_plussign_withcolor,1164090,green,,,,,null,US_Cities_List/nat_racine.png,US_Cities_List/nat_hotsprings.png,,,,,,,,,,,,,,,,,,,,,,,,,,,,
1386.699999988079,,rt_thecrossant_black,1165597,black_plus_sign,,,,,50,,,1,1,,,,,,,,,,,,,,,,,,,,,,,,,,
null,,color_black,1165704,black_plus_sign,,,,,null,,,,,,,,,,,,,,,,,,,,,,,,,,,,,,
null,,learn_phase(without_color),1168321,black_plus_sign,,,,,null,US_Cities_List/nat_huntsville.png,US_Cities_List/nat_gatlinburg.png,,,,,,,,,,,,,,,,,,,,,,,,,,,,
null,,black_cross(without_color),1169109,blue,,,,,null,US_Cities_List/nat_huntsville.png,US_Cities_List/nat_gatlinburg.png,,,,,,,,,,,,,,,,,,,,,,,,,,,,
null,,rt_plussign_withcolor,1169617,blue,,,,,null,US_Cities_List/nat_huntsville.png,US_Cities_List/nat_gatlinburg.png,,,,,,,,,,,,,,,,,,,,,,,,,,,,
698.6000000238419,,rt_thecrossant_black,1170843,black_plus_sign,,,,,49,,,1,1,,,,,,,,,,,,,,,,,,,,,,,,,,
null,,color_black,1170950,black_plus_sign,,,,,null,,,,,,,,,,,,,,,,,,,,,,,,,,,,,,
null,,learn_phase(without_color),1173569,black_plus_sign,,,,,null,US_Cities_List/nat_racine.png,US_Cities_List/nat_peoria.png,,,,,,,,,,,,,,,,,,,,,,,,,,,,
null,,black_cross(without_color),1174253,green,,,,,null,US_Cities_List/nat_racine.png,US_Cities_List/nat_peoria.png,,,,,,,,,,,,,,,,,,,,,,,,,,,,
null,,rt_plussign_withcolor,1174762,green,,,,,null,US_Cities_List/nat_racine.png,US_Cities_List/nat_peoria.png,,,,,,,,,,,,,,,,,,,,,,,,,,,,
1695.800000011921,,rt_thecrossant_black,1176102,black_plus_sign,,,,,50,,,1,1,,,,,,,,,,,,,,,,,,,,,,,,,,
null,,color_black,1176212,black_plus_sign,,,,,null,,,,,,,,,,,,,,,,,,,,,,,,,,,,,,
null,,learn_phase(without_color),1178807,black_plus_sign,,,,,null,US_Cities_List/nat_cornwall.png,US_Cities_List/mm_hanover.png,,,,,,,,,,,,,,,,,,,,,,,,,,,,
null,,black_cross(without_color),1179307,green,,,,,null,US_Cities_List/nat_cornwall.png,US_Cities_List/mm_hanover.png,,,,,,,,,,,,,,,,,,,,,,,,,,,,
475.39999997615814,,rt_plussign_withcolor,1179812,green,,,,,50,US_Cities_List/nat_cornwall.png,US_Cities_List/mm_hanover.png,,,,,,,,,,,,,,,,,,,,,,,,,,,,
null,,rt_thecrossant_black,1181334,black_plus_sign,,,,,null,,,1,1,,,,,,,,,,,,,,,,,,,,,,,,,,
null,,color_black,1181446,black_plus_sign,,,,,null,,,,,,,,,,,,,,,,,,,,,,,,,,,,,,
null,,learn_phase(without_color),1184069,black_plus_sign,,,,,null,US_Cities_List/nat_boulder.png,US_Cities_List/mm_shreveport.png,,,,,,,,,,,,,,,,,,,,,,,,,,,,
null,,black_cross(without_color),1184556,green,,,,,null,US_Cities_List/nat_boulder.png,US_Cities_List/mm_shreveport.png,,,,,,,,,,,,,,,,,,,,,,,,,,,,
null,,rt_plussign_withcolor,1185065,green,,,,,null,US_Cities_List/nat_boulder.png,US_Cities_List/mm_shreveport.png,,,,,,,,,,,,,,,,,,,,,,,,,,,,
615.8999999761581,,rt_thecrossant_black,1186602,black_plus_sign,,,,,50,,,1,1,,,,,,,,,,,,,,,,,,,,,,,,,,
null,,color_black,1186712,black_plus_sign,,,,,null,,,,,,,,,,,,,,,,,,,,,,,,,,,,,,
null,,learn_phase(without_color),1189317,black_plus_sign,,,,,null,US_Cities_List/nat_huntsville.png,US_Cities_List/nat_gatlinburg.png,,,,,,,,,,,,,,,,,,,,,,,,,,,,
null,,black_cross(without_color),1190080,green,,,,,null,US_Cities_List/nat_huntsville.png,US_Cities_List/nat_gatlinburg.png,,,,,,,,,,,,,,,,,,,,,,,,,,,,
null,,rt_plussign_withcolor,1190586,green,,,,,null,US_Cities_List/nat_huntsville.png,US_Cities_List/nat_gatlinburg.png,,,,,,,,,,,,,,,,,,,,,,,,,,,,
789.4000000357628,,rt_thecrossant_black,1191851,black_plus_sign,,,,,50,,,1,1,,,,,,,,,,,,,,,,,,,,,,,,,,
null,,color_black,1191961,black_plus_sign,,,,,null,,,,,,,,,,,,,,,,,,,,,,,,,,,,,,
null,,learn_phase(without_color),1194536,black_plus_sign,,,,,null,US_Cities_List/nat_peoria.png,US_Cities_List/nat_leesburg.png,,,,,,,,,,,,,,,,,,,,,,,,,,,,
null,,black_cross(without_color),1195182,green,,,,,null,US_Cities_List/nat_peoria.png,US_Cities_List/nat_leesburg.png,,,,,,,,,,,,,,,,,,,,,,,,,,,,
null,,rt_plussign_withcolor,1195699,green,,,,,null,US_Cities_List/nat_peoria.png,US_Cities_List/nat_leesburg.png,,,,,,,,,,,,,,,,,,,,,,,,,,,,
1279.800000011921,,rt_thecrossant_black,1197075,black_plus_sign,,,,,50,,,1,1,,,,,,,,,,,,,,,,,,,,,,,,,,
null,,color_black,1197185,black_plus_sign,,,,,null,,,,,,,,,,,,,,,,,,,,,,,,,,,,,,
null,,learn_phase(without_color),1199897,black_plus_sign,,,,,null,US_Cities_List/nat_racine.png,US_Cities_List/nat_hotsprings.png,,,,,,,,,,,,,,,,,,,,,,,,,,,,
null,,black_cross(without_color),1200662,blue,,,,,null,US_Cities_List/nat_racine.png,US_Cities_List/nat_hotsprings.png,,,,,,,,,,,,,,,,,,,,,,,,,,,,
null,,rt_plussign_withcolor,1201170,blue,,,,,null,US_Cities_List/nat_racine.png,US_Cities_List/nat_hotsprings.png,,,,,,,,,,,,,,,,,,,,,,,,,,,,
790,,rt_thecrossant_black,1202425,black_plus_sign,,,,,49,,,1,1,,,,,,,,,,,,,,,,,,,,,,,,,,
null,,color_black,1202533,black_plus_sign,,,,,null,,,,,,,,,,,,,,,,,,,,,,,,,,,,,,
null,,learn_phase(without_color),1205163,black_plus_sign,,,,,null,US_Cities_List/mm_hanover.png,US_Cities_List/nat_huntsville.png,,,,,,,,,,,,,,,,,,,,,,,,,,,,
null,,black_cross(without_color),1205874,green,,,,,null,US_Cities_List/mm_hanover.png,US_Cities_List/nat_huntsville.png,,,,,,,,,,,,,,,,,,,,,,,,,,,,
null,,rt_plussign_withcolor,1206380,green,,,,,null,US_Cities_List/mm_hanover.png,US_Cities_List/nat_huntsville.png,,,,,,,,,,,,,,,,,,,,,,,,,,,,
1603.199999988079,,rt_thecrossant_black,1207698,black_plus_sign,,,,,50,,,1,1,,,,,,,,,,,,,,,,,,,,,,,,,,
null,,color_black,1207809,black_plus_sign,,,,,null,,,,,,,,,,,,,,,,,,,,,,,,,,,,,,
null,,learn_phase(without_color),1210435,black_plus_sign,,,,,null,US_Cities_List/nat_huntsville.png,US_Cities_List/nat_gatlinburg.png,,,,,,,,,,,,,,,,,,,,,,,,,,,,
null,,black_cross(without_color),1210857,blue,,,,,null,US_Cities_List/nat_huntsville.png,US_Cities_List/nat_gatlinburg.png,,,,,,,,,,,,,,,,,,,,,,,,,,,,
null,,rt_plussign_withcolor,1211363,blue,,,,,null,US_Cities_List/nat_huntsville.png,US_Cities_List/nat_gatlinburg.png,,,,,,,,,,,,,,,,,,,,,,,,,,,,
1028.2000000476837,,rt_thecrossant_black,1212961,black_plus_sign,,,,,49,,,1,1,,,,,,,,,,,,,,,,,,,,,,,,,,
null,,color_black,1213067,black_plus_sign,,,,,null,,,,,,,,,,,,,,,,,,,,,,,,,,,,,,
null,,learn_phase(without_color),1215688,black_plus_sign,,,,,null,US_Cities_List/nat_peoria.png,US_Cities_List/mm_shreveport.png,,,,,,,,,,,,,,,,,,,,,,,,,,,,
null,,black_cross(without_color),1216674,green,,,,,null,US_Cities_List/nat_peoria.png,US_Cities_List/mm_shreveport.png,,,,,,,,,,,,,,,,,,,,,,,,,,,,
null,,rt_plussign_withcolor,1217179,green,,,,,null,US_Cities_List/nat_peoria.png,US_Cities_List/mm_shreveport.png,,,,,,,,,,,,,,,,,,,,,,,,,,,,
724.3000000119209,,rt_thecrossant_black,1218210,black_plus_sign,,,,,50,,,1,1,,,,,,,,,,,,,,,,,,,,,,,,,,
null,,color_black,1218325,black_plus_sign,,,,,null,,,,,,,,,,,,,,,,,,,,,,,,,,,,,,
null,,learn_phase(without_color),1220934,black_plus_sign,,,,,null,US_Cities_List/nat_racine.png,US_Cities_List/mm_shreveport.png,,,,,,,,,,,,,,,,,,,,,,,,,,,,
null,,black_cross(without_color),1221756,green,,,,,null,US_Cities_List/nat_racine.png,US_Cities_List/mm_shreveport.png,,,,,,,,,,,,,,,,,,,,,,,,,,,,
null,,rt_plussign_withcolor,1222263,green,,,,,null,US_Cities_List/nat_racine.png,US_Cities_List/mm_shreveport.png,,,,,,,,,,,,,,,,,,,,,,,,,,,,
1276.5,,rt_thecrossant_black,1223464,black_plus_sign,,,,,50,,,1,1,,,,,,,,,,,,,,,,,,,,,,,,,,
null,,color_black,1223576,black_plus_sign,,,,,null,,,,,,,,,,,,,,,,,,,,,,,,,,,,,,
null,,learn_phase(without_color),1226190,black_plus_sign,,,,,null,US_Cities_List/mm_hanover.png,US_Cities_List/nat_huntsville.png,,,,,,,,,,,,,,,,,,,,,,,,,,,,
null,,black_cross(without_color),1226848,blue,,,,,null,US_Cities_List/mm_hanover.png,US_Cities_List/nat_huntsville.png,,,,,,,,,,,,,,,,,,,,,,,,,,,,
null,,rt_plussign_withcolor,1227361,blue,,,,,null,US_Cities_List/mm_hanover.png,US_Cities_List/nat_huntsville.png,,,,,,,,,,,,,,,,,,,,,,,,,,,,
1063.5,,rt_thecrossant_black,1228725,black_plus_sign,,,,,49,,,1,1,,,,,,,,,,,,,,,,,,,,,,,,,,
null,,color_black,1228832,black_plus_sign,,,,,null,,,,,,,,,,,,,,,,,,,,,,,,,,,,,,
null,,learn_phase(without_color),1231449,black_plus_sign,,,,,null,US_Cities_List/nat_huntsville.png,US_Cities_List/nat_gatlinburg.png,,,,,,,,,,,,,,,,,,,,,,,,,,,,
null,,black_cross(without_color),1232502,green,,,,,null,US_Cities_List/nat_huntsville.png,US_Cities_List/nat_gatlinburg.png,,,,,,,,,,,,,,,,,,,,,,,,,,,,
null,,rt_plussign_withcolor,1233011,green,,,,,null,US_Cities_List/nat_huntsville.png,US_Cities_List/nat_gatlinburg.png,,,,,,,,,,,,,,,,,,,,,,,,,,,,
867.8000000119209,,rt_thecrossant_black,1233977,black_plus_sign,,,,,50,,,1,1,,,,,,,,,,,,,,,,,,,,,,,,,,
null,,color_black,1234088,black_plus_sign,,,,,null,,,,,,,,,,,,,,,,,,,,,,,,,,,,,,
31996.19999998808,,intro_1,1266099,instruct,,,0,,,,,,,,,,,,,,,,,,,,,,,,,,,,,,,,
33197,,intro_2,1299307,instruct,,,1,Next,,,,,,,,,,,,,,,,,,,,,,,,,,,,,,,
2928.899999976158,,directmemory_phase,1302417,../static/images/US_Cities_List/nat_boulder.png,,,,,49,,,0,0,../static/images/US_Cities_List/nat_newhope.png,../static/images/US_Cities_List/nat_gatlinburg.png,../static/images/US_Cities_List/nat_racine.png,../static/images/US_Cities_List/nat_racine.png,../static/images/US_Cities_List/nat_gatlinburg.png,../static/images/US_Cities_List/nat_newhope.png,0.5,closer,,,,,,,,,,,,,,,,,,
null,,html-keyboard-response,1303434,<p></p>,,,,,null,,,,,,,,,,,,,,,,,,,,,,,,,,,,,,
1961.699999988079,,directmemory_phase,1305596,../static/images/US_Cities_List/nat_huntsville.png,,,,,50,,,0,0,../static/images/US_Cities_List/nat_gatlinburg.png,../static/images/US_Cities_List/nat_newhope.png,../static/images/US_Cities_List/nat_cornwall.png,../static/images/US_Cities_List/nat_gatlinburg.png,../static/images/US_Cities_List/nat_cornwall.png,../static/images/US_Cities_List/nat_newhope.png,0.5,closer,,,,,,,,,,,,,,,,,,
null,,html-keyboard-response,1306641,<p></p>,,,,,null,,,,,,,,,,,,,,,,,,,,,,,,,,,,,,
2047.2000000476837,,directmemory_phase,1308952,../static/images/US_Cities_List/nat_boulder.png,,,,,51,,,1,0.3333333333333333,../static/images/US_Cities_List/nat_newhope.png,../static/images/US_Cities_List/nat_gatlinburg.png,../static/images/US_Cities_List/mm_shreveport.png,../static/images/US_Cities_List/mm_shreveport.png,../static/images/US_Cities_List/nat_gatlinburg.png,../static/images/US_Cities_List/nat_newhope.png,1,,,,,,,,,,,,,,,,,,,
null,,html-keyboard-response,1309973,<p></p>,,,,,null,,,,,,,,,,,,,,,,,,,,,,,,,,,,,,
1727.699999988079,,directmemory_phase,1311876,../static/images/US_Cities_List/mm_hanover.png,,,,,50,,,0,0.25,../static/images/US_Cities_List/nat_hotsprings.png,../static/images/US_Cities_List/mm_carmel.png,../static/images/US_Cities_List/nat_huntsville.png,../static/images/US_Cities_List/nat_huntsville.png,../static/images/US_Cities_List/mm_carmel.png,../static/images/US_Cities_List/nat_hotsprings.png,0.5,closer,,,,,,,,,,,,,,,,,,
null,,html-keyboard-response,1312913,<p></p>,,,,,null,,,,,,,,,,,,,,,,,,,,,,,,,,,,,,
1584.0999999642372,,directmemory_phase,1314696,../static/images/US_Cities_List/mm_shreveport.png,,,,,49,,,1,0.4,../static/images/US_Cities_List/nat_boulder.png,../static/images/US_Cities_List/nat_cornwall.png,../static/images/US_Cities_List/nat_huntsville.png,../static/images/US_Cities_List/nat_boulder.png,../static/images/US_Cities_List/nat_huntsville.png,../static/images/US_Cities_List/nat_cornwall.png,1,,,,,,,,,,,,,,,,,,,
null,,html-keyboard-response,1315726,<p></p>,,,,,null,,,,,,,,,,,,,,,,,,,,,,,,,,,,,,
1617.800000011921,,directmemory_phase,1317662,../static/images/US_Cities_List/nat_gatlinburg.png,,,,,51,,,0,0.3333333333333333,../static/images/US_Cities_List/nat_huntsville.png,../static/images/US_Cities_List/nat_newhope.png,../static/images/US_Cities_List/nat_boulder.png,../static/images/US_Cities_List/nat_huntsville.png,../static/images/US_Cities_List/nat_boulder.png,../static/images/US_Cities_List/nat_newhope.png,0.5,closer,,,,,,,,,,,,,,,,,,
null,,html-keyboard-response,1318679,<p></p>,,,,,null,,,,,,,,,,,,,,,,,,,,,,,,,,,,,,
1053.0999999642372,,directmemory_phase,1319917,../static/images/US_Cities_List/nat_newhope.png,,,,,49,,,1,0.42857142857142855,../static/images/US_Cities_List/mm_westpalmbeach.png,../static/images/US_Cities_List/mm_shreveport.png,../static/images/US_Cities_List/mm_carmel.png,../static/images/US_Cities_List/mm_westpalmbeach.png,../static/images/US_Cities_List/mm_carmel.png,../static/images/US_Cities_List/mm_shreveport.png,1,,,,,,,,,,,,,,,,,,,
null,,html-keyboard-response,1320951,<p></p>,,,,,null,,,,,,,,,,,,,,,,,,,,,,,,,,,,,,
1107.300000011921,,directmemory_phase,1322205,../static/images/US_Cities_List/nat_boulder.png,,,,,49,,,0,0.375,../static/images/US_Cities_List/mm_hanover.png,../static/images/US_Cities_List/nat_huntsville.png,../static/images/US_Cities_List/mm_carmel.png,../static/images/US_Cities_List/nat_huntsville.png,../static/images/US_Cities_List/mm_hanover.png,../static/images/US_Cities_List/mm_carmel.png,0.5,closer,,,,,,,,,,,,,,,,,,
null,,html-keyboard-response,1323243,<p></p>,,,,,null,,,,,,,,,,,,,,,,,,,,,,,,,,,,,,
1003.3999999761581,,directmemory_phase,1324428,../static/images/US_Cities_List/mm_hanover.png,,,,,51,,,0,0.3333333333333333,../static/images/US_Cities_List/nat_cornwall.png,../static/images/US_Cities_List/mm_shreveport.png,../static/images/US_Cities_List/nat_boulder.png,../static/images/US_Cities_List/nat_cornwall.png,../static/images/US_Cities_List/nat_boulder.png,../static/images/US_Cities_List/mm_shreveport.png,0.5,closer,,,,,,,,,,,,,,,,,,
null,,html-keyboard-response,1325473,<p></p>,,,,,null,,,,,,,,,,,,,,,,,,,,,,,,,,,,,,
1368.8999999761581,,directmemory_phase,1327095,../static/images/US_Cities_List/nat_racine.png,,,,,50,,,0,0.3,../static/images/US_Cities_List/nat_cornwall.png,../static/images/US_Cities_List/nat_gatlinburg.png,../static/images/US_Cities_List/mm_shreveport.png,../static/images/US_Cities_List/mm_shreveport.png,../static/images/US_Cities_List/nat_gatlinburg.png,../static/images/US_Cities_List/nat_cornwall.png,0.5,closer,,,,,,,,,,,,,,,,,,
null,,html-keyboard-response,1328139,<p></p>,,,,,null,,,,,,,,,,,,,,,,,,,,,,,,,,,,,,
941.2999999523163,,directmemory_phase,1329223,../static/images/US_Cities_List/nat_peoria.png,,,,,51,,,1,0.36363636363636365,../static/images/US_Cities_List/mm_carmel.png,../static/images/US_Cities_List/nat_hotsprings.png,../static/images/US_Cities_List/nat_leesburg.png,../static/images/US_Cities_List/nat_leesburg.png,../static/images/US_Cities_List/nat_hotsprings.png,../static/images/US_Cities_List/mm_carmel.png,1,,,,,,,,,,,,,,,,,,,
null,,html-keyboard-response,1330257,<p></p>,,,,,null,,,,,,,,,,,,,,,,,,,,,,,,,,,,,,
777.0999999642372,,directmemory_phase,1331333,../static/images/US_Cities_List/mm_westpalmbeach.png,,,,,49,,,1,0.4166666666666667,../static/images/US_Cities_List/nat_newhope.png,../static/images/US_Cities_List/nat_peoria.png,../static/images/US_Cities_List/nat_gatlinburg.png,../static/images/US_Cities_List/nat_newhope.png,../static/images/US_Cities_List/nat_gatlinburg.png,../static/images/US_Cities_List/nat_peoria.png,1,,,,,,,,,,,,,,,,,,,
null,,html-keyboard-response,1332353,<p></p>,,,,,null,,,,,,,,,,,,,,,,,,,,,,,,,,,,,,
1366,,directmemory_phase,1333915,../static/images/US_Cities_List/nat_hotsprings.png,,,,,51,,,1,0.46153846153846156,../static/images/US_Cities_List/nat_leesburg.png,../static/images/US_Cities_List/mm_shreveport.png,../static/images/US_Cities_List/nat_racine.png,../static/images/US_Cities_List/nat_racine.png,../static/images/US_Cities_List/mm_shreveport.png,../static/images/US_Cities_List/nat_leesburg.png,1,,,,,,,,,,,,,,,,,,,
null,,html-keyboard-response,1334942,<p></p>,,,,,null,,,,,,,,,,,,,,,,,,,,,,,,,,,,,,
1058.8999999761581,,directmemory_phase,1336307,../static/images/US_Cities_List/nat_peoria.png,,,,,50,,,0,0.42857142857142855,../static/images/US_Cities_List/mm_westpalmbeach.png,../static/images/US_Cities_List/nat_boulder.png,../static/images/US_Cities_List/mm_shreveport.png,../static/images/US_Cities_List/mm_shreveport.png,../static/images/US_Cities_List/nat_boulder.png,../static/images/US_Cities_List/mm_westpalmbeach.png,0.5,closer,,,,,,,,,,,,,,,,,,
null,,html-keyboard-response,1337344,<p></p>,,,,,null,,,,,,,,,,,,,,,,,,,,,,,,,,,,,,
1157,,directmemory_phase,1338908,../static/images/US_Cities_List/nat_racine.png,,,,,50,,,1,0.4666666666666667,../static/images/US_Cities_List/nat_leesburg.png,../static/images/US_Cities_List/nat_boulder.png,../static/images/US_Cities_List/nat_cornwall.png,../static/images/US_Cities_List/nat_boulder.png,../static/images/US_Cities_List/nat_leesburg.png,../static/images/US_Cities_List/nat_cornwall.png,1,,,,,,,,,,,,,,,,,,,
null,,html-keyboard-response,1339951,<p></p>,,,,,null,,,,,,,,,,,,,,,,,,,,,,,,,,,,,,
959.4000000357628,,directmemory_phase,1341113,../static/images/US_Cities_List/nat_gatlinburg.png,,,,,51,,,0,0.4375,../static/images/US_Cities_List/mm_shreveport.png,../static/images/US_Cities_List/nat_cornwall.png,../static/images/US_Cities_List/mm_hanover.png,../static/images/US_Cities_List/mm_shreveport.png,../static/images/US_Cities_List/mm_hanover.png,../static/images/US_Cities_List/nat_cornwall.png,0.5,closer,,,,,,,,,,,,,,,,,,
null,,html-keyboard-response,1342152,<p></p>,,,,,null,,,,,,,,,,,,,,,,,,,,,,,,,,,,,,
684.3000000119209,,directmemory_phase,1343105,../static/images/US_Cities_List/nat_racine.png,,,,,51,,,0,0.4117647058823529,../static/images/US_Cities_List/nat_peoria.png,../static/images/US_Cities_List/mm_hanover.png,../static/images/US_Cities_List/nat_gatlinburg.png,../static/images/US_Cities_List/nat_peoria.png,../static/images/US_Cities_List/nat_gatlinburg.png,../static/images/US_Cities_List/mm_hanover.png,0.5,closer,,,,,,,,,,,,,,,,,,
null,,html-keyboard-response,1344130,<p></p>,,,,,null,,,,,,,,,,,,,,,,,,,,,,,,,,,,,,
660.4000000357628,,directmemory_phase,1345089,../static/images/US_Cities_List/mm_shreveport.png,,,,,51,,,0,0.3888888888888889,../static/images/US_Cities_List/nat_gatlinburg.png,../static/images/US_Cities_List/nat_newhope.png,../static/images/US_Cities_List/nat_leesburg.png,../static/images/US_Cities_List/nat_gatlinburg.png,../static/images/US_Cities_List/nat_leesburg.png,../static/images/US_Cities_List/nat_newhope.png,0.5,closer,,,,,,,,,,,,,,,,,,
null,,html-keyboard-response,1346123,<p></p>,,,,,null,,,,,,,,,,,,,,,,,,,,,,,,,,,,,,
722.3000000119209,,directmemory_phase,1347035,../static/images/US_Cities_List/nat_huntsville.png,,,,,50,,,0,0.3684210526315789,../static/images/US_Cities_List/nat_peoria.png,../static/images/US_Cities_List/mm_carmel.png,../static/images/US_Cities_List/mm_hanover.png,../static/images/US_Cities_List/mm_hanover.png,../static/images/US_Cities_List/mm_carmel.png,../static/images/US_Cities_List/nat_peoria.png,0.5,closer,,,,,,,,,,,,,,,,,,
null,,html-keyboard-response,1348064,<p></p>,,,,,null,,,,,,,,,,,,,,,,,,,,,,,,,,,,,,
848.6999999880791,,directmemory_phase,1349130,../static/images/US_Cities_List/mm_shreveport.png,,,,,49,,,0,0.35,../static/images/US_Cities_List/nat_hotsprings.png,../static/images/US_Cities_List/nat_racine.png,../static/images/US_Cities_List/nat_newhope.png,../static/images/US_Cities_List/nat_racine.png,../static/images/US_Cities_List/nat_hotsprings.png,../static/images/US_Cities_List/nat_newhope.png,0.5,closer,,,,,,,,,,,,,,,,,,
null,,html-keyboard-response,1350162,<p></p>,,,,,null,,,,,,,,,,,,,,,,,,,,,,,,,,,,,,
843.3999999761581,,directmemory_phase,1351175,../static/images/US_Cities_List/nat_cornwall.png,,,,,49,,,0,0.3333333333333333,../static/images/US_Cities_List/nat_huntsville.png,../static/images/US_Cities_List/mm_hanover.png,../static/images/US_Cities_List/nat_newhope.png,../static/images/US_Cities_List/mm_hanover.png,../static/images/US_Cities_List/nat_huntsville.png,../static/images/US_Cities_List/nat_newhope.png,0.5,closer,,,,,,,,,,,,,,,,,,
null,,html-keyboard-response,1352210,<p></p>,,,,,null,,,,,,,,,,,,,,,,,,,,,,,,,,,,,,
878.6999999880791,,directmemory_phase,1353259,../static/images/US_Cities_List/nat_huntsville.png,,,,,50,,,0,0.3181818181818182,../static/images/US_Cities_List/nat_newhope.png,../static/images/US_Cities_List/nat_racine.png,../static/images/US_Cities_List/nat_boulder.png,../static/images/US_Cities_List/nat_boulder.png,../static/images/US_Cities_List/nat_racine.png,../static/images/US_Cities_List/nat_newhope.png,0.5,closer,,,,,,,,,,,,,,,,,,
null,,html-keyboard-response,1354305,<p></p>,,,,,null,,,,,,,,,,,,,,,,,,,,,,,,,,,,,,
836.6000000238419,,directmemory_phase,1355328,../static/images/US_Cities_List/mm_carmel.png,,,,,50,,,0,0.30434782608695654,../static/images/US_Cities_List/nat_boulder.png,../static/images/US_Cities_List/nat_newhope.png,../static/images/US_Cities_List/nat_gatlinburg.png,../static/images/US_Cities_List/nat_gatlinburg.png,../static/images/US_Cities_List/nat_newhope.png,../static/images/US_Cities_List/nat_boulder.png,0.5,closer,,,,,,,,,,,,,,,,,,
null,,html-keyboard-response,1356374,<p></p>,,,,,null,,,,,,,,,,,,,,,,,,,,,,,,,,,,,,
561.0999999642372,,directmemory_phase,1357215,../static/images/US_Cities_List/mm_shreveport.png,,,,,50,,,1,0.3333333333333333,../static/images/US_Cities_List/mm_carmel.png,../static/images/US_Cities_List/nat_peoria.png,../static/images/US_Cities_List/mm_hanover.png,../static/images/US_Cities_List/nat_peoria.png,../static/images/US_Cities_List/mm_carmel.png,../static/images/US_Cities_List/mm_hanover.png,1,,,,,,,,,,,,,,,,,,,
null,,html-keyboard-response,1358259,<p></p>,,,,,null,,,,,,,,,,,,,,,,,,,,,,,,,,,,,,
696.8000000119209,,directmemory_phase,1359127,../static/images/US_Cities_List/mm_westpalmbeach.png,,,,,51,,,0,0.32,../static/images/US_Cities_List/mm_hanover.png,../static/images/US_Cities_List/nat_racine.png,../static/images/US_Cities_List/nat_cornwall.png,../static/images/US_Cities_List/mm_hanover.png,../static/images/US_Cities_List/nat_cornwall.png,../static/images/US_Cities_List/nat_racine.png,0.5,closer,,,,,,,,,,,,,,,,,,
null,,html-keyboard-response,1360165,<p></p>,,,,,null,,,,,,,,,,,,,,,,,,,,,,,,,,,,,,
721,,directmemory_phase,1361062,../static/images/US_Cities_List/nat_peoria.png,,,,,51,,,0,0.3076923076923077,../static/images/US_Cities_List/nat_boulder.png,../static/images/US_Cities_List/nat_racine.png,../static/images/US_Cities_List/mm_hanover.png,../static/images/US_Cities_List/nat_racine.png,../static/images/US_Cities_List/nat_boulder.png,../static/images/US_Cities_List/mm_hanover.png,0.5,closer,,,,,,,,,,,,,,,,,,
null,,html-keyboard-response,1362098,<p></p>,,,,,null,,,,,,,,,,,,,,,,,,,,,,,,,,,,,,
741.5999999642372,,directmemory_phase,1363021,../static/images/US_Cities_List/mm_hanover.png,,,,,49,,,0,0.2962962962962963,../static/images/US_Cities_List/nat_peoria.png,../static/images/US_Cities_List/nat_gatlinburg.png,../static/images/US_Cities_List/mm_westpalmbeach.png,../static/images/US_Cities_List/mm_westpalmbeach.png,../static/images/US_Cities_List/nat_gatlinburg.png,../static/images/US_Cities_List/nat_peoria.png,0.5,closer,,,,,,,,,,,,,,,,,,
