rt,responses,trial_type,time_elapsed,stimulus,button_pressed,key_press,name_trial,rating,probe,probe_accuracy,response,correct,accuracy,confidence
17549,{worker_id:67d09aaed0603b8986ebef0c},id_enter,17555,,,,,,,,,,,
41389.90000000596,,fullscreen,58949,fullscreen,0,,,,,,,,,
3485.5,,intro_0,62438,instruct,,32,,,,,,,,
27296.79999999702,,intro_1,89738,instruct,,32,,,,,,,,
10235.29999999702,,intro_2,99975,instruct,,32,,,,,,,,
null,,instruct_dir_4,101485,instruct,,null,,,,,,,,
null,,thebreak,101990,break,,null,,,,,,,,
19928.20000000298,,familiar_rating,121921,familiar_rating,,49,Coeur d'Alene,1,,,,,,
null,,confidence_buffer,122040,confidence_buffer,,null,,,,,,,,
6583.5999999940395,,unique_rating,128626,unique_rating,,52,,4,,,,,,
null,,confidence_buffer,128731,confidence_buffer,,null,,,,,,,,
3159,,memorable_rating,131892,memorable_rating,,49,,1,,,,,,
null,,confidence_buffer,132000,confidence_buffer,,null,,,,,,,,
null,,thebreak,132518,break,,null,,,,,,,,
4005.8999999910593,,familiar_rating,136527,familiar_rating,,51,Meadowspire,3,,,,,,
null,,confidence_buffer,136631,confidence_buffer,,null,,,,,,,,
3261.0999999940395,,unique_rating,139894,unique_rating,,51,,3,,,,,,
null,,confidence_buffer,139999,confidence_buffer,,null,,,,,,,,
1145.9000000059605,,memorable_rating,141148,memorable_rating,,52,,4,,,,,,
null,,confidence_buffer,141258,confidence_buffer,,null,,,,,,,,
null,,thebreak,141770,break,,null,,,,,,,,
2056.2000000029802,,familiar_rating,143829,familiar_rating,,50,Ironwood Heights,2,,,,,,
null,,confidence_buffer,143938,confidence_buffer,,null,,,,,,,,
2193.4000000059605,,unique_rating,146134,unique_rating,,52,,4,,,,,,
null,,confidence_buffer,146238,confidence_buffer,,null,,,,,,,,
1564.2999999970198,,memorable_rating,147804,memorable_rating,,51,,3,,,,,,
null,,confidence_buffer,147917,confidence_buffer,,null,,,,,,,,
4922.70000000298,,probe_rating,152842,probe_rating,,49,,,1,0,,,,
null,,confidence_buffer,152950,confidence_buffer,,null,,,,,,,,
null,,thebreak,153461,break,,null,,,,,,,,
3920.2000000029802,,familiar_rating,157384,familiar_rating,,53,Athens,5,,,,,,
null,,confidence_buffer,157489,confidence_buffer,,null,,,,,,,,
3017.8999999910593,,unique_rating,160508,unique_rating,,51,,3,,,,,,
null,,confidence_buffer,160618,confidence_buffer,,null,,,,,,,,
1535.800000011921,,memorable_rating,162155,memorable_rating,,51,,3,,,,,,
null,,confidence_buffer,162261,confidence_buffer,,null,,,,,,,,
null,,thebreak,162770,break,,null,,,,,,,,
2115.7999999970198,,familiar_rating,164888,familiar_rating,,49,Fairhaven,1,,,,,,
null,,confidence_buffer,165004,confidence_buffer,,null,,,,,,,,
953.6000000089407,,unique_rating,165960,unique_rating,,52,,4,,,,,,
null,,confidence_buffer,166071,confidence_buffer,,null,,,,,,,,
655.7000000029802,,memorable_rating,166728,memorable_rating,,51,,3,,,,,,
null,,confidence_buffer,166841,confidence_buffer,,null,,,,,,,,
null,,thebreak,167346,break,,null,,,,,,,,
6956.29999999702,,familiar_rating,174304,familiar_rating,,51,Riverlyn,3,,,,,,
null,,confidence_buffer,174423,confidence_buffer,,null,,,,,,,,
941.0999999940395,,unique_rating,175366,unique_rating,,50,,2,,,,,,
null,,confidence_buffer,175469,confidence_buffer,,null,,,,,,,,
2151.2999999970198,,memorable_rating,177622,memorable_rating,,51,,3,,,,,,
null,,confidence_buffer,177730,confidence_buffer,,null,,,,,,,,
null,,thebreak,178235,break,,null,,,,,,,,
3976.5999999940395,,familiar_rating,182214,familiar_rating,,49,Sierra Hollow,1,,,,,,
null,,confidence_buffer,182322,confidence_buffer,,null,,,,,,,,
3328.8999999910593,,unique_rating,185653,unique_rating,,50,,2,,,,,,
null,,confidence_buffer,185761,confidence_buffer,,null,,,,,,,,
1488.2000000029802,,memorable_rating,187252,memorable_rating,,49,,1,,,,,,
null,,confidence_buffer,187368,confidence_buffer,,null,,,,,,,,
null,,thebreak,187885,break,,null,,,,,,,,
3834.6000000089407,,familiar_rating,191722,familiar_rating,,52,Huntsville,4,,,,,,
null,,confidence_buffer,191833,confidence_buffer,,null,,,,,,,,
4589.100000008941,,unique_rating,196424,unique_rating,,50,,2,,,,,,
null,,confidence_buffer,196541,confidence_buffer,,null,,,,,,,,
1074.0999999940395,,memorable_rating,197617,memorable_rating,,51,,3,,,,,,
null,,confidence_buffer,197726,confidence_buffer,,null,,,,,,,,
null,,thebreak,198235,break,,null,,,,,,,,
2850.2000000029802,,familiar_rating,201087,familiar_rating,,51,Brookmere,3,,,,,,
null,,confidence_buffer,201197,confidence_buffer,,null,,,,,,,,
5058.0999999940395,,unique_rating,206257,unique_rating,,50,,2,,,,,,
null,,confidence_buffer,206366,confidence_buffer,,null,,,,,,,,
900.7999999970198,,memorable_rating,207269,memorable_rating,,52,,4,,,,,,
null,,confidence_buffer,207373,confidence_buffer,,null,,,,,,,,
null,,thebreak,207882,break,,null,,,,,,,,
2165.199999988079,,familiar_rating,210049,familiar_rating,,52,Baymarsh,4,,,,,,
null,,confidence_buffer,210158,confidence_buffer,,null,,,,,,,,
657.7999999970198,,unique_rating,210819,unique_rating,,50,,2,,,,,,
null,,confidence_buffer,210926,confidence_buffer,,null,,,,,,,,
1214.5999999940395,,memorable_rating,212143,memorable_rating,,51,,3,,,,,,
null,,confidence_buffer,212248,confidence_buffer,,null,,,,,,,,
null,,thebreak,212760,break,,null,,,,,,,,
1970,,familiar_rating,214732,familiar_rating,,49,Medora,1,,,,,,
null,,confidence_buffer,214843,confidence_buffer,,null,,,,,,,,
1404.4000000059605,,unique_rating,216250,unique_rating,,51,,3,,,,,,
null,,confidence_buffer,216365,confidence_buffer,,null,,,,,,,,
1259.2000000029802,,memorable_rating,217626,memorable_rating,,49,,1,,,,,,
null,,confidence_buffer,217734,confidence_buffer,,null,,,,,,,,
null,,thebreak,218243,break,,null,,,,,,,,
4935,,familiar_rating,223181,familiar_rating,,50,West Talora,2,,,,,,
null,,confidence_buffer,223298,confidence_buffer,,null,,,,,,,,
3461.7999999970198,,unique_rating,226762,unique_rating,,51,,3,,,,,,
null,,confidence_buffer,226868,confidence_buffer,,null,,,,,,,,
1391.2000000029802,,memorable_rating,228262,memorable_rating,,49,,1,,,,,,
null,,confidence_buffer,228366,confidence_buffer,,null,,,,,,,,
null,,thebreak,228872,break,,null,,,,,,,,
3261.7000000029802,,familiar_rating,232136,familiar_rating,,49,Sammamish,1,,,,,,
null,,confidence_buffer,232248,confidence_buffer,,null,,,,,,,,
2050.1000000089407,,unique_rating,234300,unique_rating,,52,,4,,,,,,
null,,confidence_buffer,234420,confidence_buffer,,null,,,,,,,,
1113.199999988079,,memorable_rating,235535,memorable_rating,,49,,1,,,,,,
null,,confidence_buffer,235638,confidence_buffer,,null,,,,,,,,
null,,thebreak,236146,break,,null,,,,,,,,
4021.2999999970198,,familiar_rating,240169,familiar_rating,,49,Boulder,1,,,,,,
null,,confidence_buffer,240278,confidence_buffer,,null,,,,,,,,
1901.8999999910593,,unique_rating,242182,unique_rating,,51,,3,,,,,,
null,,confidence_buffer,242290,confidence_buffer,,null,,,,,,,,
1113,,memorable_rating,243405,memorable_rating,,49,,1,,,,,,
null,,confidence_buffer,243511,confidence_buffer,,null,,,,,,,,
null,,thebreak,244029,break,,null,,,,,,,,
2826.2000000029802,,familiar_rating,246857,familiar_rating,,49,Hawthorne Bluffs,1,,,,,,
null,,confidence_buffer,246968,confidence_buffer,,null,,,,,,,,
978.2999999970198,,unique_rating,247948,unique_rating,,50,,2,,,,,,
null,,confidence_buffer,248064,confidence_buffer,,null,,,,,,,,
1955.5999999940395,,memorable_rating,250022,memorable_rating,,49,,1,,,,,,
null,,confidence_buffer,250139,confidence_buffer,,null,,,,,,,,
null,,thebreak,250656,break,,null,,,,,,,,
3935.5999999940395,,familiar_rating,254595,familiar_rating,,49,Barnard,1,,,,,,
null,,confidence_buffer,254706,confidence_buffer,,null,,,,,,,,
1981.3999999910593,,unique_rating,256690,unique_rating,,49,,1,,,,,,
null,,confidence_buffer,256791,confidence_buffer,,null,,,,,,,,
887.5,,memorable_rating,257681,memorable_rating,,49,,1,,,,,,
null,,confidence_buffer,257789,confidence_buffer,,null,,,,,,,,
null,,thebreak,258299,break,,null,,,,,,,,
3121,,familiar_rating,261422,familiar_rating,,51,Folly Beach,3,,,,,,
null,,confidence_buffer,261528,confidence_buffer,,null,,,,,,,,
3130.2999999970198,,unique_rating,264660,unique_rating,,53,,5,,,,,,
null,,confidence_buffer,264769,confidence_buffer,,null,,,,,,,,
1759.7000000029802,,memorable_rating,266532,memorable_rating,,50,,2,,,,,,
null,,confidence_buffer,266648,confidence_buffer,,null,,,,,,,,
null,,thebreak,267154,break,,null,,,,,,,,
1742.5,,familiar_rating,268899,familiar_rating,,49,Driftwood Bay,1,,,,,,
null,,confidence_buffer,269008,confidence_buffer,,null,,,,,,,,
1102.5999999940395,,unique_rating,270113,unique_rating,,52,,4,,,,,,
null,,confidence_buffer,270219,confidence_buffer,,null,,,,,,,,
2815.9000000059605,,memorable_rating,273038,memorable_rating,,50,,2,,,,,,
null,,confidence_buffer,273148,confidence_buffer,,null,,,,,,,,
null,,thebreak,273653,break,,null,,,,,,,,
4452.5,,familiar_rating,278108,familiar_rating,,49,Berkeley Springs,1,,,,,,
null,,confidence_buffer,278219,confidence_buffer,,null,,,,,,,,
786.4000000059605,,unique_rating,279008,unique_rating,,51,,3,,,,,,
null,,confidence_buffer,279112,confidence_buffer,,null,,,,,,,,
2525.7000000029802,,memorable_rating,281639,memorable_rating,,49,,1,,,,,,
null,,confidence_buffer,281755,confidence_buffer,,null,,,,,,,,
null,,thebreak,282272,break,,null,,,,,,,,
3847,,familiar_rating,286121,familiar_rating,,49,Claywater,1,,,,,,
null,,confidence_buffer,286235,confidence_buffer,,null,,,,,,,,
2485.4000000059605,,unique_rating,288722,unique_rating,,52,,4,,,,,,
null,,confidence_buffer,288831,confidence_buffer,,null,,,,,,,,
5161.0999999940395,,memorable_rating,293994,memorable_rating,,49,,1,,,,,,
null,,confidence_buffer,294108,confidence_buffer,,null,,,,,,,,
null,,thebreak,294617,break,,null,,,,,,,,
4868.100000008941,,familiar_rating,299487,familiar_rating,,49,San Antonio,1,,,,,,
null,,confidence_buffer,299598,confidence_buffer,,null,,,,,,,,
2345.9000000059605,,unique_rating,301946,unique_rating,,52,,4,,,,,,
null,,confidence_buffer,302057,confidence_buffer,,null,,,,,,,,
1253.7000000029802,,memorable_rating,303313,memorable_rating,,49,,1,,,,,,
null,,confidence_buffer,303416,confidence_buffer,,null,,,,,,,,
null,,thebreak,303932,break,,null,,,,,,,,
4508.20000000298,,familiar_rating,308443,familiar_rating,,49,Clearbrook,1,,,,,,
null,,confidence_buffer,308550,confidence_buffer,,null,,,,,,,,
2411.3999999910593,,unique_rating,310963,unique_rating,,51,,3,,,,,,
null,,confidence_buffer,311074,confidence_buffer,,null,,,,,,,,
666.7000000029802,,memorable_rating,311743,memorable_rating,,49,,1,,,,,,
null,,confidence_buffer,311849,confidence_buffer,,null,,,,,,,,
null,,thebreak,312366,break,,null,,,,,,,,
2613.4000000059605,,familiar_rating,314982,familiar_rating,,49,Healdsburg,1,,,,,,
null,,confidence_buffer,315093,confidence_buffer,,null,,,,,,,,
4478.79999999702,,probe_rating,319575,probe_rating,,49,,,1,1,,,,
null,,confidence_buffer,319684,confidence_buffer,,null,,,,,,,,
6115.800000011921,,unique_rating,325802,unique_rating,,51,,3,,,,,,
null,,confidence_buffer,325906,confidence_buffer,,null,,,,,,,,
540.2999999970198,,memorable_rating,326449,memorable_rating,,49,,1,,,,,,
null,,confidence_buffer,326558,confidence_buffer,,null,,,,,,,,
null,,thebreak,327072,break,,null,,,,,,,,
4121.20000000298,,familiar_rating,331196,familiar_rating,,51,Lake of the Ozarks,3,,,,,,
null,,confidence_buffer,331307,confidence_buffer,,null,,,,,,,,
4239.70000000298,,unique_rating,335548,unique_rating,,52,,4,,,,,,
null,,confidence_buffer,335654,confidence_buffer,,null,,,,,,,,
1935.5999999940395,,memorable_rating,337592,memorable_rating,,50,,2,,,,,,
null,,confidence_buffer,337708,confidence_buffer,,null,,,,,,,,
null,,thebreak,338218,break,,null,,,,,,,,
1943.199999988079,,familiar_rating,340163,familiar_rating,,49,Solara Glen,1,,,,,,
null,,confidence_buffer,340268,confidence_buffer,,null,,,,,,,,
1339.8999999910593,,unique_rating,341610,unique_rating,,51,,3,,,,,,
null,,confidence_buffer,341714,confidence_buffer,,null,,,,,,,,
1179.5,,memorable_rating,342896,memorable_rating,,49,,1,,,,,,
null,,confidence_buffer,343001,confidence_buffer,,null,,,,,,,,
null,,thebreak,343510,break,,null,,,,,,,,
3543.2999999970198,,familiar_rating,347055,familiar_rating,,49,Hot Springs,1,,,,,,
null,,confidence_buffer,347158,confidence_buffer,,null,,,,,,,,
2677.7000000029802,,unique_rating,349838,unique_rating,,50,,2,,,,,,
null,,confidence_buffer,349955,confidence_buffer,,null,,,,,,,,
1177.7000000029802,,memorable_rating,351134,memorable_rating,,49,,1,,,,,,
null,,confidence_buffer,351240,confidence_buffer,,null,,,,,,,,
null,,thebreak,351744,break,,null,,,,,,,,
2089.8999999910593,,familiar_rating,353837,familiar_rating,,49,Shreveport,1,,,,,,
null,,confidence_buffer,353951,confidence_buffer,,null,,,,,,,,
1271.2999999970198,,unique_rating,355224,unique_rating,,52,,4,,,,,,
null,,confidence_buffer,355329,confidence_buffer,,null,,,,,,,,
569.9000000059605,,memorable_rating,355901,memorable_rating,,49,,1,,,,,,
null,,confidence_buffer,356018,confidence_buffer,,null,,,,,,,,
3424.0999999940395,,probe_rating,359444,probe_rating,,51,,,3,1,,,,
null,,confidence_buffer,359551,confidence_buffer,,null,,,,,,,,
null,,thebreak,360053,break,,null,,,,,,,,
2902.199999988079,,familiar_rating,362957,familiar_rating,,49,Redgrove,1,,,,,,
null,,confidence_buffer,363076,confidence_buffer,,null,,,,,,,,
3159.2000000029802,,unique_rating,366238,unique_rating,,53,,5,,,,,,
null,,confidence_buffer,366351,confidence_buffer,,null,,,,,,,,
3083.1000000089407,,memorable_rating,369437,memorable_rating,,49,,1,,,,,,
null,,confidence_buffer,369539,confidence_buffer,,null,,,,,,,,
null,,thebreak,370049,break,,null,,,,,,,,
4892.5999999940395,,familiar_rating,374944,familiar_rating,,49,Watkins Glen,1,,,,,,
null,,confidence_buffer,375049,confidence_buffer,,null,,,,,,,,
987.5999999940395,,unique_rating,376039,unique_rating,,51,,3,,,,,,
null,,confidence_buffer,376148,confidence_buffer,,null,,,,,,,,
3168.7000000029802,,memorable_rating,379319,memorable_rating,,49,,1,,,,,,
null,,confidence_buffer,379430,confidence_buffer,,null,,,,,,,,
null,,thebreak,379949,break,,null,,,,,,,,
5106.79999999702,,familiar_rating,385058,familiar_rating,,52,Lakehaven,4,,,,,,
null,,confidence_buffer,385168,confidence_buffer,,null,,,,,,,,
2275.4000000059605,,unique_rating,387445,unique_rating,,53,,5,,,,,,
null,,confidence_buffer,387558,confidence_buffer,,null,,,,,,,,
3718.8999999910593,,probe_rating,391279,probe_rating,,49,,,1,1,,,,
null,,confidence_buffer,391383,confidence_buffer,,null,,,,,,,,
3448.2999999970198,,memorable_rating,394833,memorable_rating,,51,,3,,,,,,
null,,confidence_buffer,394935,confidence_buffer,,null,,,,,,,,
null,,thebreak,395443,break,,null,,,,,,,,
7748.29999999702,,intro_0,403193,instruct,,32,,,,,,,,
7648.79999999702,,intro_1,410843,instruct,,32,,,,,,,,
8450.90000000596,,intro_2,419295,instruct,,32,,,,,,,,
null,,instruct_dir_4,420804,instruct,,null,,,,,,,,
12769.699999988079,,realistic_rating,433576,realistic_rating,,52,Hollendale,4,,,,,,
null,,confidence_buffer,433679,confidence_buffer,,null,,,,,,,,
6392.399999991059,,pt2_unique_rating,440073,pt2_unique_rating,,51,,3,,,,,,
null,,confidence_buffer,440178,confidence_buffer,,null,,,,,,,,
1796.3999999910593,,pt2_memorable_rating,441976,pt2_memorable_rating,,50,,2,,,,,,
null,,confidence_buffer,442086,confidence_buffer,,null,,,,,,,,
3957.1000000089407,,recognition_phase,446045,recognition_phase,,50,,,,,new,1,1,
null,,confidence_buffer,446157,confidence_buffer,,null,,,,,,,,
4349.199999988079,,confidence,450508,confidence,,52,,,,,,,,4
null,,confidence_buffer,450613,confidence_buffer,,null,,,,,,,,
null,,thebreak,451116,break,,null,,,,,,,,
2890.0999999940395,,realistic_rating,454009,realistic_rating,,49,Granton Ridge,1,,,,,,
null,,confidence_buffer,454117,confidence_buffer,,null,,,,,,,,
3350.9000000059605,,pt2_unique_rating,457470,pt2_unique_rating,,51,,3,,,,,,
null,,confidence_buffer,457574,confidence_buffer,,null,,,,,,,,
2423.8999999910593,,probe_rating,460001,probe_rating,,50,,,2,1,,,,
null,,confidence_buffer,460109,confidence_buffer,,null,,,,,,,,
3844.300000011921,,pt2_memorable_rating,463955,pt2_memorable_rating,,49,,1,,,,,,
null,,confidence_buffer,464069,confidence_buffer,,null,,,,,,,,
2486.5999999940395,,recognition_phase,466557,recognition_phase,,50,,,,,new,1,1,
null,,confidence_buffer,466664,confidence_buffer,,null,,,,,,,,
1492,,confidence,468159,confidence,,52,,,,,,,,4
null,,confidence_buffer,468268,confidence_buffer,,null,,,,,,,,
null,,thebreak,468781,break,,null,,,,,,,,
3413.4000000059605,,realistic_rating,472196,realistic_rating,,49,Gloucester,1,,,,,,
null,,confidence_buffer,472300,confidence_buffer,,null,,,,,,,,
3394.3999999910593,,pt2_unique_rating,475697,pt2_unique_rating,,52,,4,,,,,,
null,,confidence_buffer,475801,confidence_buffer,,null,,,,,,,,
1521.1000000089407,,pt2_memorable_rating,477326,pt2_memorable_rating,,49,,1,,,,,,
null,,confidence_buffer,477442,confidence_buffer,,null,,,,,,,,
1642.3999999910593,,recognition_phase,479086,recognition_phase,,50,,,,,new,1,1,
null,,confidence_buffer,479197,confidence_buffer,,null,,,,,,,,
1345.9000000059605,,confidence,480545,confidence,,52,,,,,,,,4
null,,confidence_buffer,480652,confidence_buffer,,null,,,,,,,,
null,,thebreak,481163,break,,null,,,,,,,,
8773.40000000596,,realistic_rating,489938,realistic_rating,,49,Coeur d'Alene,1,,,,,,
null,,confidence_buffer,490049,confidence_buffer,,null,,,,,,,,
1536.7000000029802,,pt2_unique_rating,491588,pt2_unique_rating,,51,,3,,,,,,
null,,confidence_buffer,491699,confidence_buffer,,null,,,,,,,,
2712.2000000029802,,pt2_memorable_rating,494414,pt2_memorable_rating,,49,,1,,,,,,
null,,confidence_buffer,494524,confidence_buffer,,null,,,,,,,,
5825.20000000298,,probe_rating,500352,probe_rating,,52,,,4,1,,,,
null,,confidence_buffer,500458,confidence_buffer,,null,,,,,,,,
2462.800000011921,,recognition_phase,502923,recognition_phase,,49,,,,,old,1,1,
null,,confidence_buffer,503038,confidence_buffer,,null,,,,,,,,
1472.2000000029802,,confidence,504513,confidence,,52,,,,,,,,4
null,,confidence_buffer,504623,confidence_buffer,,null,,,,,,,,
null,,thebreak,505126,break,,null,,,,,,,,
4138.9000000059605,,realistic_rating,509267,realistic_rating,,49,Berkeley Springs,1,,,,,,
null,,confidence_buffer,509378,confidence_buffer,,null,,,,,,,,
1579.0999999940395,,pt2_unique_rating,510959,pt2_unique_rating,,51,,3,,,,,,
null,,confidence_buffer,511064,confidence_buffer,,null,,,,,,,,
701.0999999940395,,pt2_memorable_rating,511768,pt2_memorable_rating,,49,,1,,,,,,
null,,confidence_buffer,511882,confidence_buffer,,null,,,,,,,,
2394.699999988079,,recognition_phase,514278,recognition_phase,,50,,,,,new,0,0.8,
null,,confidence_buffer,514382,confidence_buffer,,null,,,,,,,,
2049.800000011921,,confidence,516434,confidence,,51,,,,,,,,3
null,,confidence_buffer,516539,confidence_buffer,,null,,,,,,,,
null,,thebreak,517055,break,,null,,,,,,,,
2291.4000000059605,,realistic_rating,519348,realistic_rating,,49,Abilene,1,,,,,,
null,,confidence_buffer,519456,confidence_buffer,,null,,,,,,,,
881.7999999970198,,pt2_unique_rating,520340,pt2_unique_rating,,52,,4,,,,,,
null,,confidence_buffer,520448,confidence_buffer,,null,,,,,,,,
639.5,,pt2_memorable_rating,521089,pt2_memorable_rating,,49,,1,,,,,,
null,,confidence_buffer,521198,confidence_buffer,,null,,,,,,,,
2255.7000000029802,,recognition_phase,523456,recognition_phase,,50,,,,,new,1,0.8333333333333334,
null,,confidence_buffer,523558,confidence_buffer,,null,,,,,,,,
1242.1000000089407,,confidence,524803,confidence,,52,,,,,,,,4
null,,confidence_buffer,524912,confidence_buffer,,null,,,,,,,,
null,,thebreak,525413,break,,null,,,,,,,,
2888.7000000029802,,realistic_rating,528304,realistic_rating,,49,Gatlinburg,1,,,,,,
null,,confidence_buffer,528421,confidence_buffer,,null,,,,,,,,
2232,,pt2_unique_rating,530655,pt2_unique_rating,,50,,2,,,,,,
null,,confidence_buffer,530760,confidence_buffer,,null,,,,,,,,
3252.7999999970198,,pt2_memorable_rating,534015,pt2_memorable_rating,,49,,1,,,,,,
null,,confidence_buffer,534124,confidence_buffer,,null,,,,,,,,
2317.0999999940395,,recognition_phase,536443,recognition_phase,,50,,,,,new,1,0.8571428571428571,
null,,confidence_buffer,536553,confidence_buffer,,null,,,,,,,,
1021.5999999940395,,confidence,537576,confidence,,52,,,,,,,,4
null,,confidence_buffer,537686,confidence_buffer,,null,,,,,,,,
null,,thebreak,538201,break,,null,,,,,,,,
3795.5999999940395,,realistic_rating,541999,realistic_rating,,49,Claywater,1,,,,,,
null,,confidence_buffer,542109,confidence_buffer,,null,,,,,,,,
1364.7000000029802,,pt2_unique_rating,543476,pt2_unique_rating,,50,,2,,,,,,
null,,confidence_buffer,543590,confidence_buffer,,null,,,,,,,,
956.5,,pt2_memorable_rating,544549,pt2_memorable_rating,,49,,1,,,,,,
null,,confidence_buffer,544663,confidence_buffer,,null,,,,,,,,
1826.7999999970198,,recognition_phase,546492,recognition_phase,,50,,,,,new,0,0.75,
null,,confidence_buffer,546598,confidence_buffer,,null,,,,,,,,
1189.5,,confidence,547790,confidence,,51,,,,,,,,3
null,,confidence_buffer,547895,confidence_buffer,,null,,,,,,,,
null,,thebreak,548413,break,,null,,,,,,,,
4841.4000000059605,,realistic_rating,553257,realistic_rating,,49,San Antonio,1,,,,,,
null,,confidence_buffer,553361,confidence_buffer,,null,,,,,,,,
1260,,pt2_unique_rating,554623,pt2_unique_rating,,51,,3,,,,,,
null,,confidence_buffer,554742,confidence_buffer,,null,,,,,,,,
2127.5,,pt2_memorable_rating,556871,pt2_memorable_rating,,49,,1,,,,,,
null,,confidence_buffer,556984,confidence_buffer,,null,,,,,,,,
8153.899999991059,,recognition_phase,565140,recognition_phase,,49,,,,,old,1,0.7777777777777778,
null,,confidence_buffer,565249,confidence_buffer,,null,,,,,,,,
1397.5,,confidence,566648,confidence,,52,,,,,,,,4
null,,confidence_buffer,566760,confidence_buffer,,null,,,,,,,,
null,,thebreak,567270,break,,null,,,,,,,,
1622.7999999970198,,realistic_rating,568895,realistic_rating,,49,Northbridge,1,,,,,,
null,,confidence_buffer,569008,confidence_buffer,,null,,,,,,,,
351,,pt2_unique_rating,569361,pt2_unique_rating,,50,,2,,,,,,
null,,confidence_buffer,569471,confidence_buffer,,null,,,,,,,,
3469.7000000029802,,pt2_memorable_rating,572944,pt2_memorable_rating,,49,,1,,,,,,
null,,confidence_buffer,573053,confidence_buffer,,null,,,,,,,,
3258.9000000059605,,recognition_phase,576315,recognition_phase,,50,,,,,new,1,0.8,
null,,confidence_buffer,576419,confidence_buffer,,null,,,,,,,,
1370.5999999940395,,confidence,577792,confidence,,52,,,,,,,,4
null,,confidence_buffer,577897,confidence_buffer,,null,,,,,,,,
null,,thebreak,578407,break,,null,,,,,,,,
2935.2999999970198,,realistic_rating,581345,realistic_rating,,49,Lake of the Ozarks,1,,,,,,
null,,confidence_buffer,581449,confidence_buffer,,null,,,,,,,,
4632.0999999940395,,pt2_unique_rating,586084,pt2_unique_rating,,52,,4,,,,,,
null,,confidence_buffer,586188,confidence_buffer,,null,,,,,,,,
1614.7000000029802,,pt2_memorable_rating,587805,pt2_memorable_rating,,49,,1,,,,,,
null,,confidence_buffer,587908,confidence_buffer,,null,,,,,,,,
2818.2999999970198,,recognition_phase,590728,recognition_phase,,49,,,,,old,1,0.8181818181818182,
null,,confidence_buffer,590833,confidence_buffer,,null,,,,,,,,
985.9000000059605,,confidence,591821,confidence,,52,,,,,,,,4
null,,confidence_buffer,591924,confidence_buffer,,null,,,,,,,,
null,,thebreak,592432,break,,null,,,,,,,,
2051.1000000089407,,realistic_rating,594486,realistic_rating,,49,Hawthorne Bluffs,1,,,,,,
null,,confidence_buffer,594591,confidence_buffer,,null,,,,,,,,
1601.5,,pt2_unique_rating,596195,pt2_unique_rating,,50,,2,,,,,,
null,,confidence_buffer,596312,confidence_buffer,,null,,,,,,,,
832.3000000119209,,pt2_memorable_rating,597146,pt2_memorable_rating,,49,,1,,,,,,
null,,confidence_buffer,597249,confidence_buffer,,null,,,,,,,,
1608.4000000059605,,recognition_phase,598859,recognition_phase,,50,,,,,new,0,0.75,
null,,confidence_buffer,598968,confidence_buffer,,null,,,,,,,,
1247.2000000029802,,confidence,600217,confidence,,52,,,,,,,,4
null,,confidence_buffer,600327,confidence_buffer,,null,,,,,,,,
null,,thebreak,600841,break,,null,,,,,,,,
6912.100000008941,,realistic_rating,607756,realistic_rating,,49,Redgrove,1,,,,,,
null,,confidence_buffer,607864,confidence_buffer,,null,,,,,,,,
6375.70000000298,,pt2_unique_rating,614242,pt2_unique_rating,,51,,3,,,,,,
null,,confidence_buffer,614353,confidence_buffer,,null,,,,,,,,
2500.2000000029802,,probe_rating,616855,probe_rating,,52,,,4,1,,,,
null,,confidence_buffer,616967,confidence_buffer,,null,,,,,,,,
3934.9000000059605,,pt2_memorable_rating,620904,pt2_memorable_rating,,49,,1,,,,,,
null,,confidence_buffer,621008,confidence_buffer,,null,,,,,,,,
3901.5,,recognition_phase,624911,recognition_phase,,49,,,,,old,1,0.7692307692307693,
null,,confidence_buffer,625017,confidence_buffer,,null,,,,,,,,
1248.800000011921,,confidence,626268,confidence,,52,,,,,,,,4
null,,confidence_buffer,626371,confidence_buffer,,null,,,,,,,,
null,,thebreak,626879,break,,null,,,,,,,,
1510.7000000029802,,realistic_rating,628392,realistic_rating,,49,Shreveport,1,,,,,,
null,,confidence_buffer,628502,confidence_buffer,,null,,,,,,,,
1953.2999999970198,,pt2_unique_rating,630458,pt2_unique_rating,,50,,2,,,,,,
null,,confidence_buffer,630575,confidence_buffer,,null,,,,,,,,
1894.0999999940395,,pt2_memorable_rating,632471,pt2_memorable_rating,,49,,1,,,,,,
null,,confidence_buffer,632579,confidence_buffer,,null,,,,,,,,
2016.2000000029802,,recognition_phase,634597,recognition_phase,,50,,,,,new,0,0.7142857142857143,
null,,confidence_buffer,634714,confidence_buffer,,null,,,,,,,,
2404,,confidence,637120,confidence,,52,,,,,,,,4
null,,confidence_buffer,637224,confidence_buffer,,null,,,,,,,,
null,,thebreak,637730,break,,null,,,,,,,,
1422.8999999910593,,realistic_rating,639154,realistic_rating,,49,Yukon,1,,,,,,
null,,confidence_buffer,639273,confidence_buffer,,null,,,,,,,,
769.6999999880791,,pt2_unique_rating,640045,pt2_unique_rating,,50,,2,,,,,,
null,,confidence_buffer,640158,confidence_buffer,,null,,,,,,,,
4470.4000000059605,,pt2_memorable_rating,644630,pt2_memorable_rating,,49,,1,,,,,,
null,,confidence_buffer,644741,confidence_buffer,,null,,,,,,,,
10745.90000000596,,recognition_phase,655490,recognition_phase,,50,,,,,new,1,0.7333333333333333,
null,,confidence_buffer,655598,confidence_buffer,,null,,,,,,,,
3856.5,,confidence,659457,confidence,,52,,,,,,,,4
null,,confidence_buffer,659560,confidence_buffer,,null,,,,,,,,
null,,thebreak,660068,break,,null,,,,,,,,
4668.5,,realistic_rating,664739,realistic_rating,,49,Lakehaven,1,,,,,,
null,,confidence_buffer,664857,confidence_buffer,,null,,,,,,,,
1651.5999999940395,,pt2_unique_rating,666511,pt2_unique_rating,,51,,3,,,,,,
null,,confidence_buffer,666620,confidence_buffer,,null,,,,,,,,
1934.699999988079,,pt2_memorable_rating,668556,pt2_memorable_rating,,49,,1,,,,,,
null,,confidence_buffer,668674,confidence_buffer,,null,,,,,,,,
1693,,recognition_phase,670369,recognition_phase,,49,,,,,old,1,0.75,
null,,confidence_buffer,670478,confidence_buffer,,null,,,,,,,,
2326.7999999970198,,confidence,672807,confidence,,52,,,,,,,,4
null,,confidence_buffer,672910,confidence_buffer,,null,,,,,,,,
null,,thebreak,673413,break,,null,,,,,,,,
2417.7999999970198,,realistic_rating,675833,realistic_rating,,49,Crestwood,1,,,,,,
null,,confidence_buffer,675940,confidence_buffer,,null,,,,,,,,
832.0999999940395,,pt2_unique_rating,676774,pt2_unique_rating,,51,,3,,,,,,
null,,confidence_buffer,676889,confidence_buffer,,null,,,,,,,,
844.2000000029802,,pt2_memorable_rating,677735,pt2_memorable_rating,,49,,1,,,,,,
null,,confidence_buffer,677851,confidence_buffer,,null,,,,,,,,
2707.199999988079,,recognition_phase,680560,recognition_phase,,50,,,,,new,1,0.7647058823529411,
null,,confidence_buffer,680664,confidence_buffer,,null,,,,,,,,
1533.300000011921,,confidence,682200,confidence,,52,,,,,,,,4
null,,confidence_buffer,682306,confidence_buffer,,null,,,,,,,,
null,,thebreak,682815,break,,null,,,,,,,,
1700.5999999940395,,realistic_rating,684517,realistic_rating,,49,Healdsburg,1,,,,,,
null,,confidence_buffer,684632,confidence_buffer,,null,,,,,,,,
621.7999999970198,,pt2_unique_rating,685257,pt2_unique_rating,,50,,2,,,,,,
null,,confidence_buffer,685365,confidence_buffer,,null,,,,,,,,
992,,pt2_memorable_rating,686359,pt2_memorable_rating,,49,,1,,,,,,
null,,confidence_buffer,686478,confidence_buffer,,null,,,,,,,,
1894.9000000059605,,recognition_phase,688375,recognition_phase,,50,,,,,new,0,0.7222222222222222,
null,,confidence_buffer,688488,confidence_buffer,,null,,,,,,,,
896.2999999970198,,confidence,689386,confidence,,51,,,,,,,,3
null,,confidence_buffer,689491,confidence_buffer,,null,,,,,,,,
null,,thebreak,689998,break,,null,,,,,,,,
2858.3999999910593,,realistic_rating,692858,realistic_rating,,49,Fairhaven,1,,,,,,
null,,confidence_buffer,692974,confidence_buffer,,null,,,,,,,,
1055.2999999970198,,pt2_unique_rating,694032,pt2_unique_rating,,50,,2,,,,,,
null,,confidence_buffer,694135,confidence_buffer,,null,,,,,,,,
1817,,pt2_memorable_rating,695954,pt2_memorable_rating,,49,,1,,,,,,
null,,confidence_buffer,696071,confidence_buffer,,null,,,,,,,,
5347.9000000059605,,recognition_phase,701422,recognition_phase,,50,,,,,new,0,0.6842105263157895,
null,,confidence_buffer,701529,confidence_buffer,,null,,,,,,,,
2075.8999999910593,,confidence,703607,confidence,,50,,,,,,,,2
null,,confidence_buffer,703720,confidence_buffer,,null,,,,,,,,
null,,thebreak,704224,break,,null,,,,,,,,
6890.79999999702,,realistic_rating,711117,realistic_rating,,49,Hot Springs,1,,,,,,
null,,confidence_buffer,711232,confidence_buffer,,null,,,,,,,,
511.79999999701977,,pt2_unique_rating,711746,pt2_unique_rating,,51,,3,,,,,,
null,,confidence_buffer,711853,confidence_buffer,,null,,,,,,,,
841.1000000089407,,pt2_memorable_rating,712696,pt2_memorable_rating,,50,,2,,,,,,
null,,confidence_buffer,712803,confidence_buffer,,null,,,,,,,,
5870.800000011921,,recognition_phase,718676,recognition_phase,,50,,,,,new,0,0.65,
null,,confidence_buffer,718786,confidence_buffer,,null,,,,,,,,
2650.7000000029802,,confidence,721438,confidence,,51,,,,,,,,3
null,,confidence_buffer,721549,confidence_buffer,,null,,,,,,,,
null,,thebreak,722053,break,,null,,,,,,,,
1377.5999999940395,,realistic_rating,723433,realistic_rating,,49,Sierra Hollow,1,,,,,,
null,,confidence_buffer,723544,confidence_buffer,,null,,,,,,,,
715.7000000029802,,pt2_unique_rating,724262,pt2_unique_rating,,51,,3,,,,,,
null,,confidence_buffer,724366,confidence_buffer,,null,,,,,,,,
552.2000000029802,,pt2_memorable_rating,724921,pt2_memorable_rating,,49,,1,,,,,,
null,,confidence_buffer,725032,confidence_buffer,,null,,,,,,,,
2010.2000000029802,,recognition_phase,727045,recognition_phase,,50,,,,,new,0,0.6190476190476191,
null,,confidence_buffer,727150,confidence_buffer,,null,,,,,,,,
3527.6000000089407,,confidence,730679,confidence,,52,,,,,,,,4
null,,confidence_buffer,730788,confidence_buffer,,null,,,,,,,,
null,,thebreak,731306,break,,null,,,,,,,,
2761.3999999910593,,realistic_rating,734070,realistic_rating,,49,West Palm Beach,1,,,,,,
null,,confidence_buffer,734178,confidence_buffer,,null,,,,,,,,
779.2999999970198,,pt2_unique_rating,734960,pt2_unique_rating,,51,,3,,,,,,
null,,confidence_buffer,735067,confidence_buffer,,null,,,,,,,,
588.6999999880791,,pt2_memorable_rating,735658,pt2_memorable_rating,,49,,1,,,,,,
null,,confidence_buffer,735772,confidence_buffer,,null,,,,,,,,
1696,,recognition_phase,737470,recognition_phase,,50,,,,,new,1,0.6363636363636364,
null,,confidence_buffer,737578,confidence_buffer,,null,,,,,,,,
1408.1000000089407,,confidence,738987,confidence,,52,,,,,,,,4
null,,confidence_buffer,739090,confidence_buffer,,null,,,,,,,,
null,,thebreak,739600,break,,null,,,,,,,,
2451,,realistic_rating,742053,realistic_rating,,49,Sitka,1,,,,,,
null,,confidence_buffer,742163,confidence_buffer,,null,,,,,,,,
1362.7000000029802,,pt2_unique_rating,743529,pt2_unique_rating,,52,,4,,,,,,
null,,confidence_buffer,743639,confidence_buffer,,null,,,,,,,,
312.09999999403954,,probe_rating,743953,probe_rating,,49,,,1,1,,,,
null,,confidence_buffer,744058,confidence_buffer,,null,,,,,,,,
4356.5,,pt2_memorable_rating,748416,pt2_memorable_rating,,49,,1,,,,,,
null,,confidence_buffer,748528,confidence_buffer,,null,,,,,,,,
5866.600000008941,,recognition_phase,754397,recognition_phase,,50,,,,,new,1,0.6521739130434783,
null,,confidence_buffer,754513,confidence_buffer,,null,,,,,,,,
4556.20000000298,,confidence,759071,confidence,,49,,,,,,,,1
null,,confidence_buffer,759179,confidence_buffer,,null,,,,,,,,
null,,thebreak,759685,break,,null,,,,,,,,
3421.1000000089407,,realistic_rating,763108,realistic_rating,,49,Ironwood Heights,1,,,,,,
null,,confidence_buffer,763222,confidence_buffer,,null,,,,,,,,
1655.1000000089407,,pt2_unique_rating,764879,pt2_unique_rating,,52,,4,,,,,,
null,,confidence_buffer,764984,confidence_buffer,,null,,,,,,,,
1865.2000000029802,,pt2_memorable_rating,766851,pt2_memorable_rating,,49,,1,,,,,,
null,,confidence_buffer,766959,confidence_buffer,,null,,,,,,,,
1620.8999999910593,,recognition_phase,768582,recognition_phase,,50,,,,,new,0,0.625,
null,,confidence_buffer,768688,confidence_buffer,,null,,,,,,,,
2626.6000000089407,,confidence,771317,confidence,,52,,,,,,,,4
null,,confidence_buffer,771428,confidence_buffer,,null,,,,,,,,
null,,thebreak,771938,break,,null,,,,,,,,
2320.7000000029802,,realistic_rating,774261,realistic_rating,,49,Solara Glen,1,,,,,,
null,,confidence_buffer,774376,confidence_buffer,,null,,,,,,,,
966,,pt2_unique_rating,775344,pt2_unique_rating,,51,,3,,,,,,
null,,confidence_buffer,775457,confidence_buffer,,null,,,,,,,,
967.7000000029802,,pt2_memorable_rating,776426,pt2_memorable_rating,,49,,1,,,,,,
null,,confidence_buffer,776537,confidence_buffer,,null,,,,,,,,
4603,,recognition_phase,781141,recognition_phase,,50,,,,,new,0,0.6,
null,,confidence_buffer,781247,confidence_buffer,,null,,,,,,,,
1510,,confidence,782760,confidence,,50,,,,,,,,2
null,,confidence_buffer,782867,confidence_buffer,,null,,,,,,,,
null,,thebreak,783375,break,,null,,,,,,,,
7031.5,,realistic_rating,790409,realistic_rating,,50,Cornwall,2,,,,,,
null,,confidence_buffer,790518,confidence_buffer,,null,,,,,,,,
828.8999999910593,,pt2_unique_rating,791349,pt2_unique_rating,,51,,3,,,,,,
null,,confidence_buffer,791463,confidence_buffer,,null,,,,,,,,
2010.7999999970198,,pt2_memorable_rating,793475,pt2_memorable_rating,,49,,1,,,,,,
null,,confidence_buffer,793588,confidence_buffer,,null,,,,,,,,
1736.5,,recognition_phase,795326,recognition_phase,,50,,,,,new,1,0.6153846153846154,
null,,confidence_buffer,795445,confidence_buffer,,null,,,,,,,,
1772.300000011921,,confidence,797219,confidence,,52,,,,,,,,4
null,,confidence_buffer,797324,confidence_buffer,,null,,,,,,,,
null,,thebreak,797833,break,,null,,,,,,,,
3543.7999999970198,,realistic_rating,801379,realistic_rating,,50,Oakridge,2,,,,,,
null,,confidence_buffer,801490,confidence_buffer,,null,,,,,,,,
5138,,pt2_unique_rating,806630,pt2_unique_rating,,51,,3,,,,,,
null,,confidence_buffer,806734,confidence_buffer,,null,,,,,,,,
1431.7999999970198,,pt2_memorable_rating,808167,pt2_memorable_rating,,49,,1,,,,,,
null,,confidence_buffer,808278,confidence_buffer,,null,,,,,,,,
4480.70000000298,,recognition_phase,812761,recognition_phase,,50,,,,,new,1,0.6296296296296297,
null,,confidence_buffer,812864,confidence_buffer,,null,,,,,,,,
1382.5,,confidence,814249,confidence,,52,,,,,,,,4
null,,confidence_buffer,814356,confidence_buffer,,null,,,,,,,,
null,,thebreak,814861,break,,null,,,,,,,,
4183.5,,realistic_rating,819046,realistic_rating,,53,Newport,5,,,,,,
null,,confidence_buffer,819155,confidence_buffer,,null,,,,,,,,
7600.70000000298,,pt2_unique_rating,826759,pt2_unique_rating,,51,,3,,,,,,
null,,confidence_buffer,826873,confidence_buffer,,null,,,,,,,,
1634.0999999940395,,pt2_memorable_rating,828509,pt2_memorable_rating,,49,,1,,,,,,
null,,confidence_buffer,828616,confidence_buffer,,null,,,,,,,,
1713,,recognition_phase,830331,recognition_phase,,50,,,,,new,1,0.6428571428571429,
null,,confidence_buffer,830439,confidence_buffer,,null,,,,,,,,
2035.4000000059605,,confidence,832476,confidence,,52,,,,,,,,4
null,,confidence_buffer,832579,confidence_buffer,,null,,,,,,,,
null,,thebreak,833081,break,,null,,,,,,,,
3672,,realistic_rating,836755,realistic_rating,,49,Pine Hollow,1,,,,,,
null,,confidence_buffer,836864,confidence_buffer,,null,,,,,,,,
1275.300000011921,,pt2_unique_rating,838141,pt2_unique_rating,,51,,3,,,,,,
null,,confidence_buffer,838254,confidence_buffer,,null,,,,,,,,
3060.5999999940395,,pt2_memorable_rating,841318,pt2_memorable_rating,,49,,1,,,,,,
null,,confidence_buffer,841428,confidence_buffer,,null,,,,,,,,
1418.2000000029802,,recognition_phase,842848,recognition_phase,,50,,,,,new,1,0.6551724137931034,
null,,confidence_buffer,842958,confidence_buffer,,null,,,,,,,,
2790.3999999910593,,confidence,845751,confidence,,52,,,,,,,,4
null,,confidence_buffer,845858,confidence_buffer,,null,,,,,,,,
null,,thebreak,846361,break,,null,,,,,,,,
3799.8999999910593,,realistic_rating,850163,realistic_rating,,50,Coralridge,2,,,,,,
null,,confidence_buffer,850268,confidence_buffer,,null,,,,,,,,
2171,,pt2_unique_rating,852441,pt2_unique_rating,,51,,3,,,,,,
null,,confidence_buffer,852553,confidence_buffer,,null,,,,,,,,
644.7000000029802,,pt2_memorable_rating,853200,pt2_memorable_rating,,49,,1,,,,,,
null,,confidence_buffer,853310,confidence_buffer,,null,,,,,,,,
1546.7999999970198,,recognition_phase,854859,recognition_phase,,50,,,,,new,1,0.6666666666666666,
null,,confidence_buffer,854968,confidence_buffer,,null,,,,,,,,
870.7000000029802,,confidence,855840,confidence,,52,,,,,,,,4
null,,confidence_buffer,855953,confidence_buffer,,null,,,,,,,,
null,,thebreak,856455,break,,null,,,,,,,,
1691.9000000059605,,realistic_rating,858149,realistic_rating,,49,West Talora,1,,,,,,
null,,confidence_buffer,858253,confidence_buffer,,null,,,,,,,,
1696,,pt2_unique_rating,859952,pt2_unique_rating,,51,,3,,,,,,
null,,confidence_buffer,860061,confidence_buffer,,null,,,,,,,,
4229.79999999702,,pt2_memorable_rating,864293,pt2_memorable_rating,,49,,1,,,,,,
null,,confidence_buffer,864403,confidence_buffer,,null,,,,,,,,
1376.1000000089407,,recognition_phase,865781,recognition_phase,,50,,,,,new,0,0.6451612903225806,
null,,confidence_buffer,865897,confidence_buffer,,null,,,,,,,,
1590.7999999970198,,confidence,867490,confidence,,52,,,,,,,,4
null,,confidence_buffer,867593,confidence_buffer,,null,,,,,,,,
null,,thebreak,868097,break,,null,,,,,,,,
3367.5999999940395,,realistic_rating,871467,realistic_rating,,50,Sammamish,2,,,,,,
null,,confidence_buffer,871582,confidence_buffer,,null,,,,,,,,
1703.9000000059605,,pt2_unique_rating,873288,pt2_unique_rating,,50,,2,,,,,,
null,,confidence_buffer,873398,confidence_buffer,,null,,,,,,,,
657.2000000029802,,pt2_memorable_rating,874057,pt2_memorable_rating,,49,,1,,,,,,
null,,confidence_buffer,874167,confidence_buffer,,null,,,,,,,,
2013.5999999940395,,recognition_phase,876182,recognition_phase,,50,,,,,new,0,0.625,
null,,confidence_buffer,876295,confidence_buffer,,null,,,,,,,,
2445.2999999970198,,confidence,878742,confidence,,52,,,,,,,,4
null,,confidence_buffer,878852,confidence_buffer,,null,,,,,,,,
null,,thebreak,879361,break,,null,,,,,,,,
2584.800000011921,,realistic_rating,881949,realistic_rating,,53,Livingston,5,,,,,,
null,,confidence_buffer,882058,confidence_buffer,,null,,,,,,,,
2043.7999999970198,,pt2_unique_rating,884104,pt2_unique_rating,,50,,2,,,,,,
null,,confidence_buffer,884214,confidence_buffer,,null,,,,,,,,
686.5999999940395,,pt2_memorable_rating,884904,pt2_memorable_rating,,49,,1,,,,,,
null,,confidence_buffer,885008,confidence_buffer,,null,,,,,,,,
1522.2999999970198,,recognition_phase,886532,recognition_phase,,50,,,,,new,1,0.6363636363636364,
null,,confidence_buffer,886650,confidence_buffer,,null,,,,,,,,
1246.199999988079,,confidence,887898,confidence,,52,,,,,,,,4
null,,confidence_buffer,888010,confidence_buffer,,null,,,,,,,,
null,,thebreak,888518,break,,null,,,,,,,,
2725.8999999910593,,realistic_rating,891246,realistic_rating,,49,Falconridge,1,,,,,,
null,,confidence_buffer,891358,confidence_buffer,,null,,,,,,,,
1130.5,,pt2_unique_rating,892491,pt2_unique_rating,,51,,3,,,,,,
null,,confidence_buffer,892601,confidence_buffer,,null,,,,,,,,
465.09999999403954,,pt2_memorable_rating,893068,pt2_memorable_rating,,49,,1,,,,,,
null,,confidence_buffer,893178,confidence_buffer,,null,,,,,,,,
1415,,recognition_phase,894595,recognition_phase,,50,,,,,new,1,0.6470588235294118,
null,,confidence_buffer,894711,confidence_buffer,,null,,,,,,,,
1946.6000000089407,,confidence,896659,confidence,,52,,,,,,,,4
null,,confidence_buffer,896766,confidence_buffer,,null,,,,,,,,
null,,thebreak,897275,break,,null,,,,,,,,
6606.79999999702,,realistic_rating,903884,realistic_rating,,51,Meadowspire,3,,,,,,
null,,confidence_buffer,903997,confidence_buffer,,null,,,,,,,,
1068.5999999940395,,pt2_unique_rating,905067,pt2_unique_rating,,50,,2,,,,,,
null,,confidence_buffer,905176,confidence_buffer,,null,,,,,,,,
800.4000000059605,,pt2_memorable_rating,905979,pt2_memorable_rating,,49,,1,,,,,,
null,,confidence_buffer,906090,confidence_buffer,,null,,,,,,,,
1859.4000000059605,,recognition_phase,907951,recognition_phase,,50,,,,,new,0,0.6285714285714286,
null,,confidence_buffer,908056,confidence_buffer,,null,,,,,,,,
2502.4000000059605,,confidence,910561,confidence,,51,,,,,,,,3
null,,confidence_buffer,910670,confidence_buffer,,null,,,,,,,,
null,,thebreak,911172,break,,null,,,,,,,,
2456.2999999970198,,realistic_rating,913630,realistic_rating,,51,Huntsville,3,,,,,,
null,,confidence_buffer,913750,confidence_buffer,,null,,,,,,,,
1880.7999999970198,,pt2_unique_rating,915633,pt2_unique_rating,,51,,3,,,,,,
null,,confidence_buffer,915741,confidence_buffer,,null,,,,,,,,
2215.5,,pt2_memorable_rating,917960,pt2_memorable_rating,,49,,1,,,,,,
null,,confidence_buffer,918065,confidence_buffer,,null,,,,,,,,
4478,,probe_rating,922546,probe_rating,,49,,,1,1,,,,
null,,confidence_buffer,922658,confidence_buffer,,null,,,,,,,,
4721.70000000298,,recognition_phase,927381,recognition_phase,,50,,,,,new,0,0.6111111111111112,
null,,confidence_buffer,927494,confidence_buffer,,null,,,,,,,,
1777.2999999970198,,confidence,929273,confidence,,52,,,,,,,,4
null,,confidence_buffer,929378,confidence_buffer,,null,,,,,,,,
null,,thebreak,929889,break,,null,,,,,,,,
4381.9000000059605,,realistic_rating,934273,realistic_rating,,49,Barnard,1,,,,,,
null,,confidence_buffer,934385,confidence_buffer,,null,,,,,,,,
1260,,pt2_unique_rating,935647,pt2_unique_rating,,50,,2,,,,,,
null,,confidence_buffer,935765,confidence_buffer,,null,,,,,,,,
1823.2000000029802,,pt2_memorable_rating,937591,pt2_memorable_rating,,49,,1,,,,,,
null,,confidence_buffer,937702,confidence_buffer,,null,,,,,,,,
1474.6000000089407,,recognition_phase,939179,recognition_phase,,49,,,,,old,1,0.6216216216216216,
null,,confidence_buffer,939284,confidence_buffer,,null,,,,,,,,
2484.7000000029802,,confidence,941770,confidence,,52,,,,,,,,4
null,,confidence_buffer,941879,confidence_buffer,,null,,,,,,,,
null,,thebreak,942393,break,,null,,,,,,,,
4383.899999991059,,realistic_rating,946779,realistic_rating,,49,Watkins Glen,1,,,,,,
null,,confidence_buffer,946884,confidence_buffer,,null,,,,,,,,
1480.7000000029802,,pt2_unique_rating,948367,pt2_unique_rating,,51,,3,,,,,,
null,,confidence_buffer,948483,confidence_buffer,,null,,,,,,,,
811.0999999940395,,pt2_memorable_rating,949296,pt2_memorable_rating,,49,,1,,,,,,
null,,confidence_buffer,949405,confidence_buffer,,null,,,,,,,,
1994.2999999970198,,recognition_phase,951402,recognition_phase,,50,,,,,new,0,0.6052631578947368,
null,,confidence_buffer,951512,confidence_buffer,,null,,,,,,,,
1212.699999988079,,confidence,952727,confidence,,50,,,,,,,,2
null,,confidence_buffer,952841,confidence_buffer,,null,,,,,,,,
null,,thebreak,953352,break,,null,,,,,,,,
3227.7999999970198,,realistic_rating,956582,realistic_rating,,51,Brookmere,3,,,,,,
null,,confidence_buffer,956688,confidence_buffer,,null,,,,,,,,
4860.79999999702,,probe_rating,961550,probe_rating,,49,,,1,1,,,,
null,,confidence_buffer,961660,confidence_buffer,,null,,,,,,,,
1972.2000000029802,,pt2_unique_rating,963634,pt2_unique_rating,,50,,2,,,,,,
null,,confidence_buffer,963739,confidence_buffer,,null,,,,,,,,
1854.7999999970198,,pt2_memorable_rating,965597,pt2_memorable_rating,,49,,1,,,,,,
null,,confidence_buffer,965701,confidence_buffer,,null,,,,,,,,
1290.0999999940395,,recognition_phase,966993,recognition_phase,,50,,,,,new,0,0.5897435897435898,
null,,confidence_buffer,967106,confidence_buffer,,null,,,,,,,,
1462.9000000059605,,confidence,968571,confidence,,51,,,,,,,,3
null,,confidence_buffer,968684,confidence_buffer,,null,,,,,,,,
null,,thebreak,969193,break,,null,,,,,,,,
2694,,realistic_rating,971890,realistic_rating,,53,Riverlyn,5,,,,,,
null,,confidence_buffer,972005,confidence_buffer,,null,,,,,,,,
1904.5999999940395,,pt2_unique_rating,973912,pt2_unique_rating,,52,,4,,,,,,
null,,confidence_buffer,974018,confidence_buffer,,null,,,,,,,,
661.6000000089407,,pt2_memorable_rating,974682,pt2_memorable_rating,,49,,1,,,,,,
null,,confidence_buffer,974799,confidence_buffer,,null,,,,,,,,
1672.1000000089407,,recognition_phase,976473,recognition_phase,,50,,,,,new,0,0.575,
null,,confidence_buffer,976588,confidence_buffer,,null,,,,,,,,
1936.4000000059605,,confidence,978527,confidence,,50,,,,,,,,2
null,,confidence_buffer,978638,confidence_buffer,,null,,,,,,,,
null,,thebreak,979145,break,,null,,,,,,,,
3276.5,,realistic_rating,982424,realistic_rating,,51,Folly Beach,3,,,,,,
null,,confidence_buffer,982528,confidence_buffer,,null,,,,,,,,
2786.5999999940395,,pt2_unique_rating,985317,pt2_unique_rating,,50,,2,,,,,,
null,,confidence_buffer,985433,confidence_buffer,,null,,,,,,,,
973.6000000089407,,pt2_memorable_rating,986409,pt2_memorable_rating,,49,,1,,,,,,
null,,confidence_buffer,986525,confidence_buffer,,null,,,,,,,,
7520.70000000298,,recognition_phase,994048,recognition_phase,,50,,,,,new,0,0.5609756097560976,
null,,confidence_buffer,994155,confidence_buffer,,null,,,,,,,,
1437.2999999970198,,confidence,995595,confidence,,52,,,,,,,,4
null,,confidence_buffer,995712,confidence_buffer,,null,,,,,,,,
null,,thebreak,996228,break,,null,,,,,,,,
4285.899999991059,,realistic_rating,1000516,realistic_rating,,49,Boulder,1,,,,,,
null,,confidence_buffer,1000620,confidence_buffer,,null,,,,,,,,
4175,,pt2_unique_rating,1004797,pt2_unique_rating,,51,,3,,,,,,
null,,confidence_buffer,1004902,confidence_buffer,,null,,,,,,,,
4476.70000000298,,pt2_memorable_rating,1009381,pt2_memorable_rating,,49,,1,,,,,,
null,,confidence_buffer,1009498,confidence_buffer,,null,,,,,,,,
5163.4000000059605,,recognition_phase,1014663,recognition_phase,,49,,,,,old,1,0.5714285714285714,
null,,confidence_buffer,1014770,confidence_buffer,,null,,,,,,,,
923.2000000029802,,confidence,1015695,confidence,,50,,,,,,,,2
null,,confidence_buffer,1015808,confidence_buffer,,null,,,,,,,,
null,,thebreak,1016318,break,,null,,,,,,,,
5781.29999999702,,realistic_rating,1022102,realistic_rating,,51,Westridge,3,,,,,,
null,,confidence_buffer,1022215,confidence_buffer,,null,,,,,,,,
936,,pt2_unique_rating,1023154,pt2_unique_rating,,49,,1,,,,,,
null,,confidence_buffer,1023271,confidence_buffer,,null,,,,,,,,
1763.5,,pt2_memorable_rating,1025036,pt2_memorable_rating,,49,,1,,,,,,
null,,confidence_buffer,1025142,confidence_buffer,,null,,,,,,,,
1926.2000000029802,,recognition_phase,1027070,recognition_phase,,50,,,,,new,1,0.5813953488372093,
null,,confidence_buffer,1027183,confidence_buffer,,null,,,,,,,,
1178.7999999970198,,confidence,1028365,confidence,,51,,,,,,,,3
null,,confidence_buffer,1028470,confidence_buffer,,null,,,,,,,,
null,,thebreak,1028975,break,,null,,,,,,,,
2323.3999999910593,,realistic_rating,1031301,realistic_rating,,49,Alliance,1,,,,,,
null,,confidence_buffer,1031410,confidence_buffer,,null,,,,,,,,
2630.699999988079,,pt2_unique_rating,1034043,pt2_unique_rating,,51,,3,,,,,,
null,,confidence_buffer,1034152,confidence_buffer,,null,,,,,,,,
1113.4000000059605,,pt2_memorable_rating,1035268,pt2_memorable_rating,,49,,1,,,,,,
null,,confidence_buffer,1035377,confidence_buffer,,null,,,,,,,,
1537.1000000089407,,recognition_phase,1036917,recognition_phase,,50,,,,,new,1,0.5909090909090909,
null,,confidence_buffer,1037024,confidence_buffer,,null,,,,,,,,
2088.4000000059605,,confidence,1039115,confidence,,52,,,,,,,,4
null,,confidence_buffer,1039226,confidence_buffer,,null,,,,,,,,
null,,thebreak,1039731,break,,null,,,,,,,,
5268.20000000298,,realistic_rating,1045002,realistic_rating,,51,Baymarsh,3,,,,,,
null,,confidence_buffer,1045112,confidence_buffer,,null,,,,,,,,
4441.4000000059605,,pt2_unique_rating,1049556,pt2_unique_rating,,50,,2,,,,,,
null,,confidence_buffer,1049661,confidence_buffer,,null,,,,,,,,
3786.300000011921,,probe_rating,1053452,probe_rating,,52,,,4,1,,,,
null,,confidence_buffer,1053563,confidence_buffer,,null,,,,,,,,
2313.5999999940395,,pt2_memorable_rating,1055880,pt2_memorable_rating,,49,,1,,,,,,
null,,confidence_buffer,1055996,confidence_buffer,,null,,,,,,,,
2167.7000000029802,,recognition_phase,1058165,recognition_phase,,49,,,,,old,1,0.6,
null,,confidence_buffer,1058279,confidence_buffer,,null,,,,,,,,
896.5,,confidence,1059178,confidence,,52,,,,,,,,4
null,,confidence_buffer,1059287,confidence_buffer,,null,,,,,,,,
null,,thebreak,1059790,break,,null,,,,,,,,
3423.8999999910593,,realistic_rating,1063217,realistic_rating,,50,Natchez,2,,,,,,
null,,confidence_buffer,1063325,confidence_buffer,,null,,,,,,,,
1164.5999999940395,,pt2_unique_rating,1064491,pt2_unique_rating,,50,,2,,,,,,
null,,confidence_buffer,1064599,confidence_buffer,,null,,,,,,,,
963.8000000119209,,pt2_memorable_rating,1065565,pt2_memorable_rating,,49,,1,,,,,,
null,,confidence_buffer,1065676,confidence_buffer,,null,,,,,,,,
2547.5,,recognition_phase,1068226,recognition_phase,,50,,,,,new,1,0.6086956521739131,
null,,confidence_buffer,1068334,confidence_buffer,,null,,,,,,,,
2339.2999999970198,,confidence,1070676,confidence,,52,,,,,,,,4
null,,confidence_buffer,1070790,confidence_buffer,,null,,,,,,,,
null,,thebreak,1071294,break,,null,,,,,,,,
6026.5,,realistic_rating,1077324,realistic_rating,,50,Highvale,2,,,,,,
null,,confidence_buffer,1077442,confidence_buffer,,null,,,,,,,,
1355.5,,pt2_unique_rating,1078800,pt2_unique_rating,,50,,2,,,,,,
null,,confidence_buffer,1078908,confidence_buffer,,null,,,,,,,,
1297.0999999940395,,pt2_memorable_rating,1080208,pt2_memorable_rating,,49,,1,,,,,,
null,,confidence_buffer,1080321,confidence_buffer,,null,,,,,,,,
1118.7999999970198,,recognition_phase,1081442,recognition_phase,,50,,,,,new,1,0.6170212765957447,
null,,confidence_buffer,1081545,confidence_buffer,,null,,,,,,,,
1161.7999999970198,,confidence,1082708,confidence,,52,,,,,,,,4
null,,confidence_buffer,1082824,confidence_buffer,,null,,,,,,,,
null,,thebreak,1083335,break,,null,,,,,,,,
5897.70000000298,,realistic_rating,1089236,realistic_rating,,52,Athens,4,,,,,,
null,,confidence_buffer,1089346,confidence_buffer,,null,,,,,,,,
2943.7999999970198,,probe_rating,1092292,probe_rating,,49,,,1,1,,,,
null,,confidence_buffer,1092405,confidence_buffer,,null,,,,,,,,
4133.4000000059605,,pt2_unique_rating,1096542,pt2_unique_rating,,51,,3,,,,,,
null,,confidence_buffer,1096655,confidence_buffer,,null,,,,,,,,
5138.70000000298,,pt2_memorable_rating,1101796,pt2_memorable_rating,,51,,3,,,,,,
null,,confidence_buffer,1101898,confidence_buffer,,null,,,,,,,,
2191.0999999940395,,recognition_phase,1104091,recognition_phase,,49,,,,,old,1,0.625,
null,,confidence_buffer,1104205,confidence_buffer,,null,,,,,,,,
1657.2000000029802,,confidence,1105864,confidence,,52,,,,,,,,4
null,,confidence_buffer,1105981,confidence_buffer,,null,,,,,,,,
null,,thebreak,1106487,break,,null,,,,,,,,
9758.5,,realistic_rating,1116248,realistic_rating,,52,Linden Trace,4,,,,,,
null,,confidence_buffer,1116351,confidence_buffer,,null,,,,,,,,
2301.2999999970198,,pt2_unique_rating,1118654,pt2_unique_rating,,50,,2,,,,,,
null,,confidence_buffer,1118762,confidence_buffer,,null,,,,,,,,
2844.199999988079,,pt2_memorable_rating,1121608,pt2_memorable_rating,,49,,1,,,,,,
null,,confidence_buffer,1121718,confidence_buffer,,null,,,,,,,,
2176.2999999970198,,recognition_phase,1123896,recognition_phase,,50,,,,,new,1,0.6326530612244898,
null,,confidence_buffer,1124007,confidence_buffer,,null,,,,,,,,
1263.7000000029802,,confidence,1125273,confidence,,52,,,,,,,,4
null,,confidence_buffer,1125388,confidence_buffer,,null,,,,,,,,
null,,thebreak,1125897,break,,null,,,,,,,,
3360.2999999970198,,realistic_rating,1129259,realistic_rating,,49,Hanover,1,,,,,,
null,,confidence_buffer,1129371,confidence_buffer,,null,,,,,,,,
1789.199999988079,,pt2_unique_rating,1131163,pt2_unique_rating,,50,,2,,,,,,
null,,confidence_buffer,1131274,confidence_buffer,,null,,,,,,,,
2051.2000000029802,,probe_rating,1133328,probe_rating,,52,,,4,1,,,,
null,,confidence_buffer,1133437,confidence_buffer,,null,,,,,,,,
1660.5,,pt2_memorable_rating,1135099,pt2_memorable_rating,,49,,1,,,,,,
null,,confidence_buffer,1135202,confidence_buffer,,null,,,,,,,,
1291.5,,recognition_phase,1136496,recognition_phase,,50,,,,,new,1,0.64,
null,,confidence_buffer,1136614,confidence_buffer,,null,,,,,,,,
981.8999999910593,,confidence,1137598,confidence,,52,,,,,,,,4
null,,confidence_buffer,1137715,confidence_buffer,,null,,,,,,,,
null,,thebreak,1138231,break,,null,,,,,,,,
6367,,realistic_rating,1144601,realistic_rating,,49,Clearbrook,1,,,,,,
null,,confidence_buffer,1144708,confidence_buffer,,null,,,,,,,,
4889.0999999940395,,pt2_unique_rating,1149600,pt2_unique_rating,,50,,2,,,,,,
null,,confidence_buffer,1149705,confidence_buffer,,null,,,,,,,,
2967.800000011921,,pt2_memorable_rating,1152676,pt2_memorable_rating,,49,,1,,,,,,
null,,confidence_buffer,1152781,confidence_buffer,,null,,,,,,,,
1653.5999999940395,,recognition_phase,1154437,recognition_phase,,50,,,,,new,0,0.6274509803921569,
null,,confidence_buffer,1154553,confidence_buffer,,null,,,,,,,,
4484.5,,confidence,1159040,confidence,,52,,,,,,,,4
null,,confidence_buffer,1159150,confidence_buffer,,null,,,,,,,,
null,,thebreak,1159659,break,,null,,,,,,,,
3871.5999999940395,,realistic_rating,1163533,realistic_rating,,49,Driftwood Bay,1,,,,,,
null,,confidence_buffer,1163639,confidence_buffer,,null,,,,,,,,
2339.4000000059605,,probe_rating,1165981,probe_rating,,52,,,4,1,,,,
null,,confidence_buffer,1166088,confidence_buffer,,null,,,,,,,,
4687.79999999702,,pt2_unique_rating,1170778,pt2_unique_rating,,50,,2,,,,,,
null,,confidence_buffer,1170889,confidence_buffer,,null,,,,,,,,
1080.7000000029802,,pt2_memorable_rating,1171971,pt2_memorable_rating,,49,,1,,,,,,
null,,confidence_buffer,1172083,confidence_buffer,,null,,,,,,,,
1699.5,,recognition_phase,1173784,recognition_phase,,50,,,,,new,0,0.6153846153846154,
null,,confidence_buffer,1173889,confidence_buffer,,null,,,,,,,,
802.9000000059605,,confidence,1174694,confidence,,52,,,,,,,,4
null,,confidence_buffer,1174799,confidence_buffer,,null,,,,,,,,
null,,thebreak,1175308,break,,null,,,,,,,,
2137.4000000059605,,realistic_rating,1177447,realistic_rating,,49,Albuquerque,1,,,,,,
null,,confidence_buffer,1177555,confidence_buffer,,null,,,,,,,,
1347.4000000059605,,pt2_unique_rating,1178905,pt2_unique_rating,,50,,2,,,,,,
null,,confidence_buffer,1179008,confidence_buffer,,null,,,,,,,,
1503.2000000029802,,pt2_memorable_rating,1180513,pt2_memorable_rating,,49,,1,,,,,,
null,,confidence_buffer,1180617,confidence_buffer,,null,,,,,,,,
1707.4000000059605,,recognition_phase,1182327,recognition_phase,,50,,,,,new,1,0.6226415094339622,
null,,confidence_buffer,1182441,confidence_buffer,,null,,,,,,,,
743.1000000089407,,confidence,1183186,confidence,,52,,,,,,,,4
null,,confidence_buffer,1183302,confidence_buffer,,null,,,,,,,,
null,,thebreak,1183817,break,,null,,,,,,,,
5195,,realistic_rating,1189015,realistic_rating,,52,Golden Trace,4,,,,,,
null,,confidence_buffer,1189118,confidence_buffer,,null,,,,,,,,
2892.5999999940395,,pt2_unique_rating,1192013,pt2_unique_rating,,50,,2,,,,,,
null,,confidence_buffer,1192118,confidence_buffer,,null,,,,,,,,
1247.199999988079,,pt2_memorable_rating,1193368,pt2_memorable_rating,,49,,1,,,,,,
null,,confidence_buffer,1193478,confidence_buffer,,null,,,,,,,,
1952.2999999970198,,recognition_phase,1195432,recognition_phase,,50,,,,,new,1,0.6296296296296297,
null,,confidence_buffer,1195538,confidence_buffer,,null,,,,,,,,
1593.300000011921,,confidence,1197133,confidence,,52,,,,,,,,4
null,,confidence_buffer,1197245,confidence_buffer,,null,,,,,,,,
null,,thebreak,1197758,break,,null,,,,,,,,
5090.79999999702,,realistic_rating,1202851,realistic_rating,,52,Delaro Park,4,,,,,,
null,,confidence_buffer,1202957,confidence_buffer,,null,,,,,,,,
1510.2999999970198,,pt2_unique_rating,1204469,pt2_unique_rating,,50,,2,,,,,,
null,,confidence_buffer,1204580,confidence_buffer,,null,,,,,,,,
918.7000000029802,,pt2_memorable_rating,1205501,pt2_memorable_rating,,49,,1,,,,,,
null,,confidence_buffer,1205615,confidence_buffer,,null,,,,,,,,
1232,,recognition_phase,1206849,recognition_phase,,50,,,,,new,1,0.6363636363636364,
null,,confidence_buffer,1206965,confidence_buffer,,null,,,,,,,,
1035.2000000029802,,confidence,1208002,confidence,,52,,,,,,,,4
null,,confidence_buffer,1208113,confidence_buffer,,null,,,,,,,,
null,,thebreak,1208617,break,,null,,,,,,,,
1589,,realistic_rating,1210210,realistic_rating,,49,Elmsbury,1,,,,,,
null,,confidence_buffer,1210321,confidence_buffer,,null,,,,,,,,
3529.2000000029802,,pt2_unique_rating,1213852,pt2_unique_rating,,49,,1,,,,,,
null,,confidence_buffer,1213957,confidence_buffer,,null,,,,,,,,
2322.0999999940395,,pt2_memorable_rating,1216282,pt2_memorable_rating,,49,,1,,,,,,
null,,confidence_buffer,1216388,confidence_buffer,,null,,,,,,,,
1298.300000011921,,recognition_phase,1217689,recognition_phase,,50,,,,,new,1,0.6428571428571429,
null,,confidence_buffer,1217797,confidence_buffer,,null,,,,,,,,
1598.8999999910593,,confidence,1219398,confidence,,52,,,,,,,,4
null,,confidence_buffer,1219515,confidence_buffer,,null,,,,,,,,
null,,thebreak,1220029,break,,null,,,,,,,,
3840.2999999970198,,realistic_rating,1223871,realistic_rating,,53,Millstone,5,,,,,,
null,,confidence_buffer,1223974,confidence_buffer,,null,,,,,,,,
3042.4000000059605,,pt2_unique_rating,1227019,pt2_unique_rating,,52,,4,,,,,,
null,,confidence_buffer,1227127,confidence_buffer,,null,,,,,,,,
1225.7999999970198,,pt2_memorable_rating,1228354,pt2_memorable_rating,,49,,1,,,,,,
null,,confidence_buffer,1228472,confidence_buffer,,null,,,,,,,,
3889.5999999940395,,recognition_phase,1232363,recognition_phase,,50,,,,,new,1,0.6491228070175439,
null,,confidence_buffer,1232476,confidence_buffer,,null,,,,,,,,
1077.699999988079,,confidence,1233556,confidence,,52,,,,,,,,4
null,,confidence_buffer,1233659,confidence_buffer,,null,,,,,,,,
null,,thebreak,1234162,break,,null,,,,,,,,
2558.0999999940395,,realistic_rating,1236723,realistic_rating,,52,Cape May,4,,,,,,
null,,confidence_buffer,1236827,confidence_buffer,,null,,,,,,,,
2769,,pt2_unique_rating,1239598,pt2_unique_rating,,50,,2,,,,,,
null,,confidence_buffer,1239709,confidence_buffer,,null,,,,,,,,
1485.5999999940395,,pt2_memorable_rating,1241198,pt2_memorable_rating,,49,,1,,,,,,
null,,confidence_buffer,1241308,confidence_buffer,,null,,,,,,,,
1496.1000000089407,,recognition_phase,1242806,recognition_phase,,50,,,,,new,1,0.6551724137931034,
null,,confidence_buffer,1242918,confidence_buffer,,null,,,,,,,,
1587.5,,confidence,1244508,confidence,,51,,,,,,,,3
null,,confidence_buffer,1244615,confidence_buffer,,null,,,,,,,,
null,,thebreak,1245122,break,,null,,,,,,,,
7487.600000008941,,realistic_rating,1252612,realistic_rating,,49,Medora,1,,,,,,
null,,confidence_buffer,1252718,confidence_buffer,,null,,,,,,,,
1318.1000000089407,,pt2_unique_rating,1254038,pt2_unique_rating,,51,,3,,,,,,
null,,confidence_buffer,1254148,confidence_buffer,,null,,,,,,,,
1466.5999999940395,,pt2_memorable_rating,1255617,pt2_memorable_rating,,49,,1,,,,,,
null,,confidence_buffer,1255726,confidence_buffer,,null,,,,,,,,
1305.800000011921,,recognition_phase,1257034,recognition_phase,,50,,,,,new,0,0.6440677966101694,
null,,confidence_buffer,1257140,confidence_buffer,,null,,,,,,,,
1267.7000000029802,,confidence,1258409,confidence,,52,,,,,,,,4
null,,confidence_buffer,1258522,confidence_buffer,,null,,,,,,,,
null,,thebreak,1259040,break,,null,,,,,,,,
6308.899999991059,,realistic_rating,1265352,realistic_rating,,51,Bisbee,3,,,,,,
null,,confidence_buffer,1265463,confidence_buffer,,null,,,,,,,,
4338.399999991059,,pt2_unique_rating,1269804,pt2_unique_rating,,52,,4,,,,,,
null,,confidence_buffer,1269912,confidence_buffer,,null,,,,,,,,
5768.9000000059605,,pt2_memorable_rating,1275683,pt2_memorable_rating,,49,,1,,,,,,
null,,confidence_buffer,1275795,confidence_buffer,,null,,,,,,,,
2161.0999999940395,,recognition_phase,1277958,recognition_phase,,50,,,,,new,1,0.65,
null,,confidence_buffer,1278061,confidence_buffer,,null,,,,,,,,
2709.3999999910593,,confidence,1280773,confidence,,52,,,,,,,,4
null,,confidence_buffer,1280885,confidence_buffer,,null,,,,,,,,
null,,thebreak,1281391,break,,null,,,,,,,,
