rt,responses,trial_type,time_elapsed,stimulus,button_pressed,key_press,name_trial,city_type,rating,probe,probe_accuracy,response,correct,accuracy,problems,smooth,distraction,strategies,familiar,memorable,unique,realistic,similar,comments,detectfocus,warning
64573,{worker_id:67933ba0111c16dc7ed9fc0a},id_enter,64595,,,,,,,,,,,,,,,,,,,,,,,
277412.3000000715,,fullscreen,342040,fullscreen,0,,,,,,,,,,,,,,,,,,,,,
13062.899999976158,,intro_0,355153,instruct,,32,,,,,,,,,,,,,,,,,,,,
20923.600000023842,,intro_1,376082,instruct,,32,,,,,,,,,,,,,,,,,,,,
17152.5,,intro_2,393235,instruct,,32,,,,,,,,,,,,,,,,,,,,
null,,instruct_dir_4,394739,instruct,,null,,,,,,,,,,,,,,,,,,,,
null,,thebreak,395242,break,,null,,,,,,,,,,,,,,,,,,,,
6084.5,,familiar_rating,401331,Fictional_Cities_List/img_natural_20.png,,52,Fictional_Cities_List/img_natural_20.png,NAT,4,,,,,,,,,,,,,,,,,
null,,confidence_buffer,401435,confidence_buffer,,null,,,,,,,,,,,,,,,,,,,,
6796.899999976158,,unique_rating,408235,Fictional_Cities_List/img_natural_20.png,,52,,,4,,,,,,,,,,,,,,,,,
null,,confidence_buffer,408337,confidence_buffer,,null,,,,,,,,,,,,,,,,,,,,
6003.100000023842,,memorable_rating,414343,Fictional_Cities_List/img_natural_20.png,,53,,,5,,,,,,,,,,,,,,,,,
null,,confidence_buffer,414445,confidence_buffer,,null,,,,,,,,,,,,,,,,,,,,
null,,thebreak,414947,break,,null,,,,,,,,,,,,,,,,,,,,
4167.800000071526,,familiar_rating,419118,Fictional_Cities_List/img_natural_33.png,,52,Fictional_Cities_List/img_natural_33.png,NAT,4,,,,,,,,,,,,,,,,,
null,,confidence_buffer,419223,confidence_buffer,,null,,,,,,,,,,,,,,,,,,,,
2021.2000000476837,,unique_rating,421247,Fictional_Cities_List/img_natural_33.png,,52,,,4,,,,,,,,,,,,,,,,,
null,,confidence_buffer,421350,confidence_buffer,,null,,,,,,,,,,,,,,,,,,,,
1140.5999999046326,,memorable_rating,422493,Fictional_Cities_List/img_natural_33.png,,52,,,4,,,,,,,,,,,,,,,,,
null,,confidence_buffer,422597,confidence_buffer,,null,,,,,,,,,,,,,,,,,,,,
null,,thebreak,423099,break,,null,,,,,,,,,,,,,,,,,,,,
15403.600000023842,,familiar_rating,438505,US_Cities_List/nat_cleveland.png,,53,US_Cities_List/nat_cleveland.png,NAT,5,,,,,,,,,,,,,,,,,
null,,confidence_buffer,438653,confidence_buffer,,null,,,,,,,,,,,,,,,,,,,,
1440.8000000715256,,unique_rating,440096,US_Cities_List/nat_cleveland.png,,53,,,5,,,,,,,,,,,,,,,,,
null,,confidence_buffer,440200,confidence_buffer,,null,,,,,,,,,,,,,,,,,,,,
1327.4000000953674,,memorable_rating,441530,US_Cities_List/nat_cleveland.png,,53,,,5,,,,,,,,,,,,,,,,,
null,,confidence_buffer,441632,confidence_buffer,,null,,,,,,,,,,,,,,,,,,,,
null,,thebreak,442134,break,,null,,,,,,,,,,,,,,,,,,,,
2382.5,,familiar_rating,444519,US_Cities_List/nat_cornwall.png,,53,US_Cities_List/nat_cornwall.png,NAT,5,,,,,,,,,,,,,,,,,
null,,confidence_buffer,444621,confidence_buffer,,null,,,,,,,,,,,,,,,,,,,,
652.2999999523163,,unique_rating,445276,US_Cities_List/nat_cornwall.png,,53,,,5,,,,,,,,,,,,,,,,,
null,,confidence_buffer,445379,confidence_buffer,,null,,,,,,,,,,,,,,,,,,,,
483.5,,memorable_rating,445865,US_Cities_List/nat_cornwall.png,,53,,,5,,,,,,,,,,,,,,,,,
null,,confidence_buffer,445969,confidence_buffer,,null,,,,,,,,,,,,,,,,,,,,
null,,thebreak,446471,break,,null,,,,,,,,,,,,,,,,,,,,
4296.400000095367,,familiar_rating,450770,US_Cities_List/nat_healdsburg.png,,53,US_Cities_List/nat_healdsburg.png,NAT,5,,,,,,,,,,,,,,,,,
null,,confidence_buffer,450872,confidence_buffer,,null,,,,,,,,,,,,,,,,,,,,
2347.7999999523163,,unique_rating,453222,US_Cities_List/nat_healdsburg.png,,52,,,4,,,,,,,,,,,,,,,,,
null,,confidence_buffer,453325,confidence_buffer,,null,,,,,,,,,,,,,,,,,,,,
3579.100000023842,,memorable_rating,456906,US_Cities_List/nat_healdsburg.png,,51,,,3,,,,,,,,,,,,,,,,,
null,,confidence_buffer,457007,confidence_buffer,,null,,,,,,,,,,,,,,,,,,,,
null,,thebreak,457509,break,,null,,,,,,,,,,,,,,,,,,,,
9345.200000047684,,familiar_rating,466856,US_Cities_List/nat_delawarecity.png,,49,US_Cities_List/nat_delawarecity.png,NAT,1,,,,,,,,,,,,,,,,,
null,,confidence_buffer,466959,confidence_buffer,,null,,,,,,,,,,,,,,,,,,,,
4885.299999952316,,unique_rating,471846,US_Cities_List/nat_delawarecity.png,,51,,,3,,,,,,,,,,,,,,,,,
null,,confidence_buffer,471950,confidence_buffer,,null,,,,,,,,,,,,,,,,,,,,
5015,,memorable_rating,476967,US_Cities_List/nat_delawarecity.png,,52,,,4,,,,,,,,,,,,,,,,,
null,,confidence_buffer,477071,confidence_buffer,,null,,,,,,,,,,,,,,,,,,,,
null,,thebreak,477572,break,,null,,,,,,,,,,,,,,,,,,,,
4796,,familiar_rating,482370,US_Cities_List/nat_yukon.png,,50,US_Cities_List/nat_yukon.png,NAT,2,,,,,,,,,,,,,,,,,
null,,confidence_buffer,482473,confidence_buffer,,null,,,,,,,,,,,,,,,,,,,,
2120.5,,unique_rating,484596,US_Cities_List/nat_yukon.png,,53,,,5,,,,,,,,,,,,,,,,,
null,,confidence_buffer,484700,confidence_buffer,,null,,,,,,,,,,,,,,,,,,,,
1280.7000000476837,,memorable_rating,485983,US_Cities_List/nat_yukon.png,,53,,,5,,,,,,,,,,,,,,,,,
null,,confidence_buffer,486086,confidence_buffer,,null,,,,,,,,,,,,,,,,,,,,
5579.300000071526,,probe_rating,491667,probe_rating,,52,,,,4,1,,,,,,,,,,,,,,,
null,,confidence_buffer,491770,confidence_buffer,,null,,,,,,,,,,,,,,,,,,,,
null,,thebreak,492272,break,,null,,,,,,,,,,,,,,,,,,,,
11521.200000047684,,familiar_rating,503795,Fictional_Cities_List/img_natural_36.png,,50,Fictional_Cities_List/img_natural_36.png,NAT,2,,,,,,,,,,,,,,,,,
null,,confidence_buffer,503899,confidence_buffer,,null,,,,,,,,,,,,,,,,,,,,
7057.300000071526,,unique_rating,510958,Fictional_Cities_List/img_natural_36.png,,52,,,4,,,,,,,,,,,,,,,,,
null,,confidence_buffer,511061,confidence_buffer,,null,,,,,,,,,,,,,,,,,,,,
1592.1000000238419,,memorable_rating,512655,Fictional_Cities_List/img_natural_36.png,,52,,,4,,,,,,,,,,,,,,,,,
null,,confidence_buffer,512758,confidence_buffer,,null,,,,,,,,,,,,,,,,,,,,
null,,thebreak,513260,break,,null,,,,,,,,,,,,,,,,,,,,
3502.0999999046326,,familiar_rating,516763,Fictional_Cities_List/img_manmade_42.png,,49,Fictional_Cities_List/img_manmade_42.png,MM,1,,,,,,,,,,,,,,,,,
null,,confidence_buffer,516866,confidence_buffer,,null,,,,,,,,,,,,,,,,,,,,
5212.600000023842,,unique_rating,522080,Fictional_Cities_List/img_manmade_42.png,,52,,,4,,,,,,,,,,,,,,,,,
null,,confidence_buffer,522183,confidence_buffer,,null,,,,,,,,,,,,,,,,,,,,
1710.5,,memorable_rating,523895,Fictional_Cities_List/img_manmade_42.png,,52,,,4,,,,,,,,,,,,,,,,,
null,,confidence_buffer,523999,confidence_buffer,,null,,,,,,,,,,,,,,,,,,,,
null,,thebreak,524501,break,,null,,,,,,,,,,,,,,,,,,,,
5154.700000047684,,familiar_rating,529659,US_Cities_List/mm_gardnerville.png,,49,US_Cities_List/mm_gardnerville.png,MM,1,,,,,,,,,,,,,,,,,
null,,confidence_buffer,529760,confidence_buffer,,null,,,,,,,,,,,,,,,,,,,,
6547.5,,unique_rating,536310,US_Cities_List/mm_gardnerville.png,,51,,,3,,,,,,,,,,,,,,,,,
null,,confidence_buffer,536412,confidence_buffer,,null,,,,,,,,,,,,,,,,,,,,
2201.899999976158,,memorable_rating,538616,US_Cities_List/mm_gardnerville.png,,52,,,4,,,,,,,,,,,,,,,,,
null,,confidence_buffer,538717,confidence_buffer,,null,,,,,,,,,,,,,,,,,,,,
null,,thebreak,539219,break,,null,,,,,,,,,,,,,,,,,,,,
3412.5,,familiar_rating,542633,US_Cities_List/nat_bowlinggreen.png,,49,US_Cities_List/nat_bowlinggreen.png,NAT,1,,,,,,,,,,,,,,,,,
null,,confidence_buffer,542736,confidence_buffer,,null,,,,,,,,,,,,,,,,,,,,
5348.799999952316,,unique_rating,548087,US_Cities_List/nat_bowlinggreen.png,,49,,,1,,,,,,,,,,,,,,,,,
null,,confidence_buffer,548189,confidence_buffer,,null,,,,,,,,,,,,,,,,,,,,
3112.7000000476837,,memorable_rating,551305,US_Cities_List/nat_bowlinggreen.png,,49,,,1,,,,,,,,,,,,,,,,,
null,,confidence_buffer,551409,confidence_buffer,,null,,,,,,,,,,,,,,,,,,,,
null,,thebreak,551911,break,,null,,,,,,,,,,,,,,,,,,,,
3563.8000000715256,,familiar_rating,555477,US_Cities_List/mm_athens.png,,50,US_Cities_List/mm_athens.png,MM,2,,,,,,,,,,,,,,,,,
null,,confidence_buffer,555580,confidence_buffer,,null,,,,,,,,,,,,,,,,,,,,
4541,,unique_rating,560123,US_Cities_List/mm_athens.png,,53,,,5,,,,,,,,,,,,,,,,,
null,,confidence_buffer,560226,confidence_buffer,,null,,,,,,,,,,,,,,,,,,,,
1026.5,,memorable_rating,561255,US_Cities_List/mm_athens.png,,53,,,5,,,,,,,,,,,,,,,,,
null,,confidence_buffer,561356,confidence_buffer,,null,,,,,,,,,,,,,,,,,,,,
null,,thebreak,561860,break,,null,,,,,,,,,,,,,,,,,,,,
3609.6999999284744,,familiar_rating,565472,Fictional_Cities_List/img_manmade_44.png,,51,Fictional_Cities_List/img_manmade_44.png,MM,3,,,,,,,,,,,,,,,,,
null,,confidence_buffer,565575,confidence_buffer,,null,,,,,,,,,,,,,,,,,,,,
2846.5,,unique_rating,568424,Fictional_Cities_List/img_manmade_44.png,,52,,,4,,,,,,,,,,,,,,,,,
null,,confidence_buffer,568529,confidence_buffer,,null,,,,,,,,,,,,,,,,,,,,
4506.900000095367,,probe_rating,573038,probe_rating,,51,,,,3,1,,,,,,,,,,,,,,,
null,,confidence_buffer,573140,confidence_buffer,,null,,,,,,,,,,,,,,,,,,,,
2663.5,,memorable_rating,575805,Fictional_Cities_List/img_manmade_44.png,,53,,,5,,,,,,,,,,,,,,,,,
null,,confidence_buffer,575907,confidence_buffer,,null,,,,,,,,,,,,,,,,,,,,
null,,thebreak,576410,break,,null,,,,,,,,,,,,,,,,,,,,
6417.800000071526,,familiar_rating,582830,Fictional_Cities_List/img_manmade_33.png,,50,Fictional_Cities_List/img_manmade_33.png,MM,2,,,,,,,,,,,,,,,,,
null,,confidence_buffer,582933,confidence_buffer,,null,,,,,,,,,,,,,,,,,,,,
2329.4000000953674,,unique_rating,585265,Fictional_Cities_List/img_manmade_33.png,,51,,,3,,,,,,,,,,,,,,,,,
null,,confidence_buffer,585368,confidence_buffer,,null,,,,,,,,,,,,,,,,,,,,
1791.8999999761581,,memorable_rating,587161,Fictional_Cities_List/img_manmade_33.png,,51,,,3,,,,,,,,,,,,,,,,,
null,,confidence_buffer,587265,confidence_buffer,,null,,,,,,,,,,,,,,,,,,,,
null,,thebreak,587769,break,,null,,,,,,,,,,,,,,,,,,,,
2997.6999999284744,,familiar_rating,590769,US_Cities_List/mm_okoboji.png,,50,US_Cities_List/mm_okoboji.png,MM,2,,,,,,,,,,,,,,,,,
null,,confidence_buffer,590872,confidence_buffer,,null,,,,,,,,,,,,,,,,,,,,
4780.5,,probe_rating,595654,probe_rating,,52,,,,4,1,,,,,,,,,,,,,,,
null,,confidence_buffer,595758,confidence_buffer,,null,,,,,,,,,,,,,,,,,,,,
7164.399999976158,,unique_rating,602924,US_Cities_List/mm_okoboji.png,,52,,,4,,,,,,,,,,,,,,,,,
null,,confidence_buffer,603027,confidence_buffer,,null,,,,,,,,,,,,,,,,,,,,
1689.2000000476837,,memorable_rating,604718,US_Cities_List/mm_okoboji.png,,52,,,4,,,,,,,,,,,,,,,,,
null,,confidence_buffer,604821,confidence_buffer,,null,,,,,,,,,,,,,,,,,,,,
null,,thebreak,605323,break,,null,,,,,,,,,,,,,,,,,,,,
7487,,familiar_rating,612812,Fictional_Cities_List/img_natural_04.png,,50,Fictional_Cities_List/img_natural_04.png,NAT,2,,,,,,,,,,,,,,,,,
null,,confidence_buffer,612915,confidence_buffer,,null,,,,,,,,,,,,,,,,,,,,
4695.799999952316,,unique_rating,617613,Fictional_Cities_List/img_natural_04.png,,52,,,4,,,,,,,,,,,,,,,,,
null,,confidence_buffer,617715,confidence_buffer,,null,,,,,,,,,,,,,,,,,,,,
1033.8999999761581,,memorable_rating,618752,Fictional_Cities_List/img_natural_04.png,,52,,,4,,,,,,,,,,,,,,,,,
null,,confidence_buffer,618855,confidence_buffer,,null,,,,,,,,,,,,,,,,,,,,
null,,thebreak,619357,break,,null,,,,,,,,,,,,,,,,,,,,
5199.100000023842,,familiar_rating,624559,Fictional_Cities_List/img_natural_44.png,,50,Fictional_Cities_List/img_natural_44.png,NAT,2,,,,,,,,,,,,,,,,,
null,,confidence_buffer,624662,confidence_buffer,,null,,,,,,,,,,,,,,,,,,,,
6431.899999976158,,unique_rating,631096,Fictional_Cities_List/img_natural_44.png,,52,,,4,,,,,,,,,,,,,,,,,
null,,confidence_buffer,631200,confidence_buffer,,null,,,,,,,,,,,,,,,,,,,,
981.8999999761581,,memorable_rating,632184,Fictional_Cities_List/img_natural_44.png,,52,,,4,,,,,,,,,,,,,,,,,
null,,confidence_buffer,632286,confidence_buffer,,null,,,,,,,,,,,,,,,,,,,,
null,,thebreak,632788,break,,null,,,,,,,,,,,,,,,,,,,,
5939.399999976158,,familiar_rating,638729,US_Cities_List/mm_newhope.png,,51,US_Cities_List/mm_newhope.png,MM,3,,,,,,,,,,,,,,,,,
null,,confidence_buffer,638832,confidence_buffer,,null,,,,,,,,,,,,,,,,,,,,
2255.899999976158,,unique_rating,641089,US_Cities_List/mm_newhope.png,,52,,,4,,,,,,,,,,,,,,,,,
null,,confidence_buffer,641192,confidence_buffer,,null,,,,,,,,,,,,,,,,,,,,
1105.1000000238419,,memorable_rating,642299,US_Cities_List/mm_newhope.png,,53,,,5,,,,,,,,,,,,,,,,,
null,,confidence_buffer,642402,confidence_buffer,,null,,,,,,,,,,,,,,,,,,,,
null,,thebreak,642904,break,,null,,,,,,,,,,,,,,,,,,,,
3876,,familiar_rating,646782,Fictional_Cities_List/img_manmade_47.png,,51,Fictional_Cities_List/img_manmade_47.png,MM,3,,,,,,,,,,,,,,,,,
null,,confidence_buffer,646886,confidence_buffer,,null,,,,,,,,,,,,,,,,,,,,
1774.8999999761581,,unique_rating,648663,Fictional_Cities_List/img_manmade_47.png,,52,,,4,,,,,,,,,,,,,,,,,
null,,confidence_buffer,648768,confidence_buffer,,null,,,,,,,,,,,,,,,,,,,,
1108,,memorable_rating,649879,Fictional_Cities_List/img_manmade_47.png,,53,,,5,,,,,,,,,,,,,,,,,
null,,confidence_buffer,649982,confidence_buffer,,null,,,,,,,,,,,,,,,,,,,,
null,,thebreak,650484,break,,null,,,,,,,,,,,,,,,,,,,,
3139.2000000476837,,familiar_rating,653625,Fictional_Cities_List/img_manmade_12.png,,50,Fictional_Cities_List/img_manmade_12.png,MM,2,,,,,,,,,,,,,,,,,
null,,confidence_buffer,653729,confidence_buffer,,null,,,,,,,,,,,,,,,,,,,,
2281.7999999523163,,unique_rating,656013,Fictional_Cities_List/img_manmade_12.png,,53,,,5,,,,,,,,,,,,,,,,,
null,,confidence_buffer,656116,confidence_buffer,,null,,,,,,,,,,,,,,,,,,,,
1257.2999999523163,,memorable_rating,657376,Fictional_Cities_List/img_manmade_12.png,,53,,,5,,,,,,,,,,,,,,,,,
null,,confidence_buffer,657479,confidence_buffer,,null,,,,,,,,,,,,,,,,,,,,
null,,thebreak,657982,break,,null,,,,,,,,,,,,,,,,,,,,
2858.5,,familiar_rating,660843,US_Cities_List/mm_albuquerque.png,,50,US_Cities_List/mm_albuquerque.png,MM,2,,,,,,,,,,,,,,,,,
null,,confidence_buffer,660946,confidence_buffer,,null,,,,,,,,,,,,,,,,,,,,
3034.399999976158,,probe_rating,663984,probe_rating,,49,,,,1,1,,,,,,,,,,,,,,,
null,,confidence_buffer,664087,confidence_buffer,,null,,,,,,,,,,,,,,,,,,,,
6242.5,,unique_rating,670332,US_Cities_List/mm_albuquerque.png,,52,,,4,,,,,,,,,,,,,,,,,
null,,confidence_buffer,670435,confidence_buffer,,null,,,,,,,,,,,,,,,,,,,,
1897.1000000238419,,memorable_rating,672334,US_Cities_List/mm_albuquerque.png,,53,,,5,,,,,,,,,,,,,,,,,
null,,confidence_buffer,672437,confidence_buffer,,null,,,,,,,,,,,,,,,,,,,,
null,,thebreak,672939,break,,null,,,,,,,,,,,,,,,,,,,,
7224.799999952316,,familiar_rating,680166,US_Cities_List/mm_boulder.png,,52,US_Cities_List/mm_boulder.png,MM,4,,,,,,,,,,,,,,,,,
null,,confidence_buffer,680270,confidence_buffer,,null,,,,,,,,,,,,,,,,,,,,
5946.200000047684,,unique_rating,686218,US_Cities_List/mm_boulder.png,,53,,,5,,,,,,,,,,,,,,,,,
null,,confidence_buffer,686320,confidence_buffer,,null,,,,,,,,,,,,,,,,,,,,
2081.7000000476837,,memorable_rating,688405,US_Cities_List/mm_boulder.png,,53,,,5,,,,,,,,,,,,,,,,,
null,,confidence_buffer,688508,confidence_buffer,,null,,,,,,,,,,,,,,,,,,,,
null,,thebreak,689009,break,,null,,,,,,,,,,,,,,,,,,,,
4463.100000023842,,familiar_rating,693475,Fictional_Cities_List/img_manmade_10.png,,52,Fictional_Cities_List/img_manmade_10.png,MM,4,,,,,,,,,,,,,,,,,
null,,confidence_buffer,693577,confidence_buffer,,null,,,,,,,,,,,,,,,,,,,,
2256.399999976158,,unique_rating,695835,Fictional_Cities_List/img_manmade_10.png,,53,,,5,,,,,,,,,,,,,,,,,
null,,confidence_buffer,695940,confidence_buffer,,null,,,,,,,,,,,,,,,,,,,,
1148.1000000238419,,memorable_rating,697090,Fictional_Cities_List/img_manmade_10.png,,53,,,5,,,,,,,,,,,,,,,,,
null,,confidence_buffer,697194,confidence_buffer,,null,,,,,,,,,,,,,,,,,,,,
null,,thebreak,697696,break,,null,,,,,,,,,,,,,,,,,,,,
3502.9000000953674,,familiar_rating,701202,US_Cities_List/mm_natchez.png,,52,US_Cities_List/mm_natchez.png,MM,4,,,,,,,,,,,,,,,,,
null,,confidence_buffer,701304,confidence_buffer,,null,,,,,,,,,,,,,,,,,,,,
1809.7000000476837,,unique_rating,703116,US_Cities_List/mm_natchez.png,,52,,,4,,,,,,,,,,,,,,,,,
null,,confidence_buffer,703218,confidence_buffer,,null,,,,,,,,,,,,,,,,,,,,
1738.5999999046326,,memorable_rating,704957,US_Cities_List/mm_natchez.png,,52,,,4,,,,,,,,,,,,,,,,,
null,,confidence_buffer,705061,confidence_buffer,,null,,,,,,,,,,,,,,,,,,,,
null,,thebreak,705563,break,,null,,,,,,,,,,,,,,,,,,,,
3746.4000000953674,,familiar_rating,709311,US_Cities_List/nat_athens.png,,51,US_Cities_List/nat_athens.png,NAT,3,,,,,,,,,,,,,,,,,
null,,confidence_buffer,709414,confidence_buffer,,null,,,,,,,,,,,,,,,,,,,,
1623.6999999284744,,unique_rating,711039,US_Cities_List/nat_athens.png,,52,,,4,,,,,,,,,,,,,,,,,
null,,confidence_buffer,711141,confidence_buffer,,null,,,,,,,,,,,,,,,,,,,,
1191.5,,memorable_rating,712335,US_Cities_List/nat_athens.png,,52,,,4,,,,,,,,,,,,,,,,,
null,,confidence_buffer,712438,confidence_buffer,,null,,,,,,,,,,,,,,,,,,,,
null,,thebreak,712940,break,,null,,,,,,,,,,,,,,,,,,,,
3174.7000000476837,,familiar_rating,716117,US_Cities_List/mm_carmel.png,,49,US_Cities_List/mm_carmel.png,MM,1,,,,,,,,,,,,,,,,,
null,,confidence_buffer,716221,confidence_buffer,,null,,,,,,,,,,,,,,,,,,,,
2759,,unique_rating,718983,US_Cities_List/mm_carmel.png,,53,,,5,,,,,,,,,,,,,,,,,
null,,confidence_buffer,719087,confidence_buffer,,null,,,,,,,,,,,,,,,,,,,,
1840.5,,memorable_rating,720929,US_Cities_List/mm_carmel.png,,53,,,5,,,,,,,,,,,,,,,,,
null,,confidence_buffer,721032,confidence_buffer,,null,,,,,,,,,,,,,,,,,,,,
null,,thebreak,721535,break,,null,,,,,,,,,,,,,,,,,,,,
2329.7999999523163,,familiar_rating,723868,Fictional_Cities_List/img_natural_40.png,,51,Fictional_Cities_List/img_natural_40.png,NAT,3,,,,,,,,,,,,,,,,,
null,,confidence_buffer,723971,confidence_buffer,,null,,,,,,,,,,,,,,,,,,,,
1510.6999999284744,,unique_rating,725484,Fictional_Cities_List/img_natural_40.png,,52,,,4,,,,,,,,,,,,,,,,,
null,,confidence_buffer,725587,confidence_buffer,,null,,,,,,,,,,,,,,,,,,,,
1184.2999999523163,,memorable_rating,726774,Fictional_Cities_List/img_natural_40.png,,52,,,4,,,,,,,,,,,,,,,,,
null,,confidence_buffer,726877,confidence_buffer,,null,,,,,,,,,,,,,,,,,,,,
null,,thebreak,727378,break,,null,,,,,,,,,,,,,,,,,,,,
11081.800000071526,,familiar_rating,738461,Fictional_Cities_List/img_natural_38.png,,51,Fictional_Cities_List/img_natural_38.png,NAT,3,,,,,,,,,,,,,,,,,
null,,confidence_buffer,738563,confidence_buffer,,null,,,,,,,,,,,,,,,,,,,,
914.1000000238419,,unique_rating,739479,Fictional_Cities_List/img_natural_38.png,,52,,,4,,,,,,,,,,,,,,,,,
null,,confidence_buffer,739581,confidence_buffer,,null,,,,,,,,,,,,,,,,,,,,
332.5,,memorable_rating,739915,Fictional_Cities_List/img_natural_38.png,,53,,,5,,,,,,,,,,,,,,,,,
null,,confidence_buffer,740031,confidence_buffer,,null,,,,,,,,,,,,,,,,,,,,
null,,thebreak,740532,break,,null,,,,,,,,,,,,,,,,,,,,
3098.2000000476837,,familiar_rating,743632,Fictional_Cities_List/img_natural_13.png,,49,Fictional_Cities_List/img_natural_13.png,NAT,1,,,,,,,,,,,,,,,,,
null,,confidence_buffer,743735,confidence_buffer,,null,,,,,,,,,,,,,,,,,,,,
4549.5,,unique_rating,748287,Fictional_Cities_List/img_natural_13.png,,51,,,3,,,,,,,,,,,,,,,,,
null,,confidence_buffer,748390,confidence_buffer,,null,,,,,,,,,,,,,,,,,,,,
926.5,,memorable_rating,749319,Fictional_Cities_List/img_natural_13.png,,51,,,3,,,,,,,,,,,,,,,,,
null,,confidence_buffer,749423,confidence_buffer,,null,,,,,,,,,,,,,,,,,,,,
null,,thebreak,749924,break,,null,,,,,,,,,,,,,,,,,,,,
3824.7000000476837,,familiar_rating,753751,Fictional_Cities_List/img_manmade_27.png,,49,Fictional_Cities_List/img_manmade_27.png,MM,1,,,,,,,,,,,,,,,,,
null,,confidence_buffer,753855,confidence_buffer,,null,,,,,,,,,,,,,,,,,,,,
1282.1999999284744,,unique_rating,755139,Fictional_Cities_List/img_manmade_27.png,,52,,,4,,,,,,,,,,,,,,,,,
null,,confidence_buffer,755241,confidence_buffer,,null,,,,,,,,,,,,,,,,,,,,
1364.7000000476837,,memorable_rating,756607,Fictional_Cities_List/img_manmade_27.png,,51,,,3,,,,,,,,,,,,,,,,,
null,,confidence_buffer,756712,confidence_buffer,,null,,,,,,,,,,,,,,,,,,,,
null,,thebreak,757213,break,,null,,,,,,,,,,,,,,,,,,,,
12824.100000023842,,intro_0,770039,instruct,,32,,,,,,,,,,,,,,,,,,,,
20457.399999976158,,intro_1,790498,instruct,,32,,,,,,,,,,,,,,,,,,,,
29210.399999976158,,intro_2,819710,instruct,,32,,,,,,,,,,,,,,,,,,,,
null,,instruct_dir_4,821213,instruct,,null,,,,,,,,,,,,,,,,,,,,
10331.599999904633,,pt2_realistic_rating,831547,US_Cities_List/mm_athens.png,,53,US_Cities_List/mm_athens.png,MM,5,,,,,,,,,,,,,,,,,
null,,confidence_buffer,831651,confidence_buffer,,null,,,,,,,,,,,,,,,,,,,,
3821.600000023842,,pt2_unique_rating,835474,US_Cities_List/mm_athens.png,,53,,,5,,,,,,,,,,,,,,,,,
null,,confidence_buffer,835576,confidence_buffer,,null,,,,,,,,,,,,,,,,,,,,
206.19999992847443,,pt2_memorable_rating,835784,US_Cities_List/mm_athens.png,,53,,,5,,,,,,,,,,,,,,,,,
null,,confidence_buffer,835886,confidence_buffer,,null,,,,,,,,,,,,,,,,,,,,
3275.600000023842,,recognition_phase,839206,US_Cities_List/mm_athens.png,,49,,,,,,old,1,1,,,,,,,,,,,,
null,,confidence_buffer,839309,confidence_buffer,,null,,,,,,,,,,,,,,,,,,,,
null,,thebreak,839811,break,,null,,,,,,,,,,,,,,,,,,,,
6113.899999976158,,pt2_realistic_rating,845929,Fictional_Cities_List/img_manmade_40.png,,52,Fictional_Cities_List/img_manmade_40.png,MM,4,,,,,,,,,,,,,,,,,
null,,confidence_buffer,846031,confidence_buffer,,null,,,,,,,,,,,,,,,,,,,,
2441.2000000476837,,pt2_unique_rating,848474,Fictional_Cities_List/img_manmade_40.png,,52,,,4,,,,,,,,,,,,,,,,,
null,,confidence_buffer,848577,confidence_buffer,,null,,,,,,,,,,,,,,,,,,,,
1943.8999999761581,,pt2_memorable_rating,850523,Fictional_Cities_List/img_manmade_40.png,,52,,,4,,,,,,,,,,,,,,,,,
null,,confidence_buffer,850626,confidence_buffer,,null,,,,,,,,,,,,,,,,,,,,
3152.1999999284744,,recognition_phase,853781,Fictional_Cities_List/img_manmade_40.png,,52,,,,,,new,1,1,,,,,,,,,,,,
null,,confidence_buffer,853884,confidence_buffer,,null,,,,,,,,,,,,,,,,,,,,
null,,thebreak,854386,break,,null,,,,,,,,,,,,,,,,,,,,
15541.700000047684,,pt2_realistic_rating,869930,US_Cities_List/nat_healdsburg.png,,53,US_Cities_List/nat_healdsburg.png,NAT,5,,,,,,,,,,,,,,,,,
null,,confidence_buffer,870034,confidence_buffer,,null,,,,,,,,,,,,,,,,,,,,
7435.200000047684,,pt2_unique_rating,877472,US_Cities_List/nat_healdsburg.png,,53,,,5,,,,,,,,,,,,,,,,,
null,,confidence_buffer,877575,confidence_buffer,,null,,,,,,,,,,,,,,,,,,,,
2278.8000000715256,,pt2_memorable_rating,879857,US_Cities_List/nat_healdsburg.png,,53,,,5,,,,,,,,,,,,,,,,,
null,,confidence_buffer,879960,confidence_buffer,,null,,,,,,,,,,,,,,,,,,,,
1502.8999999761581,,recognition_phase,881465,US_Cities_List/nat_healdsburg.png,,49,,,,,,old,1,1,,,,,,,,,,,,
null,,confidence_buffer,881568,confidence_buffer,,null,,,,,,,,,,,,,,,,,,,,
null,,thebreak,882074,break,,null,,,,,,,,,,,,,,,,,,,,
5633.699999928474,,pt2_realistic_rating,887709,US_Cities_List/nat_peoria.png,,53,US_Cities_List/nat_peoria.png,NAT,5,,,,,,,,,,,,,,,,,
null,,confidence_buffer,887811,confidence_buffer,,null,,,,,,,,,,,,,,,,,,,,
2509.399999976158,,pt2_unique_rating,890322,US_Cities_List/nat_peoria.png,,53,,,5,,,,,,,,,,,,,,,,,
null,,confidence_buffer,890425,confidence_buffer,,null,,,,,,,,,,,,,,,,,,,,
1964.5,,pt2_memorable_rating,892391,US_Cities_List/nat_peoria.png,,53,,,5,,,,,,,,,,,,,,,,,
null,,confidence_buffer,892495,confidence_buffer,,null,,,,,,,,,,,,,,,,,,,,
1535.4000000953674,,recognition_phase,894033,US_Cities_List/nat_peoria.png,,52,,,,,,new,1,1,,,,,,,,,,,,
null,,confidence_buffer,894137,confidence_buffer,,null,,,,,,,,,,,,,,,,,,,,
null,,thebreak,894639,break,,null,,,,,,,,,,,,,,,,,,,,
5515.700000047684,,pt2_realistic_rating,900157,US_Cities_List/mm_natchez.png,,53,US_Cities_List/mm_natchez.png,MM,5,,,,,,,,,,,,,,,,,
null,,confidence_buffer,900261,confidence_buffer,,null,,,,,,,,,,,,,,,,,,,,
1855.8999999761581,,pt2_unique_rating,902119,US_Cities_List/mm_natchez.png,,53,,,5,,,,,,,,,,,,,,,,,
null,,confidence_buffer,902223,confidence_buffer,,null,,,,,,,,,,,,,,,,,,,,
2220.9000000953674,,pt2_memorable_rating,904447,US_Cities_List/mm_natchez.png,,53,,,5,,,,,,,,,,,,,,,,,
null,,confidence_buffer,904550,confidence_buffer,,null,,,,,,,,,,,,,,,,,,,,
1688.5,,recognition_phase,906241,US_Cities_List/mm_natchez.png,,49,,,,,,old,1,1,,,,,,,,,,,,
null,,confidence_buffer,906343,confidence_buffer,,null,,,,,,,,,,,,,,,,,,,,
null,,thebreak,906846,break,,null,,,,,,,,,,,,,,,,,,,,
5527.399999976158,,pt2_realistic_rating,912375,Fictional_Cities_List/img_manmade_27.png,,53,Fictional_Cities_List/img_manmade_27.png,MM,5,,,,,,,,,,,,,,,,,
null,,confidence_buffer,912479,confidence_buffer,,null,,,,,,,,,,,,,,,,,,,,
2623.4000000953674,,probe_rating,915104,probe_rating,,51,,,,3,1,,,,,,,,,,,,,,,
null,,confidence_buffer,915207,confidence_buffer,,null,,,,,,,,,,,,,,,,,,,,
3718.7000000476837,,pt2_unique_rating,918928,Fictional_Cities_List/img_manmade_27.png,,52,,,4,,,,,,,,,,,,,,,,,
null,,confidence_buffer,919031,confidence_buffer,,null,,,,,,,,,,,,,,,,,,,,
2226.6999999284744,,pt2_memorable_rating,921260,Fictional_Cities_List/img_manmade_27.png,,53,,,5,,,,,,,,,,,,,,,,,
null,,confidence_buffer,921363,confidence_buffer,,null,,,,,,,,,,,,,,,,,,,,
1744.2999999523163,,recognition_phase,923110,Fictional_Cities_List/img_manmade_27.png,,49,,,,,,old,1,1,,,,,,,,,,,,
null,,confidence_buffer,923214,confidence_buffer,,null,,,,,,,,,,,,,,,,,,,,
null,,thebreak,923717,break,,null,,,,,,,,,,,,,,,,,,,,
4026,,pt2_realistic_rating,927746,US_Cities_List/mm_okoboji.png,,53,US_Cities_List/mm_okoboji.png,MM,5,,,,,,,,,,,,,,,,,
null,,confidence_buffer,927849,confidence_buffer,,null,,,,,,,,,,,,,,,,,,,,
1835.8999999761581,,pt2_unique_rating,929687,US_Cities_List/mm_okoboji.png,,53,,,5,,,,,,,,,,,,,,,,,
null,,confidence_buffer,929789,confidence_buffer,,null,,,,,,,,,,,,,,,,,,,,
2217.5,,pt2_memorable_rating,932009,US_Cities_List/mm_okoboji.png,,53,,,5,,,,,,,,,,,,,,,,,
null,,confidence_buffer,932112,confidence_buffer,,null,,,,,,,,,,,,,,,,,,,,
2767.399999976158,,recognition_phase,934881,US_Cities_List/mm_okoboji.png,,49,,,,,,old,1,1,,,,,,,,,,,,
null,,confidence_buffer,934984,confidence_buffer,,null,,,,,,,,,,,,,,,,,,,,
null,,thebreak,935487,break,,null,,,,,,,,,,,,,,,,,,,,
5853.299999952316,,pt2_realistic_rating,941343,US_Cities_List/mm_duck.png,,53,US_Cities_List/mm_duck.png,MM,5,,,,,,,,,,,,,,,,,
null,,confidence_buffer,941448,confidence_buffer,,null,,,,,,,,,,,,,,,,,,,,
1807.2000000476837,,pt2_unique_rating,943257,US_Cities_List/mm_duck.png,,53,,,5,,,,,,,,,,,,,,,,,
null,,confidence_buffer,943360,confidence_buffer,,null,,,,,,,,,,,,,,,,,,,,
2471.399999976158,,pt2_memorable_rating,945833,US_Cities_List/mm_duck.png,,53,,,5,,,,,,,,,,,,,,,,,
null,,confidence_buffer,945936,confidence_buffer,,null,,,,,,,,,,,,,,,,,,,,
2227.1999999284744,,probe_rating,948166,probe_rating,,53,,,,5,1,,,,,,,,,,,,,,,
null,,confidence_buffer,948281,confidence_buffer,,null,,,,,,,,,,,,,,,,,,,,
3008.0999999046326,,recognition_phase,951291,US_Cities_List/mm_duck.png,,52,,,,,,new,1,1,,,,,,,,,,,,
null,,confidence_buffer,951394,confidence_buffer,,null,,,,,,,,,,,,,,,,,,,,
null,,thebreak,951897,break,,null,,,,,,,,,,,,,,,,,,,,
7096.299999952316,,pt2_realistic_rating,958996,Fictional_Cities_List/img_natural_20.png,,52,Fictional_Cities_List/img_natural_20.png,NAT,4,,,,,,,,,,,,,,,,,
null,,confidence_buffer,959100,confidence_buffer,,null,,,,,,,,,,,,,,,,,,,,
2287.2000000476837,,pt2_unique_rating,961389,Fictional_Cities_List/img_natural_20.png,,52,,,4,,,,,,,,,,,,,,,,,
null,,confidence_buffer,961492,confidence_buffer,,null,,,,,,,,,,,,,,,,,,,,
4250.300000071526,,pt2_memorable_rating,965745,Fictional_Cities_List/img_natural_20.png,,52,,,4,,,,,,,,,,,,,,,,,
null,,confidence_buffer,965849,confidence_buffer,,null,,,,,,,,,,,,,,,,,,,,
1899.8999999761581,,recognition_phase,967752,Fictional_Cities_List/img_natural_20.png,,49,,,,,,old,1,1,,,,,,,,,,,,
null,,confidence_buffer,967855,confidence_buffer,,null,,,,,,,,,,,,,,,,,,,,
null,,thebreak,968357,break,,null,,,,,,,,,,,,,,,,,,,,
3328.9000000953674,,pt2_realistic_rating,971687,Fictional_Cities_List/img_manmade_38.png,,53,Fictional_Cities_List/img_manmade_38.png,MM,5,,,,,,,,,,,,,,,,,
null,,confidence_buffer,971789,confidence_buffer,,null,,,,,,,,,,,,,,,,,,,,
1314.5,,pt2_unique_rating,973105,Fictional_Cities_List/img_manmade_38.png,,53,,,5,,,,,,,,,,,,,,,,,
null,,confidence_buffer,973206,confidence_buffer,,null,,,,,,,,,,,,,,,,,,,,
2608.2000000476837,,pt2_memorable_rating,975817,Fictional_Cities_List/img_manmade_38.png,,53,,,5,,,,,,,,,,,,,,,,,
null,,confidence_buffer,975919,confidence_buffer,,null,,,,,,,,,,,,,,,,,,,,
1839.5,,recognition_phase,977762,Fictional_Cities_List/img_manmade_38.png,,52,,,,,,new,1,1,,,,,,,,,,,,
null,,confidence_buffer,977864,confidence_buffer,,null,,,,,,,,,,,,,,,,,,,,
null,,thebreak,978367,break,,null,,,,,,,,,,,,,,,,,,,,
5969,,pt2_realistic_rating,984338,US_Cities_List/nat_bowlinggreen.png,,53,US_Cities_List/nat_bowlinggreen.png,NAT,5,,,,,,,,,,,,,,,,,
null,,confidence_buffer,984442,confidence_buffer,,null,,,,,,,,,,,,,,,,,,,,
2429.3000000715256,,pt2_unique_rating,986874,US_Cities_List/nat_bowlinggreen.png,,52,,,4,,,,,,,,,,,,,,,,,
null,,confidence_buffer,986977,confidence_buffer,,null,,,,,,,,,,,,,,,,,,,,
1683.1000000238419,,pt2_memorable_rating,988662,US_Cities_List/nat_bowlinggreen.png,,52,,,4,,,,,,,,,,,,,,,,,
null,,confidence_buffer,988766,confidence_buffer,,null,,,,,,,,,,,,,,,,,,,,
1368,,recognition_phase,990136,US_Cities_List/nat_bowlinggreen.png,,49,,,,,,old,1,1,,,,,,,,,,,,
null,,confidence_buffer,990239,confidence_buffer,,null,,,,,,,,,,,,,,,,,,,,
null,,thebreak,990741,break,,null,,,,,,,,,,,,,,,,,,,,
3666.399999976158,,pt2_realistic_rating,994410,Fictional_Cities_List/img_manmade_12.png,,53,Fictional_Cities_List/img_manmade_12.png,MM,5,,,,,,,,,,,,,,,,,
null,,confidence_buffer,994513,confidence_buffer,,null,,,,,,,,,,,,,,,,,,,,
1241.1999999284744,,pt2_unique_rating,995755,Fictional_Cities_List/img_manmade_12.png,,52,,,4,,,,,,,,,,,,,,,,,
null,,confidence_buffer,995856,confidence_buffer,,null,,,,,,,,,,,,,,,,,,,,
2170.899999976158,,pt2_memorable_rating,998029,Fictional_Cities_List/img_manmade_12.png,,52,,,4,,,,,,,,,,,,,,,,,
null,,confidence_buffer,998132,confidence_buffer,,null,,,,,,,,,,,,,,,,,,,,
1850.6000000238419,,recognition_phase,999985,Fictional_Cities_List/img_manmade_12.png,,49,,,,,,old,1,1,,,,,,,,,,,,
null,,confidence_buffer,1000089,confidence_buffer,,null,,,,,,,,,,,,,,,,,,,,
null,,thebreak,1000591,break,,null,,,,,,,,,,,,,,,,,,,,
2751.0999999046326,,pt2_realistic_rating,1003344,Fictional_Cities_List/img_manmade_47.png,,53,Fictional_Cities_List/img_manmade_47.png,MM,5,,,,,,,,,,,,,,,,,
null,,confidence_buffer,1003447,confidence_buffer,,null,,,,,,,,,,,,,,,,,,,,
1399.2000000476837,,pt2_unique_rating,1004848,Fictional_Cities_List/img_manmade_47.png,,52,,,4,,,,,,,,,,,,,,,,,
null,,confidence_buffer,1004950,confidence_buffer,,null,,,,,,,,,,,,,,,,,,,,
1176.3999999761581,,pt2_memorable_rating,1006129,Fictional_Cities_List/img_manmade_47.png,,52,,,4,,,,,,,,,,,,,,,,,
null,,confidence_buffer,1006232,confidence_buffer,,null,,,,,,,,,,,,,,,,,,,,
1464.5,,recognition_phase,1007699,Fictional_Cities_List/img_manmade_47.png,,49,,,,,,old,1,1,,,,,,,,,,,,
null,,confidence_buffer,1007802,confidence_buffer,,null,,,,,,,,,,,,,,,,,,,,
null,,thebreak,1008304,break,,null,,,,,,,,,,,,,,,,,,,,
4769.799999952316,,pt2_realistic_rating,1013076,US_Cities_List/mm_gatlinburg.png,,51,US_Cities_List/mm_gatlinburg.png,MM,3,,,,,,,,,,,,,,,,,
null,,confidence_buffer,1013193,confidence_buffer,,null,,,,,,,,,,,,,,,,,,,,
3183.899999976158,,pt2_unique_rating,1016379,US_Cities_List/mm_gatlinburg.png,,53,,,5,,,,,,,,,,,,,,,,,
null,,confidence_buffer,1016482,confidence_buffer,,null,,,,,,,,,,,,,,,,,,,,
2207.7000000476837,,pt2_memorable_rating,1018692,US_Cities_List/mm_gatlinburg.png,,52,,,4,,,,,,,,,,,,,,,,,
null,,confidence_buffer,1018795,confidence_buffer,,null,,,,,,,,,,,,,,,,,,,,
1983.1999999284744,,recognition_phase,1020780,US_Cities_List/mm_gatlinburg.png,,52,,,,,,new,1,1,,,,,,,,,,,,
null,,confidence_buffer,1020884,confidence_buffer,,null,,,,,,,,,,,,,,,,,,,,
null,,thebreak,1021385,break,,null,,,,,,,,,,,,,,,,,,,,
5179,,pt2_realistic_rating,1026566,Fictional_Cities_List/img_natural_44.png,,53,Fictional_Cities_List/img_natural_44.png,NAT,5,,,,,,,,,,,,,,,,,
null,,confidence_buffer,1026667,confidence_buffer,,null,,,,,,,,,,,,,,,,,,,,
2374.600000023842,,probe_rating,1029044,probe_rating,,50,,,,2,1,,,,,,,,,,,,,,,
null,,confidence_buffer,1029149,confidence_buffer,,null,,,,,,,,,,,,,,,,,,,,
2514.5,,pt2_unique_rating,1031665,Fictional_Cities_List/img_natural_44.png,,52,,,4,,,,,,,,,,,,,,,,,
null,,confidence_buffer,1031769,confidence_buffer,,null,,,,,,,,,,,,,,,,,,,,
1117.5,,pt2_memorable_rating,1032889,Fictional_Cities_List/img_natural_44.png,,52,,,4,,,,,,,,,,,,,,,,,
null,,confidence_buffer,1032992,confidence_buffer,,null,,,,,,,,,,,,,,,,,,,,
5394.299999952316,,recognition_phase,1038388,Fictional_Cities_List/img_natural_44.png,,51,,,,,,new,0,0.9333333333333333,,,,,,,,,,,,
null,,confidence_buffer,1038491,confidence_buffer,,null,,,,,,,,,,,,,,,,,,,,
null,,thebreak,1038994,break,,null,,,,,,,,,,,,,,,,,,,,
4402.799999952316,,pt2_realistic_rating,1043399,US_Cities_List/nat_hanover.png,,52,US_Cities_List/nat_hanover.png,NAT,4,,,,,,,,,,,,,,,,,
null,,confidence_buffer,1043502,confidence_buffer,,null,,,,,,,,,,,,,,,,,,,,
1276.5,,pt2_unique_rating,1044781,US_Cities_List/nat_hanover.png,,52,,,4,,,,,,,,,,,,,,,,,
null,,confidence_buffer,1044884,confidence_buffer,,null,,,,,,,,,,,,,,,,,,,,
2282.899999976158,,probe_rating,1047169,probe_rating,,49,,,,1,1,,,,,,,,,,,,,,,
null,,confidence_buffer,1047273,confidence_buffer,,null,,,,,,,,,,,,,,,,,,,,
4868.299999952316,,pt2_memorable_rating,1052144,US_Cities_List/nat_hanover.png,,52,,,4,,,,,,,,,,,,,,,,,
null,,confidence_buffer,1052247,confidence_buffer,,null,,,,,,,,,,,,,,,,,,,,
2130.899999976158,,recognition_phase,1054380,US_Cities_List/nat_hanover.png,,52,,,,,,new,1,0.9375,,,,,,,,,,,,
null,,confidence_buffer,1054493,confidence_buffer,,null,,,,,,,,,,,,,,,,,,,,
null,,thebreak,1054995,break,,null,,,,,,,,,,,,,,,,,,,,
4164.399999976158,,pt2_realistic_rating,1059161,US_Cities_List/nat_delawarecity.png,,52,US_Cities_List/nat_delawarecity.png,NAT,4,,,,,,,,,,,,,,,,,
null,,confidence_buffer,1059264,confidence_buffer,,null,,,,,,,,,,,,,,,,,,,,
4204,,pt2_unique_rating,1063471,US_Cities_List/nat_delawarecity.png,,52,,,4,,,,,,,,,,,,,,,,,
null,,confidence_buffer,1063574,confidence_buffer,,null,,,,,,,,,,,,,,,,,,,,
3279.600000023842,,pt2_memorable_rating,1066856,US_Cities_List/nat_delawarecity.png,,52,,,4,,,,,,,,,,,,,,,,,
null,,confidence_buffer,1066959,confidence_buffer,,null,,,,,,,,,,,,,,,,,,,,
1530.6000000238419,,probe_rating,1068492,probe_rating,,51,,,,3,1,,,,,,,,,,,,,,,
null,,confidence_buffer,1068596,confidence_buffer,,null,,,,,,,,,,,,,,,,,,,,
1814.4000000953674,,recognition_phase,1070413,US_Cities_List/nat_delawarecity.png,,49,,,,,,old,1,0.9411764705882353,,,,,,,,,,,,
null,,confidence_buffer,1070516,confidence_buffer,,null,,,,,,,,,,,,,,,,,,,,
null,,thebreak,1071018,break,,null,,,,,,,,,,,,,,,,,,,,
6215.700000047684,,pt2_realistic_rating,1077236,Fictional_Cities_List/img_natural_24.png,,49,Fictional_Cities_List/img_natural_24.png,NAT,1,,,,,,,,,,,,,,,,,
null,,confidence_buffer,1077337,confidence_buffer,,null,,,,,,,,,,,,,,,,,,,,
3271.2000000476837,,pt2_unique_rating,1080611,Fictional_Cities_List/img_natural_24.png,,52,,,4,,,,,,,,,,,,,,,,,
null,,confidence_buffer,1080714,confidence_buffer,,null,,,,,,,,,,,,,,,,,,,,
1511.7999999523163,,pt2_memorable_rating,1082228,Fictional_Cities_List/img_natural_24.png,,52,,,4,,,,,,,,,,,,,,,,,
null,,confidence_buffer,1082331,confidence_buffer,,null,,,,,,,,,,,,,,,,,,,,
3231,,recognition_phase,1085565,Fictional_Cities_List/img_natural_24.png,,52,,,,,,new,1,0.9444444444444444,,,,,,,,,,,,
null,,confidence_buffer,1085667,confidence_buffer,,null,,,,,,,,,,,,,,,,,,,,
null,,thebreak,1086169,break,,null,,,,,,,,,,,,,,,,,,,,
4646.5,,pt2_realistic_rating,1090817,US_Cities_List/mm_boulder.png,,53,US_Cities_List/mm_boulder.png,MM,5,,,,,,,,,,,,,,,,,
null,,confidence_buffer,1090919,confidence_buffer,,null,,,,,,,,,,,,,,,,,,,,
1367,,pt2_unique_rating,1092288,US_Cities_List/mm_boulder.png,,53,,,5,,,,,,,,,,,,,,,,,
null,,confidence_buffer,1092391,confidence_buffer,,null,,,,,,,,,,,,,,,,,,,,
1521,,pt2_memorable_rating,1093915,US_Cities_List/mm_boulder.png,,53,,,5,,,,,,,,,,,,,,,,,
null,,confidence_buffer,1094019,confidence_buffer,,null,,,,,,,,,,,,,,,,,,,,
3450.600000023842,,recognition_phase,1097472,US_Cities_List/mm_boulder.png,,49,,,,,,old,1,0.9473684210526315,,,,,,,,,,,,
null,,confidence_buffer,1097575,confidence_buffer,,null,,,,,,,,,,,,,,,,,,,,
null,,thebreak,1098077,break,,null,,,,,,,,,,,,,,,,,,,,
5866.399999976158,,pt2_realistic_rating,1103947,US_Cities_List/nat_natchez.png,,52,US_Cities_List/nat_natchez.png,NAT,4,,,,,,,,,,,,,,,,,
null,,confidence_buffer,1104051,confidence_buffer,,null,,,,,,,,,,,,,,,,,,,,
1004.6000000238419,,pt2_unique_rating,1105058,US_Cities_List/nat_natchez.png,,52,,,4,,,,,,,,,,,,,,,,,
null,,confidence_buffer,1105160,confidence_buffer,,null,,,,,,,,,,,,,,,,,,,,
3261.3000000715256,,pt2_memorable_rating,1108424,US_Cities_List/nat_natchez.png,,52,,,4,,,,,,,,,,,,,,,,,
null,,confidence_buffer,1108527,confidence_buffer,,null,,,,,,,,,,,,,,,,,,,,
2282.2999999523163,,recognition_phase,1110811,US_Cities_List/nat_natchez.png,,52,,,,,,new,1,0.95,,,,,,,,,,,,
null,,confidence_buffer,1110914,confidence_buffer,,null,,,,,,,,,,,,,,,,,,,,
null,,thebreak,1111416,break,,null,,,,,,,,,,,,,,,,,,,,
3982.5,,pt2_realistic_rating,1115400,US_Cities_List/nat_sitka.png,,53,US_Cities_List/nat_sitka.png,NAT,5,,,,,,,,,,,,,,,,,
null,,confidence_buffer,1115503,confidence_buffer,,null,,,,,,,,,,,,,,,,,,,,
722.8999999761581,,pt2_unique_rating,1116229,US_Cities_List/nat_sitka.png,,52,,,4,,,,,,,,,,,,,,,,,
null,,confidence_buffer,1116333,confidence_buffer,,null,,,,,,,,,,,,,,,,,,,,
1641.6000000238419,,pt2_memorable_rating,1117977,US_Cities_List/nat_sitka.png,,52,,,4,,,,,,,,,,,,,,,,,
null,,confidence_buffer,1118080,confidence_buffer,,null,,,,,,,,,,,,,,,,,,,,
1316.7999999523163,,recognition_phase,1119399,US_Cities_List/nat_sitka.png,,52,,,,,,new,1,0.9523809523809523,,,,,,,,,,,,
null,,confidence_buffer,1119501,confidence_buffer,,null,,,,,,,,,,,,,,,,,,,,
null,,thebreak,1120003,break,,null,,,,,,,,,,,,,,,,,,,,
3708,,pt2_realistic_rating,1123713,Fictional_Cities_List/img_manmade_20.png,,53,Fictional_Cities_List/img_manmade_20.png,MM,5,,,,,,,,,,,,,,,,,
null,,confidence_buffer,1123815,confidence_buffer,,null,,,,,,,,,,,,,,,,,,,,
1239.2000000476837,,pt2_unique_rating,1125056,Fictional_Cities_List/img_manmade_20.png,,53,,,5,,,,,,,,,,,,,,,,,
null,,confidence_buffer,1125159,confidence_buffer,,null,,,,,,,,,,,,,,,,,,,,
1067.6999999284744,,pt2_memorable_rating,1126229,Fictional_Cities_List/img_manmade_20.png,,53,,,5,,,,,,,,,,,,,,,,,
null,,confidence_buffer,1126332,confidence_buffer,,null,,,,,,,,,,,,,,,,,,,,
1523.2000000476837,,recognition_phase,1127857,Fictional_Cities_List/img_manmade_20.png,,52,,,,,,new,1,0.9545454545454546,,,,,,,,,,,,
null,,confidence_buffer,1127960,confidence_buffer,,null,,,,,,,,,,,,,,,,,,,,
null,,thebreak,1128462,break,,null,,,,,,,,,,,,,,,,,,,,
3844.899999976158,,pt2_realistic_rating,1132309,US_Cities_List/mm_manistee.png,,52,US_Cities_List/mm_manistee.png,MM,4,,,,,,,,,,,,,,,,,
null,,confidence_buffer,1132412,confidence_buffer,,null,,,,,,,,,,,,,,,,,,,,
1465.2000000476837,,pt2_unique_rating,1133880,US_Cities_List/mm_manistee.png,,52,,,4,,,,,,,,,,,,,,,,,
null,,confidence_buffer,1133983,confidence_buffer,,null,,,,,,,,,,,,,,,,,,,,
1010.6999999284744,,pt2_memorable_rating,1134995,US_Cities_List/mm_manistee.png,,52,,,4,,,,,,,,,,,,,,,,,
null,,confidence_buffer,1135101,confidence_buffer,,null,,,,,,,,,,,,,,,,,,,,
1585.2000000476837,,recognition_phase,1136690,US_Cities_List/mm_manistee.png,,52,,,,,,new,1,0.9565217391304348,,,,,,,,,,,,
null,,confidence_buffer,1136793,confidence_buffer,,null,,,,,,,,,,,,,,,,,,,,
null,,thebreak,1137295,break,,null,,,,,,,,,,,,,,,,,,,,
4504.899999976158,,pt2_realistic_rating,1141802,Fictional_Cities_List/img_manmade_04.png,,52,Fictional_Cities_List/img_manmade_04.png,MM,4,,,,,,,,,,,,,,,,,
null,,confidence_buffer,1141905,confidence_buffer,,null,,,,,,,,,,,,,,,,,,,,
1087.2999999523163,,pt2_unique_rating,1142995,Fictional_Cities_List/img_manmade_04.png,,52,,,4,,,,,,,,,,,,,,,,,
null,,confidence_buffer,1143096,confidence_buffer,,null,,,,,,,,,,,,,,,,,,,,
1098.1000000238419,,pt2_memorable_rating,1144196,Fictional_Cities_List/img_manmade_04.png,,52,,,4,,,,,,,,,,,,,,,,,
null,,confidence_buffer,1144299,confidence_buffer,,null,,,,,,,,,,,,,,,,,,,,
1337.8999999761581,,recognition_phase,1145639,Fictional_Cities_List/img_manmade_04.png,,52,,,,,,new,1,0.9583333333333334,,,,,,,,,,,,
null,,confidence_buffer,1145742,confidence_buffer,,null,,,,,,,,,,,,,,,,,,,,
null,,thebreak,1146244,break,,null,,,,,,,,,,,,,,,,,,,,
3850.100000023842,,pt2_realistic_rating,1150096,Fictional_Cities_List/img_natural_13.png,,50,Fictional_Cities_List/img_natural_13.png,NAT,2,,,,,,,,,,,,,,,,,
null,,confidence_buffer,1150207,confidence_buffer,,null,,,,,,,,,,,,,,,,,,,,
2005.3999999761581,,pt2_unique_rating,1152215,Fictional_Cities_List/img_natural_13.png,,51,,,3,,,,,,,,,,,,,,,,,
null,,confidence_buffer,1152319,confidence_buffer,,null,,,,,,,,,,,,,,,,,,,,
1067.0999999046326,,pt2_memorable_rating,1153387,Fictional_Cities_List/img_natural_13.png,,52,,,4,,,,,,,,,,,,,,,,,
null,,confidence_buffer,1153489,confidence_buffer,,null,,,,,,,,,,,,,,,,,,,,
2962.6999999284744,,recognition_phase,1156455,Fictional_Cities_List/img_natural_13.png,,49,,,,,,old,1,0.96,,,,,,,,,,,,
null,,confidence_buffer,1156559,confidence_buffer,,null,,,,,,,,,,,,,,,,,,,,
null,,thebreak,1157062,break,,null,,,,,,,,,,,,,,,,,,,,
6402.700000047684,,pt2_realistic_rating,1163467,Fictional_Cities_List/img_natural_10.png,,49,Fictional_Cities_List/img_natural_10.png,NAT,1,,,,,,,,,,,,,,,,,
null,,confidence_buffer,1163569,confidence_buffer,,null,,,,,,,,,,,,,,,,,,,,
4627.5,,pt2_unique_rating,1168198,Fictional_Cities_List/img_natural_10.png,,51,,,3,,,,,,,,,,,,,,,,,
null,,confidence_buffer,1168301,confidence_buffer,,null,,,,,,,,,,,,,,,,,,,,
2409.3000000715256,,pt2_memorable_rating,1170713,Fictional_Cities_List/img_natural_10.png,,51,,,3,,,,,,,,,,,,,,,,,
null,,confidence_buffer,1170816,confidence_buffer,,null,,,,,,,,,,,,,,,,,,,,
1998.7000000476837,,recognition_phase,1172817,Fictional_Cities_List/img_natural_10.png,,52,,,,,,new,1,0.9615384615384616,,,,,,,,,,,,
null,,confidence_buffer,1172920,confidence_buffer,,null,,,,,,,,,,,,,,,,,,,,
null,,thebreak,1173423,break,,null,,,,,,,,,,,,,,,,,,,,
10506.400000095367,,pt2_realistic_rating,1183932,Fictional_Cities_List/img_natural_04.png,,52,Fictional_Cities_List/img_natural_04.png,NAT,4,,,,,,,,,,,,,,,,,
null,,confidence_buffer,1184036,confidence_buffer,,null,,,,,,,,,,,,,,,,,,,,
691.7000000476837,,pt2_unique_rating,1184730,Fictional_Cities_List/img_natural_04.png,,52,,,4,,,,,,,,,,,,,,,,,
null,,confidence_buffer,1184832,confidence_buffer,,null,,,,,,,,,,,,,,,,,,,,
927.7000000476837,,pt2_memorable_rating,1185762,Fictional_Cities_List/img_natural_04.png,,52,,,4,,,,,,,,,,,,,,,,,
null,,confidence_buffer,1185865,confidence_buffer,,null,,,,,,,,,,,,,,,,,,,,
3944,,recognition_phase,1189812,Fictional_Cities_List/img_natural_04.png,,49,,,,,,old,1,0.9629629629629629,,,,,,,,,,,,
null,,confidence_buffer,1189915,confidence_buffer,,null,,,,,,,,,,,,,,,,,,,,
null,,thebreak,1190418,break,,null,,,,,,,,,,,,,,,,,,,,
3966.1999999284744,,pt2_realistic_rating,1194386,US_Cities_List/nat_cleveland.png,,52,US_Cities_List/nat_cleveland.png,NAT,4,,,,,,,,,,,,,,,,,
null,,confidence_buffer,1194489,confidence_buffer,,null,,,,,,,,,,,,,,,,,,,,
2678.3000000715256,,pt2_unique_rating,1197171,US_Cities_List/nat_cleveland.png,,51,,,3,,,,,,,,,,,,,,,,,
null,,confidence_buffer,1197272,confidence_buffer,,null,,,,,,,,,,,,,,,,,,,,
1979.1000000238419,,pt2_memorable_rating,1199253,US_Cities_List/nat_cleveland.png,,51,,,3,,,,,,,,,,,,,,,,,
null,,confidence_buffer,1199356,confidence_buffer,,null,,,,,,,,,,,,,,,,,,,,
1876.3000000715256,,recognition_phase,1201235,US_Cities_List/nat_cleveland.png,,49,,,,,,old,1,0.9642857142857143,,,,,,,,,,,,
null,,confidence_buffer,1201338,confidence_buffer,,null,,,,,,,,,,,,,,,,,,,,
null,,thebreak,1201840,break,,null,,,,,,,,,,,,,,,,,,,,
6831.100000023842,,pt2_realistic_rating,1208674,US_Cities_List/nat_livingston.png,,53,US_Cities_List/nat_livingston.png,NAT,5,,,,,,,,,,,,,,,,,
null,,confidence_buffer,1208777,confidence_buffer,,null,,,,,,,,,,,,,,,,,,,,
1434.1999999284744,,pt2_unique_rating,1210213,US_Cities_List/nat_livingston.png,,53,,,5,,,,,,,,,,,,,,,,,
null,,confidence_buffer,1210316,confidence_buffer,,null,,,,,,,,,,,,,,,,,,,,
1134,,pt2_memorable_rating,1211452,US_Cities_List/nat_livingston.png,,53,,,5,,,,,,,,,,,,,,,,,
null,,confidence_buffer,1211555,confidence_buffer,,null,,,,,,,,,,,,,,,,,,,,
1411.7999999523163,,recognition_phase,1212968,US_Cities_List/nat_livingston.png,,49,,,,,,old,0,0.9310344827586207,,,,,,,,,,,,
null,,confidence_buffer,1213071,confidence_buffer,,null,,,,,,,,,,,,,,,,,,,,
null,,thebreak,1213573,break,,null,,,,,,,,,,,,,,,,,,,,
5127.300000071526,,pt2_realistic_rating,1218703,Fictional_Cities_List/img_natural_36.png,,52,Fictional_Cities_List/img_natural_36.png,NAT,4,,,,,,,,,,,,,,,,,
null,,confidence_buffer,1218805,confidence_buffer,,null,,,,,,,,,,,,,,,,,,,,
1039.7999999523163,,pt2_unique_rating,1219846,Fictional_Cities_List/img_natural_36.png,,52,,,4,,,,,,,,,,,,,,,,,
null,,confidence_buffer,1219950,confidence_buffer,,null,,,,,,,,,,,,,,,,,,,,
1375.3999999761581,,pt2_memorable_rating,1221327,Fictional_Cities_List/img_natural_36.png,,52,,,4,,,,,,,,,,,,,,,,,
null,,confidence_buffer,1221431,confidence_buffer,,null,,,,,,,,,,,,,,,,,,,,
1346,,recognition_phase,1222780,Fictional_Cities_List/img_natural_36.png,,49,,,,,,old,1,0.9333333333333333,,,,,,,,,,,,
null,,confidence_buffer,1222882,confidence_buffer,,null,,,,,,,,,,,,,,,,,,,,
null,,thebreak,1223384,break,,null,,,,,,,,,,,,,,,,,,,,
6075.600000023842,,pt2_realistic_rating,1229462,Fictional_Cities_List/img_natural_38.png,,52,Fictional_Cities_List/img_natural_38.png,NAT,4,,,,,,,,,,,,,,,,,
null,,confidence_buffer,1229566,confidence_buffer,,null,,,,,,,,,,,,,,,,,,,,
665.3999999761581,,pt2_unique_rating,1230234,Fictional_Cities_List/img_natural_38.png,,53,,,5,,,,,,,,,,,,,,,,,
null,,confidence_buffer,1230338,confidence_buffer,,null,,,,,,,,,,,,,,,,,,,,
1179.7999999523163,,pt2_memorable_rating,1231520,Fictional_Cities_List/img_natural_38.png,,52,,,4,,,,,,,,,,,,,,,,,
null,,confidence_buffer,1231623,confidence_buffer,,null,,,,,,,,,,,,,,,,,,,,
1250,,recognition_phase,1232875,Fictional_Cities_List/img_natural_38.png,,52,,,,,,new,0,0.9032258064516129,,,,,,,,,,,,
null,,confidence_buffer,1232977,confidence_buffer,,null,,,,,,,,,,,,,,,,,,,,
null,,thebreak,1233479,break,,null,,,,,,,,,,,,,,,,,,,,
8156.400000095367,,pt2_realistic_rating,1241638,Fictional_Cities_List/img_natural_12.png,,52,Fictional_Cities_List/img_natural_12.png,NAT,4,,,,,,,,,,,,,,,,,
null,,confidence_buffer,1241741,confidence_buffer,,null,,,,,,,,,,,,,,,,,,,,
1058.8000000715256,,pt2_unique_rating,1242802,Fictional_Cities_List/img_natural_12.png,,52,,,4,,,,,,,,,,,,,,,,,
null,,confidence_buffer,1242905,confidence_buffer,,null,,,,,,,,,,,,,,,,,,,,
746.8999999761581,,pt2_memorable_rating,1243654,Fictional_Cities_List/img_natural_12.png,,53,,,5,,,,,,,,,,,,,,,,,
null,,confidence_buffer,1243756,confidence_buffer,,null,,,,,,,,,,,,,,,,,,,,
4222.100000023842,,recognition_phase,1247981,Fictional_Cities_List/img_natural_12.png,,51,,,,,,new,1,0.90625,,,,,,,,,,,,
null,,confidence_buffer,1248084,confidence_buffer,,null,,,,,,,,,,,,,,,,,,,,
null,,thebreak,1248587,break,,null,,,,,,,,,,,,,,,,,,,,
5982.399999976158,,pt2_realistic_rating,1254572,Fictional_Cities_List/img_manmade_44.png,,53,Fictional_Cities_List/img_manmade_44.png,MM,5,,,,,,,,,,,,,,,,,
null,,confidence_buffer,1254675,confidence_buffer,,null,,,,,,,,,,,,,,,,,,,,
2246.8000000715256,,pt2_unique_rating,1256925,Fictional_Cities_List/img_manmade_44.png,,52,,,4,,,,,,,,,,,,,,,,,
null,,confidence_buffer,1257028,confidence_buffer,,null,,,,,,,,,,,,,,,,,,,,
855.2999999523163,,pt2_memorable_rating,1257885,Fictional_Cities_List/img_manmade_44.png,,52,,,4,,,,,,,,,,,,,,,,,
null,,confidence_buffer,1257988,confidence_buffer,,null,,,,,,,,,,,,,,,,,,,,
1972.2999999523163,,recognition_phase,1259963,Fictional_Cities_List/img_manmade_44.png,,49,,,,,,old,1,0.9090909090909091,,,,,,,,,,,,
null,,confidence_buffer,1260066,confidence_buffer,,null,,,,,,,,,,,,,,,,,,,,
null,,thebreak,1260568,break,,null,,,,,,,,,,,,,,,,,,,,
6577.299999952316,,pt2_realistic_rating,1267148,Fictional_Cities_List/img_manmade_24.png,,52,Fictional_Cities_List/img_manmade_24.png,MM,4,,,,,,,,,,,,,,,,,
null,,confidence_buffer,1267251,confidence_buffer,,null,,,,,,,,,,,,,,,,,,,,
555.3999999761581,,pt2_unique_rating,1267809,Fictional_Cities_List/img_manmade_24.png,,53,,,5,,,,,,,,,,,,,,,,,
null,,confidence_buffer,1267911,confidence_buffer,,null,,,,,,,,,,,,,,,,,,,,
1023.2999999523163,,pt2_memorable_rating,1268937,Fictional_Cities_List/img_manmade_24.png,,52,,,4,,,,,,,,,,,,,,,,,
null,,confidence_buffer,1269040,confidence_buffer,,null,,,,,,,,,,,,,,,,,,,,
2832.3000000715256,,recognition_phase,1271875,Fictional_Cities_List/img_manmade_24.png,,51,,,,,,new,1,0.9117647058823529,,,,,,,,,,,,
null,,confidence_buffer,1271978,confidence_buffer,,null,,,,,,,,,,,,,,,,,,,,
null,,thebreak,1272480,break,,null,,,,,,,,,,,,,,,,,,,,
4733.399999976158,,pt2_realistic_rating,1277216,Fictional_Cities_List/img_natural_40.png,,51,Fictional_Cities_List/img_natural_40.png,NAT,3,,,,,,,,,,,,,,,,,
null,,confidence_buffer,1277319,confidence_buffer,,null,,,,,,,,,,,,,,,,,,,,
737.6000000238419,,pt2_unique_rating,1278059,Fictional_Cities_List/img_natural_40.png,,52,,,4,,,,,,,,,,,,,,,,,
null,,confidence_buffer,1278162,confidence_buffer,,null,,,,,,,,,,,,,,,,,,,,
1037.8999999761581,,pt2_memorable_rating,1279203,Fictional_Cities_List/img_natural_40.png,,51,,,3,,,,,,,,,,,,,,,,,
null,,confidence_buffer,1279305,confidence_buffer,,null,,,,,,,,,,,,,,,,,,,,
2553.399999976158,,recognition_phase,1281861,Fictional_Cities_List/img_natural_40.png,,49,,,,,,old,1,0.9142857142857143,,,,,,,,,,,,
null,,confidence_buffer,1281964,confidence_buffer,,null,,,,,,,,,,,,,,,,,,,,
null,,thebreak,1282466,break,,null,,,,,,,,,,,,,,,,,,,,
3696.5,,pt2_realistic_rating,1286164,Fictional_Cities_List/img_natural_47.png,,52,Fictional_Cities_List/img_natural_47.png,NAT,4,,,,,,,,,,,,,,,,,
null,,confidence_buffer,1286268,confidence_buffer,,null,,,,,,,,,,,,,,,,,,,,
910.1999999284744,,pt2_unique_rating,1287181,Fictional_Cities_List/img_natural_47.png,,53,,,5,,,,,,,,,,,,,,,,,
null,,confidence_buffer,1287284,confidence_buffer,,null,,,,,,,,,,,,,,,,,,,,
1495.1999999284744,,pt2_memorable_rating,1288782,Fictional_Cities_List/img_natural_47.png,,51,,,3,,,,,,,,,,,,,,,,,
null,,confidence_buffer,1288885,confidence_buffer,,null,,,,,,,,,,,,,,,,,,,,
1256,,recognition_phase,1290143,Fictional_Cities_List/img_natural_47.png,,52,,,,,,new,1,0.9166666666666666,,,,,,,,,,,,
null,,confidence_buffer,1290246,confidence_buffer,,null,,,,,,,,,,,,,,,,,,,,
null,,thebreak,1290748,break,,null,,,,,,,,,,,,,,,,,,,,
7383.600000023842,,pt2_realistic_rating,1298134,Fictional_Cities_List/img_natural_27.png,,52,Fictional_Cities_List/img_natural_27.png,NAT,4,,,,,,,,,,,,,,,,,
null,,confidence_buffer,1298237,confidence_buffer,,null,,,,,,,,,,,,,,,,,,,,
1433.5999999046326,,pt2_unique_rating,1299673,Fictional_Cities_List/img_natural_27.png,,52,,,4,,,,,,,,,,,,,,,,,
null,,confidence_buffer,1299778,confidence_buffer,,null,,,,,,,,,,,,,,,,,,,,
2072.600000023842,,probe_rating,1301853,probe_rating,,51,,,,3,1,,,,,,,,,,,,,,,
null,,confidence_buffer,1301957,confidence_buffer,,null,,,,,,,,,,,,,,,,,,,,
6541.600000023842,,pt2_memorable_rating,1308500,Fictional_Cities_List/img_natural_27.png,,51,,,3,,,,,,,,,,,,,,,,,
null,,confidence_buffer,1308603,confidence_buffer,,null,,,,,,,,,,,,,,,,,,,,
2410.8000000715256,,recognition_phase,1311016,Fictional_Cities_List/img_natural_27.png,,52,,,,,,new,1,0.918918918918919,,,,,,,,,,,,
null,,confidence_buffer,1311118,confidence_buffer,,null,,,,,,,,,,,,,,,,,,,,
null,,thebreak,1311620,break,,null,,,,,,,,,,,,,,,,,,,,
5328.700000047684,,pt2_realistic_rating,1316952,Fictional_Cities_List/img_manmade_36.png,,53,Fictional_Cities_List/img_manmade_36.png,MM,5,,,,,,,,,,,,,,,,,
null,,confidence_buffer,1317054,confidence_buffer,,null,,,,,,,,,,,,,,,,,,,,
1139.6000000238419,,pt2_unique_rating,1318196,Fictional_Cities_List/img_manmade_36.png,,53,,,5,,,,,,,,,,,,,,,,,
null,,confidence_buffer,1318300,confidence_buffer,,null,,,,,,,,,,,,,,,,,,,,
3110.5,,pt2_memorable_rating,1321412,Fictional_Cities_List/img_manmade_36.png,,53,,,5,,,,,,,,,,,,,,,,,
null,,confidence_buffer,1321515,confidence_buffer,,null,,,,,,,,,,,,,,,,,,,,
2863.399999976158,,recognition_phase,1324379,Fictional_Cities_List/img_manmade_36.png,,52,,,,,,new,1,0.9210526315789473,,,,,,,,,,,,
null,,confidence_buffer,1324481,confidence_buffer,,null,,,,,,,,,,,,,,,,,,,,
null,,thebreak,1324984,break,,null,,,,,,,,,,,,,,,,,,,,
5256,,pt2_realistic_rating,1330241,US_Cities_List/mm_carmel.png,,52,US_Cities_List/mm_carmel.png,MM,4,,,,,,,,,,,,,,,,,
null,,confidence_buffer,1330345,confidence_buffer,,null,,,,,,,,,,,,,,,,,,,,
1001.1999999284744,,pt2_unique_rating,1331349,US_Cities_List/mm_carmel.png,,52,,,4,,,,,,,,,,,,,,,,,
null,,confidence_buffer,1331453,confidence_buffer,,null,,,,,,,,,,,,,,,,,,,,
1088.3999999761581,,pt2_memorable_rating,1332543,US_Cities_List/mm_carmel.png,,52,,,4,,,,,,,,,,,,,,,,,
null,,confidence_buffer,1332648,confidence_buffer,,null,,,,,,,,,,,,,,,,,,,,
3073.5,,recognition_phase,1335723,US_Cities_List/mm_carmel.png,,49,,,,,,old,1,0.9230769230769231,,,,,,,,,,,,
null,,confidence_buffer,1335826,confidence_buffer,,null,,,,,,,,,,,,,,,,,,,,
null,,thebreak,1336329,break,,null,,,,,,,,,,,,,,,,,,,,
4584.299999952316,,pt2_realistic_rating,1340915,Fictional_Cities_List/img_natural_33.png,,50,Fictional_Cities_List/img_natural_33.png,NAT,2,,,,,,,,,,,,,,,,,
null,,confidence_buffer,1341018,confidence_buffer,,null,,,,,,,,,,,,,,,,,,,,
1480.4000000953674,,pt2_unique_rating,1342500,Fictional_Cities_List/img_natural_33.png,,51,,,3,,,,,,,,,,,,,,,,,
null,,confidence_buffer,1342602,confidence_buffer,,null,,,,,,,,,,,,,,,,,,,,
2335.899999976158,,pt2_memorable_rating,1344940,Fictional_Cities_List/img_natural_33.png,,50,,,2,,,,,,,,,,,,,,,,,
null,,confidence_buffer,1345042,confidence_buffer,,null,,,,,,,,,,,,,,,,,,,,
1617.2999999523163,,recognition_phase,1346662,Fictional_Cities_List/img_natural_33.png,,49,,,,,,old,1,0.925,,,,,,,,,,,,
null,,confidence_buffer,1346765,confidence_buffer,,null,,,,,,,,,,,,,,,,,,,,
null,,thebreak,1347268,break,,null,,,,,,,,,,,,,,,,,,,,
3107.3000000715256,,pt2_realistic_rating,1350378,Fictional_Cities_List/img_natural_42.png,,51,Fictional_Cities_List/img_natural_42.png,NAT,3,,,,,,,,,,,,,,,,,
null,,confidence_buffer,1350481,confidence_buffer,,null,,,,,,,,,,,,,,,,,,,,
1099.1000000238419,,pt2_unique_rating,1351582,Fictional_Cities_List/img_natural_42.png,,52,,,4,,,,,,,,,,,,,,,,,
null,,confidence_buffer,1351685,confidence_buffer,,null,,,,,,,,,,,,,,,,,,,,
794.3000000715256,,pt2_memorable_rating,1352482,Fictional_Cities_List/img_natural_42.png,,52,,,4,,,,,,,,,,,,,,,,,
null,,confidence_buffer,1352585,confidence_buffer,,null,,,,,,,,,,,,,,,,,,,,
1662.9000000953674,,recognition_phase,1354251,Fictional_Cities_List/img_natural_42.png,,52,,,,,,new,1,0.926829268292683,,,,,,,,,,,,
null,,confidence_buffer,1354354,confidence_buffer,,null,,,,,,,,,,,,,,,,,,,,
null,,thebreak,1354857,break,,null,,,,,,,,,,,,,,,,,,,,
2287.7999999523163,,pt2_realistic_rating,1357148,Fictional_Cities_List/img_manmade_10.png,,51,Fictional_Cities_List/img_manmade_10.png,MM,3,,,,,,,,,,,,,,,,,
null,,confidence_buffer,1357251,confidence_buffer,,null,,,,,,,,,,,,,,,,,,,,
2292.2999999523163,,pt2_unique_rating,1359545,Fictional_Cities_List/img_manmade_10.png,,52,,,4,,,,,,,,,,,,,,,,,
null,,confidence_buffer,1359657,confidence_buffer,,null,,,,,,,,,,,,,,,,,,,,
767.0999999046326,,pt2_memorable_rating,1360426,Fictional_Cities_List/img_manmade_10.png,,51,,,3,,,,,,,,,,,,,,,,,
null,,confidence_buffer,1360529,confidence_buffer,,null,,,,,,,,,,,,,,,,,,,,
2923.5,,recognition_phase,1363455,Fictional_Cities_List/img_manmade_10.png,,49,,,,,,old,1,0.9285714285714286,,,,,,,,,,,,
null,,confidence_buffer,1363559,confidence_buffer,,null,,,,,,,,,,,,,,,,,,,,
null,,thebreak,1364060,break,,null,,,,,,,,,,,,,,,,,,,,
5099.700000047684,,pt2_realistic_rating,1369162,US_Cities_List/nat_coeurdalene.png,,52,US_Cities_List/nat_coeurdalene.png,NAT,4,,,,,,,,,,,,,,,,,
null,,confidence_buffer,1369266,confidence_buffer,,null,,,,,,,,,,,,,,,,,,,,
1289.9000000953674,,pt2_unique_rating,1370560,US_Cities_List/nat_coeurdalene.png,,52,,,4,,,,,,,,,,,,,,,,,
null,,confidence_buffer,1370664,confidence_buffer,,null,,,,,,,,,,,,,,,,,,,,
2597.600000023842,,probe_rating,1373263,probe_rating,,53,,,,5,1,,,,,,,,,,,,,,,
null,,confidence_buffer,1373366,confidence_buffer,,null,,,,,,,,,,,,,,,,,,,,
2655,,pt2_memorable_rating,1376024,US_Cities_List/nat_coeurdalene.png,,52,,,4,,,,,,,,,,,,,,,,,
null,,confidence_buffer,1376126,confidence_buffer,,null,,,,,,,,,,,,,,,,,,,,
1364.3999999761581,,recognition_phase,1377494,US_Cities_List/nat_coeurdalene.png,,51,,,,,,new,1,0.9302325581395349,,,,,,,,,,,,
null,,confidence_buffer,1377596,confidence_buffer,,null,,,,,,,,,,,,,,,,,,,,
null,,thebreak,1378099,break,,null,,,,,,,,,,,,,,,,,,,,
4657.600000023842,,pt2_realistic_rating,1382759,US_Cities_List/mm_huntsville.png,,51,US_Cities_List/mm_huntsville.png,MM,3,,,,,,,,,,,,,,,,,
null,,confidence_buffer,1382862,confidence_buffer,,null,,,,,,,,,,,,,,,,,,,,
1755.5,,pt2_unique_rating,1384619,US_Cities_List/mm_huntsville.png,,52,,,4,,,,,,,,,,,,,,,,,
null,,confidence_buffer,1384723,confidence_buffer,,null,,,,,,,,,,,,,,,,,,,,
2064.2000000476837,,pt2_memorable_rating,1386789,US_Cities_List/mm_huntsville.png,,52,,,4,,,,,,,,,,,,,,,,,
null,,confidence_buffer,1386892,confidence_buffer,,null,,,,,,,,,,,,,,,,,,,,
2558.2999999523163,,probe_rating,1389453,probe_rating,,52,,,,4,1,,,,,,,,,,,,,,,
null,,confidence_buffer,1389556,confidence_buffer,,null,,,,,,,,,,,,,,,,,,,,
1920.3000000715256,,recognition_phase,1391479,US_Cities_List/mm_huntsville.png,,52,,,,,,new,1,0.9318181818181818,,,,,,,,,,,,
null,,confidence_buffer,1391581,confidence_buffer,,null,,,,,,,,,,,,,,,,,,,,
null,,thebreak,1392094,break,,null,,,,,,,,,,,,,,,,,,,,
5101.899999976158,,pt2_realistic_rating,1397198,Fictional_Cities_List/img_natural_46.png,,49,Fictional_Cities_List/img_natural_46.png,NAT,1,,,,,,,,,,,,,,,,,
null,,confidence_buffer,1397302,confidence_buffer,,null,,,,,,,,,,,,,,,,,,,,
3777.2999999523163,,pt2_unique_rating,1401081,Fictional_Cities_List/img_natural_46.png,,51,,,3,,,,,,,,,,,,,,,,,
null,,confidence_buffer,1401185,confidence_buffer,,null,,,,,,,,,,,,,,,,,,,,
1342.7999999523163,,pt2_memorable_rating,1402530,Fictional_Cities_List/img_natural_46.png,,52,,,4,,,,,,,,,,,,,,,,,
null,,confidence_buffer,1402634,confidence_buffer,,null,,,,,,,,,,,,,,,,,,,,
2098.2000000476837,,probe_rating,1404734,probe_rating,,49,,,,1,1,,,,,,,,,,,,,,,
null,,confidence_buffer,1404836,confidence_buffer,,null,,,,,,,,,,,,,,,,,,,,
2220.600000023842,,recognition_phase,1407058,Fictional_Cities_List/img_natural_46.png,,52,,,,,,new,1,0.9333333333333333,,,,,,,,,,,,
null,,confidence_buffer,1407162,confidence_buffer,,null,,,,,,,,,,,,,,,,,,,,
null,,thebreak,1407663,break,,null,,,,,,,,,,,,,,,,,,,,
4247.300000071526,,pt2_realistic_rating,1411912,Fictional_Cities_List/img_manmade_46.png,,53,Fictional_Cities_List/img_manmade_46.png,MM,5,,,,,,,,,,,,,,,,,
null,,confidence_buffer,1412015,confidence_buffer,,null,,,,,,,,,,,,,,,,,,,,
1504,,pt2_unique_rating,1413521,Fictional_Cities_List/img_manmade_46.png,,53,,,5,,,,,,,,,,,,,,,,,
null,,confidence_buffer,1413623,confidence_buffer,,null,,,,,,,,,,,,,,,,,,,,
904.8000000715256,,pt2_memorable_rating,1414530,Fictional_Cities_List/img_manmade_46.png,,53,,,5,,,,,,,,,,,,,,,,,
null,,confidence_buffer,1414633,confidence_buffer,,null,,,,,,,,,,,,,,,,,,,,
1707.1999999284744,,recognition_phase,1416342,Fictional_Cities_List/img_manmade_46.png,,52,,,,,,new,1,0.9347826086956522,,,,,,,,,,,,
null,,confidence_buffer,1416443,confidence_buffer,,null,,,,,,,,,,,,,,,,,,,,
null,,thebreak,1416946,break,,null,,,,,,,,,,,,,,,,,,,,
2531,,pt2_realistic_rating,1419478,US_Cities_List/mm_hotsprings.png,,53,US_Cities_List/mm_hotsprings.png,MM,5,,,,,,,,,,,,,,,,,
null,,confidence_buffer,1419581,confidence_buffer,,null,,,,,,,,,,,,,,,,,,,,
1090.3000000715256,,pt2_unique_rating,1420673,US_Cities_List/mm_hotsprings.png,,53,,,5,,,,,,,,,,,,,,,,,
null,,confidence_buffer,1420774,confidence_buffer,,null,,,,,,,,,,,,,,,,,,,,
1399.1999999284744,,pt2_memorable_rating,1422175,US_Cities_List/mm_hotsprings.png,,53,,,5,,,,,,,,,,,,,,,,,
null,,confidence_buffer,1422280,confidence_buffer,,null,,,,,,,,,,,,,,,,,,,,
2172.600000023842,,probe_rating,1424454,probe_rating,,49,,,,1,1,,,,,,,,,,,,,,,
null,,confidence_buffer,1424556,confidence_buffer,,null,,,,,,,,,,,,,,,,,,,,
2246.8000000715256,,recognition_phase,1426805,US_Cities_List/mm_hotsprings.png,,52,,,,,,new,1,0.9361702127659575,,,,,,,,,,,,
null,,confidence_buffer,1426909,confidence_buffer,,null,,,,,,,,,,,,,,,,,,,,
null,,thebreak,1427412,break,,null,,,,,,,,,,,,,,,,,,,,
3705.600000023842,,pt2_realistic_rating,1431120,US_Cities_List/mm_gardnerville.png,,50,US_Cities_List/mm_gardnerville.png,MM,2,,,,,,,,,,,,,,,,,
null,,confidence_buffer,1431224,confidence_buffer,,null,,,,,,,,,,,,,,,,,,,,
1439,,pt2_unique_rating,1432665,US_Cities_List/mm_gardnerville.png,,51,,,3,,,,,,,,,,,,,,,,,
null,,confidence_buffer,1432768,confidence_buffer,,null,,,,,,,,,,,,,,,,,,,,
845,,pt2_memorable_rating,1433615,US_Cities_List/mm_gardnerville.png,,52,,,4,,,,,,,,,,,,,,,,,
null,,confidence_buffer,1433718,confidence_buffer,,null,,,,,,,,,,,,,,,,,,,,
2897.600000023842,,recognition_phase,1436619,US_Cities_List/mm_gardnerville.png,,49,,,,,,old,1,0.9375,,,,,,,,,,,,
null,,confidence_buffer,1436721,confidence_buffer,,null,,,,,,,,,,,,,,,,,,,,
null,,thebreak,1437223,break,,null,,,,,,,,,,,,,,,,,,,,
3443.2999999523163,,pt2_realistic_rating,1440668,US_Cities_List/mm_newhope.png,,52,US_Cities_List/mm_newhope.png,MM,4,,,,,,,,,,,,,,,,,
null,,confidence_buffer,1440771,confidence_buffer,,null,,,,,,,,,,,,,,,,,,,,
1394.8999999761581,,pt2_unique_rating,1442168,US_Cities_List/mm_newhope.png,,52,,,4,,,,,,,,,,,,,,,,,
null,,confidence_buffer,1442271,confidence_buffer,,null,,,,,,,,,,,,,,,,,,,,
1231.1999999284744,,pt2_memorable_rating,1443505,US_Cities_List/mm_newhope.png,,52,,,4,,,,,,,,,,,,,,,,,
null,,confidence_buffer,1443608,confidence_buffer,,null,,,,,,,,,,,,,,,,,,,,
2003.4000000953674,,recognition_phase,1445614,US_Cities_List/mm_newhope.png,,49,,,,,,old,1,0.9387755102040817,,,,,,,,,,,,
null,,confidence_buffer,1445717,confidence_buffer,,null,,,,,,,,,,,,,,,,,,,,
null,,thebreak,1446218,break,,null,,,,,,,,,,,,,,,,,,,,
4928,,pt2_realistic_rating,1451148,Fictional_Cities_List/img_manmade_42.png,,52,Fictional_Cities_List/img_manmade_42.png,MM,4,,,,,,,,,,,,,,,,,
null,,confidence_buffer,1451251,confidence_buffer,,null,,,,,,,,,,,,,,,,,,,,
2415,,pt2_unique_rating,1453667,Fictional_Cities_List/img_manmade_42.png,,52,,,4,,,,,,,,,,,,,,,,,
null,,confidence_buffer,1453769,confidence_buffer,,null,,,,,,,,,,,,,,,,,,,,
4027.399999976158,,pt2_memorable_rating,1457799,Fictional_Cities_List/img_manmade_42.png,,52,,,4,,,,,,,,,,,,,,,,,
null,,confidence_buffer,1457900,confidence_buffer,,null,,,,,,,,,,,,,,,,,,,,
1503.9000000953674,,recognition_phase,1459407,Fictional_Cities_List/img_manmade_42.png,,49,,,,,,old,1,0.94,,,,,,,,,,,,
null,,confidence_buffer,1459510,confidence_buffer,,null,,,,,,,,,,,,,,,,,,,,
null,,thebreak,1460017,break,,null,,,,,,,,,,,,,,,,,,,,
3589.0999999046326,,pt2_realistic_rating,1463608,US_Cities_List/nat_newhope.png,,51,US_Cities_List/nat_newhope.png,NAT,3,,,,,,,,,,,,,,,,,
null,,confidence_buffer,1463710,confidence_buffer,,null,,,,,,,,,,,,,,,,,,,,
867.8000000715256,,pt2_unique_rating,1464580,US_Cities_List/nat_newhope.png,,51,,,3,,,,,,,,,,,,,,,,,
null,,confidence_buffer,1464683,confidence_buffer,,null,,,,,,,,,,,,,,,,,,,,
1440.6000000238419,,pt2_memorable_rating,1466126,US_Cities_List/nat_newhope.png,,51,,,3,,,,,,,,,,,,,,,,,
null,,confidence_buffer,1466230,confidence_buffer,,null,,,,,,,,,,,,,,,,,,,,
2464.399999976158,,recognition_phase,1468698,US_Cities_List/nat_newhope.png,,52,,,,,,new,1,0.9411764705882353,,,,,,,,,,,,
null,,confidence_buffer,1468800,confidence_buffer,,null,,,,,,,,,,,,,,,,,,,,
null,,thebreak,1469303,break,,null,,,,,,,,,,,,,,,,,,,,
2774.600000023842,,pt2_realistic_rating,1472080,US_Cities_List/nat_athens.png,,52,US_Cities_List/nat_athens.png,NAT,4,,,,,,,,,,,,,,,,,
null,,confidence_buffer,1472182,confidence_buffer,,null,,,,,,,,,,,,,,,,,,,,
638.6000000238419,,pt2_unique_rating,1472823,US_Cities_List/nat_athens.png,,52,,,4,,,,,,,,,,,,,,,,,
null,,confidence_buffer,1472926,confidence_buffer,,null,,,,,,,,,,,,,,,,,,,,
652.2999999523163,,pt2_memorable_rating,1473581,US_Cities_List/nat_athens.png,,52,,,4,,,,,,,,,,,,,,,,,
null,,confidence_buffer,1473683,confidence_buffer,,null,,,,,,,,,,,,,,,,,,,,
1368.2999999523163,,recognition_phase,1475054,US_Cities_List/nat_athens.png,,51,,,,,,new,0,0.9230769230769231,,,,,,,,,,,,
null,,confidence_buffer,1475158,confidence_buffer,,null,,,,,,,,,,,,,,,,,,,,
null,,thebreak,1475660,break,,null,,,,,,,,,,,,,,,,,,,,
3055.100000023842,,pt2_realistic_rating,1478718,US_Cities_List/mm_racine.png,,52,US_Cities_List/mm_racine.png,MM,4,,,,,,,,,,,,,,,,,
null,,confidence_buffer,1478822,confidence_buffer,,null,,,,,,,,,,,,,,,,,,,,
1050.6000000238419,,probe_rating,1479876,probe_rating,,52,,,,4,0,,,,,,,,,,,,,,,
null,,confidence_buffer,1479978,confidence_buffer,,null,,,,,,,,,,,,,,,,,,,,
13855.899999976158,,pt2_unique_rating,1493837,US_Cities_List/mm_racine.png,,53,,,5,,,,,,,,,,,,,,,,,
null,,confidence_buffer,1493940,confidence_buffer,,null,,,,,,,,,,,,,,,,,,,,
6941.300000071526,,pt2_memorable_rating,1500884,US_Cities_List/mm_racine.png,,52,,,4,,,,,,,,,,,,,,,,,
null,,confidence_buffer,1500986,confidence_buffer,,null,,,,,,,,,,,,,,,,,,,,
2647.6999999284744,,recognition_phase,1503636,US_Cities_List/mm_racine.png,,52,,,,,,new,1,0.9245283018867925,,,,,,,,,,,,
null,,confidence_buffer,1503738,confidence_buffer,,null,,,,,,,,,,,,,,,,,,,,
null,,thebreak,1504240,break,,null,,,,,,,,,,,,,,,,,,,,
5804.399999976158,,pt2_realistic_rating,1510046,US_Cities_List/mm_sisters.png,,53,US_Cities_List/mm_sisters.png,MM,5,,,,,,,,,,,,,,,,,
null,,confidence_buffer,1510150,confidence_buffer,,null,,,,,,,,,,,,,,,,,,,,
1802.8000000715256,,pt2_unique_rating,1511955,US_Cities_List/mm_sisters.png,,53,,,5,,,,,,,,,,,,,,,,,
null,,confidence_buffer,1512058,confidence_buffer,,null,,,,,,,,,,,,,,,,,,,,
1691.2999999523163,,pt2_memorable_rating,1513751,US_Cities_List/mm_sisters.png,,53,,,5,,,,,,,,,,,,,,,,,
null,,confidence_buffer,1513854,confidence_buffer,,null,,,,,,,,,,,,,,,,,,,,
1555.6999999284744,,recognition_phase,1515412,US_Cities_List/mm_sisters.png,,52,,,,,,new,1,0.9259259259259259,,,,,,,,,,,,
null,,confidence_buffer,1515516,confidence_buffer,,null,,,,,,,,,,,,,,,,,,,,
null,,thebreak,1516018,break,,null,,,,,,,,,,,,,,,,,,,,
3503.100000023842,,pt2_realistic_rating,1519524,US_Cities_List/nat_cornwall.png,,50,US_Cities_List/nat_cornwall.png,NAT,2,,,,,,,,,,,,,,,,,
null,,confidence_buffer,1519628,confidence_buffer,,null,,,,,,,,,,,,,,,,,,,,
2268,,pt2_unique_rating,1521898,US_Cities_List/nat_cornwall.png,,51,,,3,,,,,,,,,,,,,,,,,
null,,confidence_buffer,1522000,confidence_buffer,,null,,,,,,,,,,,,,,,,,,,,
1231.1000000238419,,pt2_memorable_rating,1523234,US_Cities_List/nat_cornwall.png,,52,,,4,,,,,,,,,,,,,,,,,
null,,confidence_buffer,1523337,confidence_buffer,,null,,,,,,,,,,,,,,,,,,,,
1942.1000000238419,,recognition_phase,1525282,US_Cities_List/nat_cornwall.png,,52,,,,,,new,0,0.9090909090909091,,,,,,,,,,,,
null,,confidence_buffer,1525384,confidence_buffer,,null,,,,,,,,,,,,,,,,,,,,
null,,thebreak,1525887,break,,null,,,,,,,,,,,,,,,,,,,,
3280.899999976158,,pt2_realistic_rating,1529170,US_Cities_List/mm_albuquerque.png,,53,US_Cities_List/mm_albuquerque.png,MM,5,,,,,,,,,,,,,,,,,
null,,confidence_buffer,1529273,confidence_buffer,,null,,,,,,,,,,,,,,,,,,,,
2934,,pt2_unique_rating,1532210,US_Cities_List/mm_albuquerque.png,,52,,,4,,,,,,,,,,,,,,,,,
null,,confidence_buffer,1532312,confidence_buffer,,null,,,,,,,,,,,,,,,,,,,,
973.6000000238419,,pt2_memorable_rating,1533287,US_Cities_List/mm_albuquerque.png,,52,,,4,,,,,,,,,,,,,,,,,
null,,confidence_buffer,1533391,confidence_buffer,,null,,,,,,,,,,,,,,,,,,,,
2246.7999999523163,,recognition_phase,1535640,US_Cities_List/mm_albuquerque.png,,49,,,,,,old,1,0.9107142857142857,,,,,,,,,,,,
null,,confidence_buffer,1535742,confidence_buffer,,null,,,,,,,,,,,,,,,,,,,,
null,,thebreak,1536244,break,,null,,,,,,,,,,,,,,,,,,,,
2763.0999999046326,,pt2_realistic_rating,1539010,US_Cities_List/nat_hilo.png,,51,US_Cities_List/nat_hilo.png,NAT,3,,,,,,,,,,,,,,,,,
null,,confidence_buffer,1539113,confidence_buffer,,null,,,,,,,,,,,,,,,,,,,,
1487.6000000238419,,pt2_unique_rating,1540603,US_Cities_List/nat_hilo.png,,52,,,4,,,,,,,,,,,,,,,,,
null,,confidence_buffer,1540705,confidence_buffer,,null,,,,,,,,,,,,,,,,,,,,
929.5,,pt2_memorable_rating,1541637,US_Cities_List/nat_hilo.png,,53,,,5,,,,,,,,,,,,,,,,,
null,,confidence_buffer,1541741,confidence_buffer,,null,,,,,,,,,,,,,,,,,,,,
2012.2000000476837,,recognition_phase,1543756,US_Cities_List/nat_hilo.png,,52,,,,,,new,1,0.9122807017543859,,,,,,,,,,,,
null,,confidence_buffer,1543861,confidence_buffer,,null,,,,,,,,,,,,,,,,,,,,
null,,thebreak,1544364,break,,null,,,,,,,,,,,,,,,,,,,,
12962.600000023842,,pt2_realistic_rating,1557328,Fictional_Cities_List/img_manmade_13.png,,53,Fictional_Cities_List/img_manmade_13.png,MM,5,,,,,,,,,,,,,,,,,
null,,confidence_buffer,1557430,confidence_buffer,,null,,,,,,,,,,,,,,,,,,,,
1883.2000000476837,,probe_rating,1559315,probe_rating,,53,,,,5,1,,,,,,,,,,,,,,,
null,,confidence_buffer,1559419,confidence_buffer,,null,,,,,,,,,,,,,,,,,,,,
2813.2000000476837,,pt2_unique_rating,1562234,Fictional_Cities_List/img_manmade_13.png,,53,,,5,,,,,,,,,,,,,,,,,
null,,confidence_buffer,1562337,confidence_buffer,,null,,,,,,,,,,,,,,,,,,,,
1408.8999999761581,,pt2_memorable_rating,1563748,Fictional_Cities_List/img_manmade_13.png,,53,,,5,,,,,,,,,,,,,,,,,
null,,confidence_buffer,1563852,confidence_buffer,,null,,,,,,,,,,,,,,,,,,,,
1788.7999999523163,,recognition_phase,1565644,Fictional_Cities_List/img_manmade_13.png,,52,,,,,,new,1,0.9137931034482759,,,,,,,,,,,,
null,,confidence_buffer,1565748,confidence_buffer,,null,,,,,,,,,,,,,,,,,,,,
null,,thebreak,1566251,break,,null,,,,,,,,,,,,,,,,,,,,
4111.699999928474,,pt2_realistic_rating,1570364,US_Cities_List/nat_yukon.png,,52,US_Cities_List/nat_yukon.png,NAT,4,,,,,,,,,,,,,,,,,
null,,confidence_buffer,1570466,confidence_buffer,,null,,,,,,,,,,,,,,,,,,,,
1259.2999999523163,,pt2_unique_rating,1571727,US_Cities_List/nat_yukon.png,,52,,,4,,,,,,,,,,,,,,,,,
null,,confidence_buffer,1571829,confidence_buffer,,null,,,,,,,,,,,,,,,,,,,,
2261.100000023842,,probe_rating,1574091,probe_rating,,53,,,,5,1,,,,,,,,,,,,,,,
null,,confidence_buffer,1574195,confidence_buffer,,null,,,,,,,,,,,,,,,,,,,,
4525,,pt2_memorable_rating,1578723,US_Cities_List/nat_yukon.png,,52,,,4,,,,,,,,,,,,,,,,,
null,,confidence_buffer,1578832,confidence_buffer,,null,,,,,,,,,,,,,,,,,,,,
4945.399999976158,,recognition_phase,1583780,US_Cities_List/nat_yukon.png,,49,,,,,,old,1,0.9152542372881356,,,,,,,,,,,,
null,,confidence_buffer,1583882,confidence_buffer,,null,,,,,,,,,,,,,,,,,,,,
null,,thebreak,1584383,break,,null,,,,,,,,,,,,,,,,,,,,
5204.299999952316,,pt2_realistic_rating,1589590,Fictional_Cities_List/img_manmade_33.png,,50,Fictional_Cities_List/img_manmade_33.png,MM,2,,,,,,,,,,,,,,,,,
null,,confidence_buffer,1589693,confidence_buffer,,null,,,,,,,,,,,,,,,,,,,,
1514.6999999284744,,pt2_unique_rating,1591210,Fictional_Cities_List/img_manmade_33.png,,51,,,3,,,,,,,,,,,,,,,,,
null,,confidence_buffer,1591313,confidence_buffer,,null,,,,,,,,,,,,,,,,,,,,
779.9000000953674,,pt2_memorable_rating,1592095,Fictional_Cities_List/img_manmade_33.png,,51,,,3,,,,,,,,,,,,,,,,,
null,,confidence_buffer,1592199,confidence_buffer,,null,,,,,,,,,,,,,,,,,,,,
2798.7000000476837,,recognition_phase,1595000,Fictional_Cities_List/img_manmade_33.png,,49,,,,,,old,1,0.9166666666666666,,,,,,,,,,,,
null,,confidence_buffer,1595102,confidence_buffer,,null,,,,,,,,,,,,,,,,,,,,
null,,thebreak,1595604,break,,null,,,,,,,,,,,,,,,,,,,,
,,survey,1921105,survey-questions,,,,,,,,,,,none,high,I was focused and not distracted,I was just focused,Consider it personally,How will the image stay liker by a person,How beautiful looking it appears to me,Seeing something similar in real life,I have not done it on another platform,N/A,,
21918.200000047684,,thank_you,1943092,all_done,,32,,,,,,,,,,,,,,,,,,,23,1
