rt,responses,trial_type,time_elapsed,stimulus,button_pressed,key_press,name_trial,city_type,rating,probe,probe_accuracy,response,correct,accuracy,problems,smooth,distraction,strategies,familiar,memorable,unique,realistic,similar,comments
5258.399999976158,{worker_id:64360d6189dec3ac8afc9a78},id_enter,5263,,,,,,,,,,,,,,,,,,,,,
8881.400000035763,,fullscreen,14147,fullscreen,0,,,,,,,,,,,,,,,,,,,
6448.300000011921,,intro_0,20598,instruct,,32,,,,,,,,,,,,,,,,,,
9886.100000023842,,intro_1,30487,instruct,,32,,,,,,,,,,,,,,,,,,
4975.599999964237,,intro_2,35464,instruct,,32,,,,,,,,,,,,,,,,,,
null,,instruct_dir_4,36965,instruct,,null,,,,,,,,,,,,,,,,,,
null,,thebreak,37466,break,,null,,,,,,,,,,,,,,,,,,
8901.199999988079,,familiar_rating,46369,Fictional_Cities_List/img_natural_33.png,,49,Fictional_Cities_List/img_natural_33.png,NAT,1,,,,,,,,,,,,,,,
null,,confidence_buffer,46471,confidence_buffer,,null,,,,,,,,,,,,,,,,,,
4138.600000023842,,unique_rating,50610,Fictional_Cities_List/img_natural_33.png,,53,,,5,,,,,,,,,,,,,,,
null,,confidence_buffer,50712,confidence_buffer,,null,,,,,,,,,,,,,,,,,,
6137.399999976158,,memorable_rating,56850,Fictional_Cities_List/img_natural_33.png,,51,,,3,,,,,,,,,,,,,,,
null,,confidence_buffer,56952,confidence_buffer,,null,,,,,,,,,,,,,,,,,,
null,,thebreak,57469,break,,null,,,,,,,,,,,,,,,,,,
9654.600000023842,,familiar_rating,67125,US_Cities_List/mm_assateagueisland.png,,51,US_Cities_List/mm_assateagueisland.png,MM,3,,,,,,,,,,,,,,,
null,,confidence_buffer,67227,confidence_buffer,,null,,,,,,,,,,,,,,,,,,
5136.300000011921,,unique_rating,72364,US_Cities_List/mm_assateagueisland.png,,50,,,2,,,,,,,,,,,,,,,
null,,confidence_buffer,72465,confidence_buffer,,null,,,,,,,,,,,,,,,,,,
3803.399999976158,,memorable_rating,76270,US_Cities_List/mm_assateagueisland.png,,51,,,3,,,,,,,,,,,,,,,
null,,confidence_buffer,76371,confidence_buffer,,null,,,,,,,,,,,,,,,,,,
null,,thebreak,76872,break,,null,,,,,,,,,,,,,,,,,,
6204.699999988079,,familiar_rating,83078,Fictional_Cities_List/img_manmade_16.png,,49,Fictional_Cities_List/img_manmade_16.png,MM,1,,,,,,,,,,,,,,,
null,,confidence_buffer,83179,confidence_buffer,,null,,,,,,,,,,,,,,,,,,
3386.899999976158,,probe_rating,86567,probe_rating,,53,,,,5,1,,,,,,,,,,,,,
null,,confidence_buffer,86669,confidence_buffer,,null,,,,,,,,,,,,,,,,,,
5609,,unique_rating,92279,Fictional_Cities_List/img_manmade_16.png,,52,,,4,,,,,,,,,,,,,,,
null,,confidence_buffer,92381,confidence_buffer,,null,,,,,,,,,,,,,,,,,,
2946,,memorable_rating,95328,Fictional_Cities_List/img_manmade_16.png,,51,,,3,,,,,,,,,,,,,,,
null,,confidence_buffer,95429,confidence_buffer,,null,,,,,,,,,,,,,,,,,,
null,,thebreak,95931,break,,null,,,,,,,,,,,,,,,,,,
7325,,familiar_rating,103257,Fictional_Cities_List/img_natural_20.png,,51,Fictional_Cities_List/img_natural_20.png,NAT,3,,,,,,,,,,,,,,,
null,,confidence_buffer,103359,confidence_buffer,,null,,,,,,,,,,,,,,,,,,
3018.2000000476837,,unique_rating,106378,Fictional_Cities_List/img_natural_20.png,,53,,,5,,,,,,,,,,,,,,,
null,,confidence_buffer,106480,confidence_buffer,,null,,,,,,,,,,,,,,,,,,
2416.399999976158,,memorable_rating,108897,Fictional_Cities_List/img_natural_20.png,,53,,,5,,,,,,,,,,,,,,,
null,,confidence_buffer,108999,confidence_buffer,,null,,,,,,,,,,,,,,,,,,
null,,thebreak,109500,break,,null,,,,,,,,,,,,,,,,,,
6886.199999988079,,familiar_rating,116387,Fictional_Cities_List/img_manmade_27.png,,52,Fictional_Cities_List/img_manmade_27.png,MM,4,,,,,,,,,,,,,,,
null,,confidence_buffer,116488,confidence_buffer,,null,,,,,,,,,,,,,,,,,,
4778,,unique_rating,121267,Fictional_Cities_List/img_manmade_27.png,,50,,,2,,,,,,,,,,,,,,,
null,,confidence_buffer,121369,confidence_buffer,,null,,,,,,,,,,,,,,,,,,
2297.5,,memorable_rating,123667,Fictional_Cities_List/img_manmade_27.png,,50,,,2,,,,,,,,,,,,,,,
null,,confidence_buffer,123769,confidence_buffer,,null,,,,,,,,,,,,,,,,,,
null,,thebreak,124270,break,,null,,,,,,,,,,,,,,,,,,
6844.800000011921,,familiar_rating,131116,Fictional_Cities_List/img_manmade_09.png,,51,Fictional_Cities_List/img_manmade_09.png,MM,3,,,,,,,,,,,,,,,
null,,confidence_buffer,131219,confidence_buffer,,null,,,,,,,,,,,,,,,,,,
6032.899999976158,,unique_rating,137252,Fictional_Cities_List/img_manmade_09.png,,49,,,1,,,,,,,,,,,,,,,
null,,confidence_buffer,137355,confidence_buffer,,null,,,,,,,,,,,,,,,,,,
2481.300000011921,,memorable_rating,139837,Fictional_Cities_List/img_manmade_09.png,,50,,,2,,,,,,,,,,,,,,,
null,,confidence_buffer,139939,confidence_buffer,,null,,,,,,,,,,,,,,,,,,
null,,thebreak,140441,break,,null,,,,,,,,,,,,,,,,,,
6212.5,,familiar_rating,146655,Fictional_Cities_List/img_natural_38.png,,53,Fictional_Cities_List/img_natural_38.png,NAT,5,,,,,,,,,,,,,,,
null,,confidence_buffer,146757,confidence_buffer,,null,,,,,,,,,,,,,,,,,,
3937.599999964237,,unique_rating,150695,Fictional_Cities_List/img_natural_38.png,,49,,,1,,,,,,,,,,,,,,,
null,,confidence_buffer,150797,confidence_buffer,,null,,,,,,,,,,,,,,,,,,
2816.199999988079,,memorable_rating,153615,Fictional_Cities_List/img_natural_38.png,,49,,,1,,,,,,,,,,,,,,,
null,,confidence_buffer,153716,confidence_buffer,,null,,,,,,,,,,,,,,,,,,
null,,thebreak,154218,break,,null,,,,,,,,,,,,,,,,,,
6300.699999988079,,familiar_rating,160520,Fictional_Cities_List/img_manmade_45.png,,53,Fictional_Cities_List/img_manmade_45.png,MM,5,,,,,,,,,,,,,,,
null,,confidence_buffer,160621,confidence_buffer,,null,,,,,,,,,,,,,,,,,,
2865.800000011921,,unique_rating,163488,Fictional_Cities_List/img_manmade_45.png,,49,,,1,,,,,,,,,,,,,,,
null,,confidence_buffer,163589,confidence_buffer,,null,,,,,,,,,,,,,,,,,,
2003,,memorable_rating,165593,Fictional_Cities_List/img_manmade_45.png,,49,,,1,,,,,,,,,,,,,,,
null,,confidence_buffer,165695,confidence_buffer,,null,,,,,,,,,,,,,,,,,,
null,,thebreak,166197,break,,null,,,,,,,,,,,,,,,,,,
7068.200000047684,,familiar_rating,173266,US_Cities_List/nat_watkinsglen.png,,49,US_Cities_List/nat_watkinsglen.png,NAT,1,,,,,,,,,,,,,,,
null,,confidence_buffer,173375,confidence_buffer,,null,,,,,,,,,,,,,,,,,,
4082.5,,unique_rating,177459,US_Cities_List/nat_watkinsglen.png,,52,,,4,,,,,,,,,,,,,,,
null,,confidence_buffer,177562,confidence_buffer,,null,,,,,,,,,,,,,,,,,,
3431.800000011921,,memorable_rating,180994,US_Cities_List/nat_watkinsglen.png,,52,,,4,,,,,,,,,,,,,,,
null,,confidence_buffer,181096,confidence_buffer,,null,,,,,,,,,,,,,,,,,,
null,,thebreak,181597,break,,null,,,,,,,,,,,,,,,,,,
5053.600000023842,,familiar_rating,186652,US_Cities_List/mm_capemay.png,,52,US_Cities_List/mm_capemay.png,MM,4,,,,,,,,,,,,,,,
null,,confidence_buffer,186754,confidence_buffer,,null,,,,,,,,,,,,,,,,,,
1865.3999999761581,,probe_rating,188620,probe_rating,,53,,,,5,1,,,,,,,,,,,,,
null,,confidence_buffer,188722,confidence_buffer,,null,,,,,,,,,,,,,,,,,,
5345.5,,unique_rating,194068,US_Cities_List/mm_capemay.png,,49,,,1,,,,,,,,,,,,,,,
null,,confidence_buffer,194170,confidence_buffer,,null,,,,,,,,,,,,,,,,,,
3170.300000011921,,memorable_rating,197342,US_Cities_List/mm_capemay.png,,50,,,2,,,,,,,,,,,,,,,
null,,confidence_buffer,197444,confidence_buffer,,null,,,,,,,,,,,,,,,,,,
null,,thebreak,197946,break,,null,,,,,,,,,,,,,,,,,,
5299.199999988079,,familiar_rating,203246,US_Cities_List/nat_racine.png,,53,US_Cities_List/nat_racine.png,NAT,5,,,,,,,,,,,,,,,
null,,confidence_buffer,203347,confidence_buffer,,null,,,,,,,,,,,,,,,,,,
2434.900000035763,,unique_rating,205782,US_Cities_List/nat_racine.png,,49,,,1,,,,,,,,,,,,,,,
null,,confidence_buffer,205884,confidence_buffer,,null,,,,,,,,,,,,,,,,,,
2577.7000000476837,,memorable_rating,208463,US_Cities_List/nat_racine.png,,49,,,1,,,,,,,,,,,,,,,
null,,confidence_buffer,208565,confidence_buffer,,null,,,,,,,,,,,,,,,,,,
2024.3999999761581,,probe_rating,210590,probe_rating,,52,,,,4,1,,,,,,,,,,,,,
null,,confidence_buffer,210692,confidence_buffer,,null,,,,,,,,,,,,,,,,,,
null,,thebreak,211194,break,,null,,,,,,,,,,,,,,,,,,
5437.5,,familiar_rating,216632,Fictional_Cities_List/img_manmade_44.png,,51,Fictional_Cities_List/img_manmade_44.png,MM,3,,,,,,,,,,,,,,,
null,,confidence_buffer,216734,confidence_buffer,,null,,,,,,,,,,,,,,,,,,
6738.700000047684,,unique_rating,223473,Fictional_Cities_List/img_manmade_44.png,,52,,,4,,,,,,,,,,,,,,,
null,,confidence_buffer,223576,confidence_buffer,,null,,,,,,,,,,,,,,,,,,
3961,,memorable_rating,227538,Fictional_Cities_List/img_manmade_44.png,,52,,,4,,,,,,,,,,,,,,,
null,,confidence_buffer,227640,confidence_buffer,,null,,,,,,,,,,,,,,,,,,
null,,thebreak,228142,break,,null,,,,,,,,,,,,,,,,,,
6866.899999976158,,familiar_rating,235009,US_Cities_List/mm_racine.png,,51,US_Cities_List/mm_racine.png,MM,3,,,,,,,,,,,,,,,
null,,confidence_buffer,235110,confidence_buffer,,null,,,,,,,,,,,,,,,,,,
3588.400000035763,,unique_rating,238699,US_Cities_List/mm_racine.png,,50,,,2,,,,,,,,,,,,,,,
null,,confidence_buffer,238800,confidence_buffer,,null,,,,,,,,,,,,,,,,,,
4538.199999988079,,memorable_rating,243339,US_Cities_List/mm_racine.png,,51,,,3,,,,,,,,,,,,,,,
null,,confidence_buffer,243440,confidence_buffer,,null,,,,,,,,,,,,,,,,,,
1937.4000000357628,,probe_rating,245378,probe_rating,,52,,,,4,1,,,,,,,,,,,,,
null,,confidence_buffer,245480,confidence_buffer,,null,,,,,,,,,,,,,,,,,,
null,,thebreak,245982,break,,null,,,,,,,,,,,,,,,,,,
6718.299999952316,,familiar_rating,252701,US_Cities_List/mm_barnard.png,,52,US_Cities_List/mm_barnard.png,MM,4,,,,,,,,,,,,,,,
null,,confidence_buffer,252802,confidence_buffer,,null,,,,,,,,,,,,,,,,,,
2794,,unique_rating,255597,US_Cities_List/mm_barnard.png,,49,,,1,,,,,,,,,,,,,,,
null,,confidence_buffer,255699,confidence_buffer,,null,,,,,,,,,,,,,,,,,,
4049.5,,memorable_rating,259750,US_Cities_List/mm_barnard.png,,53,,,5,,,,,,,,,,,,,,,
null,,confidence_buffer,259852,confidence_buffer,,null,,,,,,,,,,,,,,,,,,
null,,thebreak,260353,break,,null,,,,,,,,,,,,,,,,,,
5421.100000023842,,familiar_rating,265775,US_Cities_List/mm_gardnerville.png,,49,US_Cities_List/mm_gardnerville.png,MM,1,,,,,,,,,,,,,,,
null,,confidence_buffer,265882,confidence_buffer,,null,,,,,,,,,,,,,,,,,,
3355.600000023842,,unique_rating,269239,US_Cities_List/mm_gardnerville.png,,53,,,5,,,,,,,,,,,,,,,
null,,confidence_buffer,269341,confidence_buffer,,null,,,,,,,,,,,,,,,,,,
4673.300000011921,,memorable_rating,274016,US_Cities_List/mm_gardnerville.png,,53,,,5,,,,,,,,,,,,,,,
null,,confidence_buffer,274119,confidence_buffer,,null,,,,,,,,,,,,,,,,,,
null,,thebreak,274620,break,,null,,,,,,,,,,,,,,,,,,
3539.100000023842,,familiar_rating,278160,Fictional_Cities_List/img_natural_01.png,,53,Fictional_Cities_List/img_natural_01.png,NAT,5,,,,,,,,,,,,,,,
null,,confidence_buffer,278261,confidence_buffer,,null,,,,,,,,,,,,,,,,,,
3923.199999988079,,unique_rating,282185,Fictional_Cities_List/img_natural_01.png,,50,,,2,,,,,,,,,,,,,,,
null,,confidence_buffer,282287,confidence_buffer,,null,,,,,,,,,,,,,,,,,,
2856.5,,memorable_rating,285144,Fictional_Cities_List/img_natural_01.png,,52,,,4,,,,,,,,,,,,,,,
null,,confidence_buffer,285245,confidence_buffer,,null,,,,,,,,,,,,,,,,,,
null,,thebreak,285748,break,,null,,,,,,,,,,,,,,,,,,
3661,,familiar_rating,289410,Fictional_Cities_List/img_natural_39.png,,53,Fictional_Cities_List/img_natural_39.png,NAT,5,,,,,,,,,,,,,,,
null,,confidence_buffer,289512,confidence_buffer,,null,,,,,,,,,,,,,,,,,,
4626.5,,unique_rating,294139,Fictional_Cities_List/img_natural_39.png,,50,,,2,,,,,,,,,,,,,,,
null,,confidence_buffer,294241,confidence_buffer,,null,,,,,,,,,,,,,,,,,,
2704.400000035763,,memorable_rating,296947,Fictional_Cities_List/img_natural_39.png,,53,,,5,,,,,,,,,,,,,,,
null,,confidence_buffer,297048,confidence_buffer,,null,,,,,,,,,,,,,,,,,,
null,,thebreak,297550,break,,null,,,,,,,,,,,,,,,,,,
4972.199999988079,,familiar_rating,302523,US_Cities_List/nat_gatlinburg.png,,53,US_Cities_List/nat_gatlinburg.png,NAT,5,,,,,,,,,,,,,,,
null,,confidence_buffer,302626,confidence_buffer,,null,,,,,,,,,,,,,,,,,,
4649.5,,unique_rating,307276,US_Cities_List/nat_gatlinburg.png,,52,,,4,,,,,,,,,,,,,,,
null,,confidence_buffer,307380,confidence_buffer,,null,,,,,,,,,,,,,,,,,,
1887.6000000238419,,memorable_rating,309268,US_Cities_List/nat_gatlinburg.png,,52,,,4,,,,,,,,,,,,,,,
null,,confidence_buffer,309370,confidence_buffer,,null,,,,,,,,,,,,,,,,,,
null,,thebreak,309883,break,,null,,,,,,,,,,,,,,,,,,
7298.100000023842,,familiar_rating,317182,US_Cities_List/mm_medora.png,,52,US_Cities_List/mm_medora.png,MM,4,,,,,,,,,,,,,,,
null,,confidence_buffer,317283,confidence_buffer,,null,,,,,,,,,,,,,,,,,,
1921.2999999523163,,probe_rating,319205,probe_rating,,49,,,,1,1,,,,,,,,,,,,,
null,,confidence_buffer,319308,confidence_buffer,,null,,,,,,,,,,,,,,,,,,
2977,,unique_rating,322286,US_Cities_List/mm_medora.png,,52,,,4,,,,,,,,,,,,,,,
null,,confidence_buffer,322387,confidence_buffer,,null,,,,,,,,,,,,,,,,,,
4722.300000011921,,memorable_rating,327111,US_Cities_List/mm_medora.png,,50,,,2,,,,,,,,,,,,,,,
null,,confidence_buffer,327212,confidence_buffer,,null,,,,,,,,,,,,,,,,,,
null,,thebreak,327714,break,,null,,,,,,,,,,,,,,,,,,
5587.400000035763,,familiar_rating,333302,US_Cities_List/nat_manistee.png,,53,US_Cities_List/nat_manistee.png,NAT,5,,,,,,,,,,,,,,,
null,,confidence_buffer,333404,confidence_buffer,,null,,,,,,,,,,,,,,,,,,
2866.5,,unique_rating,336271,US_Cities_List/nat_manistee.png,,50,,,2,,,,,,,,,,,,,,,
null,,confidence_buffer,336372,confidence_buffer,,null,,,,,,,,,,,,,,,,,,
2979.099999964237,,memorable_rating,339352,US_Cities_List/nat_manistee.png,,51,,,3,,,,,,,,,,,,,,,
null,,confidence_buffer,339453,confidence_buffer,,null,,,,,,,,,,,,,,,,,,
null,,thebreak,339954,break,,null,,,,,,,,,,,,,,,,,,
4029.900000035763,,familiar_rating,343985,US_Cities_List/nat_cleveland.png,,53,US_Cities_List/nat_cleveland.png,NAT,5,,,,,,,,,,,,,,,
null,,confidence_buffer,344086,confidence_buffer,,null,,,,,,,,,,,,,,,,,,
2641.600000023842,,unique_rating,346729,US_Cities_List/nat_cleveland.png,,49,,,1,,,,,,,,,,,,,,,
null,,confidence_buffer,346831,confidence_buffer,,null,,,,,,,,,,,,,,,,,,
2409.400000035763,,memorable_rating,349241,US_Cities_List/nat_cleveland.png,,51,,,3,,,,,,,,,,,,,,,
null,,confidence_buffer,349343,confidence_buffer,,null,,,,,,,,,,,,,,,,,,
null,,thebreak,349844,break,,null,,,,,,,,,,,,,,,,,,
5204.899999976158,,familiar_rating,355050,Fictional_Cities_List/img_manmade_20.png,,51,Fictional_Cities_List/img_manmade_20.png,MM,3,,,,,,,,,,,,,,,
null,,confidence_buffer,355152,confidence_buffer,,null,,,,,,,,,,,,,,,,,,
3793.899999976158,,unique_rating,358947,Fictional_Cities_List/img_manmade_20.png,,51,,,3,,,,,,,,,,,,,,,
null,,confidence_buffer,359049,confidence_buffer,,null,,,,,,,,,,,,,,,,,,
5321,,memorable_rating,364371,Fictional_Cities_List/img_manmade_20.png,,52,,,4,,,,,,,,,,,,,,,
null,,confidence_buffer,364473,confidence_buffer,,null,,,,,,,,,,,,,,,,,,
null,,thebreak,364975,break,,null,,,,,,,,,,,,,,,,,,
5172.800000011921,,familiar_rating,370148,US_Cities_List/mm_huntsville.png,,52,US_Cities_List/mm_huntsville.png,MM,4,,,,,,,,,,,,,,,
null,,confidence_buffer,370250,confidence_buffer,,null,,,,,,,,,,,,,,,,,,
4641.300000011921,,unique_rating,374893,US_Cities_List/mm_huntsville.png,,53,,,5,,,,,,,,,,,,,,,
null,,confidence_buffer,374994,confidence_buffer,,null,,,,,,,,,,,,,,,,,,
4298.100000023842,,memorable_rating,379293,US_Cities_List/mm_huntsville.png,,53,,,5,,,,,,,,,,,,,,,
null,,confidence_buffer,379395,confidence_buffer,,null,,,,,,,,,,,,,,,,,,
null,,thebreak,379897,break,,null,,,,,,,,,,,,,,,,,,
5468.300000011921,,familiar_rating,385366,Fictional_Cities_List/img_manmade_39.png,,50,Fictional_Cities_List/img_manmade_39.png,MM,2,,,,,,,,,,,,,,,
null,,confidence_buffer,385467,confidence_buffer,,null,,,,,,,,,,,,,,,,,,
1985.800000011921,,unique_rating,387454,Fictional_Cities_List/img_manmade_39.png,,50,,,2,,,,,,,,,,,,,,,
null,,confidence_buffer,387555,confidence_buffer,,null,,,,,,,,,,,,,,,,,,
3499,,memorable_rating,391054,Fictional_Cities_List/img_manmade_39.png,,49,,,1,,,,,,,,,,,,,,,
null,,confidence_buffer,391156,confidence_buffer,,null,,,,,,,,,,,,,,,,,,
null,,thebreak,391657,break,,null,,,,,,,,,,,,,,,,,,
4996.800000011921,,familiar_rating,396655,US_Cities_List/nat_natchez.png,,52,US_Cities_List/nat_natchez.png,NAT,4,,,,,,,,,,,,,,,
null,,confidence_buffer,396757,confidence_buffer,,null,,,,,,,,,,,,,,,,,,
2386.399999976158,,unique_rating,399144,US_Cities_List/nat_natchez.png,,52,,,4,,,,,,,,,,,,,,,
null,,confidence_buffer,399245,confidence_buffer,,null,,,,,,,,,,,,,,,,,,
2545.899999976158,,memorable_rating,401792,US_Cities_List/nat_natchez.png,,51,,,3,,,,,,,,,,,,,,,
null,,confidence_buffer,401893,confidence_buffer,,null,,,,,,,,,,,,,,,,,,
null,,thebreak,402395,break,,null,,,,,,,,,,,,,,,,,,
4165,,familiar_rating,406561,Fictional_Cities_List/img_natural_44.png,,53,Fictional_Cities_List/img_natural_44.png,NAT,5,,,,,,,,,,,,,,,
null,,confidence_buffer,406674,confidence_buffer,,null,,,,,,,,,,,,,,,,,,
4726.600000023842,,unique_rating,411401,Fictional_Cities_List/img_natural_44.png,,51,,,3,,,,,,,,,,,,,,,
null,,confidence_buffer,411503,confidence_buffer,,null,,,,,,,,,,,,,,,,,,
3378.5,,memorable_rating,414882,Fictional_Cities_List/img_natural_44.png,,52,,,4,,,,,,,,,,,,,,,
null,,confidence_buffer,414983,confidence_buffer,,null,,,,,,,,,,,,,,,,,,
null,,thebreak,415485,break,,null,,,,,,,,,,,,,,,,,,
3012.399999976158,,familiar_rating,418498,US_Cities_List/nat_newport.png,,53,US_Cities_List/nat_newport.png,NAT,5,,,,,,,,,,,,,,,
null,,confidence_buffer,418599,confidence_buffer,,null,,,,,,,,,,,,,,,,,,
4955.399999976158,,unique_rating,423555,US_Cities_List/nat_newport.png,,52,,,4,,,,,,,,,,,,,,,
null,,confidence_buffer,423659,confidence_buffer,,null,,,,,,,,,,,,,,,,,,
1367.8999999761581,,memorable_rating,425028,US_Cities_List/nat_newport.png,,52,,,4,,,,,,,,,,,,,,,
null,,confidence_buffer,425130,confidence_buffer,,null,,,,,,,,,,,,,,,,,,
null,,thebreak,425631,break,,null,,,,,,,,,,,,,,,,,,
5443.900000035763,,familiar_rating,431076,US_Cities_List/mm_livingston.png,,49,US_Cities_List/mm_livingston.png,MM,1,,,,,,,,,,,,,,,
null,,confidence_buffer,431178,confidence_buffer,,null,,,,,,,,,,,,,,,,,,
3641.2999999523163,,unique_rating,434820,US_Cities_List/mm_livingston.png,,51,,,3,,,,,,,,,,,,,,,
null,,confidence_buffer,434922,confidence_buffer,,null,,,,,,,,,,,,,,,,,,
3169.899999976158,,memorable_rating,438093,US_Cities_List/mm_livingston.png,,49,,,1,,,,,,,,,,,,,,,
null,,confidence_buffer,438194,confidence_buffer,,null,,,,,,,,,,,,,,,,,,
null,,thebreak,438695,break,,null,,,,,,,,,,,,,,,,,,
5782.300000011921,,familiar_rating,444478,Fictional_Cities_List/img_natural_18.png,,53,Fictional_Cities_List/img_natural_18.png,NAT,5,,,,,,,,,,,,,,,
null,,confidence_buffer,444581,confidence_buffer,,null,,,,,,,,,,,,,,,,,,
2072.399999976158,,unique_rating,446654,Fictional_Cities_List/img_natural_18.png,,53,,,5,,,,,,,,,,,,,,,
null,,confidence_buffer,446756,confidence_buffer,,null,,,,,,,,,,,,,,,,,,
2954.099999964237,,memorable_rating,449711,Fictional_Cities_List/img_natural_18.png,,53,,,5,,,,,,,,,,,,,,,
null,,confidence_buffer,449812,confidence_buffer,,null,,,,,,,,,,,,,,,,,,
null,,thebreak,450313,break,,null,,,,,,,,,,,,,,,,,,
4781.599999964237,,familiar_rating,455096,Fictional_Cities_List/img_natural_41.png,,52,Fictional_Cities_List/img_natural_41.png,NAT,4,,,,,,,,,,,,,,,
null,,confidence_buffer,455198,confidence_buffer,,null,,,,,,,,,,,,,,,,,,
4001.100000023842,,unique_rating,459200,Fictional_Cities_List/img_natural_41.png,,52,,,4,,,,,,,,,,,,,,,
null,,confidence_buffer,459302,confidence_buffer,,null,,,,,,,,,,,,,,,,,,
3777.7000000476837,,memorable_rating,463080,Fictional_Cities_List/img_natural_41.png,,52,,,4,,,,,,,,,,,,,,,
null,,confidence_buffer,463182,confidence_buffer,,null,,,,,,,,,,,,,,,,,,
null,,thebreak,463683,break,,null,,,,,,,,,,,,,,,,,,
6854.5,,intro_0,470539,instruct,,32,,,,,,,,,,,,,,,,,,
9623.200000047684,,intro_1,480162,instruct,,32,,,,,,,,,,,,,,,,,,
52294.69999998808,,intro_2,532458,instruct,,32,,,,,,,,,,,,,,,,,,
null,,instruct_dir_4,533960,instruct,,null,,,,,,,,,,,,,,,,,,
5409.5,,pt2_realistic_rating,539370,US_Cities_List/mm_racine.png,,49,US_Cities_List/mm_racine.png,MM,1,,,,,,,,,,,,,,,
null,,confidence_buffer,539473,confidence_buffer,,null,,,,,,,,,,,,,,,,,,
4705.899999976158,,pt2_unique_rating,544179,US_Cities_List/mm_racine.png,,51,,,3,,,,,,,,,,,,,,,
null,,confidence_buffer,544281,confidence_buffer,,null,,,,,,,,,,,,,,,,,,
4616.900000035763,,pt2_memorable_rating,548899,US_Cities_List/mm_racine.png,,50,,,2,,,,,,,,,,,,,,,
null,,confidence_buffer,549001,confidence_buffer,,null,,,,,,,,,,,,,,,,,,
4146.5,,recognition_phase,553148,US_Cities_List/mm_racine.png,,49,,,,,,old,1,1,,,,,,,,,,
null,,confidence_buffer,553250,confidence_buffer,,null,,,,,,,,,,,,,,,,,,
null,,thebreak,553752,break,,null,,,,,,,,,,,,,,,,,,
5372.600000023842,,pt2_realistic_rating,559126,Fictional_Cities_List/img_natural_38.png,,52,Fictional_Cities_List/img_natural_38.png,NAT,4,,,,,,,,,,,,,,,
null,,confidence_buffer,559229,confidence_buffer,,null,,,,,,,,,,,,,,,,,,
1879.8999999761581,,probe_rating,561110,probe_rating,,52,,,,4,1,,,,,,,,,,,,,
null,,confidence_buffer,561212,confidence_buffer,,null,,,,,,,,,,,,,,,,,,
4089.100000023842,,pt2_unique_rating,565302,Fictional_Cities_List/img_natural_38.png,,53,,,5,,,,,,,,,,,,,,,
null,,confidence_buffer,565403,confidence_buffer,,null,,,,,,,,,,,,,,,,,,
3994.800000011921,,pt2_memorable_rating,569399,Fictional_Cities_List/img_natural_38.png,,51,,,3,,,,,,,,,,,,,,,
null,,confidence_buffer,569501,confidence_buffer,,null,,,,,,,,,,,,,,,,,,
2784.800000011921,,recognition_phase,572287,Fictional_Cities_List/img_natural_38.png,,49,,,,,,old,1,1,,,,,,,,,,
null,,confidence_buffer,572389,confidence_buffer,,null,,,,,,,,,,,,,,,,,,
null,,thebreak,572891,break,,null,,,,,,,,,,,,,,,,,,
5236,,pt2_realistic_rating,578127,Fictional_Cities_List/img_manmade_41.png,,53,Fictional_Cities_List/img_manmade_41.png,MM,5,,,,,,,,,,,,,,,
null,,confidence_buffer,578229,confidence_buffer,,null,,,,,,,,,,,,,,,,,,
4466,,pt2_unique_rating,582696,Fictional_Cities_List/img_manmade_41.png,,51,,,3,,,,,,,,,,,,,,,
null,,confidence_buffer,582798,confidence_buffer,,null,,,,,,,,,,,,,,,,,,
4842.400000035763,,pt2_memorable_rating,587641,Fictional_Cities_List/img_manmade_41.png,,52,,,4,,,,,,,,,,,,,,,
null,,confidence_buffer,587743,confidence_buffer,,null,,,,,,,,,,,,,,,,,,
5023.100000023842,,recognition_phase,592767,Fictional_Cities_List/img_manmade_41.png,,52,,,,,,new,1,1,,,,,,,,,,
null,,confidence_buffer,592868,confidence_buffer,,null,,,,,,,,,,,,,,,,,,
null,,thebreak,593370,break,,null,,,,,,,,,,,,,,,,,,
5976.5,,pt2_realistic_rating,599347,Fictional_Cities_List/img_manmade_09.png,,53,Fictional_Cities_List/img_manmade_09.png,MM,5,,,,,,,,,,,,,,,
null,,confidence_buffer,599450,confidence_buffer,,null,,,,,,,,,,,,,,,,,,
3585.300000011921,,pt2_unique_rating,603036,Fictional_Cities_List/img_manmade_09.png,,50,,,2,,,,,,,,,,,,,,,
null,,confidence_buffer,603139,confidence_buffer,,null,,,,,,,,,,,,,,,,,,
5784.099999964237,,pt2_memorable_rating,608924,Fictional_Cities_List/img_manmade_09.png,,50,,,2,,,,,,,,,,,,,,,
null,,confidence_buffer,609025,confidence_buffer,,null,,,,,,,,,,,,,,,,,,
2314.100000023842,,recognition_phase,611341,Fictional_Cities_List/img_manmade_09.png,,49,,,,,,old,1,1,,,,,,,,,,
null,,confidence_buffer,611444,confidence_buffer,,null,,,,,,,,,,,,,,,,,,
null,,thebreak,611946,break,,null,,,,,,,,,,,,,,,,,,
6123.199999988079,,pt2_realistic_rating,618070,US_Cities_List/mm_orr.png,,49,US_Cities_List/mm_orr.png,MM,1,,,,,,,,,,,,,,,
null,,confidence_buffer,618171,confidence_buffer,,null,,,,,,,,,,,,,,,,,,
2961.800000011921,,pt2_unique_rating,621134,US_Cities_List/mm_orr.png,,53,,,5,,,,,,,,,,,,,,,
null,,confidence_buffer,621235,confidence_buffer,,null,,,,,,,,,,,,,,,,,,
3345.099999964237,,pt2_memorable_rating,624582,US_Cities_List/mm_orr.png,,53,,,5,,,,,,,,,,,,,,,
null,,confidence_buffer,624683,confidence_buffer,,null,,,,,,,,,,,,,,,,,,
2530.400000035763,,recognition_phase,627215,US_Cities_List/mm_orr.png,,52,,,,,,new,1,1,,,,,,,,,,
null,,confidence_buffer,627316,confidence_buffer,,null,,,,,,,,,,,,,,,,,,
null,,thebreak,627819,break,,null,,,,,,,,,,,,,,,,,,
6851.800000011921,,pt2_realistic_rating,634672,US_Cities_List/mm_livingston.png,,49,US_Cities_List/mm_livingston.png,MM,1,,,,,,,,,,,,,,,
null,,confidence_buffer,634774,confidence_buffer,,null,,,,,,,,,,,,,,,,,,
5153.600000023842,,pt2_unique_rating,639928,US_Cities_List/mm_livingston.png,,50,,,2,,,,,,,,,,,,,,,
null,,confidence_buffer,640030,confidence_buffer,,null,,,,,,,,,,,,,,,,,,
3489.699999988079,,pt2_memorable_rating,643520,US_Cities_List/mm_livingston.png,,50,,,2,,,,,,,,,,,,,,,
null,,confidence_buffer,643622,confidence_buffer,,null,,,,,,,,,,,,,,,,,,
2025.6000000238419,,recognition_phase,645648,US_Cities_List/mm_livingston.png,,49,,,,,,old,1,1,,,,,,,,,,
null,,confidence_buffer,645750,confidence_buffer,,null,,,,,,,,,,,,,,,,,,
null,,thebreak,646251,break,,null,,,,,,,,,,,,,,,,,,
4838.199999988079,,pt2_realistic_rating,651090,Fictional_Cities_List/img_natural_41.png,,52,Fictional_Cities_List/img_natural_41.png,NAT,4,,,,,,,,,,,,,,,
null,,confidence_buffer,651191,confidence_buffer,,null,,,,,,,,,,,,,,,,,,
3970.600000023842,,pt2_unique_rating,655162,Fictional_Cities_List/img_natural_41.png,,52,,,4,,,,,,,,,,,,,,,
null,,confidence_buffer,655263,confidence_buffer,,null,,,,,,,,,,,,,,,,,,
2698.100000023842,,pt2_memorable_rating,657963,Fictional_Cities_List/img_natural_41.png,,51,,,3,,,,,,,,,,,,,,,
null,,confidence_buffer,658064,confidence_buffer,,null,,,,,,,,,,,,,,,,,,
1809.699999988079,,recognition_phase,659875,Fictional_Cities_List/img_natural_41.png,,49,,,,,,old,1,1,,,,,,,,,,
null,,confidence_buffer,659989,confidence_buffer,,null,,,,,,,,,,,,,,,,,,
null,,thebreak,660490,break,,null,,,,,,,,,,,,,,,,,,
5719.800000011921,,pt2_realistic_rating,666211,US_Cities_List/nat_huntsville.png,,49,US_Cities_List/nat_huntsville.png,NAT,1,,,,,,,,,,,,,,,
null,,confidence_buffer,666312,confidence_buffer,,null,,,,,,,,,,,,,,,,,,
4691.699999988079,,pt2_unique_rating,671005,US_Cities_List/nat_huntsville.png,,53,,,5,,,,,,,,,,,,,,,
null,,confidence_buffer,671107,confidence_buffer,,null,,,,,,,,,,,,,,,,,,
2777.2000000476837,,pt2_memorable_rating,673885,US_Cities_List/nat_huntsville.png,,51,,,3,,,,,,,,,,,,,,,
null,,confidence_buffer,673989,confidence_buffer,,null,,,,,,,,,,,,,,,,,,
2543.399999976158,,recognition_phase,676533,US_Cities_List/nat_huntsville.png,,52,,,,,,new,1,1,,,,,,,,,,
null,,confidence_buffer,676634,confidence_buffer,,null,,,,,,,,,,,,,,,,,,
null,,thebreak,677135,break,,null,,,,,,,,,,,,,,,,,,
7254.800000011921,,pt2_realistic_rating,684391,Fictional_Cities_List/img_natural_33.png,,51,Fictional_Cities_List/img_natural_33.png,NAT,3,,,,,,,,,,,,,,,
null,,confidence_buffer,684493,confidence_buffer,,null,,,,,,,,,,,,,,,,,,
2352.699999988079,,pt2_unique_rating,686847,Fictional_Cities_List/img_natural_33.png,,51,,,3,,,,,,,,,,,,,,,
null,,confidence_buffer,686948,confidence_buffer,,null,,,,,,,,,,,,,,,,,,
2993.900000035763,,pt2_memorable_rating,689943,Fictional_Cities_List/img_natural_33.png,,53,,,5,,,,,,,,,,,,,,,
null,,confidence_buffer,690053,confidence_buffer,,null,,,,,,,,,,,,,,,,,,
3672.300000011921,,recognition_phase,693726,Fictional_Cities_List/img_natural_33.png,,49,,,,,,old,1,1,,,,,,,,,,
null,,confidence_buffer,693827,confidence_buffer,,null,,,,,,,,,,,,,,,,,,
null,,thebreak,694330,break,,null,,,,,,,,,,,,,,,,,,
7158.199999988079,,pt2_realistic_rating,701489,Fictional_Cities_List/img_manmade_27.png,,52,Fictional_Cities_List/img_manmade_27.png,MM,4,,,,,,,,,,,,,,,
null,,confidence_buffer,701591,confidence_buffer,,null,,,,,,,,,,,,,,,,,,
3937.5,,pt2_unique_rating,705529,Fictional_Cities_List/img_manmade_27.png,,50,,,2,,,,,,,,,,,,,,,
null,,confidence_buffer,705631,confidence_buffer,,null,,,,,,,,,,,,,,,,,,
2353,,pt2_memorable_rating,707985,Fictional_Cities_List/img_manmade_27.png,,50,,,2,,,,,,,,,,,,,,,
null,,confidence_buffer,708087,confidence_buffer,,null,,,,,,,,,,,,,,,,,,
1769.3999999761581,,recognition_phase,709857,Fictional_Cities_List/img_manmade_27.png,,49,,,,,,old,1,1,,,,,,,,,,
null,,confidence_buffer,709959,confidence_buffer,,null,,,,,,,,,,,,,,,,,,
null,,thebreak,710460,break,,null,,,,,,,,,,,,,,,,,,
4885.599999964237,,pt2_realistic_rating,715346,US_Cities_List/nat_westpalmbeach.png,,53,US_Cities_List/nat_westpalmbeach.png,NAT,5,,,,,,,,,,,,,,,
null,,confidence_buffer,715447,confidence_buffer,,null,,,,,,,,,,,,,,,,,,
3426.900000035763,,pt2_unique_rating,718875,US_Cities_List/nat_westpalmbeach.png,,51,,,3,,,,,,,,,,,,,,,
null,,confidence_buffer,718977,confidence_buffer,,null,,,,,,,,,,,,,,,,,,
2616.400000035763,,pt2_memorable_rating,721594,US_Cities_List/nat_westpalmbeach.png,,51,,,3,,,,,,,,,,,,,,,
null,,confidence_buffer,721696,confidence_buffer,,null,,,,,,,,,,,,,,,,,,
2130,,recognition_phase,723827,US_Cities_List/nat_westpalmbeach.png,,52,,,,,,new,1,1,,,,,,,,,,
null,,confidence_buffer,723929,confidence_buffer,,null,,,,,,,,,,,,,,,,,,
null,,thebreak,724431,break,,null,,,,,,,,,,,,,,,,,,
7748.099999964237,,pt2_realistic_rating,732180,Fictional_Cities_List/img_manmade_01.png,,52,Fictional_Cities_List/img_manmade_01.png,MM,4,,,,,,,,,,,,,,,
null,,confidence_buffer,732285,confidence_buffer,,null,,,,,,,,,,,,,,,,,,
3485.600000023842,,pt2_unique_rating,735772,Fictional_Cities_List/img_manmade_01.png,,52,,,4,,,,,,,,,,,,,,,
null,,confidence_buffer,735873,confidence_buffer,,null,,,,,,,,,,,,,,,,,,
2803.199999988079,,pt2_memorable_rating,738678,Fictional_Cities_List/img_manmade_01.png,,52,,,4,,,,,,,,,,,,,,,
null,,confidence_buffer,738779,confidence_buffer,,null,,,,,,,,,,,,,,,,,,
2337.399999976158,,recognition_phase,741118,Fictional_Cities_List/img_manmade_01.png,,52,,,,,,new,1,1,,,,,,,,,,
null,,confidence_buffer,741220,confidence_buffer,,null,,,,,,,,,,,,,,,,,,
null,,thebreak,741721,break,,null,,,,,,,,,,,,,,,,,,
7045.5,,pt2_realistic_rating,748767,US_Cities_List/nat_gatlinburg.png,,51,US_Cities_List/nat_gatlinburg.png,NAT,3,,,,,,,,,,,,,,,
null,,confidence_buffer,748869,confidence_buffer,,null,,,,,,,,,,,,,,,,,,
3416.800000011921,,pt2_unique_rating,752287,US_Cities_List/nat_gatlinburg.png,,51,,,3,,,,,,,,,,,,,,,
null,,confidence_buffer,752389,confidence_buffer,,null,,,,,,,,,,,,,,,,,,
4210.800000011921,,pt2_memorable_rating,756600,US_Cities_List/nat_gatlinburg.png,,51,,,3,,,,,,,,,,,,,,,
null,,confidence_buffer,756702,confidence_buffer,,null,,,,,,,,,,,,,,,,,,
1729,,recognition_phase,758432,US_Cities_List/nat_gatlinburg.png,,49,,,,,,old,1,1,,,,,,,,,,
null,,confidence_buffer,758533,confidence_buffer,,null,,,,,,,,,,,,,,,,,,
null,,thebreak,759035,break,,null,,,,,,,,,,,,,,,,,,
4124.100000023842,,pt2_realistic_rating,763160,Fictional_Cities_List/img_natural_20.png,,53,Fictional_Cities_List/img_natural_20.png,NAT,5,,,,,,,,,,,,,,,
null,,confidence_buffer,763262,confidence_buffer,,null,,,,,,,,,,,,,,,,,,
2402.100000023842,,pt2_unique_rating,765665,Fictional_Cities_List/img_natural_20.png,,53,,,5,,,,,,,,,,,,,,,
null,,confidence_buffer,765775,confidence_buffer,,null,,,,,,,,,,,,,,,,,,
2033.199999988079,,pt2_memorable_rating,767809,Fictional_Cities_List/img_natural_20.png,,52,,,4,,,,,,,,,,,,,,,
null,,confidence_buffer,767912,confidence_buffer,,null,,,,,,,,,,,,,,,,,,
1977.5,,recognition_phase,769890,Fictional_Cities_List/img_natural_20.png,,49,,,,,,old,1,1,,,,,,,,,,
null,,confidence_buffer,769992,confidence_buffer,,null,,,,,,,,,,,,,,,,,,
null,,thebreak,770493,break,,null,,,,,,,,,,,,,,,,,,
3636.199999988079,,pt2_realistic_rating,774130,Fictional_Cities_List/img_manmade_18.png,,52,Fictional_Cities_List/img_manmade_18.png,MM,4,,,,,,,,,,,,,,,
null,,confidence_buffer,774233,confidence_buffer,,null,,,,,,,,,,,,,,,,,,
3520.599999964237,,pt2_unique_rating,777755,Fictional_Cities_List/img_manmade_18.png,,52,,,4,,,,,,,,,,,,,,,
null,,confidence_buffer,777867,confidence_buffer,,null,,,,,,,,,,,,,,,,,,
2390,,pt2_memorable_rating,780258,Fictional_Cities_List/img_manmade_18.png,,52,,,4,,,,,,,,,,,,,,,
null,,confidence_buffer,780360,confidence_buffer,,null,,,,,,,,,,,,,,,,,,
2346.5,,recognition_phase,782708,Fictional_Cities_List/img_manmade_18.png,,52,,,,,,new,1,1,,,,,,,,,,
null,,confidence_buffer,782810,confidence_buffer,,null,,,,,,,,,,,,,,,,,,
null,,thebreak,783311,break,,null,,,,,,,,,,,,,,,,,,
3964,,pt2_realistic_rating,787276,Fictional_Cities_List/img_manmade_40.png,,53,Fictional_Cities_List/img_manmade_40.png,MM,5,,,,,,,,,,,,,,,
null,,confidence_buffer,787378,confidence_buffer,,null,,,,,,,,,,,,,,,,,,
2520.699999988079,,pt2_unique_rating,789900,Fictional_Cities_List/img_manmade_40.png,,53,,,5,,,,,,,,,,,,,,,
null,,confidence_buffer,790001,confidence_buffer,,null,,,,,,,,,,,,,,,,,,
1513.6000000238419,,pt2_memorable_rating,791516,Fictional_Cities_List/img_manmade_40.png,,53,,,5,,,,,,,,,,,,,,,
null,,confidence_buffer,791620,confidence_buffer,,null,,,,,,,,,,,,,,,,,,
2599.399999976158,,recognition_phase,794221,Fictional_Cities_List/img_manmade_40.png,,52,,,,,,new,1,1,,,,,,,,,,
null,,confidence_buffer,794323,confidence_buffer,,null,,,,,,,,,,,,,,,,,,
null,,thebreak,794834,break,,null,,,,,,,,,,,,,,,,,,
5155.699999988079,,pt2_realistic_rating,799990,US_Cities_List/mm_boulder.png,,53,US_Cities_List/mm_boulder.png,MM,5,,,,,,,,,,,,,,,
null,,confidence_buffer,800092,confidence_buffer,,null,,,,,,,,,,,,,,,,,,
4553.399999976158,,pt2_unique_rating,804646,US_Cities_List/mm_boulder.png,,51,,,3,,,,,,,,,,,,,,,
null,,confidence_buffer,804748,confidence_buffer,,null,,,,,,,,,,,,,,,,,,
2761.899999976158,,pt2_memorable_rating,807510,US_Cities_List/mm_boulder.png,,52,,,4,,,,,,,,,,,,,,,
null,,confidence_buffer,807612,confidence_buffer,,null,,,,,,,,,,,,,,,,,,
2217.300000011921,,probe_rating,809831,probe_rating,,50,,,,2,1,,,,,,,,,,,,,
null,,confidence_buffer,809934,confidence_buffer,,null,,,,,,,,,,,,,,,,,,
2119.800000011921,,recognition_phase,812055,US_Cities_List/mm_boulder.png,,52,,,,,,new,1,1,,,,,,,,,,
null,,confidence_buffer,812169,confidence_buffer,,null,,,,,,,,,,,,,,,,,,
null,,thebreak,812670,break,,null,,,,,,,,,,,,,,,,,,
4289.900000035763,,pt2_realistic_rating,816960,Fictional_Cities_List/img_natural_44.png,,53,Fictional_Cities_List/img_natural_44.png,NAT,5,,,,,,,,,,,,,,,
null,,confidence_buffer,817062,confidence_buffer,,null,,,,,,,,,,,,,,,,,,
5138,,pt2_unique_rating,822200,Fictional_Cities_List/img_natural_44.png,,53,,,5,,,,,,,,,,,,,,,
null,,confidence_buffer,822302,confidence_buffer,,null,,,,,,,,,,,,,,,,,,
1497,,pt2_memorable_rating,823800,Fictional_Cities_List/img_natural_44.png,,53,,,5,,,,,,,,,,,,,,,
null,,confidence_buffer,823902,confidence_buffer,,null,,,,,,,,,,,,,,,,,,
1857.4000000357628,,recognition_phase,825760,Fictional_Cities_List/img_natural_44.png,,49,,,,,,old,1,1,,,,,,,,,,
null,,confidence_buffer,825861,confidence_buffer,,null,,,,,,,,,,,,,,,,,,
null,,thebreak,826362,break,,null,,,,,,,,,,,,,,,,,,
3838.7000000476837,,pt2_realistic_rating,830202,Fictional_Cities_List/img_natural_45.png,,51,Fictional_Cities_List/img_natural_45.png,NAT,3,,,,,,,,,,,,,,,
null,,confidence_buffer,830303,confidence_buffer,,null,,,,,,,,,,,,,,,,,,
2553.800000011921,,pt2_unique_rating,832858,Fictional_Cities_List/img_natural_45.png,,52,,,4,,,,,,,,,,,,,,,
null,,confidence_buffer,832960,confidence_buffer,,null,,,,,,,,,,,,,,,,,,
1977.0999999642372,,pt2_memorable_rating,834938,Fictional_Cities_List/img_natural_45.png,,52,,,4,,,,,,,,,,,,,,,
null,,confidence_buffer,835039,confidence_buffer,,null,,,,,,,,,,,,,,,,,,
2619,,recognition_phase,837659,Fictional_Cities_List/img_natural_45.png,,52,,,,,,new,1,1,,,,,,,,,,
null,,confidence_buffer,837761,confidence_buffer,,null,,,,,,,,,,,,,,,,,,
null,,thebreak,838262,break,,null,,,,,,,,,,,,,,,,,,
7476.699999988079,,pt2_realistic_rating,845739,Fictional_Cities_List/img_natural_01.png,,52,Fictional_Cities_List/img_natural_01.png,NAT,4,,,,,,,,,,,,,,,
null,,confidence_buffer,845841,confidence_buffer,,null,,,,,,,,,,,,,,,,,,
3651.399999976158,,pt2_unique_rating,849493,Fictional_Cities_List/img_natural_01.png,,51,,,3,,,,,,,,,,,,,,,
null,,confidence_buffer,849595,confidence_buffer,,null,,,,,,,,,,,,,,,,,,
1736.6000000238419,,pt2_memorable_rating,851333,Fictional_Cities_List/img_natural_01.png,,52,,,4,,,,,,,,,,,,,,,
null,,confidence_buffer,851434,confidence_buffer,,null,,,,,,,,,,,,,,,,,,
2242.699999988079,,recognition_phase,853677,Fictional_Cities_List/img_natural_01.png,,49,,,,,,old,1,1,,,,,,,,,,
null,,confidence_buffer,853779,confidence_buffer,,null,,,,,,,,,,,,,,,,,,
null,,thebreak,854281,break,,null,,,,,,,,,,,,,,,,,,
4699.600000023842,,pt2_realistic_rating,858982,Fictional_Cities_List/img_natural_40.png,,51,Fictional_Cities_List/img_natural_40.png,NAT,3,,,,,,,,,,,,,,,
null,,confidence_buffer,859084,confidence_buffer,,null,,,,,,,,,,,,,,,,,,
4514,,pt2_unique_rating,863599,Fictional_Cities_List/img_natural_40.png,,52,,,4,,,,,,,,,,,,,,,
null,,confidence_buffer,863700,confidence_buffer,,null,,,,,,,,,,,,,,,,,,
3833.5,,pt2_memorable_rating,867535,Fictional_Cities_List/img_natural_40.png,,53,,,5,,,,,,,,,,,,,,,
null,,confidence_buffer,867637,confidence_buffer,,null,,,,,,,,,,,,,,,,,,
2329.899999976158,,recognition_phase,869968,Fictional_Cities_List/img_natural_40.png,,52,,,,,,new,1,1,,,,,,,,,,
null,,confidence_buffer,870070,confidence_buffer,,null,,,,,,,,,,,,,,,,,,
null,,thebreak,870572,break,,null,,,,,,,,,,,,,,,,,,
5788.400000035763,,pt2_realistic_rating,876361,US_Cities_List/mm_capemay.png,,51,US_Cities_List/mm_capemay.png,MM,3,,,,,,,,,,,,,,,
null,,confidence_buffer,876463,confidence_buffer,,null,,,,,,,,,,,,,,,,,,
3225.199999988079,,pt2_unique_rating,879689,US_Cities_List/mm_capemay.png,,51,,,3,,,,,,,,,,,,,,,
null,,confidence_buffer,879790,confidence_buffer,,null,,,,,,,,,,,,,,,,,,
3969.800000011921,,pt2_memorable_rating,883761,US_Cities_List/mm_capemay.png,,51,,,3,,,,,,,,,,,,,,,
null,,confidence_buffer,883862,confidence_buffer,,null,,,,,,,,,,,,,,,,,,
2097.7999999523163,,recognition_phase,885961,US_Cities_List/mm_capemay.png,,49,,,,,,old,1,1,,,,,,,,,,
null,,confidence_buffer,886063,confidence_buffer,,null,,,,,,,,,,,,,,,,,,
null,,thebreak,886565,break,,null,,,,,,,,,,,,,,,,,,
7213.100000023842,,pt2_realistic_rating,893779,Fictional_Cities_List/img_manmade_39.png,,53,Fictional_Cities_List/img_manmade_39.png,MM,5,,,,,,,,,,,,,,,
null,,confidence_buffer,893880,confidence_buffer,,null,,,,,,,,,,,,,,,,,,
3217.800000011921,,pt2_unique_rating,897099,Fictional_Cities_List/img_manmade_39.png,,49,,,1,,,,,,,,,,,,,,,
null,,confidence_buffer,897201,confidence_buffer,,null,,,,,,,,,,,,,,,,,,
2528.399999976158,,pt2_memorable_rating,899730,Fictional_Cities_List/img_manmade_39.png,,49,,,1,,,,,,,,,,,,,,,
null,,confidence_buffer,899832,confidence_buffer,,null,,,,,,,,,,,,,,,,,,
2066.199999988079,,probe_rating,901900,probe_rating,,53,,,,5,1,,,,,,,,,,,,,
null,,confidence_buffer,902002,confidence_buffer,,null,,,,,,,,,,,,,,,,,,
1800.0999999642372,,recognition_phase,903803,Fictional_Cities_List/img_manmade_39.png,,49,,,,,,old,1,1,,,,,,,,,,
null,,confidence_buffer,903906,confidence_buffer,,null,,,,,,,,,,,,,,,,,,
null,,thebreak,904408,break,,null,,,,,,,,,,,,,,,,,,
5164.199999988079,,pt2_realistic_rating,909572,US_Cities_List/mm_natchez.png,,53,US_Cities_List/mm_natchez.png,MM,5,,,,,,,,,,,,,,,
null,,confidence_buffer,909674,confidence_buffer,,null,,,,,,,,,,,,,,,,,,
4385.400000035763,,pt2_unique_rating,914060,US_Cities_List/mm_natchez.png,,53,,,5,,,,,,,,,,,,,,,
null,,confidence_buffer,914162,confidence_buffer,,null,,,,,,,,,,,,,,,,,,
1562.199999988079,,pt2_memorable_rating,915725,US_Cities_List/mm_natchez.png,,53,,,5,,,,,,,,,,,,,,,
null,,confidence_buffer,915827,confidence_buffer,,null,,,,,,,,,,,,,,,,,,
1881.3999999761581,,probe_rating,917709,probe_rating,,51,,,,3,1,,,,,,,,,,,,,
null,,confidence_buffer,917811,confidence_buffer,,null,,,,,,,,,,,,,,,,,,
2825.199999988079,,recognition_phase,920637,US_Cities_List/mm_natchez.png,,52,,,,,,new,1,1,,,,,,,,,,
null,,confidence_buffer,920739,confidence_buffer,,null,,,,,,,,,,,,,,,,,,
null,,thebreak,921241,break,,null,,,,,,,,,,,,,,,,,,
7452.5,,pt2_realistic_rating,928694,US_Cities_List/mm_medora.png,,53,US_Cities_List/mm_medora.png,MM,5,,,,,,,,,,,,,,,
null,,confidence_buffer,928796,confidence_buffer,,null,,,,,,,,,,,,,,,,,,
2362.5,,pt2_unique_rating,931159,US_Cities_List/mm_medora.png,,52,,,4,,,,,,,,,,,,,,,
null,,confidence_buffer,931261,confidence_buffer,,null,,,,,,,,,,,,,,,,,,
2632.7000000476837,,pt2_memorable_rating,933895,US_Cities_List/mm_medora.png,,51,,,3,,,,,,,,,,,,,,,
null,,confidence_buffer,934001,confidence_buffer,,null,,,,,,,,,,,,,,,,,,
4238.400000035763,,recognition_phase,938241,US_Cities_List/mm_medora.png,,50,,,,,,old,1,1,,,,,,,,,,
null,,confidence_buffer,938343,confidence_buffer,,null,,,,,,,,,,,,,,,,,,
null,,thebreak,938845,break,,null,,,,,,,,,,,,,,,,,,
4514.800000011921,,pt2_realistic_rating,943361,US_Cities_List/nat_newport.png,,53,US_Cities_List/nat_newport.png,NAT,5,,,,,,,,,,,,,,,
null,,confidence_buffer,943463,confidence_buffer,,null,,,,,,,,,,,,,,,,,,
2928.199999988079,,pt2_unique_rating,946393,US_Cities_List/nat_newport.png,,51,,,3,,,,,,,,,,,,,,,
null,,confidence_buffer,946495,confidence_buffer,,null,,,,,,,,,,,,,,,,,,
2185.599999964237,,pt2_memorable_rating,948681,US_Cities_List/nat_newport.png,,51,,,3,,,,,,,,,,,,,,,
null,,confidence_buffer,948783,confidence_buffer,,null,,,,,,,,,,,,,,,,,,
1994.3999999761581,,probe_rating,950778,probe_rating,,51,,,,3,1,,,,,,,,,,,,,
null,,confidence_buffer,950879,confidence_buffer,,null,,,,,,,,,,,,,,,,,,
2242.199999988079,,recognition_phase,953122,US_Cities_List/nat_newport.png,,49,,,,,,old,1,1,,,,,,,,,,
null,,confidence_buffer,953224,confidence_buffer,,null,,,,,,,,,,,,,,,,,,
null,,thebreak,953725,break,,null,,,,,,,,,,,,,,,,,,
5620.5,,pt2_realistic_rating,959347,Fictional_Cities_List/img_natural_29.png,,49,Fictional_Cities_List/img_natural_29.png,NAT,1,,,,,,,,,,,,,,,
null,,confidence_buffer,959451,confidence_buffer,,null,,,,,,,,,,,,,,,,,,
3615.899999976158,,pt2_unique_rating,963068,Fictional_Cities_List/img_natural_29.png,,53,,,5,,,,,,,,,,,,,,,
null,,confidence_buffer,963169,confidence_buffer,,null,,,,,,,,,,,,,,,,,,
3098.400000035763,,pt2_memorable_rating,966268,Fictional_Cities_List/img_natural_29.png,,53,,,5,,,,,,,,,,,,,,,
null,,confidence_buffer,966369,confidence_buffer,,null,,,,,,,,,,,,,,,,,,
2306.300000011921,,recognition_phase,968677,Fictional_Cities_List/img_natural_29.png,,52,,,,,,new,1,1,,,,,,,,,,
null,,confidence_buffer,968780,confidence_buffer,,null,,,,,,,,,,,,,,,,,,
null,,thebreak,969282,break,,null,,,,,,,,,,,,,,,,,,
6018.800000011921,,pt2_realistic_rating,975301,Fictional_Cities_List/img_natural_09.png,,53,Fictional_Cities_List/img_natural_09.png,NAT,5,,,,,,,,,,,,,,,
null,,confidence_buffer,975403,confidence_buffer,,null,,,,,,,,,,,,,,,,,,
1937.199999988079,,pt2_unique_rating,977341,Fictional_Cities_List/img_natural_09.png,,53,,,5,,,,,,,,,,,,,,,
null,,confidence_buffer,977443,confidence_buffer,,null,,,,,,,,,,,,,,,,,,
1808.199999988079,,pt2_memorable_rating,979253,Fictional_Cities_List/img_natural_09.png,,53,,,5,,,,,,,,,,,,,,,
null,,confidence_buffer,979356,confidence_buffer,,null,,,,,,,,,,,,,,,,,,
2400.699999988079,,recognition_phase,981758,Fictional_Cities_List/img_natural_09.png,,52,,,,,,new,1,1,,,,,,,,,,
null,,confidence_buffer,981859,confidence_buffer,,null,,,,,,,,,,,,,,,,,,
null,,thebreak,982361,break,,null,,,,,,,,,,,,,,,,,,
3492,,pt2_realistic_rating,985854,US_Cities_List/nat_leesburg.png,,53,US_Cities_List/nat_leesburg.png,NAT,5,,,,,,,,,,,,,,,
null,,confidence_buffer,985956,confidence_buffer,,null,,,,,,,,,,,,,,,,,,
3793.699999988079,,pt2_unique_rating,989750,US_Cities_List/nat_leesburg.png,,49,,,1,,,,,,,,,,,,,,,
null,,confidence_buffer,989852,confidence_buffer,,null,,,,,,,,,,,,,,,,,,
2018.199999988079,,pt2_memorable_rating,991871,US_Cities_List/nat_leesburg.png,,50,,,2,,,,,,,,,,,,,,,
null,,confidence_buffer,991973,confidence_buffer,,null,,,,,,,,,,,,,,,,,,
2704.699999988079,,recognition_phase,994679,US_Cities_List/nat_leesburg.png,,52,,,,,,new,1,1,,,,,,,,,,
null,,confidence_buffer,994781,confidence_buffer,,null,,,,,,,,,,,,,,,,,,
null,,thebreak,995282,break,,null,,,,,,,,,,,,,,,,,,
3181.199999988079,,pt2_realistic_rating,998464,US_Cities_List/nat_manistee.png,,53,US_Cities_List/nat_manistee.png,NAT,5,,,,,,,,,,,,,,,
null,,confidence_buffer,998565,confidence_buffer,,null,,,,,,,,,,,,,,,,,,
3058.600000023842,,pt2_unique_rating,1001625,US_Cities_List/nat_manistee.png,,49,,,1,,,,,,,,,,,,,,,
null,,confidence_buffer,1001728,confidence_buffer,,null,,,,,,,,,,,,,,,,,,
2608.399999976158,,pt2_memorable_rating,1004337,US_Cities_List/nat_manistee.png,,50,,,2,,,,,,,,,,,,,,,
null,,confidence_buffer,1004439,confidence_buffer,,null,,,,,,,,,,,,,,,,,,
1664.699999988079,,recognition_phase,1006105,US_Cities_List/nat_manistee.png,,49,,,,,,old,1,1,,,,,,,,,,
null,,confidence_buffer,1006206,confidence_buffer,,null,,,,,,,,,,,,,,,,,,
null,,thebreak,1006709,break,,null,,,,,,,,,,,,,,,,,,
4867.599999964237,,pt2_realistic_rating,1011578,US_Cities_List/nat_cleveland.png,,51,US_Cities_List/nat_cleveland.png,NAT,3,,,,,,,,,,,,,,,
null,,confidence_buffer,1011679,confidence_buffer,,null,,,,,,,,,,,,,,,,,,
2593.5,,pt2_unique_rating,1014274,US_Cities_List/nat_cleveland.png,,51,,,3,,,,,,,,,,,,,,,
null,,confidence_buffer,1014375,confidence_buffer,,null,,,,,,,,,,,,,,,,,,
3234.900000035763,,pt2_memorable_rating,1017611,US_Cities_List/nat_cleveland.png,,52,,,4,,,,,,,,,,,,,,,
null,,confidence_buffer,1017712,confidence_buffer,,null,,,,,,,,,,,,,,,,,,
2049.2000000476837,,recognition_phase,1019762,US_Cities_List/nat_cleveland.png,,49,,,,,,old,1,1,,,,,,,,,,
null,,confidence_buffer,1019864,confidence_buffer,,null,,,,,,,,,,,,,,,,,,
null,,thebreak,1020365,break,,null,,,,,,,,,,,,,,,,,,
2973.300000011921,,pt2_realistic_rating,1023339,Fictional_Cities_List/img_natural_18.png,,53,Fictional_Cities_List/img_natural_18.png,NAT,5,,,,,,,,,,,,,,,
null,,confidence_buffer,1023439,confidence_buffer,,null,,,,,,,,,,,,,,,,,,
1522.6000000238419,,pt2_unique_rating,1024963,Fictional_Cities_List/img_natural_18.png,,53,,,5,,,,,,,,,,,,,,,
null,,confidence_buffer,1025065,confidence_buffer,,null,,,,,,,,,,,,,,,,,,
1866,,probe_rating,1026931,probe_rating,,53,,,,5,1,,,,,,,,,,,,,
null,,confidence_buffer,1027032,confidence_buffer,,null,,,,,,,,,,,,,,,,,,
2354.600000023842,,pt2_memorable_rating,1029387,Fictional_Cities_List/img_natural_18.png,,53,,,5,,,,,,,,,,,,,,,
null,,confidence_buffer,1029488,confidence_buffer,,null,,,,,,,,,,,,,,,,,,
1938.5,,recognition_phase,1031428,Fictional_Cities_List/img_natural_18.png,,49,,,,,,old,1,1,,,,,,,,,,
null,,confidence_buffer,1031529,confidence_buffer,,null,,,,,,,,,,,,,,,,,,
null,,thebreak,1032030,break,,null,,,,,,,,,,,,,,,,,,
3701.199999988079,,pt2_realistic_rating,1035732,Fictional_Cities_List/img_manmade_16.png,,49,Fictional_Cities_List/img_manmade_16.png,MM,1,,,,,,,,,,,,,,,
null,,confidence_buffer,1035834,confidence_buffer,,null,,,,,,,,,,,,,,,,,,
2274,,pt2_unique_rating,1038108,Fictional_Cities_List/img_manmade_16.png,,53,,,5,,,,,,,,,,,,,,,
null,,confidence_buffer,1038209,confidence_buffer,,null,,,,,,,,,,,,,,,,,,
4171.399999976158,,pt2_memorable_rating,1042381,Fictional_Cities_List/img_manmade_16.png,,51,,,3,,,,,,,,,,,,,,,
null,,confidence_buffer,1042482,confidence_buffer,,null,,,,,,,,,,,,,,,,,,
1626.0999999642372,,recognition_phase,1044109,Fictional_Cities_List/img_manmade_16.png,,49,,,,,,old,1,1,,,,,,,,,,
null,,confidence_buffer,1044211,confidence_buffer,,null,,,,,,,,,,,,,,,,,,
null,,thebreak,1044713,break,,null,,,,,,,,,,,,,,,,,,
3748.5,,pt2_realistic_rating,1048462,US_Cities_List/mm_sisters.png,,51,US_Cities_List/mm_sisters.png,MM,3,,,,,,,,,,,,,,,
null,,confidence_buffer,1048564,confidence_buffer,,null,,,,,,,,,,,,,,,,,,
1985.4000000357628,,pt2_unique_rating,1050550,US_Cities_List/mm_sisters.png,,50,,,2,,,,,,,,,,,,,,,
null,,confidence_buffer,1050651,confidence_buffer,,null,,,,,,,,,,,,,,,,,,
1858.5,,probe_rating,1052510,probe_rating,,49,,,,1,1,,,,,,,,,,,,,
null,,confidence_buffer,1052612,confidence_buffer,,null,,,,,,,,,,,,,,,,,,
3425.699999988079,,pt2_memorable_rating,1056039,US_Cities_List/mm_sisters.png,,49,,,1,,,,,,,,,,,,,,,
null,,confidence_buffer,1056140,confidence_buffer,,null,,,,,,,,,,,,,,,,,,
2332.099999964237,,recognition_phase,1058473,US_Cities_List/mm_sisters.png,,52,,,,,,new,1,1,,,,,,,,,,
null,,confidence_buffer,1058574,confidence_buffer,,null,,,,,,,,,,,,,,,,,,
null,,thebreak,1059075,break,,null,,,,,,,,,,,,,,,,,,
4428.300000011921,,pt2_realistic_rating,1063504,Fictional_Cities_List/img_manmade_20.png,,53,Fictional_Cities_List/img_manmade_20.png,MM,5,,,,,,,,,,,,,,,
null,,confidence_buffer,1063606,confidence_buffer,,null,,,,,,,,,,,,,,,,,,
2401.100000023842,,pt2_unique_rating,1066008,Fictional_Cities_List/img_manmade_20.png,,51,,,3,,,,,,,,,,,,,,,
null,,confidence_buffer,1066110,confidence_buffer,,null,,,,,,,,,,,,,,,,,,
1683.300000011921,,pt2_memorable_rating,1067793,Fictional_Cities_List/img_manmade_20.png,,51,,,3,,,,,,,,,,,,,,,
null,,confidence_buffer,1067895,confidence_buffer,,null,,,,,,,,,,,,,,,,,,
1993.699999988079,,recognition_phase,1069890,Fictional_Cities_List/img_manmade_20.png,,49,,,,,,old,1,1,,,,,,,,,,
null,,confidence_buffer,1069991,confidence_buffer,,null,,,,,,,,,,,,,,,,,,
null,,thebreak,1070492,break,,null,,,,,,,,,,,,,,,,,,
4117.5,,pt2_realistic_rating,1074610,US_Cities_List/nat_natchez.png,,53,US_Cities_List/nat_natchez.png,NAT,5,,,,,,,,,,,,,,,
null,,confidence_buffer,1074712,confidence_buffer,,null,,,,,,,,,,,,,,,,,,
1497.5,,pt2_unique_rating,1076210,US_Cities_List/nat_natchez.png,,53,,,5,,,,,,,,,,,,,,,
null,,confidence_buffer,1076311,confidence_buffer,,null,,,,,,,,,,,,,,,,,,
2850.300000011921,,pt2_memorable_rating,1079162,US_Cities_List/nat_natchez.png,,52,,,4,,,,,,,,,,,,,,,
null,,confidence_buffer,1079264,confidence_buffer,,null,,,,,,,,,,,,,,,,,,
2170.699999988079,,recognition_phase,1081435,US_Cities_List/nat_natchez.png,,49,,,,,,old,1,1,,,,,,,,,,
null,,confidence_buffer,1081549,confidence_buffer,,null,,,,,,,,,,,,,,,,,,
null,,thebreak,1082050,break,,null,,,,,,,,,,,,,,,,,,
5592.600000023842,,pt2_realistic_rating,1087644,Fictional_Cities_List/img_manmade_38.png,,52,Fictional_Cities_List/img_manmade_38.png,MM,4,,,,,,,,,,,,,,,
null,,confidence_buffer,1087745,confidence_buffer,,null,,,,,,,,,,,,,,,,,,
3138.800000011921,,pt2_unique_rating,1090885,Fictional_Cities_List/img_manmade_38.png,,53,,,5,,,,,,,,,,,,,,,
null,,confidence_buffer,1090992,confidence_buffer,,null,,,,,,,,,,,,,,,,,,
2355,,pt2_memorable_rating,1093348,Fictional_Cities_List/img_manmade_38.png,,52,,,4,,,,,,,,,,,,,,,
null,,confidence_buffer,1093449,confidence_buffer,,null,,,,,,,,,,,,,,,,,,
2386.899999976158,,recognition_phase,1095838,Fictional_Cities_List/img_manmade_38.png,,52,,,,,,new,1,1,,,,,,,,,,
null,,confidence_buffer,1095939,confidence_buffer,,null,,,,,,,,,,,,,,,,,,
null,,thebreak,1096441,break,,null,,,,,,,,,,,,,,,,,,
2778.199999988079,,pt2_realistic_rating,1099221,US_Cities_List/nat_racine.png,,53,US_Cities_List/nat_racine.png,NAT,5,,,,,,,,,,,,,,,
null,,confidence_buffer,1099322,confidence_buffer,,null,,,,,,,,,,,,,,,,,,
2178.800000011921,,pt2_unique_rating,1101502,US_Cities_List/nat_racine.png,,49,,,1,,,,,,,,,,,,,,,
null,,confidence_buffer,1101603,confidence_buffer,,null,,,,,,,,,,,,,,,,,,
1769.5999999642372,,probe_rating,1103374,probe_rating,,52,,,,4,1,,,,,,,,,,,,,
null,,confidence_buffer,1103475,confidence_buffer,,null,,,,,,,,,,,,,,,,,,
3089.900000035763,,pt2_memorable_rating,1106566,US_Cities_List/nat_racine.png,,49,,,1,,,,,,,,,,,,,,,
null,,confidence_buffer,1106668,confidence_buffer,,null,,,,,,,,,,,,,,,,,,
2129.5,,recognition_phase,1108798,US_Cities_List/nat_racine.png,,49,,,,,,old,1,1,,,,,,,,,,
null,,confidence_buffer,1108899,confidence_buffer,,null,,,,,,,,,,,,,,,,,,
null,,thebreak,1109401,break,,null,,,,,,,,,,,,,,,,,,
4085.100000023842,,pt2_realistic_rating,1113487,Fictional_Cities_List/img_manmade_45.png,,51,Fictional_Cities_List/img_manmade_45.png,MM,3,,,,,,,,,,,,,,,
null,,confidence_buffer,1113588,confidence_buffer,,null,,,,,,,,,,,,,,,,,,
2066.800000011921,,pt2_unique_rating,1115655,Fictional_Cities_List/img_manmade_45.png,,50,,,2,,,,,,,,,,,,,,,
null,,confidence_buffer,1115762,confidence_buffer,,null,,,,,,,,,,,,,,,,,,
1925.199999988079,,pt2_memorable_rating,1117688,Fictional_Cities_List/img_manmade_45.png,,51,,,3,,,,,,,,,,,,,,,
null,,confidence_buffer,1117789,confidence_buffer,,null,,,,,,,,,,,,,,,,,,
1634,,recognition_phase,1119424,Fictional_Cities_List/img_manmade_45.png,,49,,,,,,old,1,1,,,,,,,,,,
null,,confidence_buffer,1119525,confidence_buffer,,null,,,,,,,,,,,,,,,,,,
null,,thebreak,1120026,break,,null,,,,,,,,,,,,,,,,,,
3324.800000011921,,pt2_realistic_rating,1123352,US_Cities_List/mm_huntsville.png,,53,US_Cities_List/mm_huntsville.png,MM,5,,,,,,,,,,,,,,,
null,,confidence_buffer,1123453,confidence_buffer,,null,,,,,,,,,,,,,,,,,,
1418.800000011921,,pt2_unique_rating,1124873,US_Cities_List/mm_huntsville.png,,53,,,5,,,,,,,,,,,,,,,
null,,confidence_buffer,1124974,confidence_buffer,,null,,,,,,,,,,,,,,,,,,
1162.4000000357628,,pt2_memorable_rating,1126137,US_Cities_List/mm_huntsville.png,,53,,,5,,,,,,,,,,,,,,,
null,,confidence_buffer,1126239,confidence_buffer,,null,,,,,,,,,,,,,,,,,,
1882.199999988079,,recognition_phase,1128122,US_Cities_List/mm_huntsville.png,,49,,,,,,old,1,1,,,,,,,,,,
null,,confidence_buffer,1128223,confidence_buffer,,null,,,,,,,,,,,,,,,,,,
null,,thebreak,1128725,break,,null,,,,,,,,,,,,,,,,,,
4620.600000023842,,pt2_realistic_rating,1133346,US_Cities_List/nat_yukon.png,,52,US_Cities_List/nat_yukon.png,NAT,4,,,,,,,,,,,,,,,
null,,confidence_buffer,1133447,confidence_buffer,,null,,,,,,,,,,,,,,,,,,
4187,,pt2_unique_rating,1137635,US_Cities_List/nat_yukon.png,,52,,,4,,,,,,,,,,,,,,,
null,,confidence_buffer,1137738,confidence_buffer,,null,,,,,,,,,,,,,,,,,,
3175.100000023842,,pt2_memorable_rating,1140914,US_Cities_List/nat_yukon.png,,53,,,5,,,,,,,,,,,,,,,
null,,confidence_buffer,1141016,confidence_buffer,,null,,,,,,,,,,,,,,,,,,
3034.600000023842,,recognition_phase,1144052,US_Cities_List/nat_yukon.png,,52,,,,,,new,1,1,,,,,,,,,,
null,,confidence_buffer,1144154,confidence_buffer,,null,,,,,,,,,,,,,,,,,,
null,,thebreak,1144656,break,,null,,,,,,,,,,,,,,,,,,
5772.5,,pt2_realistic_rating,1150429,Fictional_Cities_List/img_manmade_29.png,,50,Fictional_Cities_List/img_manmade_29.png,MM,2,,,,,,,,,,,,,,,
null,,confidence_buffer,1150531,confidence_buffer,,null,,,,,,,,,,,,,,,,,,
3144.800000011921,,pt2_unique_rating,1153676,Fictional_Cities_List/img_manmade_29.png,,53,,,5,,,,,,,,,,,,,,,
null,,confidence_buffer,1153779,confidence_buffer,,null,,,,,,,,,,,,,,,,,,
1353.5999999642372,,pt2_memorable_rating,1155133,Fictional_Cities_List/img_manmade_29.png,,53,,,5,,,,,,,,,,,,,,,
null,,confidence_buffer,1155234,confidence_buffer,,null,,,,,,,,,,,,,,,,,,
2259,,recognition_phase,1157494,Fictional_Cities_List/img_manmade_29.png,,52,,,,,,new,1,1,,,,,,,,,,
null,,confidence_buffer,1157608,confidence_buffer,,null,,,,,,,,,,,,,,,,,,
null,,thebreak,1158109,break,,null,,,,,,,,,,,,,,,,,,
4407.899999976158,,pt2_realistic_rating,1162518,Fictional_Cities_List/img_natural_39.png,,53,Fictional_Cities_List/img_natural_39.png,NAT,5,,,,,,,,,,,,,,,
null,,confidence_buffer,1162619,confidence_buffer,,null,,,,,,,,,,,,,,,,,,
2289.399999976158,,pt2_unique_rating,1164910,Fictional_Cities_List/img_natural_39.png,,51,,,3,,,,,,,,,,,,,,,
null,,confidence_buffer,1165011,confidence_buffer,,null,,,,,,,,,,,,,,,,,,
1865.6000000238419,,pt2_memorable_rating,1166878,Fictional_Cities_List/img_natural_39.png,,51,,,3,,,,,,,,,,,,,,,
null,,confidence_buffer,1166979,confidence_buffer,,null,,,,,,,,,,,,,,,,,,
1697.9000000357628,,recognition_phase,1168678,Fictional_Cities_List/img_natural_39.png,,49,,,,,,old,1,1,,,,,,,,,,
null,,confidence_buffer,1168780,confidence_buffer,,null,,,,,,,,,,,,,,,,,,
null,,thebreak,1169282,break,,null,,,,,,,,,,,,,,,,,,
5709.100000023842,,pt2_realistic_rating,1174992,US_Cities_List/mm_hilo.png,,53,US_Cities_List/mm_hilo.png,MM,5,,,,,,,,,,,,,,,
null,,confidence_buffer,1175094,confidence_buffer,,null,,,,,,,,,,,,,,,,,,
1176.800000011921,,pt2_unique_rating,1176271,US_Cities_List/mm_hilo.png,,53,,,5,,,,,,,,,,,,,,,
null,,confidence_buffer,1176374,confidence_buffer,,null,,,,,,,,,,,,,,,,,,
1562.300000011921,,pt2_memorable_rating,1177937,US_Cities_List/mm_hilo.png,,53,,,5,,,,,,,,,,,,,,,
null,,confidence_buffer,1178039,confidence_buffer,,null,,,,,,,,,,,,,,,,,,
2424.300000011921,,recognition_phase,1180465,US_Cities_List/mm_hilo.png,,52,,,,,,new,1,1,,,,,,,,,,
null,,confidence_buffer,1180575,confidence_buffer,,null,,,,,,,,,,,,,,,,,,
null,,thebreak,1181078,break,,null,,,,,,,,,,,,,,,,,,
3986.900000035763,,pt2_realistic_rating,1185066,Fictional_Cities_List/img_natural_27.png,,49,Fictional_Cities_List/img_natural_27.png,NAT,1,,,,,,,,,,,,,,,
null,,confidence_buffer,1185168,confidence_buffer,,null,,,,,,,,,,,,,,,,,,
2055.899999976158,,pt2_unique_rating,1187225,Fictional_Cities_List/img_natural_27.png,,53,,,5,,,,,,,,,,,,,,,
null,,confidence_buffer,1187339,confidence_buffer,,null,,,,,,,,,,,,,,,,,,
1717.300000011921,,probe_rating,1189057,probe_rating,,50,,,,2,1,,,,,,,,,,,,,
null,,confidence_buffer,1189159,confidence_buffer,,null,,,,,,,,,,,,,,,,,,
3450.199999988079,,pt2_memorable_rating,1192610,Fictional_Cities_List/img_natural_27.png,,53,,,5,,,,,,,,,,,,,,,
null,,confidence_buffer,1192711,confidence_buffer,,null,,,,,,,,,,,,,,,,,,
2178.400000035763,,recognition_phase,1194890,Fictional_Cities_List/img_natural_27.png,,52,,,,,,new,1,1,,,,,,,,,,
null,,confidence_buffer,1194991,confidence_buffer,,null,,,,,,,,,,,,,,,,,,
null,,thebreak,1195492,break,,null,,,,,,,,,,,,,,,,,,
2541.699999988079,,pt2_realistic_rating,1198035,US_Cities_List/mm_assateagueisland.png,,53,US_Cities_List/mm_assateagueisland.png,MM,5,,,,,,,,,,,,,,,
null,,confidence_buffer,1198137,confidence_buffer,,null,,,,,,,,,,,,,,,,,,
2209,,pt2_unique_rating,1200347,US_Cities_List/mm_assateagueisland.png,,51,,,3,,,,,,,,,,,,,,,
null,,confidence_buffer,1200449,confidence_buffer,,null,,,,,,,,,,,,,,,,,,
2498,,pt2_memorable_rating,1202947,US_Cities_List/mm_assateagueisland.png,,51,,,3,,,,,,,,,,,,,,,
null,,confidence_buffer,1203049,confidence_buffer,,null,,,,,,,,,,,,,,,,,,
1657.4000000357628,,recognition_phase,1204708,US_Cities_List/mm_assateagueisland.png,,49,,,,,,old,1,1,,,,,,,,,,
null,,confidence_buffer,1204809,confidence_buffer,,null,,,,,,,,,,,,,,,,,,
null,,thebreak,1205310,break,,null,,,,,,,,,,,,,,,,,,
4293.099999964237,,pt2_realistic_rating,1209604,US_Cities_List/mm_sitka.png,,53,US_Cities_List/mm_sitka.png,MM,5,,,,,,,,,,,,,,,
null,,confidence_buffer,1209706,confidence_buffer,,null,,,,,,,,,,,,,,,,,,
2193.800000011921,,pt2_unique_rating,1211900,US_Cities_List/mm_sitka.png,,49,,,1,,,,,,,,,,,,,,,
null,,confidence_buffer,1212002,confidence_buffer,,null,,,,,,,,,,,,,,,,,,
2145,,pt2_memorable_rating,1214148,US_Cities_List/mm_sitka.png,,49,,,1,,,,,,,,,,,,,,,
null,,confidence_buffer,1214249,confidence_buffer,,null,,,,,,,,,,,,,,,,,,
3043.5,,recognition_phase,1217294,US_Cities_List/mm_sitka.png,,52,,,,,,new,1,1,,,,,,,,,,
null,,confidence_buffer,1217395,confidence_buffer,,null,,,,,,,,,,,,,,,,,,
null,,thebreak,1217896,break,,null,,,,,,,,,,,,,,,,,,
3748.300000011921,,pt2_realistic_rating,1221645,US_Cities_List/nat_orr.png,,53,US_Cities_List/nat_orr.png,NAT,5,,,,,,,,,,,,,,,
null,,confidence_buffer,1221762,confidence_buffer,,null,,,,,,,,,,,,,,,,,,
3251.600000023842,,pt2_unique_rating,1225014,US_Cities_List/nat_orr.png,,52,,,4,,,,,,,,,,,,,,,
null,,confidence_buffer,1225131,confidence_buffer,,null,,,,,,,,,,,,,,,,,,
1674,,pt2_memorable_rating,1226807,US_Cities_List/nat_orr.png,,52,,,4,,,,,,,,,,,,,,,
null,,confidence_buffer,1226909,confidence_buffer,,null,,,,,,,,,,,,,,,,,,
2640.599999964237,,recognition_phase,1229551,US_Cities_List/nat_orr.png,,52,,,,,,new,1,1,,,,,,,,,,
null,,confidence_buffer,1229652,confidence_buffer,,null,,,,,,,,,,,,,,,,,,
null,,thebreak,1230165,break,,null,,,,,,,,,,,,,,,,,,
2762.099999964237,,pt2_realistic_rating,1232928,Fictional_Cities_List/img_manmade_33.png,,49,Fictional_Cities_List/img_manmade_33.png,MM,1,,,,,,,,,,,,,,,
null,,confidence_buffer,1233030,confidence_buffer,,null,,,,,,,,,,,,,,,,,,
2008.199999988079,,pt2_unique_rating,1235039,Fictional_Cities_List/img_manmade_33.png,,53,,,5,,,,,,,,,,,,,,,
null,,confidence_buffer,1235140,confidence_buffer,,null,,,,,,,,,,,,,,,,,,
3354.599999964237,,pt2_memorable_rating,1238496,Fictional_Cities_List/img_manmade_33.png,,53,,,5,,,,,,,,,,,,,,,
null,,confidence_buffer,1238603,confidence_buffer,,null,,,,,,,,,,,,,,,,,,
1892.5999999642372,,recognition_phase,1240496,Fictional_Cities_List/img_manmade_33.png,,52,,,,,,new,1,1,,,,,,,,,,
null,,confidence_buffer,1240598,confidence_buffer,,null,,,,,,,,,,,,,,,,,,
null,,thebreak,1241099,break,,null,,,,,,,,,,,,,,,,,,
5181.600000023842,,pt2_realistic_rating,1246281,US_Cities_List/nat_okoboji.png,,53,US_Cities_List/nat_okoboji.png,NAT,5,,,,,,,,,,,,,,,
null,,confidence_buffer,1246383,confidence_buffer,,null,,,,,,,,,,,,,,,,,,
2386.7000000476837,,pt2_unique_rating,1248770,US_Cities_List/nat_okoboji.png,,51,,,3,,,,,,,,,,,,,,,
null,,confidence_buffer,1248871,confidence_buffer,,null,,,,,,,,,,,,,,,,,,
1641.6000000238419,,pt2_memorable_rating,1250514,US_Cities_List/nat_okoboji.png,,51,,,3,,,,,,,,,,,,,,,
null,,confidence_buffer,1250615,confidence_buffer,,null,,,,,,,,,,,,,,,,,,
2257.5,,recognition_phase,1252874,US_Cities_List/nat_okoboji.png,,52,,,,,,new,1,1,,,,,,,,,,
null,,confidence_buffer,1252975,confidence_buffer,,null,,,,,,,,,,,,,,,,,,
null,,thebreak,1253476,break,,null,,,,,,,,,,,,,,,,,,
4621.700000047684,,pt2_realistic_rating,1258099,Fictional_Cities_List/img_natural_46.png,,53,Fictional_Cities_List/img_natural_46.png,NAT,5,,,,,,,,,,,,,,,
null,,confidence_buffer,1258201,confidence_buffer,,null,,,,,,,,,,,,,,,,,,
1384.8999999761581,,pt2_unique_rating,1259587,Fictional_Cities_List/img_natural_46.png,,53,,,5,,,,,,,,,,,,,,,
null,,confidence_buffer,1259688,confidence_buffer,,null,,,,,,,,,,,,,,,,,,
1080.8999999761581,,pt2_memorable_rating,1260770,Fictional_Cities_List/img_natural_46.png,,53,,,5,,,,,,,,,,,,,,,
null,,confidence_buffer,1260872,confidence_buffer,,null,,,,,,,,,,,,,,,,,,
1730.300000011921,,recognition_phase,1262603,Fictional_Cities_List/img_natural_46.png,,52,,,,,,new,1,1,,,,,,,,,,
null,,confidence_buffer,1262705,confidence_buffer,,null,,,,,,,,,,,,,,,,,,
null,,thebreak,1263206,break,,null,,,,,,,,,,,,,,,,,,
2964.199999988079,,pt2_realistic_rating,1266171,US_Cities_List/mm_cleveland.png,,53,US_Cities_List/mm_cleveland.png,MM,5,,,,,,,,,,,,,,,
null,,confidence_buffer,1266272,confidence_buffer,,null,,,,,,,,,,,,,,,,,,
2418.600000023842,,pt2_unique_rating,1268692,US_Cities_List/mm_cleveland.png,,52,,,4,,,,,,,,,,,,,,,
null,,confidence_buffer,1268794,confidence_buffer,,null,,,,,,,,,,,,,,,,,,
3153.800000011921,,pt2_memorable_rating,1271949,US_Cities_List/mm_cleveland.png,,52,,,4,,,,,,,,,,,,,,,
null,,confidence_buffer,1272051,confidence_buffer,,null,,,,,,,,,,,,,,,,,,
2208.199999988079,,recognition_phase,1274260,US_Cities_List/mm_cleveland.png,,52,,,,,,new,1,1,,,,,,,,,,
null,,confidence_buffer,1274362,confidence_buffer,,null,,,,,,,,,,,,,,,,,,
null,,thebreak,1274866,break,,null,,,,,,,,,,,,,,,,,,
3570.599999964237,,pt2_realistic_rating,1278438,Fictional_Cities_List/img_manmade_46.png,,50,Fictional_Cities_List/img_manmade_46.png,MM,2,,,,,,,,,,,,,,,
null,,confidence_buffer,1278539,confidence_buffer,,null,,,,,,,,,,,,,,,,,,
3385.599999964237,,pt2_unique_rating,1281926,Fictional_Cities_List/img_manmade_46.png,,51,,,3,,,,,,,,,,,,,,,
null,,confidence_buffer,1282041,confidence_buffer,,null,,,,,,,,,,,,,,,,,,
1699.6000000238419,,pt2_memorable_rating,1283742,Fictional_Cities_List/img_manmade_46.png,,51,,,3,,,,,,,,,,,,,,,
null,,confidence_buffer,1283844,confidence_buffer,,null,,,,,,,,,,,,,,,,,,
2160.800000011921,,recognition_phase,1286006,Fictional_Cities_List/img_manmade_46.png,,52,,,,,,new,1,1,,,,,,,,,,
null,,confidence_buffer,1286107,confidence_buffer,,null,,,,,,,,,,,,,,,,,,
null,,thebreak,1286609,break,,null,,,,,,,,,,,,,,,,,,
3597.5,,pt2_realistic_rating,1290207,Fictional_Cities_List/img_manmade_44.png,,53,Fictional_Cities_List/img_manmade_44.png,MM,5,,,,,,,,,,,,,,,
null,,confidence_buffer,1290309,confidence_buffer,,null,,,,,,,,,,,,,,,,,,
1713.0999999642372,,pt2_unique_rating,1292023,Fictional_Cities_List/img_manmade_44.png,,52,,,4,,,,,,,,,,,,,,,
null,,confidence_buffer,1292125,confidence_buffer,,null,,,,,,,,,,,,,,,,,,
1472.1000000238419,,pt2_memorable_rating,1293598,Fictional_Cities_List/img_manmade_44.png,,51,,,3,,,,,,,,,,,,,,,
null,,confidence_buffer,1293700,confidence_buffer,,null,,,,,,,,,,,,,,,,,,
1562.4000000357628,,probe_rating,1295263,probe_rating,,51,,,,3,1,,,,,,,,,,,,,
null,,confidence_buffer,1295364,confidence_buffer,,null,,,,,,,,,,,,,,,,,,
2818.099999964237,,recognition_phase,1298183,Fictional_Cities_List/img_manmade_44.png,,49,,,,,,old,1,1,,,,,,,,,,
null,,confidence_buffer,1298285,confidence_buffer,,null,,,,,,,,,,,,,,,,,,
null,,thebreak,1298787,break,,null,,,,,,,,,,,,,,,,,,
2804.899999976158,,pt2_realistic_rating,1301592,US_Cities_List/mm_barnard.png,,53,US_Cities_List/mm_barnard.png,MM,5,,,,,,,,,,,,,,,
null,,confidence_buffer,1301694,confidence_buffer,,null,,,,,,,,,,,,,,,,,,
1737.2999999523163,,probe_rating,1303432,probe_rating,,49,,,,1,1,,,,,,,,,,,,,
null,,confidence_buffer,1303534,confidence_buffer,,null,,,,,,,,,,,,,,,,,,
1873.8999999761581,,pt2_unique_rating,1305409,US_Cities_List/mm_barnard.png,,50,,,2,,,,,,,,,,,,,,,
null,,confidence_buffer,1305511,confidence_buffer,,null,,,,,,,,,,,,,,,,,,
2457.5,,pt2_memorable_rating,1307969,US_Cities_List/mm_barnard.png,,51,,,3,,,,,,,,,,,,,,,
null,,confidence_buffer,1308072,confidence_buffer,,null,,,,,,,,,,,,,,,,,,
1816.699999988079,,recognition_phase,1309890,US_Cities_List/mm_barnard.png,,49,,,,,,old,1,1,,,,,,,,,,
null,,confidence_buffer,1309991,confidence_buffer,,null,,,,,,,,,,,,,,,,,,
null,,thebreak,1310492,break,,null,,,,,,,,,,,,,,,,,,
4093.199999988079,,pt2_realistic_rating,1314586,US_Cities_List/nat_follybeach.png,,53,US_Cities_List/nat_follybeach.png,NAT,5,,,,,,,,,,,,,,,
null,,confidence_buffer,1314689,confidence_buffer,,null,,,,,,,,,,,,,,,,,,
1960.6000000238419,,pt2_unique_rating,1316651,US_Cities_List/nat_follybeach.png,,51,,,3,,,,,,,,,,,,,,,
null,,confidence_buffer,1316753,confidence_buffer,,null,,,,,,,,,,,,,,,,,,
1881.4000000357628,,pt2_memorable_rating,1318635,US_Cities_List/nat_follybeach.png,,51,,,3,,,,,,,,,,,,,,,
null,,confidence_buffer,1318745,confidence_buffer,,null,,,,,,,,,,,,,,,,,,
1640.699999988079,,recognition_phase,1320387,US_Cities_List/nat_follybeach.png,,52,,,,,,new,1,1,,,,,,,,,,
null,,confidence_buffer,1320490,confidence_buffer,,null,,,,,,,,,,,,,,,,,,
null,,thebreak,1320991,break,,null,,,,,,,,,,,,,,,,,,
3691,,pt2_realistic_rating,1324683,Fictional_Cities_List/img_natural_16.png,,49,Fictional_Cities_List/img_natural_16.png,NAT,1,,,,,,,,,,,,,,,
null,,confidence_buffer,1324786,confidence_buffer,,null,,,,,,,,,,,,,,,,,,
4465.899999976158,,pt2_unique_rating,1329253,Fictional_Cities_List/img_natural_16.png,,52,,,4,,,,,,,,,,,,,,,
null,,confidence_buffer,1329354,confidence_buffer,,null,,,,,,,,,,,,,,,,,,
1216.8999999761581,,pt2_memorable_rating,1330572,Fictional_Cities_List/img_natural_16.png,,52,,,4,,,,,,,,,,,,,,,
null,,confidence_buffer,1330674,confidence_buffer,,null,,,,,,,,,,,,,,,,,,
2186,,recognition_phase,1332860,Fictional_Cities_List/img_natural_16.png,,52,,,,,,new,1,1,,,,,,,,,,
null,,confidence_buffer,1332961,confidence_buffer,,null,,,,,,,,,,,,,,,,,,
null,,thebreak,1333463,break,,null,,,,,,,,,,,,,,,,,,
4861.5,,pt2_realistic_rating,1338325,US_Cities_List/mm_gardnerville.png,,53,US_Cities_List/mm_gardnerville.png,MM,5,,,,,,,,,,,,,,,
null,,confidence_buffer,1338427,confidence_buffer,,null,,,,,,,,,,,,,,,,,,
1369.3999999761581,,pt2_unique_rating,1339798,US_Cities_List/mm_gardnerville.png,,53,,,5,,,,,,,,,,,,,,,
null,,confidence_buffer,1339899,confidence_buffer,,null,,,,,,,,,,,,,,,,,,
1345.5,,pt2_memorable_rating,1341246,US_Cities_List/mm_gardnerville.png,,53,,,5,,,,,,,,,,,,,,,
null,,confidence_buffer,1341347,confidence_buffer,,null,,,,,,,,,,,,,,,,,,
2034.3999999761581,,recognition_phase,1343382,US_Cities_List/mm_gardnerville.png,,49,,,,,,old,1,1,,,,,,,,,,
null,,confidence_buffer,1343484,confidence_buffer,,null,,,,,,,,,,,,,,,,,,
null,,thebreak,1343986,break,,null,,,,,,,,,,,,,,,,,,
5172,,pt2_realistic_rating,1349159,US_Cities_List/nat_boulder.png,,53,US_Cities_List/nat_boulder.png,NAT,5,,,,,,,,,,,,,,,
null,,confidence_buffer,1349261,confidence_buffer,,null,,,,,,,,,,,,,,,,,,
1968.5,,pt2_unique_rating,1351231,US_Cities_List/nat_boulder.png,,52,,,4,,,,,,,,,,,,,,,
null,,confidence_buffer,1351332,confidence_buffer,,null,,,,,,,,,,,,,,,,,,
1737.300000011921,,pt2_memorable_rating,1353071,US_Cities_List/nat_boulder.png,,51,,,3,,,,,,,,,,,,,,,
null,,confidence_buffer,1353173,confidence_buffer,,null,,,,,,,,,,,,,,,,,,
2378.400000035763,,recognition_phase,1355552,US_Cities_List/nat_boulder.png,,52,,,,,,new,1,1,,,,,,,,,,
null,,confidence_buffer,1355654,confidence_buffer,,null,,,,,,,,,,,,,,,,,,
null,,thebreak,1356155,break,,null,,,,,,,,,,,,,,,,,,
5284.900000035763,,pt2_realistic_rating,1361441,US_Cities_List/nat_watkinsglen.png,,53,US_Cities_List/nat_watkinsglen.png,NAT,5,,,,,,,,,,,,,,,
null,,confidence_buffer,1361542,confidence_buffer,,null,,,,,,,,,,,,,,,,,,
1953,,pt2_unique_rating,1363496,US_Cities_List/nat_watkinsglen.png,,53,,,5,,,,,,,,,,,,,,,
null,,confidence_buffer,1363599,confidence_buffer,,null,,,,,,,,,,,,,,,,,,
2257.800000011921,,pt2_memorable_rating,1365857,US_Cities_List/nat_watkinsglen.png,,53,,,5,,,,,,,,,,,,,,,
null,,confidence_buffer,1365959,confidence_buffer,,null,,,,,,,,,,,,,,,,,,
1776.800000011921,,recognition_phase,1367737,US_Cities_List/nat_watkinsglen.png,,49,,,,,,old,1,1,,,,,,,,,,
null,,confidence_buffer,1367838,confidence_buffer,,null,,,,,,,,,,,,,,,,,,
null,,thebreak,1368339,break,,null,,,,,,,,,,,,,,,,,,
,,survey,1586204,survey-questions,,,,,,,,,,,none,high,No. I paid full attention. There wasn't enough time to do anything else. ,No strategy. I had a pretty good memory of what I saw during the first round. Enjoyed the survey.,Some images you can see just about anywhere. Nothing really stuck out,I wondered if they would leave an impression on me. Could I remember them.,Something very odd had to be in the picture for them to be really unique.,Those pics that could be in my town or area. Like falls pics or pics of churhes or bldgs.,No,This one was fun and not difficult at all. It pushes your memory. I like that.
