rt,responses,trial_type,time_elapsed,stimulus,button_pressed,key_press,name_trial,city_type,rating,probe,probe_accuracy,response,correct,accuracy,problems,smooth,distraction,strategies,familiar,memorable,unique,realistic,similar,comments
4937.200000047684,{worker_id:62d0880f5ba6d972d1bfc63c},id_enter,4939,,,,,,,,,,,,,,,,,,,,,
7380.400000095367,,fullscreen,12322,fullscreen,0,,,,,,,,,,,,,,,,,,,
5860.900000095367,,intro_0,18184,instruct,,32,,,,,,,,,,,,,,,,,,
5321,,intro_1,23506,instruct,,32,,,,,,,,,,,,,,,,,,
5711.200000047684,,intro_2,29219,instruct,,32,,,,,,,,,,,,,,,,,,
null,,instruct_dir_4,30727,instruct,,null,,,,,,,,,,,,,,,,,,
null,,thebreak,31231,break,,null,,,,,,,,,,,,,,,,,,
4610.899999976158,,familiar_rating,35843,Fictional_Cities_List/img_natural_32.png,,51,Fictional_Cities_List/img_natural_32.png,NAT,3,,,,,,,,,,,,,,,
null,,confidence_buffer,35954,confidence_buffer,,null,,,,,,,,,,,,,,,,,,
5312.099999904633,,unique_rating,41267,Fictional_Cities_List/img_natural_32.png,,53,,,5,,,,,,,,,,,,,,,
null,,confidence_buffer,41381,confidence_buffer,,null,,,,,,,,,,,,,,,,,,
3004.7000000476837,,memorable_rating,44387,Fictional_Cities_List/img_natural_32.png,,51,,,3,,,,,,,,,,,,,,,
null,,confidence_buffer,44497,confidence_buffer,,null,,,,,,,,,,,,,,,,,,
null,,thebreak,45000,break,,null,,,,,,,,,,,,,,,,,,
4906.099999904633,,familiar_rating,49907,US_Cities_List/mm_hotsprings.png,,49,US_Cities_List/mm_hotsprings.png,MM,1,,,,,,,,,,,,,,,
null,,confidence_buffer,50018,confidence_buffer,,null,,,,,,,,,,,,,,,,,,
3440.7999999523163,,unique_rating,53459,US_Cities_List/mm_hotsprings.png,,50,,,2,,,,,,,,,,,,,,,
null,,confidence_buffer,53561,confidence_buffer,,null,,,,,,,,,,,,,,,,,,
1881.3999999761581,,memorable_rating,55443,US_Cities_List/mm_hotsprings.png,,50,,,2,,,,,,,,,,,,,,,
null,,confidence_buffer,55558,confidence_buffer,,null,,,,,,,,,,,,,,,,,,
null,,thebreak,56065,break,,null,,,,,,,,,,,,,,,,,,
3008.7999999523163,,familiar_rating,59075,US_Cities_List/mm_albuquerque.png,,49,US_Cities_List/mm_albuquerque.png,MM,1,,,,,,,,,,,,,,,
null,,confidence_buffer,59180,confidence_buffer,,null,,,,,,,,,,,,,,,,,,
4118,,unique_rating,63299,US_Cities_List/mm_albuquerque.png,,52,,,4,,,,,,,,,,,,,,,
null,,confidence_buffer,63416,confidence_buffer,,null,,,,,,,,,,,,,,,,,,
1689.8000000715256,,memorable_rating,65107,US_Cities_List/mm_albuquerque.png,,52,,,4,,,,,,,,,,,,,,,
null,,confidence_buffer,65218,confidence_buffer,,null,,,,,,,,,,,,,,,,,,
null,,thebreak,65722,break,,null,,,,,,,,,,,,,,,,,,
5960.100000023842,,familiar_rating,71683,Fictional_Cities_List/img_manmade_04.png,,49,Fictional_Cities_List/img_manmade_04.png,MM,1,,,,,,,,,,,,,,,
null,,confidence_buffer,71791,confidence_buffer,,null,,,,,,,,,,,,,,,,,,
5795.700000047684,,unique_rating,77588,Fictional_Cities_List/img_manmade_04.png,,51,,,3,,,,,,,,,,,,,,,
null,,confidence_buffer,77694,confidence_buffer,,null,,,,,,,,,,,,,,,,,,
1236.5,,memorable_rating,78932,Fictional_Cities_List/img_manmade_04.png,,51,,,3,,,,,,,,,,,,,,,
null,,confidence_buffer,79049,confidence_buffer,,null,,,,,,,,,,,,,,,,,,
null,,thebreak,79551,break,,null,,,,,,,,,,,,,,,,,,
5346.899999976158,,familiar_rating,84899,Fictional_Cities_List/img_natural_36.png,,49,Fictional_Cities_List/img_natural_36.png,NAT,1,,,,,,,,,,,,,,,
null,,confidence_buffer,85002,confidence_buffer,,null,,,,,,,,,,,,,,,,,,
3688.7000000476837,,unique_rating,88691,Fictional_Cities_List/img_natural_36.png,,51,,,3,,,,,,,,,,,,,,,
null,,confidence_buffer,88793,confidence_buffer,,null,,,,,,,,,,,,,,,,,,
1066.5,,memorable_rating,89860,Fictional_Cities_List/img_natural_36.png,,51,,,3,,,,,,,,,,,,,,,
null,,confidence_buffer,89977,confidence_buffer,,null,,,,,,,,,,,,,,,,,,
null,,thebreak,90493,break,,null,,,,,,,,,,,,,,,,,,
4421.700000047684,,familiar_rating,94915,Fictional_Cities_List/img_natural_12.png,,49,Fictional_Cities_List/img_natural_12.png,NAT,1,,,,,,,,,,,,,,,
null,,confidence_buffer,95033,confidence_buffer,,null,,,,,,,,,,,,,,,,,,
3418.600000023842,,unique_rating,98452,Fictional_Cities_List/img_natural_12.png,,52,,,4,,,,,,,,,,,,,,,
null,,confidence_buffer,98554,confidence_buffer,,null,,,,,,,,,,,,,,,,,,
1545.5,,memorable_rating,100100,Fictional_Cities_List/img_natural_12.png,,52,,,4,,,,,,,,,,,,,,,
null,,confidence_buffer,100202,confidence_buffer,,null,,,,,,,,,,,,,,,,,,
null,,thebreak,100705,break,,null,,,,,,,,,,,,,,,,,,
4338.300000071526,,familiar_rating,105044,US_Cities_List/mm_yukon.png,,49,US_Cities_List/mm_yukon.png,MM,1,,,,,,,,,,,,,,,
null,,confidence_buffer,105155,confidence_buffer,,null,,,,,,,,,,,,,,,,,,
3376.100000023842,,unique_rating,108532,US_Cities_List/mm_yukon.png,,49,,,1,,,,,,,,,,,,,,,
null,,confidence_buffer,108645,confidence_buffer,,null,,,,,,,,,,,,,,,,,,
1470.3999999761581,,memorable_rating,110117,US_Cities_List/mm_yukon.png,,49,,,1,,,,,,,,,,,,,,,
null,,confidence_buffer,110230,confidence_buffer,,null,,,,,,,,,,,,,,,,,,
null,,thebreak,110742,break,,null,,,,,,,,,,,,,,,,,,
7020.5,,familiar_rating,117764,Fictional_Cities_List/img_manmade_27.png,,49,Fictional_Cities_List/img_manmade_27.png,MM,1,,,,,,,,,,,,,,,
null,,confidence_buffer,117869,confidence_buffer,,null,,,,,,,,,,,,,,,,,,
3350,,unique_rating,121220,Fictional_Cities_List/img_manmade_27.png,,51,,,3,,,,,,,,,,,,,,,
null,,confidence_buffer,121328,confidence_buffer,,null,,,,,,,,,,,,,,,,,,
867.7000000476837,,memorable_rating,122197,Fictional_Cities_List/img_manmade_27.png,,51,,,3,,,,,,,,,,,,,,,
null,,confidence_buffer,122316,confidence_buffer,,null,,,,,,,,,,,,,,,,,,
2728.600000023842,,probe_rating,125045,probe_rating,,53,,,,5,1,,,,,,,,,,,,,
null,,confidence_buffer,125149,confidence_buffer,,null,,,,,,,,,,,,,,,,,,
null,,thebreak,125650,break,,null,,,,,,,,,,,,,,,,,,
5121.199999928474,,familiar_rating,130772,Fictional_Cities_List/img_natural_42.png,,49,Fictional_Cities_List/img_natural_42.png,NAT,1,,,,,,,,,,,,,,,
null,,confidence_buffer,130881,confidence_buffer,,null,,,,,,,,,,,,,,,,,,
1843.5,,unique_rating,132725,Fictional_Cities_List/img_natural_42.png,,51,,,3,,,,,,,,,,,,,,,
null,,confidence_buffer,132841,confidence_buffer,,null,,,,,,,,,,,,,,,,,,
2539,,memorable_rating,135381,Fictional_Cities_List/img_natural_42.png,,51,,,3,,,,,,,,,,,,,,,
null,,confidence_buffer,135490,confidence_buffer,,null,,,,,,,,,,,,,,,,,,
null,,thebreak,135996,break,,null,,,,,,,,,,,,,,,,,,
4408,,familiar_rating,140405,US_Cities_List/mm_manistee.png,,49,US_Cities_List/mm_manistee.png,MM,1,,,,,,,,,,,,,,,
null,,confidence_buffer,140507,confidence_buffer,,null,,,,,,,,,,,,,,,,,,
2056.100000023842,,unique_rating,142564,US_Cities_List/mm_manistee.png,,51,,,3,,,,,,,,,,,,,,,
null,,confidence_buffer,142671,confidence_buffer,,null,,,,,,,,,,,,,,,,,,
1140.5,,memorable_rating,143812,US_Cities_List/mm_manistee.png,,51,,,3,,,,,,,,,,,,,,,
null,,confidence_buffer,143923,confidence_buffer,,null,,,,,,,,,,,,,,,,,,
null,,thebreak,144426,break,,null,,,,,,,,,,,,,,,,,,
3705.399999976158,,familiar_rating,148133,Fictional_Cities_List/img_manmade_28.png,,49,Fictional_Cities_List/img_manmade_28.png,MM,1,,,,,,,,,,,,,,,
null,,confidence_buffer,148249,confidence_buffer,,null,,,,,,,,,,,,,,,,,,
4443.200000047684,,unique_rating,152693,Fictional_Cities_List/img_manmade_28.png,,50,,,2,,,,,,,,,,,,,,,
null,,confidence_buffer,152807,confidence_buffer,,null,,,,,,,,,,,,,,,,,,
973.3000000715256,,memorable_rating,153781,Fictional_Cities_List/img_manmade_28.png,,50,,,2,,,,,,,,,,,,,,,
null,,confidence_buffer,153892,confidence_buffer,,null,,,,,,,,,,,,,,,,,,
2385.2999999523163,,probe_rating,156278,probe_rating,,53,,,,5,1,,,,,,,,,,,,,
null,,confidence_buffer,156391,confidence_buffer,,null,,,,,,,,,,,,,,,,,,
null,,thebreak,156894,break,,null,,,,,,,,,,,,,,,,,,
7878.600000023842,,familiar_rating,164774,US_Cities_List/mm_cleveland.png,,49,US_Cities_List/mm_cleveland.png,MM,1,,,,,,,,,,,,,,,
null,,confidence_buffer,164888,confidence_buffer,,null,,,,,,,,,,,,,,,,,,
2957.3000000715256,,unique_rating,167846,US_Cities_List/mm_cleveland.png,,50,,,2,,,,,,,,,,,,,,,
null,,confidence_buffer,167956,confidence_buffer,,null,,,,,,,,,,,,,,,,,,
1248.5,,memorable_rating,169206,US_Cities_List/mm_cleveland.png,,50,,,2,,,,,,,,,,,,,,,
null,,confidence_buffer,169322,confidence_buffer,,null,,,,,,,,,,,,,,,,,,
1850.6000000238419,,probe_rating,171174,probe_rating,,53,,,,5,1,,,,,,,,,,,,,
null,,confidence_buffer,171275,confidence_buffer,,null,,,,,,,,,,,,,,,,,,
null,,thebreak,171782,break,,null,,,,,,,,,,,,,,,,,,
3183.6999999284744,,familiar_rating,174966,US_Cities_List/nat_albuquerque.png,,49,US_Cities_List/nat_albuquerque.png,NAT,1,,,,,,,,,,,,,,,
null,,confidence_buffer,175069,confidence_buffer,,null,,,,,,,,,,,,,,,,,,
1591.2999999523163,,unique_rating,176661,US_Cities_List/nat_albuquerque.png,,49,,,1,,,,,,,,,,,,,,,
null,,confidence_buffer,176764,confidence_buffer,,null,,,,,,,,,,,,,,,,,,
1544.7999999523163,,memorable_rating,178310,US_Cities_List/nat_albuquerque.png,,49,,,1,,,,,,,,,,,,,,,
null,,confidence_buffer,178417,confidence_buffer,,null,,,,,,,,,,,,,,,,,,
null,,thebreak,178920,break,,null,,,,,,,,,,,,,,,,,,
3597,,familiar_rating,182518,Fictional_Cities_List/img_natural_15.png,,49,Fictional_Cities_List/img_natural_15.png,NAT,1,,,,,,,,,,,,,,,
null,,confidence_buffer,182622,confidence_buffer,,null,,,,,,,,,,,,,,,,,,
3991.5,,unique_rating,186614,Fictional_Cities_List/img_natural_15.png,,52,,,4,,,,,,,,,,,,,,,
null,,confidence_buffer,186725,confidence_buffer,,null,,,,,,,,,,,,,,,,,,
1104.1000000238419,,memorable_rating,187830,Fictional_Cities_List/img_natural_15.png,,52,,,4,,,,,,,,,,,,,,,
null,,confidence_buffer,187942,confidence_buffer,,null,,,,,,,,,,,,,,,,,,
null,,thebreak,188444,break,,null,,,,,,,,,,,,,,,,,,
6217.5,,familiar_rating,194662,US_Cities_List/nat_sisters.png,,50,US_Cities_List/nat_sisters.png,NAT,2,,,,,,,,,,,,,,,
null,,confidence_buffer,194771,confidence_buffer,,null,,,,,,,,,,,,,,,,,,
1762.7000000476837,,unique_rating,196534,US_Cities_List/nat_sisters.png,,50,,,2,,,,,,,,,,,,,,,
null,,confidence_buffer,196636,confidence_buffer,,null,,,,,,,,,,,,,,,,,,
2984.6999999284744,,memorable_rating,199622,US_Cities_List/nat_sisters.png,,51,,,3,,,,,,,,,,,,,,,
null,,confidence_buffer,199729,confidence_buffer,,null,,,,,,,,,,,,,,,,,,
null,,thebreak,200233,break,,null,,,,,,,,,,,,,,,,,,
2508.2000000476837,,familiar_rating,202742,US_Cities_List/nat_manistee.png,,49,US_Cities_List/nat_manistee.png,NAT,1,,,,,,,,,,,,,,,
null,,confidence_buffer,202858,confidence_buffer,,null,,,,,,,,,,,,,,,,,,
2379.7000000476837,,unique_rating,205238,US_Cities_List/nat_manistee.png,,49,,,1,,,,,,,,,,,,,,,
null,,confidence_buffer,205343,confidence_buffer,,null,,,,,,,,,,,,,,,,,,
2438.2000000476837,,memorable_rating,207783,US_Cities_List/nat_manistee.png,,49,,,1,,,,,,,,,,,,,,,
null,,confidence_buffer,207897,confidence_buffer,,null,,,,,,,,,,,,,,,,,,
null,,thebreak,208412,break,,null,,,,,,,,,,,,,,,,,,
3882.2999999523163,,familiar_rating,212295,Fictional_Cities_List/img_manmade_02.png,,49,Fictional_Cities_List/img_manmade_02.png,MM,1,,,,,,,,,,,,,,,
null,,confidence_buffer,212402,confidence_buffer,,null,,,,,,,,,,,,,,,,,,
2659.399999976158,,unique_rating,215062,Fictional_Cities_List/img_manmade_02.png,,49,,,1,,,,,,,,,,,,,,,
null,,confidence_buffer,215171,confidence_buffer,,null,,,,,,,,,,,,,,,,,,
834.6999999284744,,memorable_rating,216007,Fictional_Cities_List/img_manmade_02.png,,49,,,1,,,,,,,,,,,,,,,
null,,confidence_buffer,216122,confidence_buffer,,null,,,,,,,,,,,,,,,,,,
null,,thebreak,216635,break,,null,,,,,,,,,,,,,,,,,,
3034.7000000476837,,familiar_rating,219670,US_Cities_List/nat_berkeleysprings.png,,49,US_Cities_List/nat_berkeleysprings.png,NAT,1,,,,,,,,,,,,,,,
null,,confidence_buffer,219779,confidence_buffer,,null,,,,,,,,,,,,,,,,,,
1490.2999999523163,,probe_rating,221270,probe_rating,,51,,,,3,1,,,,,,,,,,,,,
null,,confidence_buffer,221377,confidence_buffer,,null,,,,,,,,,,,,,,,,,,
1429.1999999284744,,unique_rating,222807,US_Cities_List/nat_berkeleysprings.png,,51,,,3,,,,,,,,,,,,,,,
null,,confidence_buffer,222912,confidence_buffer,,null,,,,,,,,,,,,,,,,,,
1206,,memorable_rating,224119,US_Cities_List/nat_berkeleysprings.png,,51,,,3,,,,,,,,,,,,,,,
null,,confidence_buffer,224231,confidence_buffer,,null,,,,,,,,,,,,,,,,,,
null,,thebreak,224739,break,,null,,,,,,,,,,,,,,,,,,
4163.700000047684,,familiar_rating,228903,Fictional_Cities_List/img_manmade_12.png,,49,Fictional_Cities_List/img_manmade_12.png,MM,1,,,,,,,,,,,,,,,
null,,confidence_buffer,229009,confidence_buffer,,null,,,,,,,,,,,,,,,,,,
3653.2000000476837,,unique_rating,232663,Fictional_Cities_List/img_manmade_12.png,,51,,,3,,,,,,,,,,,,,,,
null,,confidence_buffer,232771,confidence_buffer,,null,,,,,,,,,,,,,,,,,,
1571,,memorable_rating,234343,Fictional_Cities_List/img_manmade_12.png,,51,,,3,,,,,,,,,,,,,,,
null,,confidence_buffer,234458,confidence_buffer,,null,,,,,,,,,,,,,,,,,,
null,,thebreak,234964,break,,null,,,,,,,,,,,,,,,,,,
2658,,familiar_rating,237623,Fictional_Cities_List/img_natural_04.png,,49,Fictional_Cities_List/img_natural_04.png,NAT,1,,,,,,,,,,,,,,,
null,,confidence_buffer,237724,confidence_buffer,,null,,,,,,,,,,,,,,,,,,
1386.2999999523163,,unique_rating,239112,Fictional_Cities_List/img_natural_04.png,,49,,,1,,,,,,,,,,,,,,,
null,,confidence_buffer,239214,confidence_buffer,,null,,,,,,,,,,,,,,,,,,
2183.7000000476837,,memorable_rating,241399,Fictional_Cities_List/img_natural_04.png,,49,,,1,,,,,,,,,,,,,,,
null,,confidence_buffer,241514,confidence_buffer,,null,,,,,,,,,,,,,,,,,,
null,,thebreak,242027,break,,null,,,,,,,,,,,,,,,,,,
2571.2999999523163,,familiar_rating,244599,US_Cities_List/nat_abilene.png,,49,US_Cities_List/nat_abilene.png,NAT,1,,,,,,,,,,,,,,,
null,,confidence_buffer,244716,confidence_buffer,,null,,,,,,,,,,,,,,,,,,
3787.0999999046326,,unique_rating,248504,US_Cities_List/nat_abilene.png,,51,,,3,,,,,,,,,,,,,,,
null,,confidence_buffer,248605,confidence_buffer,,null,,,,,,,,,,,,,,,,,,
2041.9000000953674,,memorable_rating,250648,US_Cities_List/nat_abilene.png,,50,,,2,,,,,,,,,,,,,,,
null,,confidence_buffer,250758,confidence_buffer,,null,,,,,,,,,,,,,,,,,,
null,,thebreak,251266,break,,null,,,,,,,,,,,,,,,,,,
4116.900000095367,,familiar_rating,255384,Fictional_Cities_List/img_manmade_32.png,,49,Fictional_Cities_List/img_manmade_32.png,MM,1,,,,,,,,,,,,,,,
null,,confidence_buffer,255495,confidence_buffer,,null,,,,,,,,,,,,,,,,,,
3136.399999976158,,unique_rating,258632,Fictional_Cities_List/img_manmade_32.png,,51,,,3,,,,,,,,,,,,,,,
null,,confidence_buffer,258733,confidence_buffer,,null,,,,,,,,,,,,,,,,,,
681.6000000238419,,memorable_rating,259416,Fictional_Cities_List/img_manmade_32.png,,51,,,3,,,,,,,,,,,,,,,
null,,confidence_buffer,259533,confidence_buffer,,null,,,,,,,,,,,,,,,,,,
null,,thebreak,260038,break,,null,,,,,,,,,,,,,,,,,,
3073.600000023842,,familiar_rating,263112,US_Cities_List/nat_barharbor.png,,50,US_Cities_List/nat_barharbor.png,NAT,2,,,,,,,,,,,,,,,
null,,confidence_buffer,263220,confidence_buffer,,null,,,,,,,,,,,,,,,,,,
3122.7999999523163,,unique_rating,266344,US_Cities_List/nat_barharbor.png,,50,,,2,,,,,,,,,,,,,,,
null,,confidence_buffer,266457,confidence_buffer,,null,,,,,,,,,,,,,,,,,,
2334,,memorable_rating,268792,US_Cities_List/nat_barharbor.png,,51,,,3,,,,,,,,,,,,,,,
null,,confidence_buffer,268909,confidence_buffer,,null,,,,,,,,,,,,,,,,,,
null,,thebreak,269415,break,,null,,,,,,,,,,,,,,,,,,
2895.7999999523163,,familiar_rating,272312,Fictional_Cities_List/img_manmade_42.png,,49,Fictional_Cities_List/img_manmade_42.png,MM,1,,,,,,,,,,,,,,,
null,,confidence_buffer,272429,confidence_buffer,,null,,,,,,,,,,,,,,,,,,
2122,,unique_rating,274552,Fictional_Cities_List/img_manmade_42.png,,51,,,3,,,,,,,,,,,,,,,
null,,confidence_buffer,274654,confidence_buffer,,null,,,,,,,,,,,,,,,,,,
1145.2000000476837,,memorable_rating,275800,Fictional_Cities_List/img_manmade_42.png,,51,,,3,,,,,,,,,,,,,,,
null,,confidence_buffer,275910,confidence_buffer,,null,,,,,,,,,,,,,,,,,,
null,,thebreak,276414,break,,null,,,,,,,,,,,,,,,,,,
3561.5,,familiar_rating,279976,US_Cities_List/mm_peoria.png,,49,US_Cities_List/mm_peoria.png,MM,1,,,,,,,,,,,,,,,
null,,confidence_buffer,280091,confidence_buffer,,null,,,,,,,,,,,,,,,,,,
2556.5999999046326,,probe_rating,282648,probe_rating,,52,,,,4,0,,,,,,,,,,,,,
null,,confidence_buffer,282764,confidence_buffer,,null,,,,,,,,,,,,,,,,,,
1227.3999999761581,,unique_rating,283992,US_Cities_List/mm_peoria.png,,52,,,4,,,,,,,,,,,,,,,
null,,confidence_buffer,284100,confidence_buffer,,null,,,,,,,,,,,,,,,,,,
4371.200000047684,,memorable_rating,288473,US_Cities_List/mm_peoria.png,,52,,,4,,,,,,,,,,,,,,,
null,,confidence_buffer,288578,confidence_buffer,,null,,,,,,,,,,,,,,,,,,
null,,thebreak,289082,break,,null,,,,,,,,,,,,,,,,,,
3485.2999999523163,,familiar_rating,292569,Fictional_Cities_List/img_natural_41.png,,49,Fictional_Cities_List/img_natural_41.png,NAT,1,,,,,,,,,,,,,,,
null,,confidence_buffer,292684,confidence_buffer,,null,,,,,,,,,,,,,,,,,,
1963.8000000715256,,unique_rating,294649,Fictional_Cities_List/img_natural_41.png,,51,,,3,,,,,,,,,,,,,,,
null,,confidence_buffer,294751,confidence_buffer,,null,,,,,,,,,,,,,,,,,,
952.8000000715256,,memorable_rating,295705,Fictional_Cities_List/img_natural_41.png,,51,,,3,,,,,,,,,,,,,,,
null,,confidence_buffer,295821,confidence_buffer,,null,,,,,,,,,,,,,,,,,,
null,,thebreak,296332,break,,null,,,,,,,,,,,,,,,,,,
5132.699999928474,,familiar_rating,301465,US_Cities_List/mm_duck.png,,49,US_Cities_List/mm_duck.png,MM,1,,,,,,,,,,,,,,,
null,,confidence_buffer,301575,confidence_buffer,,null,,,,,,,,,,,,,,,,,,
1600.5,,unique_rating,303177,US_Cities_List/mm_duck.png,,51,,,3,,,,,,,,,,,,,,,
null,,confidence_buffer,303279,confidence_buffer,,null,,,,,,,,,,,,,,,,,,
889.2000000476837,,probe_rating,304169,probe_rating,,51,,,,3,0,,,,,,,,,,,,,
null,,confidence_buffer,304279,confidence_buffer,,null,,,,,,,,,,,,,,,,,,
1648.8999999761581,,memorable_rating,305929,US_Cities_List/mm_duck.png,,51,,,3,,,,,,,,,,,,,,,
null,,confidence_buffer,306046,confidence_buffer,,null,,,,,,,,,,,,,,,,,,
null,,thebreak,306554,break,,null,,,,,,,,,,,,,,,,,,
3182.600000023842,,familiar_rating,309737,US_Cities_List/mm_orr.png,,49,US_Cities_List/mm_orr.png,MM,1,,,,,,,,,,,,,,,
null,,confidence_buffer,309850,confidence_buffer,,null,,,,,,,,,,,,,,,,,,
3262.2000000476837,,unique_rating,313113,US_Cities_List/mm_orr.png,,52,,,4,,,,,,,,,,,,,,,
null,,confidence_buffer,313220,confidence_buffer,,null,,,,,,,,,,,,,,,,,,
788.3999999761581,,memorable_rating,314009,US_Cities_List/mm_orr.png,,52,,,4,,,,,,,,,,,,,,,
null,,confidence_buffer,314112,confidence_buffer,,null,,,,,,,,,,,,,,,,,,
null,,thebreak,314614,break,,null,,,,,,,,,,,,,,,,,,
9650.300000071526,,familiar_rating,324265,US_Cities_List/nat_hanover.png,,49,US_Cities_List/nat_hanover.png,NAT,1,,,,,,,,,,,,,,,
null,,confidence_buffer,324378,confidence_buffer,,null,,,,,,,,,,,,,,,,,,
5759.199999928474,,unique_rating,330137,US_Cities_List/nat_hanover.png,,49,,,1,,,,,,,,,,,,,,,
null,,confidence_buffer,330253,confidence_buffer,,null,,,,,,,,,,,,,,,,,,
635.5,,memorable_rating,330890,US_Cities_List/nat_hanover.png,,49,,,1,,,,,,,,,,,,,,,
null,,confidence_buffer,330994,confidence_buffer,,null,,,,,,,,,,,,,,,,,,
null,,thebreak,331497,break,,null,,,,,,,,,,,,,,,,,,
5535.200000047684,,familiar_rating,337034,Fictional_Cities_List/img_natural_08.png,,49,Fictional_Cities_List/img_natural_08.png,NAT,1,,,,,,,,,,,,,,,
null,,confidence_buffer,337145,confidence_buffer,,null,,,,,,,,,,,,,,,,,,
3151.600000023842,,unique_rating,340298,Fictional_Cities_List/img_natural_08.png,,50,,,2,,,,,,,,,,,,,,,
null,,confidence_buffer,340415,confidence_buffer,,null,,,,,,,,,,,,,,,,,,
761.5,,memorable_rating,341177,Fictional_Cities_List/img_natural_08.png,,50,,,2,,,,,,,,,,,,,,,
null,,confidence_buffer,341293,confidence_buffer,,null,,,,,,,,,,,,,,,,,,
null,,thebreak,341797,break,,null,,,,,,,,,,,,,,,,,,
3972.100000023842,,intro_0,345770,instruct,,32,,,,,,,,,,,,,,,,,,
5791.300000071526,,intro_1,351562,instruct,,32,,,,,,,,,,,,,,,,,,
10351.299999952316,,intro_2,361914,instruct,,32,,,,,,,,,,,,,,,,,,
null,,instruct_dir_4,363429,instruct,,null,,,,,,,,,,,,,,,,,,
4260.699999928474,,pt2_realistic_rating,367690,Fictional_Cities_List/img_manmade_28.png,,51,Fictional_Cities_List/img_manmade_28.png,MM,3,,,,,,,,,,,,,,,
null,,confidence_buffer,367808,confidence_buffer,,null,,,,,,,,,,,,,,,,,,
4698.200000047684,,pt2_unique_rating,372507,Fictional_Cities_List/img_manmade_28.png,,51,,,3,,,,,,,,,,,,,,,
null,,confidence_buffer,372615,confidence_buffer,,null,,,,,,,,,,,,,,,,,,
2642.600000023842,,pt2_memorable_rating,375259,Fictional_Cities_List/img_manmade_28.png,,51,,,3,,,,,,,,,,,,,,,
null,,confidence_buffer,375372,confidence_buffer,,null,,,,,,,,,,,,,,,,,,
2894.100000023842,,recognition_phase,378267,Fictional_Cities_List/img_manmade_28.png,,49,,,,,,old,1,1,,,,,,,,,,
null,,confidence_buffer,378370,confidence_buffer,,null,,,,,,,,,,,,,,,,,,
null,,thebreak,378874,break,,null,,,,,,,,,,,,,,,,,,
6688.200000047684,,pt2_realistic_rating,385563,Fictional_Cities_List/img_manmade_41.png,,52,Fictional_Cities_List/img_manmade_41.png,MM,4,,,,,,,,,,,,,,,
null,,confidence_buffer,385678,confidence_buffer,,null,,,,,,,,,,,,,,,,,,
2635.1999999284744,,pt2_unique_rating,388314,Fictional_Cities_List/img_manmade_41.png,,51,,,3,,,,,,,,,,,,,,,
null,,confidence_buffer,388426,confidence_buffer,,null,,,,,,,,,,,,,,,,,,
2912,,pt2_memorable_rating,391339,Fictional_Cities_List/img_manmade_41.png,,51,,,3,,,,,,,,,,,,,,,
null,,confidence_buffer,391448,confidence_buffer,,null,,,,,,,,,,,,,,,,,,
4210.5,,recognition_phase,395659,Fictional_Cities_List/img_manmade_41.png,,49,,,,,,old,0,0.5,,,,,,,,,,
null,,confidence_buffer,395763,confidence_buffer,,null,,,,,,,,,,,,,,,,,,
null,,thebreak,396264,break,,null,,,,,,,,,,,,,,,,,,
4481.899999976158,,pt2_realistic_rating,400747,US_Cities_List/mm_duck.png,,52,US_Cities_List/mm_duck.png,MM,4,,,,,,,,,,,,,,,
null,,confidence_buffer,400853,confidence_buffer,,null,,,,,,,,,,,,,,,,,,
2725.3000000715256,,pt2_unique_rating,403579,US_Cities_List/mm_duck.png,,50,,,2,,,,,,,,,,,,,,,
null,,confidence_buffer,403696,confidence_buffer,,null,,,,,,,,,,,,,,,,,,
3338.5999999046326,,pt2_memorable_rating,407035,US_Cities_List/mm_duck.png,,52,,,4,,,,,,,,,,,,,,,
null,,confidence_buffer,407151,confidence_buffer,,null,,,,,,,,,,,,,,,,,,
3499.899999976158,,recognition_phase,410652,US_Cities_List/mm_duck.png,,52,,,,,,new,0,0.3333333333333333,,,,,,,,,,
null,,confidence_buffer,410762,confidence_buffer,,null,,,,,,,,,,,,,,,,,,
null,,thebreak,411265,break,,null,,,,,,,,,,,,,,,,,,
8778.100000023842,,pt2_realistic_rating,420044,Fictional_Cities_List/img_natural_36.png,,51,Fictional_Cities_List/img_natural_36.png,NAT,3,,,,,,,,,,,,,,,
null,,confidence_buffer,420146,confidence_buffer,,null,,,,,,,,,,,,,,,,,,
2089,,pt2_unique_rating,422236,Fictional_Cities_List/img_natural_36.png,,50,,,2,,,,,,,,,,,,,,,
null,,confidence_buffer,422348,confidence_buffer,,null,,,,,,,,,,,,,,,,,,
894.5,,pt2_memorable_rating,423244,Fictional_Cities_List/img_natural_36.png,,50,,,2,,,,,,,,,,,,,,,
null,,confidence_buffer,423355,confidence_buffer,,null,,,,,,,,,,,,,,,,,,
3231.600000023842,,recognition_phase,426588,Fictional_Cities_List/img_natural_36.png,,52,,,,,,new,0,0.25,,,,,,,,,,
null,,confidence_buffer,426705,confidence_buffer,,null,,,,,,,,,,,,,,,,,,
null,,thebreak,427207,break,,null,,,,,,,,,,,,,,,,,,
4099.899999976158,,pt2_realistic_rating,431308,US_Cities_List/nat_barnard.png,,52,US_Cities_List/nat_barnard.png,NAT,4,,,,,,,,,,,,,,,
null,,confidence_buffer,431410,confidence_buffer,,null,,,,,,,,,,,,,,,,,,
4569.300000071526,,pt2_unique_rating,435980,US_Cities_List/nat_barnard.png,,50,,,2,,,,,,,,,,,,,,,
null,,confidence_buffer,436081,confidence_buffer,,null,,,,,,,,,,,,,,,,,,
1305.5,,pt2_memorable_rating,437388,US_Cities_List/nat_barnard.png,,50,,,2,,,,,,,,,,,,,,,
null,,confidence_buffer,437498,confidence_buffer,,null,,,,,,,,,,,,,,,,,,
4576.399999976158,,recognition_phase,442075,US_Cities_List/nat_barnard.png,,52,,,,,,new,1,0.4,,,,,,,,,,
null,,confidence_buffer,442181,confidence_buffer,,null,,,,,,,,,,,,,,,,,,
null,,thebreak,442695,break,,null,,,,,,,,,,,,,,,,,,
4708.799999952316,,pt2_realistic_rating,447404,Fictional_Cities_List/img_natural_01.png,,49,Fictional_Cities_List/img_natural_01.png,NAT,1,,,,,,,,,,,,,,,
null,,confidence_buffer,447507,confidence_buffer,,null,,,,,,,,,,,,,,,,,,
1752.3999999761581,,pt2_unique_rating,449260,Fictional_Cities_List/img_natural_01.png,,49,,,1,,,,,,,,,,,,,,,
null,,confidence_buffer,449364,confidence_buffer,,null,,,,,,,,,,,,,,,,,,
2424,,pt2_memorable_rating,451789,Fictional_Cities_List/img_natural_01.png,,51,,,3,,,,,,,,,,,,,,,
null,,confidence_buffer,451901,confidence_buffer,,null,,,,,,,,,,,,,,,,,,
2798.3000000715256,,recognition_phase,454700,Fictional_Cities_List/img_natural_01.png,,52,,,,,,new,1,0.5,,,,,,,,,,
null,,confidence_buffer,454816,confidence_buffer,,null,,,,,,,,,,,,,,,,,,
null,,thebreak,455320,break,,null,,,,,,,,,,,,,,,,,,
6355.5,,pt2_realistic_rating,461676,US_Cities_List/nat_berkeleysprings.png,,50,US_Cities_List/nat_berkeleysprings.png,NAT,2,,,,,,,,,,,,,,,
null,,confidence_buffer,461784,confidence_buffer,,null,,,,,,,,,,,,,,,,,,
2147.2999999523163,,probe_rating,463933,probe_rating,,52,,,,4,1,,,,,,,,,,,,,
null,,confidence_buffer,464042,confidence_buffer,,null,,,,,,,,,,,,,,,,,,
3329.100000023842,,pt2_unique_rating,467372,US_Cities_List/nat_berkeleysprings.png,,51,,,3,,,,,,,,,,,,,,,
null,,confidence_buffer,467477,confidence_buffer,,null,,,,,,,,,,,,,,,,,,
3127,,pt2_memorable_rating,470605,US_Cities_List/nat_berkeleysprings.png,,50,,,2,,,,,,,,,,,,,,,
null,,confidence_buffer,470713,confidence_buffer,,null,,,,,,,,,,,,,,,,,,
3170.5,,recognition_phase,473885,US_Cities_List/nat_berkeleysprings.png,,49,,,,,,old,1,0.5714285714285714,,,,,,,,,,
null,,confidence_buffer,474002,confidence_buffer,,null,,,,,,,,,,,,,,,,,,
null,,thebreak,474509,break,,null,,,,,,,,,,,,,,,,,,
3006.6999999284744,,pt2_realistic_rating,477516,Fictional_Cities_List/img_natural_13.png,,49,Fictional_Cities_List/img_natural_13.png,NAT,1,,,,,,,,,,,,,,,
null,,confidence_buffer,477621,confidence_buffer,,null,,,,,,,,,,,,,,,,,,
4166.300000071526,,pt2_unique_rating,481788,Fictional_Cities_List/img_natural_13.png,,51,,,3,,,,,,,,,,,,,,,
null,,confidence_buffer,481897,confidence_buffer,,null,,,,,,,,,,,,,,,,,,
930.7999999523163,,pt2_memorable_rating,482829,Fictional_Cities_List/img_natural_13.png,,51,,,3,,,,,,,,,,,,,,,
null,,confidence_buffer,482939,confidence_buffer,,null,,,,,,,,,,,,,,,,,,
4064.899999976158,,recognition_phase,487005,Fictional_Cities_List/img_natural_13.png,,52,,,,,,new,1,0.625,,,,,,,,,,
null,,confidence_buffer,487115,confidence_buffer,,null,,,,,,,,,,,,,,,,,,
null,,thebreak,487621,break,,null,,,,,,,,,,,,,,,,,,
5127.200000047684,,pt2_realistic_rating,492749,Fictional_Cities_List/img_natural_16.png,,49,Fictional_Cities_List/img_natural_16.png,NAT,1,,,,,,,,,,,,,,,
null,,confidence_buffer,492852,confidence_buffer,,null,,,,,,,,,,,,,,,,,,
2951.7000000476837,,pt2_unique_rating,495805,Fictional_Cities_List/img_natural_16.png,,51,,,3,,,,,,,,,,,,,,,
null,,confidence_buffer,495907,confidence_buffer,,null,,,,,,,,,,,,,,,,,,
858.2999999523163,,pt2_memorable_rating,496766,Fictional_Cities_List/img_natural_16.png,,51,,,3,,,,,,,,,,,,,,,
null,,confidence_buffer,496882,confidence_buffer,,null,,,,,,,,,,,,,,,,,,
1721.1999999284744,,probe_rating,498605,probe_rating,,49,,,,1,1,,,,,,,,,,,,,
null,,confidence_buffer,498718,confidence_buffer,,null,,,,,,,,,,,,,,,,,,
3485.399999976158,,recognition_phase,502205,Fictional_Cities_List/img_natural_16.png,,52,,,,,,new,1,0.6666666666666666,,,,,,,,,,
null,,confidence_buffer,502313,confidence_buffer,,null,,,,,,,,,,,,,,,,,,
null,,thebreak,502819,break,,null,,,,,,,,,,,,,,,,,,
5945.600000023842,,pt2_realistic_rating,508765,Fictional_Cities_List/img_manmade_15.png,,50,Fictional_Cities_List/img_manmade_15.png,MM,2,,,,,,,,,,,,,,,
null,,confidence_buffer,508881,confidence_buffer,,null,,,,,,,,,,,,,,,,,,
2283.1999999284744,,pt2_unique_rating,511166,Fictional_Cities_List/img_manmade_15.png,,50,,,2,,,,,,,,,,,,,,,
null,,confidence_buffer,511275,confidence_buffer,,null,,,,,,,,,,,,,,,,,,
1730.2999999523163,,pt2_memorable_rating,513006,Fictional_Cities_List/img_manmade_15.png,,50,,,2,,,,,,,,,,,,,,,
null,,confidence_buffer,513107,confidence_buffer,,null,,,,,,,,,,,,,,,,,,
3050.5,,recognition_phase,516158,Fictional_Cities_List/img_manmade_15.png,,49,,,,,,old,0,0.6,,,,,,,,,,
null,,confidence_buffer,516260,confidence_buffer,,null,,,,,,,,,,,,,,,,,,
null,,thebreak,516770,break,,null,,,,,,,,,,,,,,,,,,
3786.7999999523163,,pt2_realistic_rating,520558,Fictional_Cities_List/img_natural_32.png,,53,Fictional_Cities_List/img_natural_32.png,NAT,5,,,,,,,,,,,,,,,
null,,confidence_buffer,520665,confidence_buffer,,null,,,,,,,,,,,,,,,,,,
4468.200000047684,,pt2_unique_rating,525134,Fictional_Cities_List/img_natural_32.png,,53,,,5,,,,,,,,,,,,,,,
null,,confidence_buffer,525247,confidence_buffer,,null,,,,,,,,,,,,,,,,,,
1518.1000000238419,,pt2_memorable_rating,526766,Fictional_Cities_List/img_natural_32.png,,53,,,5,,,,,,,,,,,,,,,
null,,confidence_buffer,526873,confidence_buffer,,null,,,,,,,,,,,,,,,,,,
3060.5,,recognition_phase,529934,Fictional_Cities_List/img_natural_32.png,,49,,,,,,old,1,0.6363636363636364,,,,,,,,,,
null,,confidence_buffer,530045,confidence_buffer,,null,,,,,,,,,,,,,,,,,,
null,,thebreak,530547,break,,null,,,,,,,,,,,,,,,,,,
3450,,pt2_realistic_rating,533998,Fictional_Cities_List/img_manmade_16.png,,49,Fictional_Cities_List/img_manmade_16.png,MM,1,,,,,,,,,,,,,,,
null,,confidence_buffer,534114,confidence_buffer,,null,,,,,,,,,,,,,,,,,,
2219.899999976158,,pt2_unique_rating,536334,Fictional_Cities_List/img_manmade_16.png,,51,,,3,,,,,,,,,,,,,,,
null,,confidence_buffer,536447,confidence_buffer,,null,,,,,,,,,,,,,,,,,,
1678.2999999523163,,pt2_memorable_rating,538126,Fictional_Cities_List/img_manmade_16.png,,51,,,3,,,,,,,,,,,,,,,
null,,confidence_buffer,538233,confidence_buffer,,null,,,,,,,,,,,,,,,,,,
4451.900000095367,,recognition_phase,542686,Fictional_Cities_List/img_manmade_16.png,,52,,,,,,new,1,0.6666666666666666,,,,,,,,,,
null,,confidence_buffer,542803,confidence_buffer,,null,,,,,,,,,,,,,,,,,,
null,,thebreak,543314,break,,null,,,,,,,,,,,,,,,,,,
4124.5,,pt2_realistic_rating,547439,Fictional_Cities_List/img_natural_19.png,,49,Fictional_Cities_List/img_natural_19.png,NAT,1,,,,,,,,,,,,,,,
null,,confidence_buffer,547552,confidence_buffer,,null,,,,,,,,,,,,,,,,,,
5261.300000071526,,probe_rating,552814,probe_rating,,51,,,,3,1,,,,,,,,,,,,,
null,,confidence_buffer,552917,confidence_buffer,,null,,,,,,,,,,,,,,,,,,
2649.5,,pt2_unique_rating,555567,Fictional_Cities_List/img_natural_19.png,,51,,,3,,,,,,,,,,,,,,,
null,,confidence_buffer,555684,confidence_buffer,,null,,,,,,,,,,,,,,,,,,
2090.1999999284744,,pt2_memorable_rating,557775,Fictional_Cities_List/img_natural_19.png,,51,,,3,,,,,,,,,,,,,,,
null,,confidence_buffer,557888,confidence_buffer,,null,,,,,,,,,,,,,,,,,,
3389.8000000715256,,recognition_phase,561279,Fictional_Cities_List/img_natural_19.png,,52,,,,,,new,1,0.6923076923076923,,,,,,,,,,
null,,confidence_buffer,561389,confidence_buffer,,null,,,,,,,,,,,,,,,,,,
null,,thebreak,561891,break,,null,,,,,,,,,,,,,,,,,,
5179.200000047684,,pt2_realistic_rating,567071,US_Cities_List/nat_hanover.png,,52,US_Cities_List/nat_hanover.png,NAT,4,,,,,,,,,,,,,,,
null,,confidence_buffer,567178,confidence_buffer,,null,,,,,,,,,,,,,,,,,,
2115.7999999523163,,pt2_unique_rating,569295,US_Cities_List/nat_hanover.png,,50,,,2,,,,,,,,,,,,,,,
null,,confidence_buffer,569401,confidence_buffer,,null,,,,,,,,,,,,,,,,,,
2260.3000000715256,,pt2_memorable_rating,571662,US_Cities_List/nat_hanover.png,,50,,,2,,,,,,,,,,,,,,,
null,,confidence_buffer,571765,confidence_buffer,,null,,,,,,,,,,,,,,,,,,
3577,,recognition_phase,575343,US_Cities_List/nat_hanover.png,,49,,,,,,old,1,0.7142857142857143,,,,,,,,,,
null,,confidence_buffer,575455,confidence_buffer,,null,,,,,,,,,,,,,,,,,,
null,,thebreak,575959,break,,null,,,,,,,,,,,,,,,,,,
5319.699999928474,,pt2_realistic_rating,581280,Fictional_Cities_List/img_manmade_32.png,,52,Fictional_Cities_List/img_manmade_32.png,MM,4,,,,,,,,,,,,,,,
null,,confidence_buffer,581395,confidence_buffer,,null,,,,,,,,,,,,,,,,,,
1307.4000000953674,,pt2_unique_rating,582703,Fictional_Cities_List/img_manmade_32.png,,52,,,4,,,,,,,,,,,,,,,
null,,confidence_buffer,582813,confidence_buffer,,null,,,,,,,,,,,,,,,,,,
2288.5,,pt2_memorable_rating,585103,Fictional_Cities_List/img_manmade_32.png,,51,,,3,,,,,,,,,,,,,,,
null,,confidence_buffer,585217,confidence_buffer,,null,,,,,,,,,,,,,,,,,,
2142.100000023842,,probe_rating,587360,probe_rating,,53,,,,5,1,,,,,,,,,,,,,
null,,confidence_buffer,587467,confidence_buffer,,null,,,,,,,,,,,,,,,,,,
3091,,recognition_phase,590559,Fictional_Cities_List/img_manmade_32.png,,49,,,,,,old,1,0.7333333333333333,,,,,,,,,,
null,,confidence_buffer,590671,confidence_buffer,,null,,,,,,,,,,,,,,,,,,
null,,thebreak,591175,break,,null,,,,,,,,,,,,,,,,,,
2679,,pt2_realistic_rating,593855,Fictional_Cities_List/img_manmade_08.png,,49,Fictional_Cities_List/img_manmade_08.png,MM,1,,,,,,,,,,,,,,,
null,,confidence_buffer,593964,confidence_buffer,,null,,,,,,,,,,,,,,,,,,
3250.7000000476837,,pt2_unique_rating,597216,Fictional_Cities_List/img_manmade_08.png,,50,,,2,,,,,,,,,,,,,,,
null,,confidence_buffer,597328,confidence_buffer,,null,,,,,,,,,,,,,,,,,,
1102.3000000715256,,pt2_memorable_rating,598431,Fictional_Cities_List/img_manmade_08.png,,50,,,2,,,,,,,,,,,,,,,
null,,confidence_buffer,598539,confidence_buffer,,null,,,,,,,,,,,,,,,,,,
4948.200000047684,,recognition_phase,603488,Fictional_Cities_List/img_manmade_08.png,,52,,,,,,new,1,0.75,,,,,,,,,,
null,,confidence_buffer,603596,confidence_buffer,,null,,,,,,,,,,,,,,,,,,
null,,thebreak,604099,break,,null,,,,,,,,,,,,,,,,,,
3979.1999999284744,,pt2_realistic_rating,608079,Fictional_Cities_List/img_natural_41.png,,52,Fictional_Cities_List/img_natural_41.png,NAT,4,,,,,,,,,,,,,,,
null,,confidence_buffer,608189,confidence_buffer,,null,,,,,,,,,,,,,,,,,,
3713.399999976158,,pt2_unique_rating,611904,Fictional_Cities_List/img_natural_41.png,,50,,,2,,,,,,,,,,,,,,,
null,,confidence_buffer,612016,confidence_buffer,,null,,,,,,,,,,,,,,,,,,
1535.2999999523163,,pt2_memorable_rating,613552,Fictional_Cities_List/img_natural_41.png,,50,,,2,,,,,,,,,,,,,,,
null,,confidence_buffer,613667,confidence_buffer,,null,,,,,,,,,,,,,,,,,,
3836.399999976158,,recognition_phase,617504,Fictional_Cities_List/img_natural_41.png,,52,,,,,,new,0,0.7058823529411765,,,,,,,,,,
null,,confidence_buffer,617608,confidence_buffer,,null,,,,,,,,,,,,,,,,,,
null,,thebreak,618114,break,,null,,,,,,,,,,,,,,,,,,
5852.899999976158,,pt2_realistic_rating,623968,US_Cities_List/nat_albuquerque.png,,52,US_Cities_List/nat_albuquerque.png,NAT,4,,,,,,,,,,,,,,,
null,,confidence_buffer,624076,confidence_buffer,,null,,,,,,,,,,,,,,,,,,
2514.5,,pt2_unique_rating,626591,US_Cities_List/nat_albuquerque.png,,50,,,2,,,,,,,,,,,,,,,
null,,confidence_buffer,626700,confidence_buffer,,null,,,,,,,,,,,,,,,,,,
836,,pt2_memorable_rating,627536,US_Cities_List/nat_albuquerque.png,,50,,,2,,,,,,,,,,,,,,,
null,,confidence_buffer,627640,confidence_buffer,,null,,,,,,,,,,,,,,,,,,
3127.7000000476837,,recognition_phase,630768,US_Cities_List/nat_albuquerque.png,,49,,,,,,old,1,0.7222222222222222,,,,,,,,,,
null,,confidence_buffer,630883,confidence_buffer,,null,,,,,,,,,,,,,,,,,,
null,,thebreak,631388,break,,null,,,,,,,,,,,,,,,,,,
5060.200000047684,,pt2_realistic_rating,636449,Fictional_Cities_List/img_manmade_42.png,,51,Fictional_Cities_List/img_manmade_42.png,MM,3,,,,,,,,,,,,,,,
null,,confidence_buffer,636559,confidence_buffer,,null,,,,,,,,,,,,,,,,,,
1761.2000000476837,,pt2_unique_rating,638321,Fictional_Cities_List/img_manmade_42.png,,50,,,2,,,,,,,,,,,,,,,
null,,confidence_buffer,638436,confidence_buffer,,null,,,,,,,,,,,,,,,,,,
2075.7999999523163,,pt2_memorable_rating,640513,Fictional_Cities_List/img_manmade_42.png,,50,,,2,,,,,,,,,,,,,,,
null,,confidence_buffer,640614,confidence_buffer,,null,,,,,,,,,,,,,,,,,,
2058.100000023842,,probe_rating,642673,probe_rating,,53,,,,5,1,,,,,,,,,,,,,
null,,confidence_buffer,642791,confidence_buffer,,null,,,,,,,,,,,,,,,,,,
2585.399999976158,,recognition_phase,645377,Fictional_Cities_List/img_manmade_42.png,,49,,,,,,old,1,0.7368421052631579,,,,,,,,,,
null,,confidence_buffer,645478,confidence_buffer,,null,,,,,,,,,,,,,,,,,,
null,,thebreak,645979,break,,null,,,,,,,,,,,,,,,,,,
4004.899999976158,,pt2_realistic_rating,649985,US_Cities_List/nat_natchez.png,,51,US_Cities_List/nat_natchez.png,NAT,3,,,,,,,,,,,,,,,
null,,confidence_buffer,650099,confidence_buffer,,null,,,,,,,,,,,,,,,,,,
1421.2999999523163,,pt2_unique_rating,651521,US_Cities_List/nat_natchez.png,,51,,,3,,,,,,,,,,,,,,,
null,,confidence_buffer,651633,confidence_buffer,,null,,,,,,,,,,,,,,,,,,
2303.399999976158,,pt2_memorable_rating,653937,US_Cities_List/nat_natchez.png,,51,,,3,,,,,,,,,,,,,,,
null,,confidence_buffer,654051,confidence_buffer,,null,,,,,,,,,,,,,,,,,,
3276.7999999523163,,recognition_phase,657329,US_Cities_List/nat_natchez.png,,52,,,,,,new,1,0.75,,,,,,,,,,
null,,confidence_buffer,657432,confidence_buffer,,null,,,,,,,,,,,,,,,,,,
null,,thebreak,657948,break,,null,,,,,,,,,,,,,,,,,,
5396.399999976158,,pt2_realistic_rating,663345,US_Cities_List/mm_healdsburg.png,,52,US_Cities_List/mm_healdsburg.png,MM,4,,,,,,,,,,,,,,,
null,,confidence_buffer,663462,confidence_buffer,,null,,,,,,,,,,,,,,,,,,
2394,,pt2_unique_rating,665857,US_Cities_List/mm_healdsburg.png,,52,,,4,,,,,,,,,,,,,,,
null,,confidence_buffer,665965,confidence_buffer,,null,,,,,,,,,,,,,,,,,,
2707.9000000953674,,pt2_memorable_rating,668673,US_Cities_List/mm_healdsburg.png,,51,,,3,,,,,,,,,,,,,,,
null,,confidence_buffer,668788,confidence_buffer,,null,,,,,,,,,,,,,,,,,,
3068.5999999046326,,recognition_phase,671857,US_Cities_List/mm_healdsburg.png,,52,,,,,,new,1,0.7619047619047619,,,,,,,,,,
null,,confidence_buffer,671971,confidence_buffer,,null,,,,,,,,,,,,,,,,,,
null,,thebreak,672477,break,,null,,,,,,,,,,,,,,,,,,
3955.7000000476837,,pt2_realistic_rating,676434,US_Cities_List/nat_hilo.png,,49,US_Cities_List/nat_hilo.png,NAT,1,,,,,,,,,,,,,,,
null,,confidence_buffer,676538,confidence_buffer,,null,,,,,,,,,,,,,,,,,,
2151,,pt2_unique_rating,678690,US_Cities_List/nat_hilo.png,,50,,,2,,,,,,,,,,,,,,,
null,,confidence_buffer,678805,confidence_buffer,,null,,,,,,,,,,,,,,,,,,
1099.7000000476837,,pt2_memorable_rating,679905,US_Cities_List/nat_hilo.png,,50,,,2,,,,,,,,,,,,,,,
null,,confidence_buffer,680011,confidence_buffer,,null,,,,,,,,,,,,,,,,,,
4613.199999928474,,recognition_phase,684625,US_Cities_List/nat_hilo.png,,49,,,,,,old,0,0.7272727272727273,,,,,,,,,,
null,,confidence_buffer,684731,confidence_buffer,,null,,,,,,,,,,,,,,,,,,
null,,thebreak,685238,break,,null,,,,,,,,,,,,,,,,,,
2891.1999999284744,,pt2_realistic_rating,688129,Fictional_Cities_List/img_natural_04.png,,49,Fictional_Cities_List/img_natural_04.png,NAT,1,,,,,,,,,,,,,,,
null,,confidence_buffer,688235,confidence_buffer,,null,,,,,,,,,,,,,,,,,,
3509.9000000953674,,pt2_unique_rating,691746,Fictional_Cities_List/img_natural_04.png,,50,,,2,,,,,,,,,,,,,,,
null,,confidence_buffer,691858,confidence_buffer,,null,,,,,,,,,,,,,,,,,,
1470.6999999284744,,pt2_memorable_rating,693330,Fictional_Cities_List/img_natural_04.png,,50,,,2,,,,,,,,,,,,,,,
null,,confidence_buffer,693442,confidence_buffer,,null,,,,,,,,,,,,,,,,,,
3326.899999976158,,recognition_phase,696770,Fictional_Cities_List/img_natural_04.png,,52,,,,,,new,0,0.6956521739130435,,,,,,,,,,
null,,confidence_buffer,696880,confidence_buffer,,null,,,,,,,,,,,,,,,,,,
null,,thebreak,697385,break,,null,,,,,,,,,,,,,,,,,,
6185.099999904633,,pt2_realistic_rating,703570,US_Cities_List/mm_cody.png,,50,US_Cities_List/mm_cody.png,MM,2,,,,,,,,,,,,,,,
null,,confidence_buffer,703686,confidence_buffer,,null,,,,,,,,,,,,,,,,,,
1835.1000000238419,,pt2_unique_rating,705522,US_Cities_List/mm_cody.png,,50,,,2,,,,,,,,,,,,,,,
null,,confidence_buffer,705640,confidence_buffer,,null,,,,,,,,,,,,,,,,,,
1945.9000000953674,,pt2_memorable_rating,707586,US_Cities_List/mm_cody.png,,50,,,2,,,,,,,,,,,,,,,
null,,confidence_buffer,707690,confidence_buffer,,null,,,,,,,,,,,,,,,,,,
3911.6999999284744,,recognition_phase,711602,US_Cities_List/mm_cody.png,,52,,,,,,new,1,0.7083333333333334,,,,,,,,,,
null,,confidence_buffer,711711,confidence_buffer,,null,,,,,,,,,,,,,,,,,,
null,,thebreak,712226,break,,null,,,,,,,,,,,,,,,,,,
2799.9000000953674,,pt2_realistic_rating,715026,Fictional_Cities_List/img_natural_02.png,,49,Fictional_Cities_List/img_natural_02.png,NAT,1,,,,,,,,,,,,,,,
null,,confidence_buffer,715130,confidence_buffer,,null,,,,,,,,,,,,,,,,,,
3175.2999999523163,,pt2_unique_rating,718307,Fictional_Cities_List/img_natural_02.png,,50,,,2,,,,,,,,,,,,,,,
null,,confidence_buffer,718409,confidence_buffer,,null,,,,,,,,,,,,,,,,,,
1369.3000000715256,,pt2_memorable_rating,719779,Fictional_Cities_List/img_natural_02.png,,50,,,2,,,,,,,,,,,,,,,
null,,confidence_buffer,719888,confidence_buffer,,null,,,,,,,,,,,,,,,,,,
5362.100000023842,,recognition_phase,725251,Fictional_Cities_List/img_natural_02.png,,51,,,,,,new,1,0.72,,,,,,,,,,
null,,confidence_buffer,725361,confidence_buffer,,null,,,,,,,,,,,,,,,,,,
null,,thebreak,725864,break,,null,,,,,,,,,,,,,,,,,,
4953.800000071526,,pt2_realistic_rating,730819,US_Cities_List/nat_alliance.png,,52,US_Cities_List/nat_alliance.png,NAT,4,,,,,,,,,,,,,,,
null,,confidence_buffer,730931,confidence_buffer,,null,,,,,,,,,,,,,,,,,,
2095.1999999284744,,pt2_unique_rating,733027,US_Cities_List/nat_alliance.png,,50,,,2,,,,,,,,,,,,,,,
null,,confidence_buffer,733139,confidence_buffer,,null,,,,,,,,,,,,,,,,,,
895.1000000238419,,pt2_memorable_rating,734034,US_Cities_List/nat_alliance.png,,50,,,2,,,,,,,,,,,,,,,
null,,confidence_buffer,734144,confidence_buffer,,null,,,,,,,,,,,,,,,,,,
3474,,recognition_phase,737619,US_Cities_List/nat_alliance.png,,51,,,,,,new,1,0.7307692307692307,,,,,,,,,,
null,,confidence_buffer,737735,confidence_buffer,,null,,,,,,,,,,,,,,,,,,
null,,thebreak,738238,break,,null,,,,,,,,,,,,,,,,,,
4899.400000095367,,pt2_realistic_rating,743138,US_Cities_List/nat_gatlinburg.png,,52,US_Cities_List/nat_gatlinburg.png,NAT,4,,,,,,,,,,,,,,,
null,,confidence_buffer,743241,confidence_buffer,,null,,,,,,,,,,,,,,,,,,
1817.5,,pt2_unique_rating,745059,US_Cities_List/nat_gatlinburg.png,,50,,,2,,,,,,,,,,,,,,,
null,,confidence_buffer,745162,confidence_buffer,,null,,,,,,,,,,,,,,,,,,
1672.4000000953674,,pt2_memorable_rating,746835,US_Cities_List/nat_gatlinburg.png,,50,,,2,,,,,,,,,,,,,,,
null,,confidence_buffer,746939,confidence_buffer,,null,,,,,,,,,,,,,,,,,,
4695.799999952316,,recognition_phase,751636,US_Cities_List/nat_gatlinburg.png,,52,,,,,,new,1,0.7407407407407407,,,,,,,,,,
null,,confidence_buffer,751752,confidence_buffer,,null,,,,,,,,,,,,,,,,,,
null,,thebreak,752263,break,,null,,,,,,,,,,,,,,,,,,
5067.799999952316,,pt2_realistic_rating,757332,US_Cities_List/mm_bowlinggreen.png,,52,US_Cities_List/mm_bowlinggreen.png,MM,4,,,,,,,,,,,,,,,
null,,confidence_buffer,757442,confidence_buffer,,null,,,,,,,,,,,,,,,,,,
2064.7999999523163,,pt2_unique_rating,759507,US_Cities_List/mm_bowlinggreen.png,,50,,,2,,,,,,,,,,,,,,,
null,,confidence_buffer,759624,confidence_buffer,,null,,,,,,,,,,,,,,,,,,
1003,,pt2_memorable_rating,760628,US_Cities_List/mm_bowlinggreen.png,,50,,,2,,,,,,,,,,,,,,,
null,,confidence_buffer,760745,confidence_buffer,,null,,,,,,,,,,,,,,,,,,
1737.6000000238419,,probe_rating,762484,probe_rating,,50,,,,2,1,,,,,,,,,,,,,
null,,confidence_buffer,762596,confidence_buffer,,null,,,,,,,,,,,,,,,,,,
2431.0999999046326,,recognition_phase,765028,US_Cities_List/mm_bowlinggreen.png,,52,,,,,,new,1,0.75,,,,,,,,,,
null,,confidence_buffer,765131,confidence_buffer,,null,,,,,,,,,,,,,,,,,,
null,,thebreak,765636,break,,null,,,,,,,,,,,,,,,,,,
5103.100000023842,,pt2_realistic_rating,770740,Fictional_Cities_List/img_natural_15.png,,49,Fictional_Cities_List/img_natural_15.png,NAT,1,,,,,,,,,,,,,,,
null,,confidence_buffer,770855,confidence_buffer,,null,,,,,,,,,,,,,,,,,,
2412.2999999523163,,pt2_unique_rating,773268,Fictional_Cities_List/img_natural_15.png,,50,,,2,,,,,,,,,,,,,,,
null,,confidence_buffer,773381,confidence_buffer,,null,,,,,,,,,,,,,,,,,,
3230.5,,pt2_memorable_rating,776612,Fictional_Cities_List/img_natural_15.png,,50,,,2,,,,,,,,,,,,,,,
null,,confidence_buffer,776727,confidence_buffer,,null,,,,,,,,,,,,,,,,,,
2011.6999999284744,,recognition_phase,778740,Fictional_Cities_List/img_natural_15.png,,49,,,,,,old,1,0.7586206896551724,,,,,,,,,,
null,,confidence_buffer,778845,confidence_buffer,,null,,,,,,,,,,,,,,,,,,
null,,thebreak,779351,break,,null,,,,,,,,,,,,,,,,,,
2923.899999976158,,pt2_realistic_rating,782276,US_Cities_List/nat_manistee.png,,52,US_Cities_List/nat_manistee.png,NAT,4,,,,,,,,,,,,,,,
null,,confidence_buffer,782379,confidence_buffer,,null,,,,,,,,,,,,,,,,,,
1735.3999999761581,,pt2_unique_rating,784116,US_Cities_List/nat_manistee.png,,50,,,2,,,,,,,,,,,,,,,
null,,confidence_buffer,784221,confidence_buffer,,null,,,,,,,,,,,,,,,,,,
1398,,pt2_memorable_rating,785620,US_Cities_List/nat_manistee.png,,50,,,2,,,,,,,,,,,,,,,
null,,confidence_buffer,785729,confidence_buffer,,null,,,,,,,,,,,,,,,,,,
2914.399999976158,,recognition_phase,788644,US_Cities_List/nat_manistee.png,,52,,,,,,new,0,0.7333333333333333,,,,,,,,,,
null,,confidence_buffer,788758,confidence_buffer,,null,,,,,,,,,,,,,,,,,,
null,,thebreak,789263,break,,null,,,,,,,,,,,,,,,,,,
4324.5,,pt2_realistic_rating,793588,US_Cities_List/mm_yukon.png,,52,US_Cities_List/mm_yukon.png,MM,4,,,,,,,,,,,,,,,
null,,confidence_buffer,793694,confidence_buffer,,null,,,,,,,,,,,,,,,,,,
1526.0999999046326,,pt2_unique_rating,795221,US_Cities_List/mm_yukon.png,,50,,,2,,,,,,,,,,,,,,,
null,,confidence_buffer,795330,confidence_buffer,,null,,,,,,,,,,,,,,,,,,
1345.3999999761581,,pt2_memorable_rating,796676,US_Cities_List/mm_yukon.png,,50,,,2,,,,,,,,,,,,,,,
null,,confidence_buffer,796789,confidence_buffer,,null,,,,,,,,,,,,,,,,,,
1758.5,,probe_rating,798548,probe_rating,,52,,,,4,1,,,,,,,,,,,,,
null,,confidence_buffer,798658,confidence_buffer,,null,,,,,,,,,,,,,,,,,,
2800.7000000476837,,recognition_phase,801460,US_Cities_List/mm_yukon.png,,49,,,,,,old,1,0.7419354838709677,,,,,,,,,,
null,,confidence_buffer,801565,confidence_buffer,,null,,,,,,,,,,,,,,,,,,
null,,thebreak,802072,break,,null,,,,,,,,,,,,,,,,,,
3996.5,,pt2_realistic_rating,806069,US_Cities_List/mm_hotsprings.png,,52,US_Cities_List/mm_hotsprings.png,MM,4,,,,,,,,,,,,,,,
null,,confidence_buffer,806173,confidence_buffer,,null,,,,,,,,,,,,,,,,,,
3157.7000000476837,,pt2_unique_rating,809332,US_Cities_List/mm_hotsprings.png,,51,,,3,,,,,,,,,,,,,,,
null,,confidence_buffer,809445,confidence_buffer,,null,,,,,,,,,,,,,,,,,,
2175.3000000715256,,pt2_memorable_rating,811621,US_Cities_List/mm_hotsprings.png,,51,,,3,,,,,,,,,,,,,,,
null,,confidence_buffer,811724,confidence_buffer,,null,,,,,,,,,,,,,,,,,,
2151.600000023842,,recognition_phase,813877,US_Cities_List/mm_hotsprings.png,,49,,,,,,old,1,0.75,,,,,,,,,,
null,,confidence_buffer,813983,confidence_buffer,,null,,,,,,,,,,,,,,,,,,
null,,thebreak,814485,break,,null,,,,,,,,,,,,,,,,,,
5919.399999976158,,pt2_realistic_rating,820405,US_Cities_List/nat_sisters.png,,53,US_Cities_List/nat_sisters.png,NAT,5,,,,,,,,,,,,,,,
null,,confidence_buffer,820519,confidence_buffer,,null,,,,,,,,,,,,,,,,,,
2765.0999999046326,,pt2_unique_rating,823285,US_Cities_List/nat_sisters.png,,51,,,3,,,,,,,,,,,,,,,
null,,confidence_buffer,823389,confidence_buffer,,null,,,,,,,,,,,,,,,,,,
839.1000000238419,,pt2_memorable_rating,824229,US_Cities_List/nat_sisters.png,,51,,,3,,,,,,,,,,,,,,,
null,,confidence_buffer,824331,confidence_buffer,,null,,,,,,,,,,,,,,,,,,
2984.1999999284744,,recognition_phase,827317,US_Cities_List/nat_sisters.png,,49,,,,,,old,1,0.7575757575757576,,,,,,,,,,
null,,confidence_buffer,827425,confidence_buffer,,null,,,,,,,,,,,,,,,,,,
null,,thebreak,827930,break,,null,,,,,,,,,,,,,,,,,,
4074,,pt2_realistic_rating,832005,Fictional_Cities_List/img_manmade_36.png,,51,Fictional_Cities_List/img_manmade_36.png,MM,3,,,,,,,,,,,,,,,
null,,confidence_buffer,832114,confidence_buffer,,null,,,,,,,,,,,,,,,,,,
1714.3999999761581,,pt2_unique_rating,833829,Fictional_Cities_List/img_manmade_36.png,,50,,,2,,,,,,,,,,,,,,,
null,,confidence_buffer,833937,confidence_buffer,,null,,,,,,,,,,,,,,,,,,
1251.5,,pt2_memorable_rating,835189,Fictional_Cities_List/img_manmade_36.png,,50,,,2,,,,,,,,,,,,,,,
null,,confidence_buffer,835304,confidence_buffer,,null,,,,,,,,,,,,,,,,,,
2604.2999999523163,,recognition_phase,837909,Fictional_Cities_List/img_manmade_36.png,,52,,,,,,new,1,0.7647058823529411,,,,,,,,,,
null,,confidence_buffer,838010,confidence_buffer,,null,,,,,,,,,,,,,,,,,,
null,,thebreak,838526,break,,null,,,,,,,,,,,,,,,,,,
4326.099999904633,,pt2_realistic_rating,842853,US_Cities_List/nat_abilene.png,,51,US_Cities_List/nat_abilene.png,NAT,3,,,,,,,,,,,,,,,
null,,confidence_buffer,842960,confidence_buffer,,null,,,,,,,,,,,,,,,,,,
4532.799999952316,,pt2_unique_rating,847494,US_Cities_List/nat_abilene.png,,51,,,3,,,,,,,,,,,,,,,
null,,confidence_buffer,847609,confidence_buffer,,null,,,,,,,,,,,,,,,,,,
2203.600000023842,,probe_rating,849814,probe_rating,,49,,,,1,1,,,,,,,,,,,,,
null,,confidence_buffer,849917,confidence_buffer,,null,,,,,,,,,,,,,,,,,,
3575,,pt2_memorable_rating,853493,US_Cities_List/nat_abilene.png,,52,,,4,,,,,,,,,,,,,,,
null,,confidence_buffer,853606,confidence_buffer,,null,,,,,,,,,,,,,,,,,,
2734.600000023842,,recognition_phase,856341,US_Cities_List/nat_abilene.png,,49,,,,,,old,1,0.7714285714285715,,,,,,,,,,
null,,confidence_buffer,856458,confidence_buffer,,null,,,,,,,,,,,,,,,,,,
null,,thebreak,856959,break,,null,,,,,,,,,,,,,,,,,,
4982.100000023842,,pt2_realistic_rating,861942,US_Cities_List/mm_cleveland.png,,52,US_Cities_List/mm_cleveland.png,MM,4,,,,,,,,,,,,,,,
null,,confidence_buffer,862046,confidence_buffer,,null,,,,,,,,,,,,,,,,,,
2887.100000023842,,pt2_unique_rating,864934,US_Cities_List/mm_cleveland.png,,50,,,2,,,,,,,,,,,,,,,
null,,confidence_buffer,865052,confidence_buffer,,null,,,,,,,,,,,,,,,,,,
1321.6999999284744,,pt2_memorable_rating,866374,US_Cities_List/mm_cleveland.png,,50,,,2,,,,,,,,,,,,,,,
null,,confidence_buffer,866485,confidence_buffer,,null,,,,,,,,,,,,,,,,,,
2543.899999976158,,recognition_phase,869030,US_Cities_List/mm_cleveland.png,,49,,,,,,old,1,0.7777777777777778,,,,,,,,,,
null,,confidence_buffer,869139,confidence_buffer,,null,,,,,,,,,,,,,,,,,,
null,,thebreak,869642,break,,null,,,,,,,,,,,,,,,,,,
6347.299999952316,,pt2_realistic_rating,875990,Fictional_Cities_List/img_manmade_27.png,,49,Fictional_Cities_List/img_manmade_27.png,MM,1,,,,,,,,,,,,,,,
null,,confidence_buffer,876094,confidence_buffer,,null,,,,,,,,,,,,,,,,,,
1639.8000000715256,,pt2_unique_rating,877734,Fictional_Cities_List/img_manmade_27.png,,50,,,2,,,,,,,,,,,,,,,
null,,confidence_buffer,877848,confidence_buffer,,null,,,,,,,,,,,,,,,,,,
1165.8999999761581,,pt2_memorable_rating,879014,Fictional_Cities_List/img_manmade_27.png,,50,,,2,,,,,,,,,,,,,,,
null,,confidence_buffer,879116,confidence_buffer,,null,,,,,,,,,,,,,,,,,,
2089.4000000953674,,recognition_phase,881206,Fictional_Cities_List/img_manmade_27.png,,49,,,,,,old,1,0.7837837837837838,,,,,,,,,,
null,,confidence_buffer,881317,confidence_buffer,,null,,,,,,,,,,,,,,,,,,
null,,thebreak,881820,break,,null,,,,,,,,,,,,,,,,,,
6234.100000023842,,pt2_realistic_rating,888055,US_Cities_List/nat_barharbor.png,,51,US_Cities_List/nat_barharbor.png,NAT,3,,,,,,,,,,,,,,,
null,,confidence_buffer,888157,confidence_buffer,,null,,,,,,,,,,,,,,,,,,
2329,,pt2_unique_rating,890487,US_Cities_List/nat_barharbor.png,,50,,,2,,,,,,,,,,,,,,,
null,,confidence_buffer,890601,confidence_buffer,,null,,,,,,,,,,,,,,,,,,
1148.2000000476837,,pt2_memorable_rating,891750,US_Cities_List/nat_barharbor.png,,50,,,2,,,,,,,,,,,,,,,
null,,confidence_buffer,891859,confidence_buffer,,null,,,,,,,,,,,,,,,,,,
1922.3000000715256,,probe_rating,893783,probe_rating,,49,,,,1,1,,,,,,,,,,,,,
null,,confidence_buffer,893892,confidence_buffer,,null,,,,,,,,,,,,,,,,,,
2785.7000000476837,,recognition_phase,896678,US_Cities_List/nat_barharbor.png,,50,,,,,,old,1,0.7894736842105263,,,,,,,,,,
null,,confidence_buffer,896793,confidence_buffer,,null,,,,,,,,,,,,,,,,,,
null,,thebreak,897309,break,,null,,,,,,,,,,,,,,,,,,
2488.2000000476837,,pt2_realistic_rating,899798,Fictional_Cities_List/img_natural_27.png,,49,Fictional_Cities_List/img_natural_27.png,NAT,1,,,,,,,,,,,,,,,
null,,confidence_buffer,899903,confidence_buffer,,null,,,,,,,,,,,,,,,,,,
4055.0999999046326,,pt2_unique_rating,903959,Fictional_Cities_List/img_natural_27.png,,52,,,4,,,,,,,,,,,,,,,
null,,confidence_buffer,904074,confidence_buffer,,null,,,,,,,,,,,,,,,,,,
1835.3999999761581,,pt2_memorable_rating,905911,Fictional_Cities_List/img_natural_27.png,,52,,,4,,,,,,,,,,,,,,,
null,,confidence_buffer,906025,confidence_buffer,,null,,,,,,,,,,,,,,,,,,
2733.1999999284744,,recognition_phase,908759,Fictional_Cities_List/img_natural_27.png,,52,,,,,,new,1,0.7948717948717948,,,,,,,,,,
null,,confidence_buffer,908860,confidence_buffer,,null,,,,,,,,,,,,,,,,,,
null,,thebreak,909366,break,,null,,,,,,,,,,,,,,,,,,
3600.7999999523163,,pt2_realistic_rating,912967,Fictional_Cities_List/img_natural_42.png,,50,Fictional_Cities_List/img_natural_42.png,NAT,2,,,,,,,,,,,,,,,
null,,confidence_buffer,913082,confidence_buffer,,null,,,,,,,,,,,,,,,,,,
1532.1000000238419,,pt2_unique_rating,914615,Fictional_Cities_List/img_natural_42.png,,50,,,2,,,,,,,,,,,,,,,
null,,confidence_buffer,914719,confidence_buffer,,null,,,,,,,,,,,,,,,,,,
1543.1000000238419,,pt2_memorable_rating,916263,Fictional_Cities_List/img_natural_42.png,,50,,,2,,,,,,,,,,,,,,,
null,,confidence_buffer,916374,confidence_buffer,,null,,,,,,,,,,,,,,,,,,
1615.7999999523163,,recognition_phase,917991,Fictional_Cities_List/img_natural_42.png,,49,,,,,,old,1,0.8,,,,,,,,,,
null,,confidence_buffer,918106,confidence_buffer,,null,,,,,,,,,,,,,,,,,,
null,,thebreak,918611,break,,null,,,,,,,,,,,,,,,,,,
5123.299999952316,,pt2_realistic_rating,923735,Fictional_Cities_List/img_manmade_01.png,,50,Fictional_Cities_List/img_manmade_01.png,MM,2,,,,,,,,,,,,,,,
null,,confidence_buffer,923843,confidence_buffer,,null,,,,,,,,,,,,,,,,,,
1827.7999999523163,,pt2_unique_rating,925671,Fictional_Cities_List/img_manmade_01.png,,50,,,2,,,,,,,,,,,,,,,
null,,confidence_buffer,925776,confidence_buffer,,null,,,,,,,,,,,,,,,,,,
1174.5999999046326,,pt2_memorable_rating,926952,Fictional_Cities_List/img_manmade_01.png,,50,,,2,,,,,,,,,,,,,,,
null,,confidence_buffer,927064,confidence_buffer,,null,,,,,,,,,,,,,,,,,,
1534,,recognition_phase,928599,Fictional_Cities_List/img_manmade_01.png,,49,,,,,,old,0,0.7804878048780488,,,,,,,,,,
null,,confidence_buffer,928716,confidence_buffer,,null,,,,,,,,,,,,,,,,,,
null,,thebreak,929223,break,,null,,,,,,,,,,,,,,,,,,
4783.799999952316,,pt2_realistic_rating,934008,US_Cities_List/mm_okoboji.png,,51,US_Cities_List/mm_okoboji.png,MM,3,,,,,,,,,,,,,,,
null,,confidence_buffer,934120,confidence_buffer,,null,,,,,,,,,,,,,,,,,,
1951,,pt2_unique_rating,936072,US_Cities_List/mm_okoboji.png,,52,,,4,,,,,,,,,,,,,,,
null,,confidence_buffer,936182,confidence_buffer,,null,,,,,,,,,,,,,,,,,,
2672.899999976158,,pt2_memorable_rating,938856,US_Cities_List/mm_okoboji.png,,52,,,4,,,,,,,,,,,,,,,
null,,confidence_buffer,938959,confidence_buffer,,null,,,,,,,,,,,,,,,,,,
3112,,recognition_phase,942072,US_Cities_List/mm_okoboji.png,,52,,,,,,new,1,0.7857142857142857,,,,,,,,,,
null,,confidence_buffer,942179,confidence_buffer,,null,,,,,,,,,,,,,,,,,,
null,,thebreak,942688,break,,null,,,,,,,,,,,,,,,,,,
4423.700000047684,,pt2_realistic_rating,947112,Fictional_Cities_List/img_manmade_02.png,,50,Fictional_Cities_List/img_manmade_02.png,MM,2,,,,,,,,,,,,,,,
null,,confidence_buffer,947217,confidence_buffer,,null,,,,,,,,,,,,,,,,,,
2374,,pt2_unique_rating,949592,Fictional_Cities_List/img_manmade_02.png,,50,,,2,,,,,,,,,,,,,,,
null,,confidence_buffer,949703,confidence_buffer,,null,,,,,,,,,,,,,,,,,,
1424.1000000238419,,pt2_memorable_rating,951128,Fictional_Cities_List/img_manmade_02.png,,50,,,2,,,,,,,,,,,,,,,
null,,confidence_buffer,951238,confidence_buffer,,null,,,,,,,,,,,,,,,,,,
1969.1000000238419,,recognition_phase,953208,Fictional_Cities_List/img_manmade_02.png,,49,,,,,,old,1,0.7906976744186046,,,,,,,,,,
null,,confidence_buffer,953322,confidence_buffer,,null,,,,,,,,,,,,,,,,,,
null,,thebreak,953829,break,,null,,,,,,,,,,,,,,,,,,
4802.099999904633,,pt2_realistic_rating,958632,US_Cities_List/mm_orr.png,,52,US_Cities_List/mm_orr.png,MM,4,,,,,,,,,,,,,,,
null,,confidence_buffer,958741,confidence_buffer,,null,,,,,,,,,,,,,,,,,,
1842.0999999046326,,pt2_unique_rating,960584,US_Cities_List/mm_orr.png,,52,,,4,,,,,,,,,,,,,,,
null,,confidence_buffer,960693,confidence_buffer,,null,,,,,,,,,,,,,,,,,,
2274.600000023842,,pt2_memorable_rating,962968,US_Cities_List/mm_orr.png,,51,,,3,,,,,,,,,,,,,,,
null,,confidence_buffer,963075,confidence_buffer,,null,,,,,,,,,,,,,,,,,,
1524.5,,recognition_phase,964600,US_Cities_List/mm_orr.png,,49,,,,,,old,1,0.7954545454545454,,,,,,,,,,
null,,confidence_buffer,964715,confidence_buffer,,null,,,,,,,,,,,,,,,,,,
null,,thebreak,965230,break,,null,,,,,,,,,,,,,,,,,,
4218,,pt2_realistic_rating,969448,US_Cities_List/mm_peoria.png,,52,US_Cities_List/mm_peoria.png,MM,4,,,,,,,,,,,,,,,
null,,confidence_buffer,969555,confidence_buffer,,null,,,,,,,,,,,,,,,,,,
1347.5,,pt2_unique_rating,970904,US_Cities_List/mm_peoria.png,,52,,,4,,,,,,,,,,,,,,,
null,,confidence_buffer,971008,confidence_buffer,,null,,,,,,,,,,,,,,,,,,
1159.6999999284744,,pt2_memorable_rating,972169,US_Cities_List/mm_peoria.png,,52,,,4,,,,,,,,,,,,,,,
null,,confidence_buffer,972277,confidence_buffer,,null,,,,,,,,,,,,,,,,,,
1715.2000000476837,,recognition_phase,973993,US_Cities_List/mm_peoria.png,,49,,,,,,old,1,0.8,,,,,,,,,,
null,,confidence_buffer,974095,confidence_buffer,,null,,,,,,,,,,,,,,,,,,
null,,thebreak,974609,break,,null,,,,,,,,,,,,,,,,,,
2918.7000000476837,,pt2_realistic_rating,977528,Fictional_Cities_List/img_natural_12.png,,49,Fictional_Cities_List/img_natural_12.png,NAT,1,,,,,,,,,,,,,,,
null,,confidence_buffer,977632,confidence_buffer,,null,,,,,,,,,,,,,,,,,,
4055.7000000476837,,pt2_unique_rating,981688,Fictional_Cities_List/img_natural_12.png,,51,,,3,,,,,,,,,,,,,,,
null,,confidence_buffer,981791,confidence_buffer,,null,,,,,,,,,,,,,,,,,,
1896.1999999284744,,pt2_memorable_rating,983688,Fictional_Cities_List/img_natural_12.png,,51,,,3,,,,,,,,,,,,,,,
null,,confidence_buffer,983803,confidence_buffer,,null,,,,,,,,,,,,,,,,,,
2188.5,,recognition_phase,985993,Fictional_Cities_List/img_natural_12.png,,52,,,,,,new,0,0.782608695652174,,,,,,,,,,
null,,confidence_buffer,986106,confidence_buffer,,null,,,,,,,,,,,,,,,,,,
null,,thebreak,986623,break,,null,,,,,,,,,,,,,,,,,,
4793,,pt2_realistic_rating,991417,US_Cities_List/mm_lakeoftheozarks.png,,52,US_Cities_List/mm_lakeoftheozarks.png,MM,4,,,,,,,,,,,,,,,
null,,confidence_buffer,991530,confidence_buffer,,null,,,,,,,,,,,,,,,,,,
2429.7000000476837,,pt2_unique_rating,993961,US_Cities_List/mm_lakeoftheozarks.png,,52,,,4,,,,,,,,,,,,,,,
null,,confidence_buffer,994064,confidence_buffer,,null,,,,,,,,,,,,,,,,,,
1608,,pt2_memorable_rating,995672,US_Cities_List/mm_lakeoftheozarks.png,,52,,,4,,,,,,,,,,,,,,,
null,,confidence_buffer,995781,confidence_buffer,,null,,,,,,,,,,,,,,,,,,
2771.2000000476837,,recognition_phase,998553,US_Cities_List/mm_lakeoftheozarks.png,,52,,,,,,new,1,0.7872340425531915,,,,,,,,,,
null,,confidence_buffer,998655,confidence_buffer,,null,,,,,,,,,,,,,,,,,,
null,,thebreak,999171,break,,null,,,,,,,,,,,,,,,,,,
4405.700000047684,,pt2_realistic_rating,1003577,Fictional_Cities_List/img_manmade_12.png,,50,Fictional_Cities_List/img_manmade_12.png,MM,2,,,,,,,,,,,,,,,
null,,confidence_buffer,1003693,confidence_buffer,,null,,,,,,,,,,,,,,,,,,
2043.8999999761581,,pt2_unique_rating,1005737,Fictional_Cities_List/img_manmade_12.png,,50,,,2,,,,,,,,,,,,,,,
null,,confidence_buffer,1005844,confidence_buffer,,null,,,,,,,,,,,,,,,,,,
2148.3000000715256,,pt2_memorable_rating,1007993,Fictional_Cities_List/img_manmade_12.png,,50,,,2,,,,,,,,,,,,,,,
null,,confidence_buffer,1008101,confidence_buffer,,null,,,,,,,,,,,,,,,,,,
1619.2000000476837,,recognition_phase,1009721,Fictional_Cities_List/img_manmade_12.png,,49,,,,,,old,1,0.7916666666666666,,,,,,,,,,
null,,confidence_buffer,1009830,confidence_buffer,,null,,,,,,,,,,,,,,,,,,
null,,thebreak,1010332,break,,null,,,,,,,,,,,,,,,,,,
5612.099999904633,,pt2_realistic_rating,1015945,Fictional_Cities_List/img_manmade_19.png,,52,Fictional_Cities_List/img_manmade_19.png,MM,4,,,,,,,,,,,,,,,
null,,confidence_buffer,1016060,confidence_buffer,,null,,,,,,,,,,,,,,,,,,
2205.2999999523163,,pt2_unique_rating,1018266,Fictional_Cities_List/img_manmade_19.png,,51,,,3,,,,,,,,,,,,,,,
null,,confidence_buffer,1018374,confidence_buffer,,null,,,,,,,,,,,,,,,,,,
2019.3000000715256,,probe_rating,1020394,probe_rating,,53,,,,5,1,,,,,,,,,,,,,
null,,confidence_buffer,1020498,confidence_buffer,,null,,,,,,,,,,,,,,,,,,
2150.7000000476837,,pt2_memorable_rating,1022650,Fictional_Cities_List/img_manmade_19.png,,51,,,3,,,,,,,,,,,,,,,
null,,confidence_buffer,1022762,confidence_buffer,,null,,,,,,,,,,,,,,,,,,
2351,,recognition_phase,1025113,Fictional_Cities_List/img_manmade_19.png,,52,,,,,,new,1,0.7959183673469388,,,,,,,,,,
null,,confidence_buffer,1025231,confidence_buffer,,null,,,,,,,,,,,,,,,,,,
null,,thebreak,1025747,break,,null,,,,,,,,,,,,,,,,,,
4117.899999976158,,pt2_realistic_rating,1029865,US_Cities_List/nat_healdsburg.png,,52,US_Cities_List/nat_healdsburg.png,NAT,4,,,,,,,,,,,,,,,
null,,confidence_buffer,1029974,confidence_buffer,,null,,,,,,,,,,,,,,,,,,
3426.7000000476837,,pt2_unique_rating,1033401,US_Cities_List/nat_healdsburg.png,,49,,,1,,,,,,,,,,,,,,,
null,,confidence_buffer,1033516,confidence_buffer,,null,,,,,,,,,,,,,,,,,,
3309.5,,pt2_memorable_rating,1036826,US_Cities_List/nat_healdsburg.png,,50,,,2,,,,,,,,,,,,,,,
null,,confidence_buffer,1036944,confidence_buffer,,null,,,,,,,,,,,,,,,,,,
2217.5,,recognition_phase,1039162,US_Cities_List/nat_healdsburg.png,,52,,,,,,new,1,0.8,,,,,,,,,,
null,,confidence_buffer,1039264,confidence_buffer,,null,,,,,,,,,,,,,,,,,,
null,,thebreak,1039767,break,,null,,,,,,,,,,,,,,,,,,
6690.399999976158,,pt2_realistic_rating,1046458,Fictional_Cities_List/img_manmade_13.png,,51,Fictional_Cities_List/img_manmade_13.png,MM,3,,,,,,,,,,,,,,,
null,,confidence_buffer,1046570,confidence_buffer,,null,,,,,,,,,,,,,,,,,,
3951.2000000476837,,pt2_unique_rating,1050522,Fictional_Cities_List/img_manmade_13.png,,51,,,3,,,,,,,,,,,,,,,
null,,confidence_buffer,1050625,confidence_buffer,,null,,,,,,,,,,,,,,,,,,
2921,,pt2_memorable_rating,1053546,Fictional_Cities_List/img_manmade_13.png,,50,,,2,,,,,,,,,,,,,,,
null,,confidence_buffer,1053653,confidence_buffer,,null,,,,,,,,,,,,,,,,,,
3700.899999976158,,recognition_phase,1057355,Fictional_Cities_List/img_manmade_13.png,,51,,,,,,new,1,0.803921568627451,,,,,,,,,,
null,,confidence_buffer,1057464,confidence_buffer,,null,,,,,,,,,,,,,,,,,,
null,,thebreak,1057968,break,,null,,,,,,,,,,,,,,,,,,
5081.5,,pt2_realistic_rating,1063051,US_Cities_List/nat_watkinsglen.png,,51,US_Cities_List/nat_watkinsglen.png,NAT,3,,,,,,,,,,,,,,,
null,,confidence_buffer,1063154,confidence_buffer,,null,,,,,,,,,,,,,,,,,,
1463.8999999761581,,pt2_unique_rating,1064619,US_Cities_List/nat_watkinsglen.png,,51,,,3,,,,,,,,,,,,,,,
null,,confidence_buffer,1064730,confidence_buffer,,null,,,,,,,,,,,,,,,,,,
1088,,pt2_memorable_rating,1065819,US_Cities_List/nat_watkinsglen.png,,50,,,2,,,,,,,,,,,,,,,
null,,confidence_buffer,1065923,confidence_buffer,,null,,,,,,,,,,,,,,,,,,
1639,,recognition_phase,1067563,US_Cities_List/nat_watkinsglen.png,,52,,,,,,new,1,0.8076923076923077,,,,,,,,,,
null,,confidence_buffer,1067675,confidence_buffer,,null,,,,,,,,,,,,,,,,,,
null,,thebreak,1068180,break,,null,,,,,,,,,,,,,,,,,,
5366.300000071526,,pt2_realistic_rating,1073547,Fictional_Cities_List/img_natural_28.png,,50,Fictional_Cities_List/img_natural_28.png,NAT,2,,,,,,,,,,,,,,,
null,,confidence_buffer,1073648,confidence_buffer,,null,,,,,,,,,,,,,,,,,,
1481.7999999523163,,pt2_unique_rating,1075131,Fictional_Cities_List/img_natural_28.png,,50,,,2,,,,,,,,,,,,,,,
null,,confidence_buffer,1075249,confidence_buffer,,null,,,,,,,,,,,,,,,,,,
905.5,,pt2_memorable_rating,1076155,Fictional_Cities_List/img_natural_28.png,,50,,,2,,,,,,,,,,,,,,,
null,,confidence_buffer,1076266,confidence_buffer,,null,,,,,,,,,,,,,,,,,,
2448.3000000715256,,recognition_phase,1078715,Fictional_Cities_List/img_natural_28.png,,52,,,,,,new,1,0.8113207547169812,,,,,,,,,,
null,,confidence_buffer,1078819,confidence_buffer,,null,,,,,,,,,,,,,,,,,,
null,,thebreak,1079324,break,,null,,,,,,,,,,,,,,,,,,
4910.700000047684,,pt2_realistic_rating,1084235,US_Cities_List/nat_duck.png,,52,US_Cities_List/nat_duck.png,NAT,4,,,,,,,,,,,,,,,
null,,confidence_buffer,1084347,confidence_buffer,,null,,,,,,,,,,,,,,,,,,
2063,,pt2_unique_rating,1086411,US_Cities_List/nat_duck.png,,50,,,2,,,,,,,,,,,,,,,
null,,confidence_buffer,1086527,confidence_buffer,,null,,,,,,,,,,,,,,,,,,
1115,,pt2_memorable_rating,1087643,US_Cities_List/nat_duck.png,,50,,,2,,,,,,,,,,,,,,,
null,,confidence_buffer,1087745,confidence_buffer,,null,,,,,,,,,,,,,,,,,,
2457.2000000476837,,recognition_phase,1090203,US_Cities_List/nat_duck.png,,52,,,,,,new,1,0.8148148148148148,,,,,,,,,,
null,,confidence_buffer,1090316,confidence_buffer,,null,,,,,,,,,,,,,,,,,,
null,,thebreak,1090818,break,,null,,,,,,,,,,,,,,,,,,
5432.399999976158,,pt2_realistic_rating,1096252,US_Cities_List/mm_albuquerque.png,,52,US_Cities_List/mm_albuquerque.png,MM,4,,,,,,,,,,,,,,,
null,,confidence_buffer,1096366,confidence_buffer,,null,,,,,,,,,,,,,,,,,,
3196.2000000476837,,pt2_unique_rating,1099563,US_Cities_List/mm_albuquerque.png,,51,,,3,,,,,,,,,,,,,,,
null,,confidence_buffer,1099674,confidence_buffer,,null,,,,,,,,,,,,,,,,,,
1776,,pt2_memorable_rating,1101451,US_Cities_List/mm_albuquerque.png,,51,,,3,,,,,,,,,,,,,,,
null,,confidence_buffer,1101558,confidence_buffer,,null,,,,,,,,,,,,,,,,,,
3028.2000000476837,,recognition_phase,1104587,US_Cities_List/mm_albuquerque.png,,50,,,,,,old,1,0.8181818181818182,,,,,,,,,,
null,,confidence_buffer,1104690,confidence_buffer,,null,,,,,,,,,,,,,,,,,,
null,,thebreak,1105194,break,,null,,,,,,,,,,,,,,,,,,
4768.900000095367,,pt2_realistic_rating,1109963,US_Cities_List/mm_gatlinburg.png,,52,US_Cities_List/mm_gatlinburg.png,MM,4,,,,,,,,,,,,,,,
null,,confidence_buffer,1110066,confidence_buffer,,null,,,,,,,,,,,,,,,,,,
1993.6000000238419,,pt2_unique_rating,1112060,US_Cities_List/mm_gatlinburg.png,,52,,,4,,,,,,,,,,,,,,,
null,,confidence_buffer,1112170,confidence_buffer,,null,,,,,,,,,,,,,,,,,,
1617.4000000953674,,pt2_memorable_rating,1113788,US_Cities_List/mm_gatlinburg.png,,52,,,4,,,,,,,,,,,,,,,
null,,confidence_buffer,1113891,confidence_buffer,,null,,,,,,,,,,,,,,,,,,
3208,,recognition_phase,1117099,US_Cities_List/mm_gatlinburg.png,,52,,,,,,new,1,0.8214285714285714,,,,,,,,,,
null,,confidence_buffer,1117208,confidence_buffer,,null,,,,,,,,,,,,,,,,,,
null,,thebreak,1117714,break,,null,,,,,,,,,,,,,,,,,,
3464.5,,pt2_realistic_rating,1121179,Fictional_Cities_List/img_manmade_04.png,,49,Fictional_Cities_List/img_manmade_04.png,MM,1,,,,,,,,,,,,,,,
null,,confidence_buffer,1121297,confidence_buffer,,null,,,,,,,,,,,,,,,,,,
2794.7999999523163,,pt2_unique_rating,1124092,Fictional_Cities_List/img_manmade_04.png,,51,,,3,,,,,,,,,,,,,,,
null,,confidence_buffer,1124207,confidence_buffer,,null,,,,,,,,,,,,,,,,,,
4060.100000023842,,pt2_memorable_rating,1128268,Fictional_Cities_List/img_manmade_04.png,,50,,,2,,,,,,,,,,,,,,,
null,,confidence_buffer,1128380,confidence_buffer,,null,,,,,,,,,,,,,,,,,,
3519.5,,recognition_phase,1131900,Fictional_Cities_List/img_manmade_04.png,,50,,,,,,old,1,0.8245614035087719,,,,,,,,,,
null,,confidence_buffer,1132007,confidence_buffer,,null,,,,,,,,,,,,,,,,,,
null,,thebreak,1132521,break,,null,,,,,,,,,,,,,,,,,,
3587.100000023842,,pt2_realistic_rating,1136109,Fictional_Cities_List/img_natural_08.png,,52,Fictional_Cities_List/img_natural_08.png,NAT,4,,,,,,,,,,,,,,,
null,,confidence_buffer,1136215,confidence_buffer,,null,,,,,,,,,,,,,,,,,,
2564.1999999284744,,pt2_unique_rating,1138780,Fictional_Cities_List/img_natural_08.png,,50,,,2,,,,,,,,,,,,,,,
null,,confidence_buffer,1138897,confidence_buffer,,null,,,,,,,,,,,,,,,,,,
1626.6999999284744,,probe_rating,1140524,probe_rating,,50,,,,2,1,,,,,,,,,,,,,
null,,confidence_buffer,1140631,confidence_buffer,,null,,,,,,,,,,,,,,,,,,
3988.0999999046326,,pt2_memorable_rating,1144620,Fictional_Cities_List/img_natural_08.png,,51,,,3,,,,,,,,,,,,,,,
null,,confidence_buffer,1144731,confidence_buffer,,null,,,,,,,,,,,,,,,,,,
1808.3000000715256,,recognition_phase,1146540,Fictional_Cities_List/img_natural_08.png,,49,,,,,,old,1,0.8275862068965517,,,,,,,,,,
null,,confidence_buffer,1146641,confidence_buffer,,null,,,,,,,,,,,,,,,,,,
null,,thebreak,1147147,break,,null,,,,,,,,,,,,,,,,,,
3857.3000000715256,,pt2_realistic_rating,1151005,US_Cities_List/mm_manistee.png,,52,US_Cities_List/mm_manistee.png,MM,4,,,,,,,,,,,,,,,
null,,confidence_buffer,1151121,confidence_buffer,,null,,,,,,,,,,,,,,,,,,
1531.1000000238419,,probe_rating,1152653,probe_rating,,49,,,,1,1,,,,,,,,,,,,,
null,,confidence_buffer,1152762,confidence_buffer,,null,,,,,,,,,,,,,,,,,,
1793.3999999761581,,pt2_unique_rating,1154556,US_Cities_List/mm_manistee.png,,50,,,2,,,,,,,,,,,,,,,
null,,confidence_buffer,1154662,confidence_buffer,,null,,,,,,,,,,,,,,,,,,
1013.2999999523163,,pt2_memorable_rating,1155676,US_Cities_List/mm_manistee.png,,50,,,2,,,,,,,,,,,,,,,
null,,confidence_buffer,1155781,confidence_buffer,,null,,,,,,,,,,,,,,,,,,
2039,,recognition_phase,1157821,US_Cities_List/mm_manistee.png,,50,,,,,,old,1,0.8305084745762712,,,,,,,,,,
null,,confidence_buffer,1157933,confidence_buffer,,null,,,,,,,,,,,,,,,,,,
null,,thebreak,1158435,break,,null,,,,,,,,,,,,,,,,,,
3881.600000023842,,pt2_realistic_rating,1162317,US_Cities_List/mm_coeurdalene.png,,52,US_Cities_List/mm_coeurdalene.png,MM,4,,,,,,,,,,,,,,,
null,,confidence_buffer,1162427,confidence_buffer,,null,,,,,,,,,,,,,,,,,,
1921.5,,pt2_unique_rating,1164349,US_Cities_List/mm_coeurdalene.png,,50,,,2,,,,,,,,,,,,,,,
null,,confidence_buffer,1164456,confidence_buffer,,null,,,,,,,,,,,,,,,,,,
676.3999999761581,,pt2_memorable_rating,1165133,US_Cities_List/mm_coeurdalene.png,,50,,,2,,,,,,,,,,,,,,,
null,,confidence_buffer,1165241,confidence_buffer,,null,,,,,,,,,,,,,,,,,,
4563.899999976158,,recognition_phase,1169805,US_Cities_List/mm_coeurdalene.png,,51,,,,,,new,1,0.8333333333333334,,,,,,,,,,
null,,confidence_buffer,1169910,confidence_buffer,,null,,,,,,,,,,,,,,,,,,
null,,thebreak,1170414,break,,null,,,,,,,,,,,,,,,,,,
,,survey,1448923,survey-questions,,,,,,,,,,,,high,No,I really didn't have a strategy. I was mainly using my gut reaction.,I just searched my memory for what I have seen.,If they held a special interest for me, like beaches or lighthouses.,If they were very odd.,As long as it was not a fantasy setting, I went with realistic.,I do not think so. ,It was fine. Everything worked well.
