rt,responses,trial_type,time_elapsed,stimulus,button_pressed,key_press,name_trial,city_type,rating,probe,probe_accuracy,response,correct,accuracy,problems,smooth,distraction,strategies,familiar,memorable,unique,realistic,similar,comments
78775.80000000447,{worker_id:5bf349126f97050001e6a6e6},id_enter,78779,,,,,,,,,,,,,,,,,,,,,
24305.29999999702,,fullscreen,103092,fullscreen,0,,,,,,,,,,,,,,,,,,,
10523.39999999851,,intro_0,113621,instruct,,32,,,,,,,,,,,,,,,,,,
23592.19999999553,,intro_1,137215,instruct,,32,,,,,,,,,,,,,,,,,,
18263.19999999553,,intro_2,155479,instruct,,32,,,,,,,,,,,,,,,,,,
null,,instruct_dir_4,156980,instruct,,null,,,,,,,,,,,,,,,,,,
null,,thebreak,157483,break,,null,,,,,,,,,,,,,,,,,,
33884.90000000596,,familiar_rating,191370,Fictional_Cities_List/img_natural_05.png,,51,Fictional_Cities_List/img_natural_05.png,NAT,3,,,,,,,,,,,,,,,
null,,confidence_buffer,191471,confidence_buffer,,null,,,,,,,,,,,,,,,,,,
7987.10000000149,,unique_rating,199460,Fictional_Cities_List/img_natural_05.png,,51,,,3,,,,,,,,,,,,,,,
null,,confidence_buffer,199562,confidence_buffer,,null,,,,,,,,,,,,,,,,,,
12253.20000000298,,memorable_rating,211816,Fictional_Cities_List/img_natural_05.png,,52,,,4,,,,,,,,,,,,,,,
null,,confidence_buffer,211918,confidence_buffer,,null,,,,,,,,,,,,,,,,,,
null,,thebreak,212422,break,,null,,,,,,,,,,,,,,,,,,
9157.39999999851,,familiar_rating,221581,Fictional_Cities_List/img_manmade_05.png,,51,Fictional_Cities_List/img_manmade_05.png,MM,3,,,,,,,,,,,,,,,
null,,confidence_buffer,221683,confidence_buffer,,null,,,,,,,,,,,,,,,,,,
30263.89999999851,,unique_rating,251949,Fictional_Cities_List/img_manmade_05.png,,53,,,5,,,,,,,,,,,,,,,
null,,confidence_buffer,252052,confidence_buffer,,null,,,,,,,,,,,,,,,,,,
6797.20000000298,,memorable_rating,258850,Fictional_Cities_List/img_manmade_05.png,,53,,,5,,,,,,,,,,,,,,,
null,,confidence_buffer,258952,confidence_buffer,,null,,,,,,,,,,,,,,,,,,
null,,thebreak,259453,break,,null,,,,,,,,,,,,,,,,,,
15207.39999999851,,familiar_rating,274662,Fictional_Cities_List/img_natural_45.png,,51,Fictional_Cities_List/img_natural_45.png,NAT,3,,,,,,,,,,,,,,,
null,,confidence_buffer,274765,confidence_buffer,,null,,,,,,,,,,,,,,,,,,
5284.60000000149,,unique_rating,280051,Fictional_Cities_List/img_natural_45.png,,52,,,4,,,,,,,,,,,,,,,
null,,confidence_buffer,280154,confidence_buffer,,null,,,,,,,,,,,,,,,,,,
5696.60000000149,,memorable_rating,285852,Fictional_Cities_List/img_natural_45.png,,53,,,5,,,,,,,,,,,,,,,
null,,confidence_buffer,285953,confidence_buffer,,null,,,,,,,,,,,,,,,,,,
null,,thebreak,286454,break,,null,,,,,,,,,,,,,,,,,,
7558.19999999553,,familiar_rating,294014,Fictional_Cities_List/img_manmade_04.png,,51,Fictional_Cities_List/img_manmade_04.png,MM,3,,,,,,,,,,,,,,,
null,,confidence_buffer,294118,confidence_buffer,,null,,,,,,,,,,,,,,,,,,
9798.30000000447,,unique_rating,303918,Fictional_Cities_List/img_manmade_04.png,,52,,,4,,,,,,,,,,,,,,,
null,,confidence_buffer,304019,confidence_buffer,,null,,,,,,,,,,,,,,,,,,
13674,,memorable_rating,317694,Fictional_Cities_List/img_manmade_04.png,,53,,,5,,,,,,,,,,,,,,,
null,,confidence_buffer,317797,confidence_buffer,,null,,,,,,,,,,,,,,,,,,
null,,thebreak,318299,break,,null,,,,,,,,,,,,,,,,,,
19975.39999999851,,familiar_rating,338276,Fictional_Cities_List/img_manmade_06.png,,50,Fictional_Cities_List/img_manmade_06.png,MM,2,,,,,,,,,,,,,,,
null,,confidence_buffer,338378,confidence_buffer,,null,,,,,,,,,,,,,,,,,,
9040.79999999702,,unique_rating,347420,Fictional_Cities_List/img_manmade_06.png,,50,,,2,,,,,,,,,,,,,,,
null,,confidence_buffer,347522,confidence_buffer,,null,,,,,,,,,,,,,,,,,,
6060.5,,memorable_rating,353584,Fictional_Cities_List/img_manmade_06.png,,51,,,3,,,,,,,,,,,,,,,
null,,confidence_buffer,353695,confidence_buffer,,null,,,,,,,,,,,,,,,,,,
null,,thebreak,354204,break,,null,,,,,,,,,,,,,,,,,,
7289.60000000149,,familiar_rating,361496,US_Cities_List/nat_capemay.png,,50,US_Cities_List/nat_capemay.png,NAT,2,,,,,,,,,,,,,,,
null,,confidence_buffer,361599,confidence_buffer,,null,,,,,,,,,,,,,,,,,,
5794.5,,unique_rating,367394,US_Cities_List/nat_capemay.png,,50,,,2,,,,,,,,,,,,,,,
null,,confidence_buffer,367496,confidence_buffer,,null,,,,,,,,,,,,,,,,,,
6886.10000000149,,memorable_rating,374383,US_Cities_List/nat_capemay.png,,51,,,3,,,,,,,,,,,,,,,
null,,confidence_buffer,374485,confidence_buffer,,null,,,,,,,,,,,,,,,,,,
null,,thebreak,374986,break,,null,,,,,,,,,,,,,,,,,,
5987.39999999851,,familiar_rating,380975,US_Cities_List/mm_healdsburg.png,,49,US_Cities_List/mm_healdsburg.png,MM,1,,,,,,,,,,,,,,,
null,,confidence_buffer,381078,confidence_buffer,,null,,,,,,,,,,,,,,,,,,
10287.29999999702,,unique_rating,391366,US_Cities_List/mm_healdsburg.png,,52,,,4,,,,,,,,,,,,,,,
null,,confidence_buffer,391469,confidence_buffer,,null,,,,,,,,,,,,,,,,,,
5191.89999999851,,memorable_rating,396662,US_Cities_List/mm_healdsburg.png,,52,,,4,,,,,,,,,,,,,,,
null,,confidence_buffer,396763,confidence_buffer,,null,,,,,,,,,,,,,,,,,,
null,,thebreak,397265,break,,null,,,,,,,,,,,,,,,,,,
7858.89999999851,,familiar_rating,405125,Fictional_Cities_List/img_manmade_45.png,,51,Fictional_Cities_List/img_manmade_45.png,MM,3,,,,,,,,,,,,,,,
null,,confidence_buffer,405227,confidence_buffer,,null,,,,,,,,,,,,,,,,,,
4426.20000000298,,unique_rating,409654,Fictional_Cities_List/img_manmade_45.png,,50,,,2,,,,,,,,,,,,,,,
null,,confidence_buffer,409756,confidence_buffer,,null,,,,,,,,,,,,,,,,,,
8896.19999999553,,memorable_rating,418654,Fictional_Cities_List/img_manmade_45.png,,51,,,3,,,,,,,,,,,,,,,
null,,confidence_buffer,418756,confidence_buffer,,null,,,,,,,,,,,,,,,,,,
null,,thebreak,419258,break,,null,,,,,,,,,,,,,,,,,,
9022.70000000298,,familiar_rating,428282,Fictional_Cities_List/img_manmade_03.png,,50,Fictional_Cities_List/img_manmade_03.png,MM,2,,,,,,,,,,,,,,,
null,,confidence_buffer,428384,confidence_buffer,,null,,,,,,,,,,,,,,,,,,
10841.70000000298,,unique_rating,439227,Fictional_Cities_List/img_manmade_03.png,,52,,,4,,,,,,,,,,,,,,,
null,,confidence_buffer,439336,confidence_buffer,,null,,,,,,,,,,,,,,,,,,
7843,,memorable_rating,447181,Fictional_Cities_List/img_manmade_03.png,,52,,,4,,,,,,,,,,,,,,,
null,,confidence_buffer,447283,confidence_buffer,,null,,,,,,,,,,,,,,,,,,
3880.0999999940395,,probe_rating,451165,probe_rating,,50,,,,2,1,,,,,,,,,,,,,
null,,confidence_buffer,451267,confidence_buffer,,null,,,,,,,,,,,,,,,,,,
null,,thebreak,451769,break,,null,,,,,,,,,,,,,,,,,,
4930.9000000059605,,familiar_rating,456701,US_Cities_List/mm_athens.png,,51,US_Cities_List/mm_athens.png,MM,3,,,,,,,,,,,,,,,
null,,confidence_buffer,456803,confidence_buffer,,null,,,,,,,,,,,,,,,,,,
4106.10000000149,,unique_rating,460910,US_Cities_List/mm_athens.png,,51,,,3,,,,,,,,,,,,,,,
null,,confidence_buffer,461012,confidence_buffer,,null,,,,,,,,,,,,,,,,,,
3624.89999999851,,memorable_rating,464638,US_Cities_List/mm_athens.png,,51,,,3,,,,,,,,,,,,,,,
null,,confidence_buffer,464740,confidence_buffer,,null,,,,,,,,,,,,,,,,,,
null,,thebreak,465252,break,,null,,,,,,,,,,,,,,,,,,
10439.69999999553,,familiar_rating,475693,US_Cities_List/nat_alliance.png,,51,US_Cities_List/nat_alliance.png,NAT,3,,,,,,,,,,,,,,,
null,,confidence_buffer,475796,confidence_buffer,,null,,,,,,,,,,,,,,,,,,
4674.89999999851,,unique_rating,480472,US_Cities_List/nat_alliance.png,,50,,,2,,,,,,,,,,,,,,,
null,,confidence_buffer,480574,confidence_buffer,,null,,,,,,,,,,,,,,,,,,
4063.5,,memorable_rating,484639,US_Cities_List/nat_alliance.png,,50,,,2,,,,,,,,,,,,,,,
null,,confidence_buffer,484741,confidence_buffer,,null,,,,,,,,,,,,,,,,,,
null,,thebreak,485243,break,,null,,,,,,,,,,,,,,,,,,
6472.79999999702,,familiar_rating,491717,US_Cities_List/nat_orr.png,,50,US_Cities_List/nat_orr.png,NAT,2,,,,,,,,,,,,,,,
null,,confidence_buffer,491819,confidence_buffer,,null,,,,,,,,,,,,,,,,,,
7011,,unique_rating,498831,US_Cities_List/nat_orr.png,,50,,,2,,,,,,,,,,,,,,,
null,,confidence_buffer,498933,confidence_buffer,,null,,,,,,,,,,,,,,,,,,
7208.5,,memorable_rating,506142,US_Cities_List/nat_orr.png,,52,,,4,,,,,,,,,,,,,,,
null,,confidence_buffer,506243,confidence_buffer,,null,,,,,,,,,,,,,,,,,,
null,,thebreak,506746,break,,null,,,,,,,,,,,,,,,,,,
11985.89999999851,,familiar_rating,518733,US_Cities_List/mm_medora.png,,50,US_Cities_List/mm_medora.png,MM,2,,,,,,,,,,,,,,,
null,,confidence_buffer,518835,confidence_buffer,,null,,,,,,,,,,,,,,,,,,
5290.10000000149,,unique_rating,524126,US_Cities_List/mm_medora.png,,51,,,3,,,,,,,,,,,,,,,
null,,confidence_buffer,524228,confidence_buffer,,null,,,,,,,,,,,,,,,,,,
5009.10000000149,,memorable_rating,529238,US_Cities_List/mm_medora.png,,51,,,3,,,,,,,,,,,,,,,
null,,confidence_buffer,529340,confidence_buffer,,null,,,,,,,,,,,,,,,,,,
null,,thebreak,529842,break,,null,,,,,,,,,,,,,,,,,,
6607.20000000298,,familiar_rating,536450,US_Cities_List/nat_shreveport.png,,50,US_Cities_List/nat_shreveport.png,NAT,2,,,,,,,,,,,,,,,
null,,confidence_buffer,536552,confidence_buffer,,null,,,,,,,,,,,,,,,,,,
5395.60000000149,,unique_rating,541949,US_Cities_List/nat_shreveport.png,,50,,,2,,,,,,,,,,,,,,,
null,,confidence_buffer,542051,confidence_buffer,,null,,,,,,,,,,,,,,,,,,
7080.39999999851,,memorable_rating,549133,US_Cities_List/nat_shreveport.png,,51,,,3,,,,,,,,,,,,,,,
null,,confidence_buffer,549235,confidence_buffer,,null,,,,,,,,,,,,,,,,,,
null,,thebreak,549736,break,,null,,,,,,,,,,,,,,,,,,
13909.29999999702,,familiar_rating,563646,US_Cities_List/mm_lakeoftheozarks.png,,49,US_Cities_List/mm_lakeoftheozarks.png,MM,1,,,,,,,,,,,,,,,
null,,confidence_buffer,563748,confidence_buffer,,null,,,,,,,,,,,,,,,,,,
7460.70000000298,,unique_rating,571210,US_Cities_List/mm_lakeoftheozarks.png,,52,,,4,,,,,,,,,,,,,,,
null,,confidence_buffer,571312,confidence_buffer,,null,,,,,,,,,,,,,,,,,,
11291.89999999851,,memorable_rating,582606,US_Cities_List/mm_lakeoftheozarks.png,,53,,,5,,,,,,,,,,,,,,,
null,,confidence_buffer,582708,confidence_buffer,,null,,,,,,,,,,,,,,,,,,
null,,thebreak,583209,break,,null,,,,,,,,,,,,,,,,,,
5697.10000000149,,familiar_rating,588907,US_Cities_List/nat_natchez.png,,49,US_Cities_List/nat_natchez.png,NAT,1,,,,,,,,,,,,,,,
null,,confidence_buffer,589008,confidence_buffer,,null,,,,,,,,,,,,,,,,,,
8822.69999999553,,unique_rating,597832,US_Cities_List/nat_natchez.png,,51,,,3,,,,,,,,,,,,,,,
null,,confidence_buffer,597933,confidence_buffer,,null,,,,,,,,,,,,,,,,,,
5919,,memorable_rating,603853,US_Cities_List/nat_natchez.png,,52,,,4,,,,,,,,,,,,,,,
null,,confidence_buffer,603955,confidence_buffer,,null,,,,,,,,,,,,,,,,,,
null,,thebreak,604457,break,,null,,,,,,,,,,,,,,,,,,
14266.60000000149,,familiar_rating,618724,US_Cities_List/mm_newhope.png,,51,US_Cities_List/mm_newhope.png,MM,3,,,,,,,,,,,,,,,
null,,confidence_buffer,618827,confidence_buffer,,null,,,,,,,,,,,,,,,,,,
6696.9000000059605,,unique_rating,625525,US_Cities_List/mm_newhope.png,,50,,,2,,,,,,,,,,,,,,,
null,,confidence_buffer,625627,confidence_buffer,,null,,,,,,,,,,,,,,,,,,
5163.10000000149,,memorable_rating,630791,US_Cities_List/mm_newhope.png,,51,,,3,,,,,,,,,,,,,,,
null,,confidence_buffer,630894,confidence_buffer,,null,,,,,,,,,,,,,,,,,,
null,,thebreak,631395,break,,null,,,,,,,,,,,,,,,,,,
10777.19999999553,,familiar_rating,642174,US_Cities_List/mm_berkeleysprings.png,,49,US_Cities_List/mm_berkeleysprings.png,MM,1,,,,,,,,,,,,,,,
null,,confidence_buffer,642275,confidence_buffer,,null,,,,,,,,,,,,,,,,,,
5633.10000000149,,unique_rating,647910,US_Cities_List/mm_berkeleysprings.png,,50,,,2,,,,,,,,,,,,,,,
null,,confidence_buffer,648011,confidence_buffer,,null,,,,,,,,,,,,,,,,,,
4314,,memorable_rating,652326,US_Cities_List/mm_berkeleysprings.png,,51,,,3,,,,,,,,,,,,,,,
null,,confidence_buffer,652428,confidence_buffer,,null,,,,,,,,,,,,,,,,,,
null,,thebreak,652932,break,,null,,,,,,,,,,,,,,,,,,
22854.29999999702,,familiar_rating,675787,Fictional_Cities_List/img_natural_40.png,,50,Fictional_Cities_List/img_natural_40.png,NAT,2,,,,,,,,,,,,,,,
null,,confidence_buffer,675889,confidence_buffer,,null,,,,,,,,,,,,,,,,,,
7156,,unique_rating,683046,Fictional_Cities_List/img_natural_40.png,,49,,,1,,,,,,,,,,,,,,,
null,,confidence_buffer,683148,confidence_buffer,,null,,,,,,,,,,,,,,,,,,
4478.29999999702,,memorable_rating,687627,Fictional_Cities_List/img_natural_40.png,,51,,,3,,,,,,,,,,,,,,,
null,,confidence_buffer,687730,confidence_buffer,,null,,,,,,,,,,,,,,,,,,
null,,thebreak,688231,break,,null,,,,,,,,,,,,,,,,,,
6380.19999999553,,familiar_rating,694612,Fictional_Cities_List/img_natural_32.png,,52,Fictional_Cities_List/img_natural_32.png,NAT,4,,,,,,,,,,,,,,,
null,,confidence_buffer,694716,confidence_buffer,,null,,,,,,,,,,,,,,,,,,
6638.89999999851,,unique_rating,701356,Fictional_Cities_List/img_natural_32.png,,50,,,2,,,,,,,,,,,,,,,
null,,confidence_buffer,701458,confidence_buffer,,null,,,,,,,,,,,,,,,,,,
11750.89999999851,,memorable_rating,713210,Fictional_Cities_List/img_natural_32.png,,53,,,5,,,,,,,,,,,,,,,
null,,confidence_buffer,713313,confidence_buffer,,null,,,,,,,,,,,,,,,,,,
null,,thebreak,713815,break,,null,,,,,,,,,,,,,,,,,,
9113.80000000447,,familiar_rating,722930,Fictional_Cities_List/img_natural_47.png,,51,Fictional_Cities_List/img_natural_47.png,NAT,3,,,,,,,,,,,,,,,
null,,confidence_buffer,723033,confidence_buffer,,null,,,,,,,,,,,,,,,,,,
6167,,unique_rating,729201,Fictional_Cities_List/img_natural_47.png,,50,,,2,,,,,,,,,,,,,,,
null,,confidence_buffer,729303,confidence_buffer,,null,,,,,,,,,,,,,,,,,,
9143.40000000596,,memorable_rating,738448,Fictional_Cities_List/img_natural_47.png,,52,,,4,,,,,,,,,,,,,,,
null,,confidence_buffer,738549,confidence_buffer,,null,,,,,,,,,,,,,,,,,,
null,,thebreak,739051,break,,null,,,,,,,,,,,,,,,,,,
8790.30000000447,,familiar_rating,747843,Fictional_Cities_List/img_natural_30.png,,50,Fictional_Cities_List/img_natural_30.png,NAT,2,,,,,,,,,,,,,,,
null,,confidence_buffer,747945,confidence_buffer,,null,,,,,,,,,,,,,,,,,,
10664.19999999553,,unique_rating,758611,Fictional_Cities_List/img_natural_30.png,,51,,,3,,,,,,,,,,,,,,,
null,,confidence_buffer,758713,confidence_buffer,,null,,,,,,,,,,,,,,,,,,
3797.5,,memorable_rating,762513,Fictional_Cities_List/img_natural_30.png,,51,,,3,,,,,,,,,,,,,,,
null,,confidence_buffer,762620,confidence_buffer,,null,,,,,,,,,,,,,,,,,,
null,,thebreak,763122,break,,null,,,,,,,,,,,,,,,,,,
5842.70000000298,,familiar_rating,768966,US_Cities_List/nat_newhope.png,,51,US_Cities_List/nat_newhope.png,NAT,3,,,,,,,,,,,,,,,
null,,confidence_buffer,769068,confidence_buffer,,null,,,,,,,,,,,,,,,,,,
7361.10000000149,,unique_rating,776430,US_Cities_List/nat_newhope.png,,49,,,1,,,,,,,,,,,,,,,
null,,confidence_buffer,776532,confidence_buffer,,null,,,,,,,,,,,,,,,,,,
3697.2000000029802,,memorable_rating,780230,US_Cities_List/nat_newhope.png,,51,,,3,,,,,,,,,,,,,,,
null,,confidence_buffer,780332,confidence_buffer,,null,,,,,,,,,,,,,,,,,,
null,,thebreak,780833,break,,null,,,,,,,,,,,,,,,,,,
11726,,familiar_rating,792561,Fictional_Cities_List/img_natural_38.png,,51,Fictional_Cities_List/img_natural_38.png,NAT,3,,,,,,,,,,,,,,,
null,,confidence_buffer,792663,confidence_buffer,,null,,,,,,,,,,,,,,,,,,
4918.5999999940395,,unique_rating,797583,Fictional_Cities_List/img_natural_38.png,,49,,,1,,,,,,,,,,,,,,,
null,,confidence_buffer,797684,confidence_buffer,,null,,,,,,,,,,,,,,,,,,
7128,,memorable_rating,804813,Fictional_Cities_List/img_natural_38.png,,51,,,3,,,,,,,,,,,,,,,
null,,confidence_buffer,804916,confidence_buffer,,null,,,,,,,,,,,,,,,,,,
null,,thebreak,805418,break,,null,,,,,,,,,,,,,,,,,,
7602.20000000298,,familiar_rating,813022,Fictional_Cities_List/img_manmade_30.png,,50,Fictional_Cities_List/img_manmade_30.png,MM,2,,,,,,,,,,,,,,,
null,,confidence_buffer,813124,confidence_buffer,,null,,,,,,,,,,,,,,,,,,
20284.19999999553,,unique_rating,833410,Fictional_Cities_List/img_manmade_30.png,,50,,,2,,,,,,,,,,,,,,,
null,,confidence_buffer,833511,confidence_buffer,,null,,,,,,,,,,,,,,,,,,
7345.5,,memorable_rating,840858,Fictional_Cities_List/img_manmade_30.png,,52,,,4,,,,,,,,,,,,,,,
null,,confidence_buffer,840960,confidence_buffer,,null,,,,,,,,,,,,,,,,,,
null,,thebreak,841461,break,,null,,,,,,,,,,,,,,,,,,
10105.89999999851,,familiar_rating,851568,US_Cities_List/nat_okoboji.png,,49,US_Cities_List/nat_okoboji.png,NAT,1,,,,,,,,,,,,,,,
null,,confidence_buffer,851671,confidence_buffer,,null,,,,,,,,,,,,,,,,,,
10912.29999999702,,unique_rating,862584,US_Cities_List/nat_okoboji.png,,52,,,4,,,,,,,,,,,,,,,
null,,confidence_buffer,862686,confidence_buffer,,null,,,,,,,,,,,,,,,,,,
3625.2000000029802,,probe_rating,866312,probe_rating,,49,,,,1,1,,,,,,,,,,,,,
null,,confidence_buffer,866414,confidence_buffer,,null,,,,,,,,,,,,,,,,,,
9358,,memorable_rating,875774,US_Cities_List/nat_okoboji.png,,53,,,5,,,,,,,,,,,,,,,
null,,confidence_buffer,875876,confidence_buffer,,null,,,,,,,,,,,,,,,,,,
null,,thebreak,876377,break,,null,,,,,,,,,,,,,,,,,,
10293.70000000298,,familiar_rating,886671,US_Cities_List/mm_peoria.png,,50,US_Cities_List/mm_peoria.png,MM,2,,,,,,,,,,,,,,,
null,,confidence_buffer,886774,confidence_buffer,,null,,,,,,,,,,,,,,,,,,
8643.09999999404,,unique_rating,895419,US_Cities_List/mm_peoria.png,,52,,,4,,,,,,,,,,,,,,,
null,,confidence_buffer,895520,confidence_buffer,,null,,,,,,,,,,,,,,,,,,
4056.89999999851,,memorable_rating,899578,US_Cities_List/mm_peoria.png,,53,,,5,,,,,,,,,,,,,,,
null,,confidence_buffer,899681,confidence_buffer,,null,,,,,,,,,,,,,,,,,,
null,,thebreak,900182,break,,null,,,,,,,,,,,,,,,,,,
16907.60000000149,,familiar_rating,917090,Fictional_Cities_List/img_manmade_47.png,,49,Fictional_Cities_List/img_manmade_47.png,MM,1,,,,,,,,,,,,,,,
null,,confidence_buffer,917192,confidence_buffer,,null,,,,,,,,,,,,,,,,,,
5799.10000000149,,unique_rating,922992,Fictional_Cities_List/img_manmade_47.png,,50,,,2,,,,,,,,,,,,,,,
null,,confidence_buffer,923094,confidence_buffer,,null,,,,,,,,,,,,,,,,,,
6034.20000000298,,memorable_rating,929130,Fictional_Cities_List/img_manmade_47.png,,52,,,4,,,,,,,,,,,,,,,
null,,confidence_buffer,929232,confidence_buffer,,null,,,,,,,,,,,,,,,,,,
null,,thebreak,929733,break,,null,,,,,,,,,,,,,,,,,,
22795.10000000149,,familiar_rating,952529,Fictional_Cities_List/img_natural_18.png,,51,Fictional_Cities_List/img_natural_18.png,NAT,3,,,,,,,,,,,,,,,
null,,confidence_buffer,952631,confidence_buffer,,null,,,,,,,,,,,,,,,,,,
6335.5,,unique_rating,958968,Fictional_Cities_List/img_natural_18.png,,50,,,2,,,,,,,,,,,,,,,
null,,confidence_buffer,959070,confidence_buffer,,null,,,,,,,,,,,,,,,,,,
7945.10000000149,,memorable_rating,967016,Fictional_Cities_List/img_natural_18.png,,50,,,2,,,,,,,,,,,,,,,
null,,confidence_buffer,967118,confidence_buffer,,null,,,,,,,,,,,,,,,,,,
null,,thebreak,967620,break,,null,,,,,,,,,,,,,,,,,,
10909,,familiar_rating,978530,US_Cities_List/mm_custer.png,,49,US_Cities_List/mm_custer.png,MM,1,,,,,,,,,,,,,,,
null,,confidence_buffer,978631,confidence_buffer,,null,,,,,,,,,,,,,,,,,,
7339.70000000298,,unique_rating,985972,US_Cities_List/mm_custer.png,,52,,,4,,,,,,,,,,,,,,,
null,,confidence_buffer,986074,confidence_buffer,,null,,,,,,,,,,,,,,,,,,
3998.7000000029802,,memorable_rating,990074,US_Cities_List/mm_custer.png,,52,,,4,,,,,,,,,,,,,,,
null,,confidence_buffer,990185,confidence_buffer,,null,,,,,,,,,,,,,,,,,,
null,,thebreak,990687,break,,null,,,,,,,,,,,,,,,,,,
8669,,intro_0,999358,instruct,,32,,,,,,,,,,,,,,,,,,
18633,,intro_1,1017992,instruct,,32,,,,,,,,,,,,,,,,,,
44536.39999999851,,intro_2,1062529,instruct,,32,,,,,,,,,,,,,,,,,,
null,,instruct_dir_4,1064032,instruct,,null,,,,,,,,,,,,,,,,,,
16414.39999999851,,pt2_realistic_rating,1080448,US_Cities_List/nat_natchez.png,,51,US_Cities_List/nat_natchez.png,NAT,3,,,,,,,,,,,,,,,
null,,confidence_buffer,1080550,confidence_buffer,,null,,,,,,,,,,,,,,,,,,
23901.90000000596,,pt2_unique_rating,1104452,US_Cities_List/nat_natchez.png,,51,,,3,,,,,,,,,,,,,,,
null,,confidence_buffer,1104555,confidence_buffer,,null,,,,,,,,,,,,,,,,,,
6268.20000000298,,pt2_memorable_rating,1110824,US_Cities_List/nat_natchez.png,,52,,,4,,,,,,,,,,,,,,,
null,,confidence_buffer,1110926,confidence_buffer,,null,,,,,,,,,,,,,,,,,,
2774.5,,probe_rating,1113702,probe_rating,,51,,,,3,1,,,,,,,,,,,,,
null,,confidence_buffer,1113805,confidence_buffer,,null,,,,,,,,,,,,,,,,,,
11479.30000000447,,recognition_phase,1125286,US_Cities_List/nat_natchez.png,,49,,,,,,old,1,1,,,,,,,,,,
null,,confidence_buffer,1125388,confidence_buffer,,null,,,,,,,,,,,,,,,,,,
null,,thebreak,1125893,break,,null,,,,,,,,,,,,,,,,,,
14399.89999999851,,pt2_realistic_rating,1140295,US_Cities_List/mm_livingston.png,,52,US_Cities_List/mm_livingston.png,MM,4,,,,,,,,,,,,,,,
null,,confidence_buffer,1140397,confidence_buffer,,null,,,,,,,,,,,,,,,,,,
10492,,pt2_unique_rating,1150890,US_Cities_List/mm_livingston.png,,49,,,1,,,,,,,,,,,,,,,
null,,confidence_buffer,1150992,confidence_buffer,,null,,,,,,,,,,,,,,,,,,
3975.10000000149,,pt2_memorable_rating,1154968,US_Cities_List/mm_livingston.png,,51,,,3,,,,,,,,,,,,,,,
null,,confidence_buffer,1155070,confidence_buffer,,null,,,,,,,,,,,,,,,,,,
11416.20000000298,,recognition_phase,1166488,US_Cities_List/mm_livingston.png,,52,,,,,,new,1,1,,,,,,,,,,
null,,confidence_buffer,1166590,confidence_buffer,,null,,,,,,,,,,,,,,,,,,
null,,thebreak,1167091,break,,null,,,,,,,,,,,,,,,,,,
12234.29999999702,,pt2_realistic_rating,1179327,Fictional_Cities_List/img_natural_09.png,,52,Fictional_Cities_List/img_natural_09.png,NAT,4,,,,,,,,,,,,,,,
null,,confidence_buffer,1179429,confidence_buffer,,null,,,,,,,,,,,,,,,,,,
10537.79999999702,,pt2_unique_rating,1189967,Fictional_Cities_List/img_natural_09.png,,50,,,2,,,,,,,,,,,,,,,
null,,confidence_buffer,1190070,confidence_buffer,,null,,,,,,,,,,,,,,,,,,
5567.5,,pt2_memorable_rating,1195639,Fictional_Cities_List/img_natural_09.png,,52,,,4,,,,,,,,,,,,,,,
null,,confidence_buffer,1195741,confidence_buffer,,null,,,,,,,,,,,,,,,,,,
6551.29999999702,,recognition_phase,1202293,Fictional_Cities_List/img_natural_09.png,,49,,,,,,old,0,0.6666666666666666,,,,,,,,,,
null,,confidence_buffer,1202404,confidence_buffer,,null,,,,,,,,,,,,,,,,,,
null,,thebreak,1202906,break,,null,,,,,,,,,,,,,,,,,,
36737.10000000149,,pt2_realistic_rating,1239644,US_Cities_List/mm_alliance.png,,49,US_Cities_List/mm_alliance.png,MM,1,,,,,,,,,,,,,,,
null,,confidence_buffer,1239752,confidence_buffer,,null,,,,,,,,,,,,,,,,,,
8402.69999999553,,pt2_unique_rating,1248156,US_Cities_List/mm_alliance.png,,52,,,4,,,,,,,,,,,,,,,
null,,confidence_buffer,1248259,confidence_buffer,,null,,,,,,,,,,,,,,,,,,
9739.69999999553,,pt2_memorable_rating,1257999,US_Cities_List/mm_alliance.png,,53,,,5,,,,,,,,,,,,,,,
null,,confidence_buffer,1258102,confidence_buffer,,null,,,,,,,,,,,,,,,,,,
7800.5,,recognition_phase,1265904,US_Cities_List/mm_alliance.png,,52,,,,,,new,1,0.75,,,,,,,,,,
null,,confidence_buffer,1266006,confidence_buffer,,null,,,,,,,,,,,,,,,,,,
null,,thebreak,1266510,break,,null,,,,,,,,,,,,,,,,,,
11694.5,,pt2_realistic_rating,1278206,US_Cities_List/nat_newhope.png,,52,US_Cities_List/nat_newhope.png,NAT,4,,,,,,,,,,,,,,,
null,,confidence_buffer,1278309,confidence_buffer,,null,,,,,,,,,,,,,,,,,,
11466.30000000447,,pt2_unique_rating,1289776,US_Cities_List/nat_newhope.png,,49,,,1,,,,,,,,,,,,,,,
null,,confidence_buffer,1289879,confidence_buffer,,null,,,,,,,,,,,,,,,,,,
9905,,pt2_memorable_rating,1299785,US_Cities_List/nat_newhope.png,,51,,,3,,,,,,,,,,,,,,,
null,,confidence_buffer,1299892,confidence_buffer,,null,,,,,,,,,,,,,,,,,,
8045,,recognition_phase,1307938,US_Cities_List/nat_newhope.png,,49,,,,,,old,1,0.8,,,,,,,,,,
null,,confidence_buffer,1308040,confidence_buffer,,null,,,,,,,,,,,,,,,,,,
null,,thebreak,1308541,break,,null,,,,,,,,,,,,,,,,,,
10998.79999999702,,pt2_realistic_rating,1319541,Fictional_Cities_List/img_manmade_45.png,,53,Fictional_Cities_List/img_manmade_45.png,MM,5,,,,,,,,,,,,,,,
null,,confidence_buffer,1319644,confidence_buffer,,null,,,,,,,,,,,,,,,,,,
9611.19999999553,,pt2_unique_rating,1329256,Fictional_Cities_List/img_manmade_45.png,,50,,,2,,,,,,,,,,,,,,,
null,,confidence_buffer,1329358,confidence_buffer,,null,,,,,,,,,,,,,,,,,,
8631,,pt2_memorable_rating,1337990,Fictional_Cities_List/img_manmade_45.png,,52,,,4,,,,,,,,,,,,,,,
null,,confidence_buffer,1338092,confidence_buffer,,null,,,,,,,,,,,,,,,,,,
4639.70000000298,,recognition_phase,1342733,Fictional_Cities_List/img_manmade_45.png,,49,,,,,,old,1,0.8333333333333334,,,,,,,,,,
null,,confidence_buffer,1342836,confidence_buffer,,null,,,,,,,,,,,,,,,,,,
null,,thebreak,1343338,break,,null,,,,,,,,,,,,,,,,,,
10907.70000000298,,pt2_realistic_rating,1354247,Fictional_Cities_List/img_manmade_47.png,,53,Fictional_Cities_List/img_manmade_47.png,MM,5,,,,,,,,,,,,,,,
null,,confidence_buffer,1354349,confidence_buffer,,null,,,,,,,,,,,,,,,,,,
4574.70000000298,,pt2_unique_rating,1358925,Fictional_Cities_List/img_manmade_47.png,,50,,,2,,,,,,,,,,,,,,,
null,,confidence_buffer,1359026,confidence_buffer,,null,,,,,,,,,,,,,,,,,,
5901.19999999553,,pt2_memorable_rating,1364929,Fictional_Cities_List/img_manmade_47.png,,52,,,4,,,,,,,,,,,,,,,
null,,confidence_buffer,1365031,confidence_buffer,,null,,,,,,,,,,,,,,,,,,
6425.0999999940395,,recognition_phase,1371457,Fictional_Cities_List/img_manmade_47.png,,49,,,,,,old,1,0.8571428571428571,,,,,,,,,,
null,,confidence_buffer,1371559,confidence_buffer,,null,,,,,,,,,,,,,,,,,,
null,,thebreak,1372061,break,,null,,,,,,,,,,,,,,,,,,
19560.90000000596,,pt2_realistic_rating,1391623,US_Cities_List/nat_orr.png,,52,US_Cities_List/nat_orr.png,NAT,4,,,,,,,,,,,,,,,
null,,confidence_buffer,1391726,confidence_buffer,,null,,,,,,,,,,,,,,,,,,
7203.89999999851,,pt2_unique_rating,1398931,US_Cities_List/nat_orr.png,,50,,,2,,,,,,,,,,,,,,,
null,,confidence_buffer,1399037,confidence_buffer,,null,,,,,,,,,,,,,,,,,,
3369,,probe_rating,1402407,probe_rating,,49,,,,1,1,,,,,,,,,,,,,
null,,confidence_buffer,1402509,confidence_buffer,,null,,,,,,,,,,,,,,,,,,
5474.89999999851,,pt2_memorable_rating,1407985,US_Cities_List/nat_orr.png,,52,,,4,,,,,,,,,,,,,,,
null,,confidence_buffer,1408088,confidence_buffer,,null,,,,,,,,,,,,,,,,,,
3454.6999999955297,,recognition_phase,1411545,US_Cities_List/nat_orr.png,,49,,,,,,old,1,0.875,,,,,,,,,,
null,,confidence_buffer,1411647,confidence_buffer,,null,,,,,,,,,,,,,,,,,,
null,,thebreak,1412149,break,,null,,,,,,,,,,,,,,,,,,
11538.79999999702,,pt2_realistic_rating,1423689,US_Cities_List/mm_healdsburg.png,,51,US_Cities_List/mm_healdsburg.png,MM,3,,,,,,,,,,,,,,,
null,,confidence_buffer,1423790,confidence_buffer,,null,,,,,,,,,,,,,,,,,,
3369.2000000029802,,probe_rating,1427161,probe_rating,,52,,,,4,1,,,,,,,,,,,,,
null,,confidence_buffer,1427263,confidence_buffer,,null,,,,,,,,,,,,,,,,,,
4616.4000000059605,,pt2_unique_rating,1431880,US_Cities_List/mm_healdsburg.png,,50,,,2,,,,,,,,,,,,,,,
null,,confidence_buffer,1431982,confidence_buffer,,null,,,,,,,,,,,,,,,,,,
5492.30000000447,,pt2_memorable_rating,1437475,US_Cities_List/mm_healdsburg.png,,52,,,4,,,,,,,,,,,,,,,
null,,confidence_buffer,1437577,confidence_buffer,,null,,,,,,,,,,,,,,,,,,
6539.80000000447,,recognition_phase,1444118,US_Cities_List/mm_healdsburg.png,,49,,,,,,old,1,0.8888888888888888,,,,,,,,,,
null,,confidence_buffer,1444220,confidence_buffer,,null,,,,,,,,,,,,,,,,,,
null,,thebreak,1444721,break,,null,,,,,,,,,,,,,,,,,,
24037.89999999851,,pt2_realistic_rating,1468761,US_Cities_List/mm_newport.png,,49,US_Cities_List/mm_newport.png,MM,1,,,,,,,,,,,,,,,
null,,confidence_buffer,1468863,confidence_buffer,,null,,,,,,,,,,,,,,,,,,
7383.89999999851,,pt2_unique_rating,1476248,US_Cities_List/mm_newport.png,,52,,,4,,,,,,,,,,,,,,,
null,,confidence_buffer,1476349,confidence_buffer,,null,,,,,,,,,,,,,,,,,,
9914.39999999851,,pt2_memorable_rating,1486265,US_Cities_List/mm_newport.png,,53,,,5,,,,,,,,,,,,,,,
null,,confidence_buffer,1486367,confidence_buffer,,null,,,,,,,,,,,,,,,,,,
6449,,recognition_phase,1492818,US_Cities_List/mm_newport.png,,52,,,,,,new,1,0.9,,,,,,,,,,
null,,confidence_buffer,1492921,confidence_buffer,,null,,,,,,,,,,,,,,,,,,
null,,thebreak,1493422,break,,null,,,,,,,,,,,,,,,,,,
8416.10000000149,,pt2_realistic_rating,1501839,US_Cities_List/mm_peoria.png,,49,US_Cities_List/mm_peoria.png,MM,1,,,,,,,,,,,,,,,
null,,confidence_buffer,1501941,confidence_buffer,,null,,,,,,,,,,,,,,,,,,
9818.40000000596,,pt2_unique_rating,1511760,US_Cities_List/mm_peoria.png,,52,,,4,,,,,,,,,,,,,,,
null,,confidence_buffer,1511863,confidence_buffer,,null,,,,,,,,,,,,,,,,,,
7768.29999999702,,pt2_memorable_rating,1519632,US_Cities_List/mm_peoria.png,,53,,,5,,,,,,,,,,,,,,,
null,,confidence_buffer,1519743,confidence_buffer,,null,,,,,,,,,,,,,,,,,,
5368.60000000149,,recognition_phase,1525113,US_Cities_List/mm_peoria.png,,49,,,,,,old,1,0.9090909090909091,,,,,,,,,,
null,,confidence_buffer,1525227,confidence_buffer,,null,,,,,,,,,,,,,,,,,,
null,,thebreak,1525730,break,,null,,,,,,,,,,,,,,,,,,
10038.79999999702,,pt2_realistic_rating,1535770,Fictional_Cities_List/img_natural_38.png,,52,Fictional_Cities_List/img_natural_38.png,NAT,4,,,,,,,,,,,,,,,
null,,confidence_buffer,1535875,confidence_buffer,,null,,,,,,,,,,,,,,,,,,
5969.39999999851,,pt2_unique_rating,1541846,Fictional_Cities_List/img_natural_38.png,,49,,,1,,,,,,,,,,,,,,,
null,,confidence_buffer,1541948,confidence_buffer,,null,,,,,,,,,,,,,,,,,,
5087.19999999553,,pt2_memorable_rating,1547036,Fictional_Cities_List/img_natural_38.png,,51,,,3,,,,,,,,,,,,,,,
null,,confidence_buffer,1547138,confidence_buffer,,null,,,,,,,,,,,,,,,,,,
2693.89999999851,,probe_rating,1549833,probe_rating,,49,,,,1,1,,,,,,,,,,,,,
null,,confidence_buffer,1549935,confidence_buffer,,null,,,,,,,,,,,,,,,,,,
4393.30000000447,,recognition_phase,1554329,Fictional_Cities_List/img_natural_38.png,,49,,,,,,old,1,0.9166666666666666,,,,,,,,,,
null,,confidence_buffer,1554431,confidence_buffer,,null,,,,,,,,,,,,,,,,,,
null,,thebreak,1554933,break,,null,,,,,,,,,,,,,,,,,,
32798.30000000447,,pt2_realistic_rating,1587733,US_Cities_List/mm_gardnerville.png,,49,US_Cities_List/mm_gardnerville.png,MM,1,,,,,,,,,,,,,,,
null,,confidence_buffer,1587835,confidence_buffer,,null,,,,,,,,,,,,,,,,,,
8050.10000000149,,pt2_unique_rating,1595886,US_Cities_List/mm_gardnerville.png,,52,,,4,,,,,,,,,,,,,,,
null,,confidence_buffer,1595988,confidence_buffer,,null,,,,,,,,,,,,,,,,,,
6861.4000000059605,,pt2_memorable_rating,1602850,US_Cities_List/mm_gardnerville.png,,53,,,5,,,,,,,,,,,,,,,
null,,confidence_buffer,1602953,confidence_buffer,,null,,,,,,,,,,,,,,,,,,
7423.30000000447,,recognition_phase,1610378,US_Cities_List/mm_gardnerville.png,,52,,,,,,new,1,0.9230769230769231,,,,,,,,,,
null,,confidence_buffer,1610481,confidence_buffer,,null,,,,,,,,,,,,,,,,,,
null,,thebreak,1610983,break,,null,,,,,,,,,,,,,,,,,,
14847.5,,pt2_realistic_rating,1625832,US_Cities_List/mm_medora.png,,52,US_Cities_List/mm_medora.png,MM,4,,,,,,,,,,,,,,,
null,,confidence_buffer,1625934,confidence_buffer,,null,,,,,,,,,,,,,,,,,,
6380.5,,pt2_unique_rating,1632316,US_Cities_List/mm_medora.png,,50,,,2,,,,,,,,,,,,,,,
null,,confidence_buffer,1632419,confidence_buffer,,null,,,,,,,,,,,,,,,,,,
5711.89999999851,,pt2_memorable_rating,1638132,US_Cities_List/mm_medora.png,,52,,,4,,,,,,,,,,,,,,,
null,,confidence_buffer,1638233,confidence_buffer,,null,,,,,,,,,,,,,,,,,,
4538,,recognition_phase,1642772,US_Cities_List/mm_medora.png,,49,,,,,,old,1,0.9285714285714286,,,,,,,,,,
null,,confidence_buffer,1642874,confidence_buffer,,null,,,,,,,,,,,,,,,,,,
null,,thebreak,1643376,break,,null,,,,,,,,,,,,,,,,,,
24160.10000000149,,pt2_realistic_rating,1667538,Fictional_Cities_List/img_natural_36.png,,53,Fictional_Cities_List/img_natural_36.png,NAT,5,,,,,,,,,,,,,,,
null,,confidence_buffer,1667640,confidence_buffer,,null,,,,,,,,,,,,,,,,,,
5614.5,,pt2_unique_rating,1673256,Fictional_Cities_List/img_natural_36.png,,49,,,1,,,,,,,,,,,,,,,
null,,confidence_buffer,1673360,confidence_buffer,,null,,,,,,,,,,,,,,,,,,
6027.9000000059605,,pt2_memorable_rating,1679389,Fictional_Cities_List/img_natural_36.png,,51,,,3,,,,,,,,,,,,,,,
null,,confidence_buffer,1679491,confidence_buffer,,null,,,,,,,,,,,,,,,,,,
5526.79999999702,,recognition_phase,1685020,Fictional_Cities_List/img_natural_36.png,,50,,,,,,old,0,0.8666666666666667,,,,,,,,,,
null,,confidence_buffer,1685122,confidence_buffer,,null,,,,,,,,,,,,,,,,,,
null,,thebreak,1685623,break,,null,,,,,,,,,,,,,,,,,,
7538.70000000298,,pt2_realistic_rating,1693163,Fictional_Cities_List/img_manmade_41.png,,53,Fictional_Cities_List/img_manmade_41.png,MM,5,,,,,,,,,,,,,,,
null,,confidence_buffer,1693279,confidence_buffer,,null,,,,,,,,,,,,,,,,,,
4340.0999999940395,,pt2_unique_rating,1697620,Fictional_Cities_List/img_manmade_41.png,,49,,,1,,,,,,,,,,,,,,,
null,,confidence_buffer,1697722,confidence_buffer,,null,,,,,,,,,,,,,,,,,,
4982.0999999940395,,pt2_memorable_rating,1702705,Fictional_Cities_List/img_manmade_41.png,,51,,,3,,,,,,,,,,,,,,,
null,,confidence_buffer,1702807,confidence_buffer,,null,,,,,,,,,,,,,,,,,,
9494.5,,recognition_phase,1712303,Fictional_Cities_List/img_manmade_41.png,,52,,,,,,new,1,0.875,,,,,,,,,,
null,,confidence_buffer,1712405,confidence_buffer,,null,,,,,,,,,,,,,,,,,,
null,,thebreak,1712907,break,,null,,,,,,,,,,,,,,,,,,
8119.10000000149,,pt2_realistic_rating,1721028,US_Cities_List/nat_shreveport.png,,51,US_Cities_List/nat_shreveport.png,NAT,3,,,,,,,,,,,,,,,
null,,confidence_buffer,1721130,confidence_buffer,,null,,,,,,,,,,,,,,,,,,
4800.89999999851,,pt2_unique_rating,1725932,US_Cities_List/nat_shreveport.png,,50,,,2,,,,,,,,,,,,,,,
null,,confidence_buffer,1726033,confidence_buffer,,null,,,,,,,,,,,,,,,,,,
3223.4000000059605,,probe_rating,1729258,probe_rating,,52,,,,4,1,,,,,,,,,,,,,
null,,confidence_buffer,1729361,confidence_buffer,,null,,,,,,,,,,,,,,,,,,
5718.5,,pt2_memorable_rating,1735080,US_Cities_List/nat_shreveport.png,,52,,,4,,,,,,,,,,,,,,,
null,,confidence_buffer,1735183,confidence_buffer,,null,,,,,,,,,,,,,,,,,,
4592.5,,recognition_phase,1739777,US_Cities_List/nat_shreveport.png,,49,,,,,,old,1,0.8823529411764706,,,,,,,,,,
null,,confidence_buffer,1739878,confidence_buffer,,null,,,,,,,,,,,,,,,,,,
null,,thebreak,1740380,break,,null,,,,,,,,,,,,,,,,,,
6056.39999999851,,pt2_realistic_rating,1746437,Fictional_Cities_List/img_natural_18.png,,50,Fictional_Cities_List/img_natural_18.png,NAT,2,,,,,,,,,,,,,,,
null,,confidence_buffer,1746540,confidence_buffer,,null,,,,,,,,,,,,,,,,,,
11672.70000000298,,pt2_unique_rating,1758214,Fictional_Cities_List/img_natural_18.png,,51,,,3,,,,,,,,,,,,,,,
null,,confidence_buffer,1758317,confidence_buffer,,null,,,,,,,,,,,,,,,,,,
6658.89999999851,,pt2_memorable_rating,1764978,Fictional_Cities_List/img_natural_18.png,,52,,,4,,,,,,,,,,,,,,,
null,,confidence_buffer,1765080,confidence_buffer,,null,,,,,,,,,,,,,,,,,,
4635,,recognition_phase,1769716,Fictional_Cities_List/img_natural_18.png,,49,,,,,,old,1,0.8888888888888888,,,,,,,,,,
null,,confidence_buffer,1769818,confidence_buffer,,null,,,,,,,,,,,,,,,,,,
null,,thebreak,1770323,break,,null,,,,,,,,,,,,,,,,,,
11212.10000000149,,pt2_realistic_rating,1781536,Fictional_Cities_List/img_manmade_03.png,,50,Fictional_Cities_List/img_manmade_03.png,MM,2,,,,,,,,,,,,,,,
null,,confidence_buffer,1781639,confidence_buffer,,null,,,,,,,,,,,,,,,,,,
7751.79999999702,,pt2_unique_rating,1789392,Fictional_Cities_List/img_manmade_03.png,,52,,,4,,,,,,,,,,,,,,,
null,,confidence_buffer,1789493,confidence_buffer,,null,,,,,,,,,,,,,,,,,,
4380.60000000149,,pt2_memorable_rating,1793875,Fictional_Cities_List/img_manmade_03.png,,52,,,4,,,,,,,,,,,,,,,
null,,confidence_buffer,1793977,confidence_buffer,,null,,,,,,,,,,,,,,,,,,
4308.10000000149,,recognition_phase,1798287,Fictional_Cities_List/img_manmade_03.png,,49,,,,,,old,1,0.8947368421052632,,,,,,,,,,
null,,confidence_buffer,1798388,confidence_buffer,,null,,,,,,,,,,,,,,,,,,
null,,thebreak,1798889,break,,null,,,,,,,,,,,,,,,,,,
11950.10000000149,,pt2_realistic_rating,1810841,US_Cities_List/nat_barharbor.png,,52,US_Cities_List/nat_barharbor.png,NAT,4,,,,,,,,,,,,,,,
null,,confidence_buffer,1810943,confidence_buffer,,null,,,,,,,,,,,,,,,,,,
6651.5,,pt2_unique_rating,1817596,US_Cities_List/nat_barharbor.png,,50,,,2,,,,,,,,,,,,,,,
null,,confidence_buffer,1817698,confidence_buffer,,null,,,,,,,,,,,,,,,,,,
4973.5,,pt2_memorable_rating,1822672,US_Cities_List/nat_barharbor.png,,52,,,4,,,,,,,,,,,,,,,
null,,confidence_buffer,1822775,confidence_buffer,,null,,,,,,,,,,,,,,,,,,
7560.0999999940395,,recognition_phase,1830336,US_Cities_List/nat_barharbor.png,,51,,,,,,new,1,0.9,,,,,,,,,,
null,,confidence_buffer,1830437,confidence_buffer,,null,,,,,,,,,,,,,,,,,,
null,,thebreak,1830938,break,,null,,,,,,,,,,,,,,,,,,
23501.60000000149,,pt2_realistic_rating,1854441,US_Cities_List/nat_capemay.png,,52,US_Cities_List/nat_capemay.png,NAT,4,,,,,,,,,,,,,,,
null,,confidence_buffer,1854543,confidence_buffer,,null,,,,,,,,,,,,,,,,,,
5699.4000000059605,,pt2_unique_rating,1860244,US_Cities_List/nat_capemay.png,,49,,,1,,,,,,,,,,,,,,,
null,,confidence_buffer,1860347,confidence_buffer,,null,,,,,,,,,,,,,,,,,,
3390.2999999970198,,pt2_memorable_rating,1863738,US_Cities_List/nat_capemay.png,,51,,,3,,,,,,,,,,,,,,,
null,,confidence_buffer,1863840,confidence_buffer,,null,,,,,,,,,,,,,,,,,,
7474.29999999702,,recognition_phase,1871315,US_Cities_List/nat_capemay.png,,50,,,,,,old,1,0.9047619047619048,,,,,,,,,,
null,,confidence_buffer,1871418,confidence_buffer,,null,,,,,,,,,,,,,,,,,,
null,,thebreak,1871919,break,,null,,,,,,,,,,,,,,,,,,
7932.20000000298,,pt2_realistic_rating,1879852,Fictional_Cities_List/img_manmade_18.png,,52,Fictional_Cities_List/img_manmade_18.png,MM,4,,,,,,,,,,,,,,,
null,,confidence_buffer,1879955,confidence_buffer,,null,,,,,,,,,,,,,,,,,,
4902.79999999702,,pt2_unique_rating,1884859,Fictional_Cities_List/img_manmade_18.png,,49,,,1,,,,,,,,,,,,,,,
null,,confidence_buffer,1884962,confidence_buffer,,null,,,,,,,,,,,,,,,,,,
3499.89999999851,,pt2_memorable_rating,1888463,Fictional_Cities_List/img_manmade_18.png,,51,,,3,,,,,,,,,,,,,,,
null,,confidence_buffer,1888566,confidence_buffer,,null,,,,,,,,,,,,,,,,,,
12191.89999999851,,recognition_phase,1900760,Fictional_Cities_List/img_manmade_18.png,,51,,,,,,new,1,0.9090909090909091,,,,,,,,,,
null,,confidence_buffer,1900862,confidence_buffer,,null,,,,,,,,,,,,,,,,,,
null,,thebreak,1901364,break,,null,,,,,,,,,,,,,,,,,,
24326.60000000149,,pt2_realistic_rating,1925692,US_Cities_List/nat_follybeach.png,,52,US_Cities_List/nat_follybeach.png,NAT,4,,,,,,,,,,,,,,,
null,,confidence_buffer,1925794,confidence_buffer,,null,,,,,,,,,,,,,,,,,,
5228.29999999702,,pt2_unique_rating,1931024,US_Cities_List/nat_follybeach.png,,50,,,2,,,,,,,,,,,,,,,
null,,confidence_buffer,1931126,confidence_buffer,,null,,,,,,,,,,,,,,,,,,
8612.20000000298,,pt2_memorable_rating,1939739,US_Cities_List/nat_follybeach.png,,52,,,4,,,,,,,,,,,,,,,
null,,confidence_buffer,1939840,confidence_buffer,,null,,,,,,,,,,,,,,,,,,
11897.30000000447,,recognition_phase,1951738,US_Cities_List/nat_follybeach.png,,51,,,,,,new,1,0.9130434782608695,,,,,,,,,,
null,,confidence_buffer,1951841,confidence_buffer,,null,,,,,,,,,,,,,,,,,,
null,,thebreak,1952343,break,,null,,,,,,,,,,,,,,,,,,
10628.69999999553,,pt2_realistic_rating,1962973,Fictional_Cities_List/img_manmade_30.png,,50,Fictional_Cities_List/img_manmade_30.png,MM,2,,,,,,,,,,,,,,,
null,,confidence_buffer,1963076,confidence_buffer,,null,,,,,,,,,,,,,,,,,,
5782.20000000298,,pt2_unique_rating,1968859,Fictional_Cities_List/img_manmade_30.png,,52,,,4,,,,,,,,,,,,,,,
null,,confidence_buffer,1968962,confidence_buffer,,null,,,,,,,,,,,,,,,,,,
2877.89999999851,,pt2_memorable_rating,1971841,Fictional_Cities_List/img_manmade_30.png,,52,,,4,,,,,,,,,,,,,,,
null,,confidence_buffer,1971944,confidence_buffer,,null,,,,,,,,,,,,,,,,,,
4450.20000000298,,recognition_phase,1976395,Fictional_Cities_List/img_manmade_30.png,,49,,,,,,old,1,0.9166666666666666,,,,,,,,,,
null,,confidence_buffer,1976497,confidence_buffer,,null,,,,,,,,,,,,,,,,,,
null,,thebreak,1977007,break,,null,,,,,,,,,,,,,,,,,,
6996.79999999702,,pt2_realistic_rating,1984006,Fictional_Cities_List/img_natural_30.png,,52,Fictional_Cities_List/img_natural_30.png,NAT,4,,,,,,,,,,,,,,,
null,,confidence_buffer,1984107,confidence_buffer,,null,,,,,,,,,,,,,,,,,,
12034.70000000298,,pt2_unique_rating,1996143,Fictional_Cities_List/img_natural_30.png,,51,,,3,,,,,,,,,,,,,,,
null,,confidence_buffer,1996246,confidence_buffer,,null,,,,,,,,,,,,,,,,,,
15800.69999999553,,pt2_memorable_rating,2012048,Fictional_Cities_List/img_natural_30.png,,52,,,4,,,,,,,,,,,,,,,
null,,confidence_buffer,2012150,confidence_buffer,,null,,,,,,,,,,,,,,,,,,
6500.5,,recognition_phase,2018652,Fictional_Cities_List/img_natural_30.png,,49,,,,,,old,1,0.92,,,,,,,,,,
null,,confidence_buffer,2018755,confidence_buffer,,null,,,,,,,,,,,,,,,,,,
null,,thebreak,2019258,break,,null,,,,,,,,,,,,,,,,,,
6894.60000000149,,pt2_realistic_rating,2026153,US_Cities_List/nat_lakeoftheozarks.png,,52,US_Cities_List/nat_lakeoftheozarks.png,NAT,4,,,,,,,,,,,,,,,
null,,confidence_buffer,2026262,confidence_buffer,,null,,,,,,,,,,,,,,,,,,
8966.5,,pt2_unique_rating,2035230,US_Cities_List/nat_lakeoftheozarks.png,,49,,,1,,,,,,,,,,,,,,,
null,,confidence_buffer,2035331,confidence_buffer,,null,,,,,,,,,,,,,,,,,,
5656,,pt2_memorable_rating,2040988,US_Cities_List/nat_lakeoftheozarks.png,,51,,,3,,,,,,,,,,,,,,,
null,,confidence_buffer,2041090,confidence_buffer,,null,,,,,,,,,,,,,,,,,,
4879.5,,recognition_phase,2045971,US_Cities_List/nat_lakeoftheozarks.png,,50,,,,,,old,0,0.8846153846153846,,,,,,,,,,
null,,confidence_buffer,2046073,confidence_buffer,,null,,,,,,,,,,,,,,,,,,
null,,thebreak,2046574,break,,null,,,,,,,,,,,,,,,,,,
8427.39999999851,,pt2_realistic_rating,2055002,Fictional_Cities_List/img_natural_47.png,,52,Fictional_Cities_List/img_natural_47.png,NAT,4,,,,,,,,,,,,,,,
null,,confidence_buffer,2055104,confidence_buffer,,null,,,,,,,,,,,,,,,,,,
5480.5,,pt2_unique_rating,2060585,Fictional_Cities_List/img_natural_47.png,,50,,,2,,,,,,,,,,,,,,,
null,,confidence_buffer,2060688,confidence_buffer,,null,,,,,,,,,,,,,,,,,,
11511.39999999851,,pt2_memorable_rating,2072200,Fictional_Cities_List/img_natural_47.png,,52,,,4,,,,,,,,,,,,,,,
null,,confidence_buffer,2072303,confidence_buffer,,null,,,,,,,,,,,,,,,,,,
32444.70000000298,,recognition_phase,2104749,Fictional_Cities_List/img_natural_47.png,,49,,,,,,old,1,0.8888888888888888,,,,,,,,,,
null,,confidence_buffer,2104852,confidence_buffer,,null,,,,,,,,,,,,,,,,,,
null,,thebreak,2105367,break,,null,,,,,,,,,,,,,,,,,,
7375.5,,pt2_realistic_rating,2112744,US_Cities_List/mm_watkinsglen.png,,52,US_Cities_List/mm_watkinsglen.png,MM,4,,,,,,,,,,,,,,,
null,,confidence_buffer,2112853,confidence_buffer,,null,,,,,,,,,,,,,,,,,,
6845.79999999702,,pt2_unique_rating,2119701,US_Cities_List/mm_watkinsglen.png,,50,,,2,,,,,,,,,,,,,,,
null,,confidence_buffer,2119803,confidence_buffer,,null,,,,,,,,,,,,,,,,,,
9335,,pt2_memorable_rating,2129139,US_Cities_List/mm_watkinsglen.png,,53,,,5,,,,,,,,,,,,,,,
null,,confidence_buffer,2129241,confidence_buffer,,null,,,,,,,,,,,,,,,,,,
10911.80000000447,,recognition_phase,2140155,US_Cities_List/mm_watkinsglen.png,,52,,,,,,new,1,0.8928571428571429,,,,,,,,,,
null,,confidence_buffer,2140263,confidence_buffer,,null,,,,,,,,,,,,,,,,,,
null,,thebreak,2140764,break,,null,,,,,,,,,,,,,,,,,,
404893.6000000015,,pt2_realistic_rating,2545660,US_Cities_List/nat_gatlinburg.png,,51,US_Cities_List/nat_gatlinburg.png,NAT,3,,,,,,,,,,,,,,,
null,,confidence_buffer,2545764,confidence_buffer,,null,,,,,,,,,,,,,,,,,,
4788.80000000447,,pt2_unique_rating,2550553,US_Cities_List/nat_gatlinburg.png,,50,,,2,,,,,,,,,,,,,,,
null,,confidence_buffer,2550656,confidence_buffer,,null,,,,,,,,,,,,,,,,,,
16827.29999999702,,pt2_memorable_rating,2567485,US_Cities_List/nat_gatlinburg.png,,52,,,4,,,,,,,,,,,,,,,
null,,confidence_buffer,2567587,confidence_buffer,,null,,,,,,,,,,,,,,,,,,
4192.89999999851,,recognition_phase,2571782,US_Cities_List/nat_gatlinburg.png,,49,,,,,,old,0,0.8620689655172413,,,,,,,,,,
null,,confidence_buffer,2571884,confidence_buffer,,null,,,,,,,,,,,,,,,,,,
null,,thebreak,2572386,break,,null,,,,,,,,,,,,,,,,,,
27936.39999999851,,pt2_realistic_rating,2600324,Fictional_Cities_List/img_natural_04.png,,51,Fictional_Cities_List/img_natural_04.png,NAT,3,,,,,,,,,,,,,,,
null,,confidence_buffer,2600426,confidence_buffer,,null,,,,,,,,,,,,,,,,,,
14628.80000000447,,pt2_unique_rating,2615056,Fictional_Cities_List/img_natural_04.png,,51,,,3,,,,,,,,,,,,,,,
null,,confidence_buffer,2615158,confidence_buffer,,null,,,,,,,,,,,,,,,,,,
17062.19999999553,,pt2_memorable_rating,2632222,Fictional_Cities_List/img_natural_04.png,,51,,,3,,,,,,,,,,,,,,,
null,,confidence_buffer,2632324,confidence_buffer,,null,,,,,,,,,,,,,,,,,,
29535.59999999404,,recognition_phase,2661861,Fictional_Cities_List/img_natural_04.png,,50,,,,,,old,0,0.8333333333333334,,,,,,,,,,
null,,confidence_buffer,2661964,confidence_buffer,,null,,,,,,,,,,,,,,,,,,
null,,thebreak,2662465,break,,null,,,,,,,,,,,,,,,,,,
25206.59999999404,,pt2_realistic_rating,2687673,US_Cities_List/mm_lakeoftheozarks.png,,49,US_Cities_List/mm_lakeoftheozarks.png,MM,1,,,,,,,,,,,,,,,
null,,confidence_buffer,2687781,confidence_buffer,,null,,,,,,,,,,,,,,,,,,
8794.10000000149,,pt2_unique_rating,2696577,US_Cities_List/mm_lakeoftheozarks.png,,53,,,5,,,,,,,,,,,,,,,
null,,confidence_buffer,2696680,confidence_buffer,,null,,,,,,,,,,,,,,,,,,
6862.5,,pt2_memorable_rating,2703543,US_Cities_List/mm_lakeoftheozarks.png,,53,,,5,,,,,,,,,,,,,,,
null,,confidence_buffer,2703645,confidence_buffer,,null,,,,,,,,,,,,,,,,,,
4501,,recognition_phase,2708148,US_Cities_List/mm_lakeoftheozarks.png,,49,,,,,,old,1,0.8387096774193549,,,,,,,,,,
null,,confidence_buffer,2708251,confidence_buffer,,null,,,,,,,,,,,,,,,,,,
null,,thebreak,2708753,break,,null,,,,,,,,,,,,,,,,,,
8142,,pt2_realistic_rating,2716897,US_Cities_List/nat_alliance.png,,53,US_Cities_List/nat_alliance.png,NAT,5,,,,,,,,,,,,,,,
null,,confidence_buffer,2717014,confidence_buffer,,null,,,,,,,,,,,,,,,,,,
6103.20000000298,,pt2_unique_rating,2723118,US_Cities_List/nat_alliance.png,,50,,,2,,,,,,,,,,,,,,,
null,,confidence_buffer,2723220,confidence_buffer,,null,,,,,,,,,,,,,,,,,,
5191.39999999851,,pt2_memorable_rating,2728412,US_Cities_List/nat_alliance.png,,51,,,3,,,,,,,,,,,,,,,
null,,confidence_buffer,2728515,confidence_buffer,,null,,,,,,,,,,,,,,,,,,
4918.60000000149,,probe_rating,2733436,probe_rating,,53,,,,5,1,,,,,,,,,,,,,
null,,confidence_buffer,2733539,confidence_buffer,,null,,,,,,,,,,,,,,,,,,
5493,,recognition_phase,2739033,US_Cities_List/nat_alliance.png,,49,,,,,,old,1,0.84375,,,,,,,,,,
null,,confidence_buffer,2739135,confidence_buffer,,null,,,,,,,,,,,,,,,,,,
null,,thebreak,2739637,break,,null,,,,,,,,,,,,,,,,,,
7666.29999999702,,pt2_realistic_rating,2747306,US_Cities_List/nat_barnard.png,,53,US_Cities_List/nat_barnard.png,NAT,5,,,,,,,,,,,,,,,
null,,confidence_buffer,2747407,confidence_buffer,,null,,,,,,,,,,,,,,,,,,
5032.5,,pt2_unique_rating,2752441,US_Cities_List/nat_barnard.png,,50,,,2,,,,,,,,,,,,,,,
null,,confidence_buffer,2752542,confidence_buffer,,null,,,,,,,,,,,,,,,,,,
3755,,pt2_memorable_rating,2756298,US_Cities_List/nat_barnard.png,,51,,,3,,,,,,,,,,,,,,,
null,,confidence_buffer,2756400,confidence_buffer,,null,,,,,,,,,,,,,,,,,,
5455,,recognition_phase,2761857,US_Cities_List/nat_barnard.png,,50,,,,,,old,0,0.8181818181818182,,,,,,,,,,
null,,confidence_buffer,2761959,confidence_buffer,,null,,,,,,,,,,,,,,,,,,
null,,thebreak,2762463,break,,null,,,,,,,,,,,,,,,,,,
9314.80000000447,,pt2_realistic_rating,2771779,US_Cities_List/mm_berkeleysprings.png,,52,US_Cities_List/mm_berkeleysprings.png,MM,4,,,,,,,,,,,,,,,
null,,confidence_buffer,2771881,confidence_buffer,,null,,,,,,,,,,,,,,,,,,
4229.89999999851,,pt2_unique_rating,2776112,US_Cities_List/mm_berkeleysprings.png,,50,,,2,,,,,,,,,,,,,,,
null,,confidence_buffer,2776214,confidence_buffer,,null,,,,,,,,,,,,,,,,,,
7367.9000000059605,,pt2_memorable_rating,2783582,US_Cities_List/mm_berkeleysprings.png,,52,,,4,,,,,,,,,,,,,,,
null,,confidence_buffer,2783684,confidence_buffer,,null,,,,,,,,,,,,,,,,,,
4901.5,,probe_rating,2788588,probe_rating,,53,,,,5,1,,,,,,,,,,,,,
null,,confidence_buffer,2788690,confidence_buffer,,null,,,,,,,,,,,,,,,,,,
5877.60000000149,,recognition_phase,2794569,US_Cities_List/mm_berkeleysprings.png,,50,,,,,,old,1,0.8235294117647058,,,,,,,,,,
null,,confidence_buffer,2794671,confidence_buffer,,null,,,,,,,,,,,,,,,,,,
null,,thebreak,2795172,break,,null,,,,,,,,,,,,,,,,,,
19682.5,,pt2_realistic_rating,2814856,US_Cities_List/mm_custer.png,,50,US_Cities_List/mm_custer.png,MM,2,,,,,,,,,,,,,,,
null,,confidence_buffer,2814958,confidence_buffer,,null,,,,,,,,,,,,,,,,,,
7769.70000000298,,pt2_unique_rating,2822729,US_Cities_List/mm_custer.png,,52,,,4,,,,,,,,,,,,,,,
null,,confidence_buffer,2822831,confidence_buffer,,null,,,,,,,,,,,,,,,,,,
5800.5,,pt2_memorable_rating,2828632,US_Cities_List/mm_custer.png,,53,,,5,,,,,,,,,,,,,,,
null,,confidence_buffer,2828735,confidence_buffer,,null,,,,,,,,,,,,,,,,,,
3776.89999999851,,recognition_phase,2832513,US_Cities_List/mm_custer.png,,49,,,,,,old,1,0.8285714285714286,,,,,,,,,,
null,,confidence_buffer,2832615,confidence_buffer,,null,,,,,,,,,,,,,,,,,,
null,,thebreak,2833116,break,,null,,,,,,,,,,,,,,,,,,
13017.89999999851,,pt2_realistic_rating,2846135,Fictional_Cities_List/img_natural_06.png,,51,Fictional_Cities_List/img_natural_06.png,NAT,3,,,,,,,,,,,,,,,
null,,confidence_buffer,2846238,confidence_buffer,,null,,,,,,,,,,,,,,,,,,
12821.09999999404,,pt2_unique_rating,2859060,Fictional_Cities_List/img_natural_06.png,,51,,,3,,,,,,,,,,,,,,,
null,,confidence_buffer,2859162,confidence_buffer,,null,,,,,,,,,,,,,,,,,,
2553.10000000149,,pt2_memorable_rating,2861716,Fictional_Cities_List/img_natural_06.png,,51,,,3,,,,,,,,,,,,,,,
null,,confidence_buffer,2861818,confidence_buffer,,null,,,,,,,,,,,,,,,,,,
2855.7000000029802,,probe_rating,2864674,probe_rating,,51,,,,3,1,,,,,,,,,,,,,
null,,confidence_buffer,2864787,confidence_buffer,,null,,,,,,,,,,,,,,,,,,
3924.39999999851,,recognition_phase,2868713,Fictional_Cities_List/img_natural_06.png,,50,,,,,,old,0,0.8055555555555556,,,,,,,,,,
null,,confidence_buffer,2868815,confidence_buffer,,null,,,,,,,,,,,,,,,,,,
null,,thebreak,2869316,break,,null,,,,,,,,,,,,,,,,,,
8707.60000000149,,pt2_realistic_rating,2878025,US_Cities_List/mm_westpalmbeach.png,,49,US_Cities_List/mm_westpalmbeach.png,MM,1,,,,,,,,,,,,,,,
null,,confidence_buffer,2878126,confidence_buffer,,null,,,,,,,,,,,,,,,,,,
6803,,pt2_unique_rating,2884930,US_Cities_List/mm_westpalmbeach.png,,52,,,4,,,,,,,,,,,,,,,
null,,confidence_buffer,2885032,confidence_buffer,,null,,,,,,,,,,,,,,,,,,
4333,,pt2_memorable_rating,2889366,US_Cities_List/mm_westpalmbeach.png,,53,,,5,,,,,,,,,,,,,,,
null,,confidence_buffer,2889470,confidence_buffer,,null,,,,,,,,,,,,,,,,,,
11188.89999999851,,recognition_phase,2900662,US_Cities_List/mm_westpalmbeach.png,,52,,,,,,new,1,0.8108108108108109,,,,,,,,,,
null,,confidence_buffer,2900764,confidence_buffer,,null,,,,,,,,,,,,,,,,,,
null,,thebreak,2901265,break,,null,,,,,,,,,,,,,,,,,,
7773,,pt2_realistic_rating,2909039,Fictional_Cities_List/img_manmade_38.png,,50,Fictional_Cities_List/img_manmade_38.png,MM,2,,,,,,,,,,,,,,,
null,,confidence_buffer,2909141,confidence_buffer,,null,,,,,,,,,,,,,,,,,,
4408.79999999702,,pt2_unique_rating,2913551,Fictional_Cities_List/img_manmade_38.png,,52,,,4,,,,,,,,,,,,,,,
null,,confidence_buffer,2913655,confidence_buffer,,null,,,,,,,,,,,,,,,,,,
8609.5,,pt2_memorable_rating,2922265,Fictional_Cities_List/img_manmade_38.png,,53,,,5,,,,,,,,,,,,,,,
null,,confidence_buffer,2922368,confidence_buffer,,null,,,,,,,,,,,,,,,,,,
4857.69999999553,,recognition_phase,2927227,Fictional_Cities_List/img_manmade_38.png,,50,,,,,,old,0,0.7894736842105263,,,,,,,,,,
null,,confidence_buffer,2927328,confidence_buffer,,null,,,,,,,,,,,,,,,,,,
null,,thebreak,2927829,break,,null,,,,,,,,,,,,,,,,,,
8791.60000000149,,pt2_realistic_rating,2936623,US_Cities_List/nat_berkeleysprings.png,,52,US_Cities_List/nat_berkeleysprings.png,NAT,4,,,,,,,,,,,,,,,
null,,confidence_buffer,2936725,confidence_buffer,,null,,,,,,,,,,,,,,,,,,
3150.8000000044703,,pt2_unique_rating,2939877,US_Cities_List/nat_berkeleysprings.png,,50,,,2,,,,,,,,,,,,,,,
null,,confidence_buffer,2939979,confidence_buffer,,null,,,,,,,,,,,,,,,,,,
7833.19999999553,,pt2_memorable_rating,2947813,US_Cities_List/nat_berkeleysprings.png,,51,,,3,,,,,,,,,,,,,,,
null,,confidence_buffer,2947916,confidence_buffer,,null,,,,,,,,,,,,,,,,,,
3045.5,,recognition_phase,2950963,US_Cities_List/nat_berkeleysprings.png,,50,,,,,,old,0,0.7692307692307693,,,,,,,,,,
null,,confidence_buffer,2951065,confidence_buffer,,null,,,,,,,,,,,,,,,,,,
null,,thebreak,2951567,break,,null,,,,,,,,,,,,,,,,,,
18715.10000000149,,pt2_realistic_rating,2970283,Fictional_Cities_List/img_natural_41.png,,52,Fictional_Cities_List/img_natural_41.png,NAT,4,,,,,,,,,,,,,,,
null,,confidence_buffer,2970390,confidence_buffer,,null,,,,,,,,,,,,,,,,,,
4482.5,,pt2_unique_rating,2974874,Fictional_Cities_List/img_natural_41.png,,50,,,2,,,,,,,,,,,,,,,
null,,confidence_buffer,2974982,confidence_buffer,,null,,,,,,,,,,,,,,,,,,
3069.2999999970198,,pt2_memorable_rating,2978053,Fictional_Cities_List/img_natural_41.png,,51,,,3,,,,,,,,,,,,,,,
null,,confidence_buffer,2978155,confidence_buffer,,null,,,,,,,,,,,,,,,,,,
2819.39999999851,,recognition_phase,2980977,Fictional_Cities_List/img_natural_41.png,,49,,,,,,old,0,0.75,,,,,,,,,,
null,,confidence_buffer,2981082,confidence_buffer,,null,,,,,,,,,,,,,,,,,,
null,,thebreak,2981583,break,,null,,,,,,,,,,,,,,,,,,
5794.10000000149,,pt2_realistic_rating,2987378,Fictional_Cities_List/img_natural_45.png,,50,Fictional_Cities_List/img_natural_45.png,NAT,2,,,,,,,,,,,,,,,
null,,confidence_buffer,2987481,confidence_buffer,,null,,,,,,,,,,,,,,,,,,
7635.89999999851,,pt2_unique_rating,2995118,Fictional_Cities_List/img_natural_45.png,,50,,,2,,,,,,,,,,,,,,,
null,,confidence_buffer,2995221,confidence_buffer,,null,,,,,,,,,,,,,,,,,,
3694.39999999851,,pt2_memorable_rating,2998916,Fictional_Cities_List/img_natural_45.png,,51,,,3,,,,,,,,,,,,,,,
null,,confidence_buffer,2999018,confidence_buffer,,null,,,,,,,,,,,,,,,,,,
3857.5,,recognition_phase,3002877,Fictional_Cities_List/img_natural_45.png,,49,,,,,,old,1,0.7560975609756098,,,,,,,,,,
null,,confidence_buffer,3002981,confidence_buffer,,null,,,,,,,,,,,,,,,,,,
null,,thebreak,3003483,break,,null,,,,,,,,,,,,,,,,,,
12170.5,,pt2_realistic_rating,3015656,Fictional_Cities_List/img_manmade_04.png,,52,Fictional_Cities_List/img_manmade_04.png,MM,4,,,,,,,,,,,,,,,
null,,confidence_buffer,3015769,confidence_buffer,,null,,,,,,,,,,,,,,,,,,
4265.60000000149,,pt2_unique_rating,3020036,Fictional_Cities_List/img_manmade_04.png,,50,,,2,,,,,,,,,,,,,,,
null,,confidence_buffer,3020148,confidence_buffer,,null,,,,,,,,,,,,,,,,,,
8734.90000000596,,pt2_memorable_rating,3028885,Fictional_Cities_List/img_manmade_04.png,,52,,,4,,,,,,,,,,,,,,,
null,,confidence_buffer,3028987,confidence_buffer,,null,,,,,,,,,,,,,,,,,,
2753.89999999851,,recognition_phase,3031742,Fictional_Cities_List/img_manmade_04.png,,49,,,,,,old,1,0.7619047619047619,,,,,,,,,,
null,,confidence_buffer,3031844,confidence_buffer,,null,,,,,,,,,,,,,,,,,,
null,,thebreak,3032346,break,,null,,,,,,,,,,,,,,,,,,
21274.59999999404,,pt2_realistic_rating,3053622,US_Cities_List/mm_newhope.png,,53,US_Cities_List/mm_newhope.png,MM,5,,,,,,,,,,,,,,,
null,,confidence_buffer,3053724,confidence_buffer,,null,,,,,,,,,,,,,,,,,,
5311.30000000447,,pt2_unique_rating,3059036,US_Cities_List/mm_newhope.png,,50,,,2,,,,,,,,,,,,,,,
null,,confidence_buffer,3059138,confidence_buffer,,null,,,,,,,,,,,,,,,,,,
4337.60000000149,,probe_rating,3063477,probe_rating,,53,,,,5,1,,,,,,,,,,,,,
null,,confidence_buffer,3063580,confidence_buffer,,null,,,,,,,,,,,,,,,,,,
8039.70000000298,,pt2_memorable_rating,3071621,US_Cities_List/mm_newhope.png,,51,,,3,,,,,,,,,,,,,,,
null,,confidence_buffer,3071723,confidence_buffer,,null,,,,,,,,,,,,,,,,,,
2568.39999999851,,recognition_phase,3074293,US_Cities_List/mm_newhope.png,,49,,,,,,old,1,0.7674418604651163,,,,,,,,,,
null,,confidence_buffer,3074396,confidence_buffer,,null,,,,,,,,,,,,,,,,,,
null,,thebreak,3074898,break,,null,,,,,,,,,,,,,,,,,,
6824.60000000149,,pt2_realistic_rating,3081723,Fictional_Cities_List/img_manmade_32.png,,50,Fictional_Cities_List/img_manmade_32.png,MM,2,,,,,,,,,,,,,,,
null,,confidence_buffer,3081826,confidence_buffer,,null,,,,,,,,,,,,,,,,,,
4771.20000000298,,pt2_unique_rating,3086598,Fictional_Cities_List/img_manmade_32.png,,50,,,2,,,,,,,,,,,,,,,
null,,confidence_buffer,3086700,confidence_buffer,,null,,,,,,,,,,,,,,,,,,
4020.7000000029802,,pt2_memorable_rating,3090722,Fictional_Cities_List/img_manmade_32.png,,52,,,4,,,,,,,,,,,,,,,
null,,confidence_buffer,3090826,confidence_buffer,,null,,,,,,,,,,,,,,,,,,
17231.89999999851,,recognition_phase,3108060,Fictional_Cities_List/img_manmade_32.png,,51,,,,,,new,1,0.7727272727272727,,,,,,,,,,
null,,confidence_buffer,3108162,confidence_buffer,,null,,,,,,,,,,,,,,,,,,
null,,thebreak,3108664,break,,null,,,,,,,,,,,,,,,,,,
12395.10000000149,,pt2_realistic_rating,3121060,Fictional_Cities_List/img_natural_32.png,,52,Fictional_Cities_List/img_natural_32.png,NAT,4,,,,,,,,,,,,,,,
null,,confidence_buffer,3121162,confidence_buffer,,null,,,,,,,,,,,,,,,,,,
4775.5,,pt2_unique_rating,3125939,Fictional_Cities_List/img_natural_32.png,,52,,,4,,,,,,,,,,,,,,,
null,,confidence_buffer,3126054,confidence_buffer,,null,,,,,,,,,,,,,,,,,,
17442.69999999553,,pt2_memorable_rating,3143499,Fictional_Cities_List/img_natural_32.png,,53,,,5,,,,,,,,,,,,,,,
null,,confidence_buffer,3143600,confidence_buffer,,null,,,,,,,,,,,,,,,,,,
3033.60000000149,,recognition_phase,3146635,Fictional_Cities_List/img_natural_32.png,,49,,,,,,old,1,0.7777777777777778,,,,,,,,,,
null,,confidence_buffer,3146736,confidence_buffer,,null,,,,,,,,,,,,,,,,,,
null,,thebreak,3147239,break,,null,,,,,,,,,,,,,,,,,,
6589.39999999851,,pt2_realistic_rating,3153829,Fictional_Cities_List/img_manmade_36.png,,50,Fictional_Cities_List/img_manmade_36.png,MM,2,,,,,,,,,,,,,,,
null,,confidence_buffer,3153930,confidence_buffer,,null,,,,,,,,,,,,,,,,,,
17463.09999999404,,pt2_unique_rating,3171395,Fictional_Cities_List/img_manmade_36.png,,50,,,2,,,,,,,,,,,,,,,
null,,confidence_buffer,3171496,confidence_buffer,,null,,,,,,,,,,,,,,,,,,
5142.89999999851,,pt2_memorable_rating,3176641,Fictional_Cities_List/img_manmade_36.png,,52,,,4,,,,,,,,,,,,,,,
null,,confidence_buffer,3176743,confidence_buffer,,null,,,,,,,,,,,,,,,,,,
2664.7000000029802,,recognition_phase,3179409,Fictional_Cities_List/img_manmade_36.png,,49,,,,,,old,0,0.7608695652173914,,,,,,,,,,
null,,confidence_buffer,3179511,confidence_buffer,,null,,,,,,,,,,,,,,,,,,
null,,thebreak,3180012,break,,null,,,,,,,,,,,,,,,,,,
8372.29999999702,,pt2_realistic_rating,3188387,Fictional_Cities_List/img_natural_03.png,,50,Fictional_Cities_List/img_natural_03.png,NAT,2,,,,,,,,,,,,,,,
null,,confidence_buffer,3188489,confidence_buffer,,null,,,,,,,,,,,,,,,,,,
7074.20000000298,,pt2_unique_rating,3195564,Fictional_Cities_List/img_natural_03.png,,51,,,3,,,,,,,,,,,,,,,
null,,confidence_buffer,3195666,confidence_buffer,,null,,,,,,,,,,,,,,,,,,
9686.5,,pt2_memorable_rating,3205354,Fictional_Cities_List/img_natural_03.png,,51,,,3,,,,,,,,,,,,,,,
null,,confidence_buffer,3205470,confidence_buffer,,null,,,,,,,,,,,,,,,,,,
4031.7000000029802,,recognition_phase,3209503,Fictional_Cities_List/img_natural_03.png,,50,,,,,,old,0,0.7446808510638298,,,,,,,,,,
null,,confidence_buffer,3209606,confidence_buffer,,null,,,,,,,,,,,,,,,,,,
null,,thebreak,3210108,break,,null,,,,,,,,,,,,,,,,,,
6656.70000000298,,pt2_realistic_rating,3216766,US_Cities_List/mm_athens.png,,52,US_Cities_List/mm_athens.png,MM,4,,,,,,,,,,,,,,,
null,,confidence_buffer,3216868,confidence_buffer,,null,,,,,,,,,,,,,,,,,,
4240.20000000298,,pt2_unique_rating,3221109,US_Cities_List/mm_athens.png,,50,,,2,,,,,,,,,,,,,,,
null,,confidence_buffer,3221212,confidence_buffer,,null,,,,,,,,,,,,,,,,,,
4413,,pt2_memorable_rating,3225626,US_Cities_List/mm_athens.png,,52,,,4,,,,,,,,,,,,,,,
null,,confidence_buffer,3225728,confidence_buffer,,null,,,,,,,,,,,,,,,,,,
3105.2999999970198,,recognition_phase,3228835,US_Cities_List/mm_athens.png,,49,,,,,,old,1,0.75,,,,,,,,,,
null,,confidence_buffer,3228941,confidence_buffer,,null,,,,,,,,,,,,,,,,,,
null,,thebreak,3229443,break,,null,,,,,,,,,,,,,,,,,,
7793.19999999553,,pt2_realistic_rating,3237238,US_Cities_List/nat_livingston.png,,52,US_Cities_List/nat_livingston.png,NAT,4,,,,,,,,,,,,,,,
null,,confidence_buffer,3237341,confidence_buffer,,null,,,,,,,,,,,,,,,,,,
3712.39999999851,,pt2_unique_rating,3241054,US_Cities_List/nat_livingston.png,,51,,,3,,,,,,,,,,,,,,,
null,,confidence_buffer,3241157,confidence_buffer,,null,,,,,,,,,,,,,,,,,,
9696.5,,pt2_memorable_rating,3250855,US_Cities_List/nat_livingston.png,,51,,,3,,,,,,,,,,,,,,,
null,,confidence_buffer,3250957,confidence_buffer,,null,,,,,,,,,,,,,,,,,,
4653.20000000298,,recognition_phase,3255611,US_Cities_List/nat_livingston.png,,51,,,,,,new,1,0.7551020408163265,,,,,,,,,,
null,,confidence_buffer,3255713,confidence_buffer,,null,,,,,,,,,,,,,,,,,,
null,,thebreak,3256215,break,,null,,,,,,,,,,,,,,,,,,
18168.60000000149,,pt2_realistic_rating,3274385,Fictional_Cities_List/img_manmade_40.png,,49,Fictional_Cities_List/img_manmade_40.png,MM,1,,,,,,,,,,,,,,,
null,,confidence_buffer,3274486,confidence_buffer,,null,,,,,,,,,,,,,,,,,,
7834.60000000149,,pt2_unique_rating,3282322,Fictional_Cities_List/img_manmade_40.png,,52,,,4,,,,,,,,,,,,,,,
null,,confidence_buffer,3282423,confidence_buffer,,null,,,,,,,,,,,,,,,,,,
16690.79999999702,,pt2_memorable_rating,3299116,Fictional_Cities_List/img_manmade_40.png,,52,,,4,,,,,,,,,,,,,,,
null,,confidence_buffer,3299218,confidence_buffer,,null,,,,,,,,,,,,,,,,,,
13278.80000000447,,recognition_phase,3312498,Fictional_Cities_List/img_manmade_40.png,,52,,,,,,new,1,0.76,,,,,,,,,,
null,,confidence_buffer,3312601,confidence_buffer,,null,,,,,,,,,,,,,,,,,,
null,,thebreak,3313102,break,,null,,,,,,,,,,,,,,,,,,
25454.5,,pt2_realistic_rating,3338558,Fictional_Cities_List/img_natural_40.png,,53,Fictional_Cities_List/img_natural_40.png,NAT,5,,,,,,,,,,,,,,,
null,,confidence_buffer,3338661,confidence_buffer,,null,,,,,,,,,,,,,,,,,,
8288.40000000596,,pt2_unique_rating,3346951,Fictional_Cities_List/img_natural_40.png,,49,,,1,,,,,,,,,,,,,,,
null,,confidence_buffer,3347052,confidence_buffer,,null,,,,,,,,,,,,,,,,,,
3441.7000000029802,,pt2_memorable_rating,3350495,Fictional_Cities_List/img_natural_40.png,,51,,,3,,,,,,,,,,,,,,,
null,,confidence_buffer,3350597,confidence_buffer,,null,,,,,,,,,,,,,,,,,,
3447.2000000029802,,recognition_phase,3354046,Fictional_Cities_List/img_natural_40.png,,49,,,,,,old,1,0.7647058823529411,,,,,,,,,,
null,,confidence_buffer,3354149,confidence_buffer,,null,,,,,,,,,,,,,,,,,,
null,,thebreak,3354651,break,,null,,,,,,,,,,,,,,,,,,
19494.40000000596,,pt2_realistic_rating,3374147,US_Cities_List/nat_hanover.png,,53,US_Cities_List/nat_hanover.png,NAT,5,,,,,,,,,,,,,,,
null,,confidence_buffer,3374253,confidence_buffer,,null,,,,,,,,,,,,,,,,,,
5453.69999999553,,pt2_unique_rating,3379708,US_Cities_List/nat_hanover.png,,50,,,2,,,,,,,,,,,,,,,
null,,confidence_buffer,3379811,confidence_buffer,,null,,,,,,,,,,,,,,,,,,
2931.10000000149,,pt2_memorable_rating,3382743,US_Cities_List/nat_hanover.png,,51,,,3,,,,,,,,,,,,,,,
null,,confidence_buffer,3382846,confidence_buffer,,null,,,,,,,,,,,,,,,,,,
13297.89999999851,,recognition_phase,3396145,US_Cities_List/nat_hanover.png,,51,,,,,,new,1,0.7692307692307693,,,,,,,,,,
null,,confidence_buffer,3396246,confidence_buffer,,null,,,,,,,,,,,,,,,,,,
null,,thebreak,3396748,break,,null,,,,,,,,,,,,,,,,,,
21927.10000000149,,pt2_realistic_rating,3418676,US_Cities_List/nat_okoboji.png,,50,US_Cities_List/nat_okoboji.png,NAT,2,,,,,,,,,,,,,,,
null,,confidence_buffer,3418783,confidence_buffer,,null,,,,,,,,,,,,,,,,,,
11808.69999999553,,pt2_unique_rating,3430592,US_Cities_List/nat_okoboji.png,,52,,,4,,,,,,,,,,,,,,,
null,,confidence_buffer,3430694,confidence_buffer,,null,,,,,,,,,,,,,,,,,,
15802.80000000447,,pt2_memorable_rating,3446498,US_Cities_List/nat_okoboji.png,,53,,,5,,,,,,,,,,,,,,,
null,,confidence_buffer,3446600,confidence_buffer,,null,,,,,,,,,,,,,,,,,,
4412.5,,probe_rating,3451014,probe_rating,,53,,,,5,1,,,,,,,,,,,,,
null,,confidence_buffer,3451127,confidence_buffer,,null,,,,,,,,,,,,,,,,,,
2935.7999999970198,,recognition_phase,3454064,US_Cities_List/nat_okoboji.png,,49,,,,,,old,1,0.7735849056603774,,,,,,,,,,
null,,confidence_buffer,3454166,confidence_buffer,,null,,,,,,,,,,,,,,,,,,
null,,thebreak,3454668,break,,null,,,,,,,,,,,,,,,,,,
7757.80000000447,,pt2_realistic_rating,3462428,Fictional_Cities_List/img_manmade_06.png,,52,Fictional_Cities_List/img_manmade_06.png,MM,4,,,,,,,,,,,,,,,
null,,confidence_buffer,3462530,confidence_buffer,,null,,,,,,,,,,,,,,,,,,
2864.8000000044703,,pt2_unique_rating,3465396,Fictional_Cities_List/img_manmade_06.png,,50,,,2,,,,,,,,,,,,,,,
null,,confidence_buffer,3465500,confidence_buffer,,null,,,,,,,,,,,,,,,,,,
3142.89999999851,,pt2_memorable_rating,3468644,Fictional_Cities_List/img_manmade_06.png,,51,,,3,,,,,,,,,,,,,,,
null,,confidence_buffer,3468745,confidence_buffer,,null,,,,,,,,,,,,,,,,,,
2753,,recognition_phase,3471500,Fictional_Cities_List/img_manmade_06.png,,49,,,,,,old,1,0.7777777777777778,,,,,,,,,,
null,,confidence_buffer,3471602,confidence_buffer,,null,,,,,,,,,,,,,,,,,,
null,,thebreak,3472104,break,,null,,,,,,,,,,,,,,,,,,
10240.5,,pt2_realistic_rating,3482346,Fictional_Cities_List/img_natural_19.png,,49,Fictional_Cities_List/img_natural_19.png,NAT,1,,,,,,,,,,,,,,,
null,,confidence_buffer,3482448,confidence_buffer,,null,,,,,,,,,,,,,,,,,,
5560.79999999702,,pt2_unique_rating,3488010,Fictional_Cities_List/img_natural_19.png,,52,,,4,,,,,,,,,,,,,,,
null,,confidence_buffer,3488111,confidence_buffer,,null,,,,,,,,,,,,,,,,,,
5944,,pt2_memorable_rating,3494057,Fictional_Cities_List/img_natural_19.png,,53,,,5,,,,,,,,,,,,,,,
null,,confidence_buffer,3494160,confidence_buffer,,null,,,,,,,,,,,,,,,,,,
23294.60000000149,,recognition_phase,3517456,Fictional_Cities_List/img_natural_19.png,,51,,,,,,new,1,0.7818181818181819,,,,,,,,,,
null,,confidence_buffer,3517558,confidence_buffer,,null,,,,,,,,,,,,,,,,,,
null,,thebreak,3518064,break,,null,,,,,,,,,,,,,,,,,,
10825.79999999702,,pt2_realistic_rating,3528892,Fictional_Cities_List/img_manmade_09.png,,53,Fictional_Cities_List/img_manmade_09.png,MM,5,,,,,,,,,,,,,,,
null,,confidence_buffer,3528994,confidence_buffer,,null,,,,,,,,,,,,,,,,,,
3247.5,,pt2_unique_rating,3532243,Fictional_Cities_List/img_manmade_09.png,,49,,,1,,,,,,,,,,,,,,,
null,,confidence_buffer,3532344,confidence_buffer,,null,,,,,,,,,,,,,,,,,,
3184.3000000044703,,pt2_memorable_rating,3535531,Fictional_Cities_List/img_manmade_09.png,,51,,,3,,,,,,,,,,,,,,,
null,,confidence_buffer,3535634,confidence_buffer,,null,,,,,,,,,,,,,,,,,,
5174.70000000298,,recognition_phase,3540810,Fictional_Cities_List/img_manmade_09.png,,49,,,,,,old,0,0.7678571428571429,,,,,,,,,,
null,,confidence_buffer,3540911,confidence_buffer,,null,,,,,,,,,,,,,,,,,,
null,,thebreak,3541412,break,,null,,,,,,,,,,,,,,,,,,
7942.0999999940395,,pt2_realistic_rating,3549356,Fictional_Cities_List/img_natural_05.png,,50,Fictional_Cities_List/img_natural_05.png,NAT,2,,,,,,,,,,,,,,,
null,,confidence_buffer,3549458,confidence_buffer,,null,,,,,,,,,,,,,,,,,,
2841.2000000029802,,pt2_unique_rating,3552300,Fictional_Cities_List/img_natural_05.png,,50,,,2,,,,,,,,,,,,,,,
null,,confidence_buffer,3552403,confidence_buffer,,null,,,,,,,,,,,,,,,,,,
3776.10000000149,,pt2_memorable_rating,3556180,Fictional_Cities_List/img_natural_05.png,,51,,,3,,,,,,,,,,,,,,,
null,,confidence_buffer,3556283,confidence_buffer,,null,,,,,,,,,,,,,,,,,,
3863.6999999955297,,recognition_phase,3560148,Fictional_Cities_List/img_natural_05.png,,50,,,,,,old,1,0.7719298245614035,,,,,,,,,,
null,,confidence_buffer,3560251,confidence_buffer,,null,,,,,,,,,,,,,,,,,,
null,,thebreak,3560753,break,,null,,,,,,,,,,,,,,,,,,
9559.39999999851,,pt2_realistic_rating,3570314,Fictional_Cities_List/img_manmade_19.png,,50,Fictional_Cities_List/img_manmade_19.png,MM,2,,,,,,,,,,,,,,,
null,,confidence_buffer,3570416,confidence_buffer,,null,,,,,,,,,,,,,,,,,,
2496.10000000149,,pt2_unique_rating,3572913,Fictional_Cities_List/img_manmade_19.png,,50,,,2,,,,,,,,,,,,,,,
null,,confidence_buffer,3573018,confidence_buffer,,null,,,,,,,,,,,,,,,,,,
4609.80000000447,,pt2_memorable_rating,3577629,Fictional_Cities_List/img_manmade_19.png,,52,,,4,,,,,,,,,,,,,,,
null,,confidence_buffer,3577731,confidence_buffer,,null,,,,,,,,,,,,,,,,,,
19749.10000000149,,recognition_phase,3597482,Fictional_Cities_List/img_manmade_19.png,,52,,,,,,new,1,0.7758620689655172,,,,,,,,,,
null,,confidence_buffer,3597585,confidence_buffer,,null,,,,,,,,,,,,,,,,,,
null,,thebreak,3598087,break,,null,,,,,,,,,,,,,,,,,,
4030.7999999970198,,pt2_realistic_rating,3602118,Fictional_Cities_List/img_manmade_05.png,,50,Fictional_Cities_List/img_manmade_05.png,MM,2,,,,,,,,,,,,,,,
null,,confidence_buffer,3602220,confidence_buffer,,null,,,,,,,,,,,,,,,,,,
3684.10000000149,,pt2_unique_rating,3605905,Fictional_Cities_List/img_manmade_05.png,,51,,,3,,,,,,,,,,,,,,,
null,,confidence_buffer,3606007,confidence_buffer,,null,,,,,,,,,,,,,,,,,,
4565.79999999702,,pt2_memorable_rating,3610574,Fictional_Cities_List/img_manmade_05.png,,52,,,4,,,,,,,,,,,,,,,
null,,confidence_buffer,3610680,confidence_buffer,,null,,,,,,,,,,,,,,,,,,
4749.39999999851,,recognition_phase,3615431,Fictional_Cities_List/img_manmade_05.png,,49,,,,,,old,1,0.7796610169491526,,,,,,,,,,
null,,confidence_buffer,3615533,confidence_buffer,,null,,,,,,,,,,,,,,,,,,
null,,thebreak,3616034,break,,null,,,,,,,,,,,,,,,,,,
7646,,pt2_realistic_rating,3623681,US_Cities_List/mm_natchez.png,,53,US_Cities_List/mm_natchez.png,MM,5,,,,,,,,,,,,,,,
null,,confidence_buffer,3623783,confidence_buffer,,null,,,,,,,,,,,,,,,,,,
5407.69999999553,,pt2_unique_rating,3629192,US_Cities_List/mm_natchez.png,,50,,,2,,,,,,,,,,,,,,,
null,,confidence_buffer,3629295,confidence_buffer,,null,,,,,,,,,,,,,,,,,,
4020.10000000149,,pt2_memorable_rating,3633316,US_Cities_List/mm_natchez.png,,51,,,3,,,,,,,,,,,,,,,
null,,confidence_buffer,3633418,confidence_buffer,,null,,,,,,,,,,,,,,,,,,
15934.39999999851,,recognition_phase,3649354,US_Cities_List/mm_natchez.png,,52,,,,,,new,1,0.7833333333333333,,,,,,,,,,
null,,confidence_buffer,3649455,confidence_buffer,,null,,,,,,,,,,,,,,,,,,
null,,thebreak,3649957,break,,null,,,,,,,,,,,,,,,,,,
,,survey,4013694,survey-questions,,,,,,,,,,,none,high,Music playing ,None,I was thinking about whether I had seen it in real life or perhaps maybe I've seen it in a photo in the past.,I was thinking about whether I would remember it if I ever saw it again.,I was wondering if there's anything in it that was particularly different.,I was thinking about whether it looked edited at all.,No,
