rt,responses,trial_type,time_elapsed,stimulus,button_pressed,key_press,name_trial,city_type,rating,probe,probe_accuracy,response,correct,accuracy,problems,smooth,distraction,strategies,familiar,memorable,unique,realistic,similar,comments
28989,{worker_id:67d882a6d9768c97fcf411b5},id_enter,28999,,,,,,,,,,,,,,,,,,,,,
17755,,fullscreen,46762,fullscreen,0,,,,,,,,,,,,,,,,,,,
3793,,intro_0,50566,instruct,,32,,,,,,,,,,,,,,,,,,
21885,,intro_1,72455,instruct,,32,,,,,,,,,,,,,,,,,,
14808,,intro_2,87265,instruct,,32,,,,,,,,,,,,,,,,,,
null,,instruct_dir_4,88768,instruct,,null,,,,,,,,,,,,,,,,,,
null,,thebreak,89271,break,,null,,,,,,,,,,,,,,,,,,
14853,,familiar_rating,104128,US_Cities_List/mm_barnard.png,,50,US_Cities_List/mm_barnard.png,MM,2,,,,,,,,,,,,,,,
null,,confidence_buffer,104233,confidence_buffer,,null,,,,,,,,,,,,,,,,,,
14922,,probe_rating,119159,probe_rating,,53,,,,5,1,,,,,,,,,,,,,
null,,confidence_buffer,119264,confidence_buffer,,null,,,,,,,,,,,,,,,,,,
8923,,unique_rating,128192,US_Cities_List/mm_barnard.png,,51,,,3,,,,,,,,,,,,,,,
null,,confidence_buffer,128296,confidence_buffer,,null,,,,,,,,,,,,,,,,,,
8970,,memorable_rating,137269,US_Cities_List/mm_barnard.png,,49,,,1,,,,,,,,,,,,,,,
null,,confidence_buffer,137374,confidence_buffer,,null,,,,,,,,,,,,,,,,,,
null,,thebreak,137876,break,,null,,,,,,,,,,,,,,,,,,
7338,,familiar_rating,145219,US_Cities_List/nat_livingston.png,,49,US_Cities_List/nat_livingston.png,NAT,1,,,,,,,,,,,,,,,
null,,confidence_buffer,145324,confidence_buffer,,null,,,,,,,,,,,,,,,,,,
7070,,unique_rating,152397,US_Cities_List/nat_livingston.png,,52,,,4,,,,,,,,,,,,,,,
null,,confidence_buffer,152500,confidence_buffer,,null,,,,,,,,,,,,,,,,,,
6007,,memorable_rating,158509,US_Cities_List/nat_livingston.png,,53,,,5,,,,,,,,,,,,,,,
null,,confidence_buffer,158614,confidence_buffer,,null,,,,,,,,,,,,,,,,,,
null,,thebreak,159116,break,,null,,,,,,,,,,,,,,,,,,
7778,,familiar_rating,166897,US_Cities_List/nat_barnard.png,,50,US_Cities_List/nat_barnard.png,NAT,2,,,,,,,,,,,,,,,
null,,confidence_buffer,167002,confidence_buffer,,null,,,,,,,,,,,,,,,,,,
7386,,unique_rating,174391,US_Cities_List/nat_barnard.png,,53,,,5,,,,,,,,,,,,,,,
null,,confidence_buffer,174495,confidence_buffer,,null,,,,,,,,,,,,,,,,,,
10546,,memorable_rating,185046,US_Cities_List/nat_barnard.png,,52,,,4,,,,,,,,,,,,,,,
null,,confidence_buffer,185149,confidence_buffer,,null,,,,,,,,,,,,,,,,,,
null,,thebreak,185653,break,,null,,,,,,,,,,,,,,,,,,
8734,,familiar_rating,194391,Fictional_Cities_List/img_natural_08.png,,51,Fictional_Cities_List/img_natural_08.png,NAT,3,,,,,,,,,,,,,,,
null,,confidence_buffer,194494,confidence_buffer,,null,,,,,,,,,,,,,,,,,,
6815,,unique_rating,201313,Fictional_Cities_List/img_natural_08.png,,52,,,4,,,,,,,,,,,,,,,
null,,confidence_buffer,201416,confidence_buffer,,null,,,,,,,,,,,,,,,,,,
2752,,memorable_rating,204170,Fictional_Cities_List/img_natural_08.png,,53,,,5,,,,,,,,,,,,,,,
null,,confidence_buffer,204274,confidence_buffer,,null,,,,,,,,,,,,,,,,,,
null,,thebreak,204777,break,,null,,,,,,,,,,,,,,,,,,
15255,,familiar_rating,220036,US_Cities_List/mm_abilene.png,,49,US_Cities_List/mm_abilene.png,MM,1,,,,,,,,,,,,,,,
null,,confidence_buffer,220138,confidence_buffer,,null,,,,,,,,,,,,,,,,,,
9204,,unique_rating,229345,US_Cities_List/mm_abilene.png,,50,,,2,,,,,,,,,,,,,,,
null,,confidence_buffer,229449,confidence_buffer,,null,,,,,,,,,,,,,,,,,,
4546,,memorable_rating,233998,US_Cities_List/mm_abilene.png,,50,,,2,,,,,,,,,,,,,,,
null,,confidence_buffer,234104,confidence_buffer,,null,,,,,,,,,,,,,,,,,,
null,,thebreak,234607,break,,null,,,,,,,,,,,,,,,,,,
6316,,familiar_rating,240926,US_Cities_List/nat_parkcity.png,,52,US_Cities_List/nat_parkcity.png,NAT,4,,,,,,,,,,,,,,,
null,,confidence_buffer,241032,confidence_buffer,,null,,,,,,,,,,,,,,,,,,
6869,,unique_rating,247904,US_Cities_List/nat_parkcity.png,,53,,,5,,,,,,,,,,,,,,,
null,,confidence_buffer,248008,confidence_buffer,,null,,,,,,,,,,,,,,,,,,
5139,,memorable_rating,253150,US_Cities_List/nat_parkcity.png,,53,,,5,,,,,,,,,,,,,,,
null,,confidence_buffer,253255,confidence_buffer,,null,,,,,,,,,,,,,,,,,,
null,,thebreak,253758,break,,null,,,,,,,,,,,,,,,,,,
5901,,familiar_rating,259662,Fictional_Cities_List/img_natural_12.png,,49,Fictional_Cities_List/img_natural_12.png,NAT,1,,,,,,,,,,,,,,,
null,,confidence_buffer,259766,confidence_buffer,,null,,,,,,,,,,,,,,,,,,
4860,,unique_rating,264631,Fictional_Cities_List/img_natural_12.png,,53,,,5,,,,,,,,,,,,,,,
null,,confidence_buffer,264735,confidence_buffer,,null,,,,,,,,,,,,,,,,,,
2655,,memorable_rating,267393,Fictional_Cities_List/img_natural_12.png,,53,,,5,,,,,,,,,,,,,,,
null,,confidence_buffer,267497,confidence_buffer,,null,,,,,,,,,,,,,,,,,,
null,,thebreak,268000,break,,null,,,,,,,,,,,,,,,,,,
5728,,familiar_rating,273731,Fictional_Cities_List/img_manmade_08.png,,49,Fictional_Cities_List/img_manmade_08.png,MM,1,,,,,,,,,,,,,,,
null,,confidence_buffer,273835,confidence_buffer,,null,,,,,,,,,,,,,,,,,,
4533,,unique_rating,278372,Fictional_Cities_List/img_manmade_08.png,,53,,,5,,,,,,,,,,,,,,,
null,,confidence_buffer,278476,confidence_buffer,,null,,,,,,,,,,,,,,,,,,
1237,,memorable_rating,279717,Fictional_Cities_List/img_manmade_08.png,,53,,,5,,,,,,,,,,,,,,,
null,,confidence_buffer,279819,confidence_buffer,,null,,,,,,,,,,,,,,,,,,
null,,thebreak,280321,break,,null,,,,,,,,,,,,,,,,,,
13054,,familiar_rating,293378,Fictional_Cities_List/img_manmade_23.png,,52,Fictional_Cities_List/img_manmade_23.png,MM,4,,,,,,,,,,,,,,,
null,,confidence_buffer,293483,confidence_buffer,,null,,,,,,,,,,,,,,,,,,
7908,,unique_rating,301396,Fictional_Cities_List/img_manmade_23.png,,51,,,3,,,,,,,,,,,,,,,
null,,confidence_buffer,301500,confidence_buffer,,null,,,,,,,,,,,,,,,,,,
4001,,memorable_rating,305505,Fictional_Cities_List/img_manmade_23.png,,53,,,5,,,,,,,,,,,,,,,
null,,confidence_buffer,305609,confidence_buffer,,null,,,,,,,,,,,,,,,,,,
null,,thebreak,306111,break,,null,,,,,,,,,,,,,,,,,,
8033,,familiar_rating,314147,Fictional_Cities_List/img_natural_36.png,,49,Fictional_Cities_List/img_natural_36.png,NAT,1,,,,,,,,,,,,,,,
null,,confidence_buffer,314251,confidence_buffer,,null,,,,,,,,,,,,,,,,,,
6261,,unique_rating,320516,Fictional_Cities_List/img_natural_36.png,,52,,,4,,,,,,,,,,,,,,,
null,,confidence_buffer,320619,confidence_buffer,,null,,,,,,,,,,,,,,,,,,
1439,,memorable_rating,322062,Fictional_Cities_List/img_natural_36.png,,53,,,5,,,,,,,,,,,,,,,
null,,confidence_buffer,322167,confidence_buffer,,null,,,,,,,,,,,,,,,,,,
null,,thebreak,322668,break,,null,,,,,,,,,,,,,,,,,,
6048,,familiar_rating,328720,US_Cities_List/nat_huntsville.png,,51,US_Cities_List/nat_huntsville.png,NAT,3,,,,,,,,,,,,,,,
null,,confidence_buffer,328822,confidence_buffer,,null,,,,,,,,,,,,,,,,,,
3196,,unique_rating,332022,US_Cities_List/nat_huntsville.png,,53,,,5,,,,,,,,,,,,,,,
null,,confidence_buffer,332125,confidence_buffer,,null,,,,,,,,,,,,,,,,,,
1184,,memorable_rating,333313,US_Cities_List/nat_huntsville.png,,53,,,5,,,,,,,,,,,,,,,
null,,confidence_buffer,333416,confidence_buffer,,null,,,,,,,,,,,,,,,,,,
null,,thebreak,333919,break,,null,,,,,,,,,,,,,,,,,,
5157,,familiar_rating,339079,Fictional_Cities_List/img_manmade_12.png,,51,Fictional_Cities_List/img_manmade_12.png,MM,3,,,,,,,,,,,,,,,
null,,confidence_buffer,339183,confidence_buffer,,null,,,,,,,,,,,,,,,,,,
5787,,unique_rating,344973,Fictional_Cities_List/img_manmade_12.png,,51,,,3,,,,,,,,,,,,,,,
null,,confidence_buffer,345078,confidence_buffer,,null,,,,,,,,,,,,,,,,,,
2460,,memorable_rating,347541,Fictional_Cities_List/img_manmade_12.png,,52,,,4,,,,,,,,,,,,,,,
null,,confidence_buffer,347644,confidence_buffer,,null,,,,,,,,,,,,,,,,,,
null,,thebreak,348145,break,,null,,,,,,,,,,,,,,,,,,
6334,,familiar_rating,354482,Fictional_Cities_List/img_natural_23.png,,49,Fictional_Cities_List/img_natural_23.png,NAT,1,,,,,,,,,,,,,,,
null,,confidence_buffer,354585,confidence_buffer,,null,,,,,,,,,,,,,,,,,,
4772,,unique_rating,359359,Fictional_Cities_List/img_natural_23.png,,53,,,5,,,,,,,,,,,,,,,
null,,confidence_buffer,359464,confidence_buffer,,null,,,,,,,,,,,,,,,,,,
1780,,memorable_rating,361248,Fictional_Cities_List/img_natural_23.png,,53,,,5,,,,,,,,,,,,,,,
null,,confidence_buffer,361352,confidence_buffer,,null,,,,,,,,,,,,,,,,,,
5802,,probe_rating,367157,probe_rating,,49,,,,1,1,,,,,,,,,,,,,
null,,confidence_buffer,367262,confidence_buffer,,null,,,,,,,,,,,,,,,,,,
null,,thebreak,367765,break,,null,,,,,,,,,,,,,,,,,,
6046,,familiar_rating,373814,US_Cities_List/nat_abilene.png,,52,US_Cities_List/nat_abilene.png,NAT,4,,,,,,,,,,,,,,,
null,,confidence_buffer,373919,confidence_buffer,,null,,,,,,,,,,,,,,,,,,
6181,,unique_rating,380105,US_Cities_List/nat_abilene.png,,53,,,5,,,,,,,,,,,,,,,
null,,confidence_buffer,380209,confidence_buffer,,null,,,,,,,,,,,,,,,,,,
2578,,memorable_rating,382790,US_Cities_List/nat_abilene.png,,53,,,5,,,,,,,,,,,,,,,
null,,confidence_buffer,382894,confidence_buffer,,null,,,,,,,,,,,,,,,,,,
null,,thebreak,383395,break,,null,,,,,,,,,,,,,,,,,,
8546,,familiar_rating,391945,Fictional_Cities_List/img_manmade_33.png,,51,Fictional_Cities_List/img_manmade_33.png,MM,3,,,,,,,,,,,,,,,
null,,confidence_buffer,392050,confidence_buffer,,null,,,,,,,,,,,,,,,,,,
5471,,probe_rating,397525,probe_rating,,52,,,,4,1,,,,,,,,,,,,,
null,,confidence_buffer,397629,confidence_buffer,,null,,,,,,,,,,,,,,,,,,
4376,,unique_rating,402009,Fictional_Cities_List/img_manmade_33.png,,53,,,5,,,,,,,,,,,,,,,
null,,confidence_buffer,402113,confidence_buffer,,null,,,,,,,,,,,,,,,,,,
4433,,memorable_rating,406549,Fictional_Cities_List/img_manmade_33.png,,53,,,5,,,,,,,,,,,,,,,
null,,confidence_buffer,406652,confidence_buffer,,null,,,,,,,,,,,,,,,,,,
null,,thebreak,407154,break,,null,,,,,,,,,,,,,,,,,,
6566,,familiar_rating,413723,US_Cities_List/mm_huntsville.png,,53,US_Cities_List/mm_huntsville.png,MM,5,,,,,,,,,,,,,,,
null,,confidence_buffer,413828,confidence_buffer,,null,,,,,,,,,,,,,,,,,,
6512,,unique_rating,420344,US_Cities_List/mm_huntsville.png,,52,,,4,,,,,,,,,,,,,,,
null,,confidence_buffer,420447,confidence_buffer,,null,,,,,,,,,,,,,,,,,,
2873,,memorable_rating,423323,US_Cities_List/mm_huntsville.png,,52,,,4,,,,,,,,,,,,,,,
null,,confidence_buffer,423427,confidence_buffer,,null,,,,,,,,,,,,,,,,,,
3188,,probe_rating,426619,probe_rating,,49,,,,1,1,,,,,,,,,,,,,
null,,confidence_buffer,426723,confidence_buffer,,null,,,,,,,,,,,,,,,,,,
null,,thebreak,427225,break,,null,,,,,,,,,,,,,,,,,,
7389,,familiar_rating,434618,Fictional_Cities_List/img_manmade_19.png,,50,Fictional_Cities_List/img_manmade_19.png,MM,2,,,,,,,,,,,,,,,
null,,confidence_buffer,434723,confidence_buffer,,null,,,,,,,,,,,,,,,,,,
5115,,unique_rating,439841,Fictional_Cities_List/img_manmade_19.png,,51,,,3,,,,,,,,,,,,,,,
null,,confidence_buffer,439946,confidence_buffer,,null,,,,,,,,,,,,,,,,,,
3654,,memorable_rating,443603,Fictional_Cities_List/img_manmade_19.png,,53,,,5,,,,,,,,,,,,,,,
null,,confidence_buffer,443707,confidence_buffer,,null,,,,,,,,,,,,,,,,,,
null,,thebreak,444209,break,,null,,,,,,,,,,,,,,,,,,
6848,,familiar_rating,451060,US_Cities_List/nat_carmel.png,,52,US_Cities_List/nat_carmel.png,NAT,4,,,,,,,,,,,,,,,
null,,confidence_buffer,451163,confidence_buffer,,null,,,,,,,,,,,,,,,,,,
5942,,unique_rating,457108,US_Cities_List/nat_carmel.png,,53,,,5,,,,,,,,,,,,,,,
null,,confidence_buffer,457213,confidence_buffer,,null,,,,,,,,,,,,,,,,,,
1466,,memorable_rating,458683,US_Cities_List/nat_carmel.png,,53,,,5,,,,,,,,,,,,,,,
null,,confidence_buffer,458787,confidence_buffer,,null,,,,,,,,,,,,,,,,,,
null,,thebreak,459289,break,,null,,,,,,,,,,,,,,,,,,
7848,,familiar_rating,467141,Fictional_Cities_List/img_natural_48.png,,52,Fictional_Cities_List/img_natural_48.png,NAT,4,,,,,,,,,,,,,,,
null,,confidence_buffer,467243,confidence_buffer,,null,,,,,,,,,,,,,,,,,,
2349,,unique_rating,469595,Fictional_Cities_List/img_natural_48.png,,53,,,5,,,,,,,,,,,,,,,
null,,confidence_buffer,469698,confidence_buffer,,null,,,,,,,,,,,,,,,,,,
5375,,memorable_rating,475076,Fictional_Cities_List/img_natural_48.png,,53,,,5,,,,,,,,,,,,,,,
null,,confidence_buffer,475178,confidence_buffer,,null,,,,,,,,,,,,,,,,,,
null,,thebreak,475680,break,,null,,,,,,,,,,,,,,,,,,
8486,,familiar_rating,484169,Fictional_Cities_List/img_manmade_11.png,,52,Fictional_Cities_List/img_manmade_11.png,MM,4,,,,,,,,,,,,,,,
null,,confidence_buffer,484273,confidence_buffer,,null,,,,,,,,,,,,,,,,,,
4889,,unique_rating,489166,Fictional_Cities_List/img_manmade_11.png,,53,,,5,,,,,,,,,,,,,,,
null,,confidence_buffer,489270,confidence_buffer,,null,,,,,,,,,,,,,,,,,,
3084,,memorable_rating,492357,Fictional_Cities_List/img_manmade_11.png,,53,,,5,,,,,,,,,,,,,,,
null,,confidence_buffer,492459,confidence_buffer,,null,,,,,,,,,,,,,,,,,,
null,,thebreak,492961,break,,null,,,,,,,,,,,,,,,,,,
9934,,familiar_rating,502898,US_Cities_List/mm_custer.png,,52,US_Cities_List/mm_custer.png,MM,4,,,,,,,,,,,,,,,
null,,confidence_buffer,503003,confidence_buffer,,null,,,,,,,,,,,,,,,,,,
2979,,unique_rating,505987,US_Cities_List/mm_custer.png,,53,,,5,,,,,,,,,,,,,,,
null,,confidence_buffer,506091,confidence_buffer,,null,,,,,,,,,,,,,,,,,,
3059,,memorable_rating,509153,US_Cities_List/mm_custer.png,,53,,,5,,,,,,,,,,,,,,,
null,,confidence_buffer,509255,confidence_buffer,,null,,,,,,,,,,,,,,,,,,
null,,thebreak,509757,break,,null,,,,,,,,,,,,,,,,,,
7792,,familiar_rating,517552,US_Cities_List/mm_healdsburg.png,,49,US_Cities_List/mm_healdsburg.png,MM,1,,,,,,,,,,,,,,,
null,,confidence_buffer,517655,confidence_buffer,,null,,,,,,,,,,,,,,,,,,
16104,,probe_rating,533762,probe_rating,,52,,,,4,1,,,,,,,,,,,,,
null,,confidence_buffer,533867,confidence_buffer,,null,,,,,,,,,,,,,,,,,,
14391,,unique_rating,548262,US_Cities_List/mm_healdsburg.png,,51,,,3,,,,,,,,,,,,,,,
null,,confidence_buffer,548365,confidence_buffer,,null,,,,,,,,,,,,,,,,,,
5547,,memorable_rating,553915,US_Cities_List/mm_healdsburg.png,,51,,,3,,,,,,,,,,,,,,,
null,,confidence_buffer,554018,confidence_buffer,,null,,,,,,,,,,,,,,,,,,
null,,thebreak,554519,break,,null,,,,,,,,,,,,,,,,,,
4782,,familiar_rating,559304,US_Cities_List/mm_orr.png,,49,US_Cities_List/mm_orr.png,MM,1,,,,,,,,,,,,,,,
null,,confidence_buffer,559408,confidence_buffer,,null,,,,,,,,,,,,,,,,,,
3349,,unique_rating,562761,US_Cities_List/mm_orr.png,,52,,,4,,,,,,,,,,,,,,,
null,,confidence_buffer,562864,confidence_buffer,,null,,,,,,,,,,,,,,,,,,
4557,,memorable_rating,567423,US_Cities_List/mm_orr.png,,52,,,4,,,,,,,,,,,,,,,
null,,confidence_buffer,567528,confidence_buffer,,null,,,,,,,,,,,,,,,,,,
null,,thebreak,568030,break,,null,,,,,,,,,,,,,,,,,,
3470,,familiar_rating,571504,US_Cities_List/nat_medora.png,,51,US_Cities_List/nat_medora.png,NAT,3,,,,,,,,,,,,,,,
null,,confidence_buffer,571608,confidence_buffer,,null,,,,,,,,,,,,,,,,,,
5085,,unique_rating,576695,US_Cities_List/nat_medora.png,,53,,,5,,,,,,,,,,,,,,,
null,,confidence_buffer,576800,confidence_buffer,,null,,,,,,,,,,,,,,,,,,
2598,,memorable_rating,579401,US_Cities_List/nat_medora.png,,53,,,5,,,,,,,,,,,,,,,
null,,confidence_buffer,579505,confidence_buffer,,null,,,,,,,,,,,,,,,,,,
null,,thebreak,580007,break,,null,,,,,,,,,,,,,,,,,,
4107,,familiar_rating,584117,US_Cities_List/mm_peoria.png,,49,US_Cities_List/mm_peoria.png,MM,1,,,,,,,,,,,,,,,
null,,confidence_buffer,584220,confidence_buffer,,null,,,,,,,,,,,,,,,,,,
7578,,unique_rating,591801,US_Cities_List/mm_peoria.png,,50,,,2,,,,,,,,,,,,,,,
null,,confidence_buffer,591903,confidence_buffer,,null,,,,,,,,,,,,,,,,,,
4632,,probe_rating,596537,probe_rating,,53,,,,5,1,,,,,,,,,,,,,
null,,confidence_buffer,596642,confidence_buffer,,null,,,,,,,,,,,,,,,,,,
6688,,memorable_rating,603332,US_Cities_List/mm_peoria.png,,51,,,3,,,,,,,,,,,,,,,
null,,confidence_buffer,603437,confidence_buffer,,null,,,,,,,,,,,,,,,,,,
null,,thebreak,603939,break,,null,,,,,,,,,,,,,,,,,,
6334,,familiar_rating,610276,US_Cities_List/mm_parkcity.png,,50,US_Cities_List/mm_parkcity.png,MM,2,,,,,,,,,,,,,,,
null,,confidence_buffer,610377,confidence_buffer,,null,,,,,,,,,,,,,,,,,,
3357,,unique_rating,613735,US_Cities_List/mm_parkcity.png,,51,,,3,,,,,,,,,,,,,,,
null,,confidence_buffer,613836,confidence_buffer,,null,,,,,,,,,,,,,,,,,,
5905,,memorable_rating,619743,US_Cities_List/mm_parkcity.png,,51,,,3,,,,,,,,,,,,,,,
null,,confidence_buffer,619847,confidence_buffer,,null,,,,,,,,,,,,,,,,,,
null,,thebreak,620349,break,,null,,,,,,,,,,,,,,,,,,
7862,,familiar_rating,628214,Fictional_Cities_List/img_manmade_29.png,,49,Fictional_Cities_List/img_manmade_29.png,MM,1,,,,,,,,,,,,,,,
null,,confidence_buffer,628318,confidence_buffer,,null,,,,,,,,,,,,,,,,,,
6951,,unique_rating,635271,Fictional_Cities_List/img_manmade_29.png,,52,,,4,,,,,,,,,,,,,,,
null,,confidence_buffer,635375,confidence_buffer,,null,,,,,,,,,,,,,,,,,,
5922,,probe_rating,641301,probe_rating,,53,,,,5,1,,,,,,,,,,,,,
null,,confidence_buffer,641405,confidence_buffer,,null,,,,,,,,,,,,,,,,,,
2658,,memorable_rating,644068,Fictional_Cities_List/img_manmade_29.png,,53,,,5,,,,,,,,,,,,,,,
null,,confidence_buffer,644171,confidence_buffer,,null,,,,,,,,,,,,,,,,,,
null,,thebreak,644673,break,,null,,,,,,,,,,,,,,,,,,
5027,,familiar_rating,649703,Fictional_Cities_List/img_natural_33.png,,52,Fictional_Cities_List/img_natural_33.png,NAT,4,,,,,,,,,,,,,,,
null,,confidence_buffer,649806,confidence_buffer,,null,,,,,,,,,,,,,,,,,,
4772,,unique_rating,654581,Fictional_Cities_List/img_natural_33.png,,52,,,4,,,,,,,,,,,,,,,
null,,confidence_buffer,654684,confidence_buffer,,null,,,,,,,,,,,,,,,,,,
7157,,memorable_rating,661844,Fictional_Cities_List/img_natural_33.png,,51,,,3,,,,,,,,,,,,,,,
null,,confidence_buffer,661947,confidence_buffer,,null,,,,,,,,,,,,,,,,,,
null,,thebreak,662449,break,,null,,,,,,,,,,,,,,,,,,
6603,,familiar_rating,669055,Fictional_Cities_List/img_natural_46.png,,52,Fictional_Cities_List/img_natural_46.png,NAT,4,,,,,,,,,,,,,,,
null,,confidence_buffer,669158,confidence_buffer,,null,,,,,,,,,,,,,,,,,,
3229,,unique_rating,672390,Fictional_Cities_List/img_natural_46.png,,53,,,5,,,,,,,,,,,,,,,
null,,confidence_buffer,672495,confidence_buffer,,null,,,,,,,,,,,,,,,,,,
1373,,memorable_rating,673872,Fictional_Cities_List/img_natural_46.png,,53,,,5,,,,,,,,,,,,,,,
null,,confidence_buffer,673976,confidence_buffer,,null,,,,,,,,,,,,,,,,,,
null,,thebreak,674478,break,,null,,,,,,,,,,,,,,,,,,
5764,,familiar_rating,680245,Fictional_Cities_List/img_natural_42.png,,50,Fictional_Cities_List/img_natural_42.png,NAT,2,,,,,,,,,,,,,,,
null,,confidence_buffer,680350,confidence_buffer,,null,,,,,,,,,,,,,,,,,,
2920,,unique_rating,683273,Fictional_Cities_List/img_natural_42.png,,53,,,5,,,,,,,,,,,,,,,
null,,confidence_buffer,683377,confidence_buffer,,null,,,,,,,,,,,,,,,,,,
3204,,memorable_rating,686584,Fictional_Cities_List/img_natural_42.png,,52,,,4,,,,,,,,,,,,,,,
null,,confidence_buffer,686688,confidence_buffer,,null,,,,,,,,,,,,,,,,,,
null,,thebreak,687190,break,,null,,,,,,,,,,,,,,,,,,
8295,,intro_0,695488,instruct,,32,,,,,,,,,,,,,,,,,,
14085,,intro_1,709577,instruct,,32,,,,,,,,,,,,,,,,,,
23475,,intro_2,733056,instruct,,32,,,,,,,,,,,,,,,,,,
null,,instruct_dir_4,734558,instruct,,null,,,,,,,,,,,,,,,,,,
18470,,pt2_realistic_rating,753032,US_Cities_List/nat_cody.png,,52,US_Cities_List/nat_cody.png,NAT,4,,,,,,,,,,,,,,,
null,,confidence_buffer,753137,confidence_buffer,,null,,,,,,,,,,,,,,,,,,
3543,,pt2_unique_rating,756683,US_Cities_List/nat_cody.png,,53,,,5,,,,,,,,,,,,,,,
null,,confidence_buffer,756786,confidence_buffer,,null,,,,,,,,,,,,,,,,,,
2169,,pt2_memorable_rating,758958,US_Cities_List/nat_cody.png,,53,,,5,,,,,,,,,,,,,,,
null,,confidence_buffer,759064,confidence_buffer,,null,,,,,,,,,,,,,,,,,,
11277,,recognition_phase,770345,US_Cities_List/nat_cody.png,,51,,,,,,new,1,1,,,,,,,,,,
null,,confidence_buffer,770451,confidence_buffer,,null,,,,,,,,,,,,,,,,,,
null,,thebreak,770953,break,,null,,,,,,,,,,,,,,,,,,
5905,,pt2_realistic_rating,776861,US_Cities_List/nat_carmel.png,,52,US_Cities_List/nat_carmel.png,NAT,4,,,,,,,,,,,,,,,
null,,confidence_buffer,776964,confidence_buffer,,null,,,,,,,,,,,,,,,,,,
3816,,pt2_unique_rating,780784,US_Cities_List/nat_carmel.png,,53,,,5,,,,,,,,,,,,,,,
null,,confidence_buffer,780886,confidence_buffer,,null,,,,,,,,,,,,,,,,,,
2405,,pt2_memorable_rating,783294,US_Cities_List/nat_carmel.png,,53,,,5,,,,,,,,,,,,,,,
null,,confidence_buffer,783398,confidence_buffer,,null,,,,,,,,,,,,,,,,,,
11242,,recognition_phase,794643,US_Cities_List/nat_carmel.png,,51,,,,,,new,0,0.5,,,,,,,,,,
null,,confidence_buffer,794747,confidence_buffer,,null,,,,,,,,,,,,,,,,,,
null,,thebreak,795249,break,,null,,,,,,,,,,,,,,,,,,
5851,,pt2_realistic_rating,801103,US_Cities_List/nat_livingston.png,,53,US_Cities_List/nat_livingston.png,NAT,5,,,,,,,,,,,,,,,
null,,confidence_buffer,801207,confidence_buffer,,null,,,,,,,,,,,,,,,,,,
13758,,pt2_unique_rating,814969,US_Cities_List/nat_livingston.png,,53,,,5,,,,,,,,,,,,,,,
null,,confidence_buffer,815071,confidence_buffer,,null,,,,,,,,,,,,,,,,,,
1779,,pt2_memorable_rating,816852,US_Cities_List/nat_livingston.png,,53,,,5,,,,,,,,,,,,,,,
null,,confidence_buffer,816955,confidence_buffer,,null,,,,,,,,,,,,,,,,,,
7871,,recognition_phase,824829,US_Cities_List/nat_livingston.png,,52,,,,,,new,0,0.3333333333333333,,,,,,,,,,
null,,confidence_buffer,824933,confidence_buffer,,null,,,,,,,,,,,,,,,,,,
null,,thebreak,825434,break,,null,,,,,,,,,,,,,,,,,,
7583,,pt2_realistic_rating,833021,Fictional_Cities_List/img_manmade_48.png,,49,Fictional_Cities_List/img_manmade_48.png,MM,1,,,,,,,,,,,,,,,
null,,confidence_buffer,833124,confidence_buffer,,null,,,,,,,,,,,,,,,,,,
3278,,pt2_unique_rating,836406,Fictional_Cities_List/img_manmade_48.png,,53,,,5,,,,,,,,,,,,,,,
null,,confidence_buffer,836509,confidence_buffer,,null,,,,,,,,,,,,,,,,,,
5445,,pt2_memorable_rating,841957,Fictional_Cities_List/img_manmade_48.png,,53,,,5,,,,,,,,,,,,,,,
null,,confidence_buffer,842061,confidence_buffer,,null,,,,,,,,,,,,,,,,,,
5809,,recognition_phase,847874,Fictional_Cities_List/img_manmade_48.png,,52,,,,,,new,1,0.5,,,,,,,,,,
null,,confidence_buffer,847978,confidence_buffer,,null,,,,,,,,,,,,,,,,,,
null,,thebreak,848479,break,,null,,,,,,,,,,,,,,,,,,
6392,,pt2_realistic_rating,854875,Fictional_Cities_List/img_natural_02.png,,51,Fictional_Cities_List/img_natural_02.png,NAT,3,,,,,,,,,,,,,,,
null,,confidence_buffer,854980,confidence_buffer,,null,,,,,,,,,,,,,,,,,,
5390,,pt2_unique_rating,860373,Fictional_Cities_List/img_natural_02.png,,52,,,4,,,,,,,,,,,,,,,
null,,confidence_buffer,860478,confidence_buffer,,null,,,,,,,,,,,,,,,,,,
4856,,pt2_memorable_rating,865337,Fictional_Cities_List/img_natural_02.png,,53,,,5,,,,,,,,,,,,,,,
null,,confidence_buffer,865442,confidence_buffer,,null,,,,,,,,,,,,,,,,,,
2306,,recognition_phase,867752,Fictional_Cities_List/img_natural_02.png,,51,,,,,,new,1,0.6,,,,,,,,,,
null,,confidence_buffer,867855,confidence_buffer,,null,,,,,,,,,,,,,,,,,,
null,,thebreak,868356,break,,null,,,,,,,,,,,,,,,,,,
2277,,pt2_realistic_rating,870636,US_Cities_List/mm_huntsville.png,,52,US_Cities_List/mm_huntsville.png,MM,4,,,,,,,,,,,,,,,
null,,confidence_buffer,870740,confidence_buffer,,null,,,,,,,,,,,,,,,,,,
1093,,pt2_unique_rating,871836,US_Cities_List/mm_huntsville.png,,50,,,2,,,,,,,,,,,,,,,
null,,confidence_buffer,871940,confidence_buffer,,null,,,,,,,,,,,,,,,,,,
1962,,pt2_memorable_rating,873904,US_Cities_List/mm_huntsville.png,,53,,,5,,,,,,,,,,,,,,,
null,,confidence_buffer,874008,confidence_buffer,,null,,,,,,,,,,,,,,,,,,
1887,,recognition_phase,875898,US_Cities_List/mm_huntsville.png,,51,,,,,,new,0,0.5,,,,,,,,,,
null,,confidence_buffer,876000,confidence_buffer,,null,,,,,,,,,,,,,,,,,,
null,,thebreak,876502,break,,null,,,,,,,,,,,,,,,,,,
1853,,pt2_realistic_rating,878358,US_Cities_List/nat_assateagueisland.png,,50,US_Cities_List/nat_assateagueisland.png,NAT,2,,,,,,,,,,,,,,,
null,,confidence_buffer,878462,confidence_buffer,,null,,,,,,,,,,,,,,,,,,
1868,,pt2_unique_rating,880332,US_Cities_List/nat_assateagueisland.png,,51,,,3,,,,,,,,,,,,,,,
null,,confidence_buffer,880436,confidence_buffer,,null,,,,,,,,,,,,,,,,,,
3816,,pt2_memorable_rating,884256,US_Cities_List/nat_assateagueisland.png,,53,,,5,,,,,,,,,,,,,,,
null,,confidence_buffer,884361,confidence_buffer,,null,,,,,,,,,,,,,,,,,,
1818,,recognition_phase,886182,US_Cities_List/nat_assateagueisland.png,,52,,,,,,new,1,0.5714285714285714,,,,,,,,,,
null,,confidence_buffer,886287,confidence_buffer,,null,,,,,,,,,,,,,,,,,,
null,,thebreak,886789,break,,null,,,,,,,,,,,,,,,,,,
5809,,pt2_realistic_rating,892601,US_Cities_List/nat_medora.png,,51,US_Cities_List/nat_medora.png,NAT,3,,,,,,,,,,,,,,,
null,,confidence_buffer,892706,confidence_buffer,,null,,,,,,,,,,,,,,,,,,
2573,,probe_rating,895283,probe_rating,,51,,,,3,1,,,,,,,,,,,,,
null,,confidence_buffer,895388,confidence_buffer,,null,,,,,,,,,,,,,,,,,,
1330,,pt2_unique_rating,896721,US_Cities_List/nat_medora.png,,53,,,5,,,,,,,,,,,,,,,
null,,confidence_buffer,896824,confidence_buffer,,null,,,,,,,,,,,,,,,,,,
5652,,pt2_memorable_rating,902480,US_Cities_List/nat_medora.png,,51,,,3,,,,,,,,,,,,,,,
null,,confidence_buffer,902583,confidence_buffer,,null,,,,,,,,,,,,,,,,,,
2552,,recognition_phase,905137,US_Cities_List/nat_medora.png,,50,,,,,,old,1,0.625,,,,,,,,,,
null,,confidence_buffer,905241,confidence_buffer,,null,,,,,,,,,,,,,,,,,,
null,,thebreak,905743,break,,null,,,,,,,,,,,,,,,,,,
5561,,pt2_realistic_rating,911307,Fictional_Cities_List/img_manmade_02.png,,49,Fictional_Cities_List/img_manmade_02.png,MM,1,,,,,,,,,,,,,,,
null,,confidence_buffer,911410,confidence_buffer,,null,,,,,,,,,,,,,,,,,,
2404,,probe_rating,913819,probe_rating,,50,,,,2,1,,,,,,,,,,,,,
null,,confidence_buffer,913923,confidence_buffer,,null,,,,,,,,,,,,,,,,,,
1422,,pt2_unique_rating,915348,Fictional_Cities_List/img_manmade_02.png,,50,,,2,,,,,,,,,,,,,,,
null,,confidence_buffer,915451,confidence_buffer,,null,,,,,,,,,,,,,,,,,,
1955,,pt2_memorable_rating,917409,Fictional_Cities_List/img_manmade_02.png,,52,,,4,,,,,,,,,,,,,,,
null,,confidence_buffer,917513,confidence_buffer,,null,,,,,,,,,,,,,,,,,,
2231,,recognition_phase,919747,Fictional_Cities_List/img_manmade_02.png,,51,,,,,,new,1,0.6666666666666666,,,,,,,,,,
null,,confidence_buffer,919850,confidence_buffer,,null,,,,,,,,,,,,,,,,,,
null,,thebreak,920352,break,,null,,,,,,,,,,,,,,,,,,
4657,,pt2_realistic_rating,925012,Fictional_Cities_List/img_manmade_10.png,,49,Fictional_Cities_List/img_manmade_10.png,MM,1,,,,,,,,,,,,,,,
null,,confidence_buffer,925114,confidence_buffer,,null,,,,,,,,,,,,,,,,,,
1151,,pt2_unique_rating,926268,Fictional_Cities_List/img_manmade_10.png,,50,,,2,,,,,,,,,,,,,,,
null,,confidence_buffer,926371,confidence_buffer,,null,,,,,,,,,,,,,,,,,,
1176,,pt2_memorable_rating,927550,Fictional_Cities_List/img_manmade_10.png,,51,,,3,,,,,,,,,,,,,,,
null,,confidence_buffer,927654,confidence_buffer,,null,,,,,,,,,,,,,,,,,,
1058,,recognition_phase,928715,Fictional_Cities_List/img_manmade_10.png,,52,,,,,,new,1,0.7,,,,,,,,,,
null,,confidence_buffer,928818,confidence_buffer,,null,,,,,,,,,,,,,,,,,,
null,,thebreak,929320,break,,null,,,,,,,,,,,,,,,,,,
4291,,pt2_realistic_rating,933614,Fictional_Cities_List/img_natural_43.png,,50,Fictional_Cities_List/img_natural_43.png,NAT,2,,,,,,,,,,,,,,,
null,,confidence_buffer,933717,confidence_buffer,,null,,,,,,,,,,,,,,,,,,
1932,,pt2_unique_rating,935652,Fictional_Cities_List/img_natural_43.png,,52,,,4,,,,,,,,,,,,,,,
null,,confidence_buffer,935757,confidence_buffer,,null,,,,,,,,,,,,,,,,,,
1913,,probe_rating,937674,probe_rating,,51,,,,3,1,,,,,,,,,,,,,
null,,confidence_buffer,937777,confidence_buffer,,null,,,,,,,,,,,,,,,,,,
1320,,pt2_memorable_rating,939099,Fictional_Cities_List/img_natural_43.png,,52,,,4,,,,,,,,,,,,,,,
null,,confidence_buffer,939203,confidence_buffer,,null,,,,,,,,,,,,,,,,,,
1378,,recognition_phase,940585,Fictional_Cities_List/img_natural_43.png,,50,,,,,,old,0,0.6363636363636364,,,,,,,,,,
null,,confidence_buffer,940689,confidence_buffer,,null,,,,,,,,,,,,,,,,,,
null,,thebreak,941191,break,,null,,,,,,,,,,,,,,,,,,
5036,,pt2_realistic_rating,946230,US_Cities_List/nat_newport.png,,53,US_Cities_List/nat_newport.png,NAT,5,,,,,,,,,,,,,,,
null,,confidence_buffer,946335,confidence_buffer,,null,,,,,,,,,,,,,,,,,,
1480,,pt2_unique_rating,947818,US_Cities_List/nat_newport.png,,51,,,3,,,,,,,,,,,,,,,
null,,confidence_buffer,947922,confidence_buffer,,null,,,,,,,,,,,,,,,,,,
821,,pt2_memorable_rating,948746,US_Cities_List/nat_newport.png,,50,,,2,,,,,,,,,,,,,,,
null,,confidence_buffer,948850,confidence_buffer,,null,,,,,,,,,,,,,,,,,,
1076,,recognition_phase,949930,US_Cities_List/nat_newport.png,,52,,,,,,new,1,0.6666666666666666,,,,,,,,,,
null,,confidence_buffer,950034,confidence_buffer,,null,,,,,,,,,,,,,,,,,,
null,,thebreak,950537,break,,null,,,,,,,,,,,,,,,,,,
12036,,pt2_realistic_rating,962576,US_Cities_List/mm_peoria.png,,50,US_Cities_List/mm_peoria.png,MM,2,,,,,,,,,,,,,,,
null,,confidence_buffer,962680,confidence_buffer,,null,,,,,,,,,,,,,,,,,,
1351,,pt2_unique_rating,964035,US_Cities_List/mm_peoria.png,,52,,,4,,,,,,,,,,,,,,,
null,,confidence_buffer,964139,confidence_buffer,,null,,,,,,,,,,,,,,,,,,
1019,,pt2_memorable_rating,965161,US_Cities_List/mm_peoria.png,,50,,,2,,,,,,,,,,,,,,,
null,,confidence_buffer,965265,confidence_buffer,,null,,,,,,,,,,,,,,,,,,
1580,,recognition_phase,966849,US_Cities_List/mm_peoria.png,,51,,,,,,new,0,0.6153846153846154,,,,,,,,,,
null,,confidence_buffer,966953,confidence_buffer,,null,,,,,,,,,,,,,,,,,,
null,,thebreak,967455,break,,null,,,,,,,,,,,,,,,,,,
3989,,pt2_realistic_rating,971448,Fictional_Cities_List/img_natural_42.png,,52,Fictional_Cities_List/img_natural_42.png,NAT,4,,,,,,,,,,,,,,,
null,,confidence_buffer,971551,confidence_buffer,,null,,,,,,,,,,,,,,,,,,
3098,,probe_rating,974653,probe_rating,,53,,,,5,1,,,,,,,,,,,,,
null,,confidence_buffer,974757,confidence_buffer,,null,,,,,,,,,,,,,,,,,,
985,,pt2_unique_rating,975745,Fictional_Cities_List/img_natural_42.png,,52,,,4,,,,,,,,,,,,,,,
null,,confidence_buffer,975851,confidence_buffer,,null,,,,,,,,,,,,,,,,,,
837,,pt2_memorable_rating,976691,Fictional_Cities_List/img_natural_42.png,,50,,,2,,,,,,,,,,,,,,,
null,,confidence_buffer,976795,confidence_buffer,,null,,,,,,,,,,,,,,,,,,
2910,,recognition_phase,979707,Fictional_Cities_List/img_natural_42.png,,52,,,,,,new,0,0.5714285714285714,,,,,,,,,,
null,,confidence_buffer,979812,confidence_buffer,,null,,,,,,,,,,,,,,,,,,
null,,thebreak,980314,break,,null,,,,,,,,,,,,,,,,,,
6396,,pt2_realistic_rating,986713,US_Cities_List/nat_parkcity.png,,52,US_Cities_List/nat_parkcity.png,NAT,4,,,,,,,,,,,,,,,
null,,confidence_buffer,986817,confidence_buffer,,null,,,,,,,,,,,,,,,,,,
953,,pt2_unique_rating,987774,US_Cities_List/nat_parkcity.png,,50,,,2,,,,,,,,,,,,,,,
null,,confidence_buffer,987877,confidence_buffer,,null,,,,,,,,,,,,,,,,,,
2485,,probe_rating,990366,probe_rating,,53,,,,5,1,,,,,,,,,,,,,
null,,confidence_buffer,990471,confidence_buffer,,null,,,,,,,,,,,,,,,,,,
1084,,pt2_memorable_rating,991559,US_Cities_List/nat_parkcity.png,,52,,,4,,,,,,,,,,,,,,,
null,,confidence_buffer,991664,confidence_buffer,,null,,,,,,,,,,,,,,,,,,
1019,,recognition_phase,992687,US_Cities_List/nat_parkcity.png,,50,,,,,,old,1,0.6,,,,,,,,,,
null,,confidence_buffer,992791,confidence_buffer,,null,,,,,,,,,,,,,,,,,,
null,,thebreak,993293,break,,null,,,,,,,,,,,,,,,,,,
4576,,pt2_realistic_rating,997872,US_Cities_List/nat_hilo.png,,49,US_Cities_List/nat_hilo.png,NAT,1,,,,,,,,,,,,,,,
null,,confidence_buffer,997976,confidence_buffer,,null,,,,,,,,,,,,,,,,,,
1310,,pt2_unique_rating,999289,US_Cities_List/nat_hilo.png,,51,,,3,,,,,,,,,,,,,,,
null,,confidence_buffer,999392,confidence_buffer,,null,,,,,,,,,,,,,,,,,,
1426,,pt2_memorable_rating,1000822,US_Cities_List/nat_hilo.png,,53,,,5,,,,,,,,,,,,,,,
null,,confidence_buffer,1000926,confidence_buffer,,null,,,,,,,,,,,,,,,,,,
885,,recognition_phase,1001814,US_Cities_List/nat_hilo.png,,52,,,,,,new,1,0.625,,,,,,,,,,
null,,confidence_buffer,1001918,confidence_buffer,,null,,,,,,,,,,,,,,,,,,
null,,thebreak,1002419,break,,null,,,,,,,,,,,,,,,,,,
4761,,pt2_realistic_rating,1007184,Fictional_Cities_List/img_manmade_29.png,,51,Fictional_Cities_List/img_manmade_29.png,MM,3,,,,,,,,,,,,,,,
null,,confidence_buffer,1007287,confidence_buffer,,null,,,,,,,,,,,,,,,,,,
939,,pt2_unique_rating,1008228,Fictional_Cities_List/img_manmade_29.png,,50,,,2,,,,,,,,,,,,,,,
null,,confidence_buffer,1008332,confidence_buffer,,null,,,,,,,,,,,,,,,,,,
2973,,probe_rating,1011308,probe_rating,,49,,,,1,1,,,,,,,,,,,,,
null,,confidence_buffer,1011411,confidence_buffer,,null,,,,,,,,,,,,,,,,,,
697,,pt2_memorable_rating,1012111,Fictional_Cities_List/img_manmade_29.png,,53,,,5,,,,,,,,,,,,,,,
null,,confidence_buffer,1012214,confidence_buffer,,null,,,,,,,,,,,,,,,,,,
919,,recognition_phase,1013137,Fictional_Cities_List/img_manmade_29.png,,52,,,,,,new,0,0.5882352941176471,,,,,,,,,,
null,,confidence_buffer,1013242,confidence_buffer,,null,,,,,,,,,,,,,,,,,,
null,,thebreak,1013745,break,,null,,,,,,,,,,,,,,,,,,
2660,,pt2_realistic_rating,1016408,US_Cities_List/mm_albuquerque.png,,50,US_Cities_List/mm_albuquerque.png,MM,2,,,,,,,,,,,,,,,
null,,confidence_buffer,1016512,confidence_buffer,,null,,,,,,,,,,,,,,,,,,
872,,pt2_unique_rating,1017387,US_Cities_List/mm_albuquerque.png,,52,,,4,,,,,,,,,,,,,,,
null,,confidence_buffer,1017492,confidence_buffer,,null,,,,,,,,,,,,,,,,,,
1833,,pt2_memorable_rating,1019329,US_Cities_List/mm_albuquerque.png,,53,,,5,,,,,,,,,,,,,,,
null,,confidence_buffer,1019432,confidence_buffer,,null,,,,,,,,,,,,,,,,,,
1784,,recognition_phase,1021220,US_Cities_List/mm_albuquerque.png,,52,,,,,,new,1,0.6111111111111112,,,,,,,,,,
null,,confidence_buffer,1021323,confidence_buffer,,null,,,,,,,,,,,,,,,,,,
null,,thebreak,1021825,break,,null,,,,,,,,,,,,,,,,,,
2952,,pt2_realistic_rating,1024780,Fictional_Cities_List/img_manmade_12.png,,51,Fictional_Cities_List/img_manmade_12.png,MM,3,,,,,,,,,,,,,,,
null,,confidence_buffer,1024884,confidence_buffer,,null,,,,,,,,,,,,,,,,,,
1018,,pt2_unique_rating,1025906,Fictional_Cities_List/img_manmade_12.png,,52,,,4,,,,,,,,,,,,,,,
null,,confidence_buffer,1026011,confidence_buffer,,null,,,,,,,,,,,,,,,,,,
1320,,pt2_memorable_rating,1027335,Fictional_Cities_List/img_manmade_12.png,,50,,,2,,,,,,,,,,,,,,,
null,,confidence_buffer,1027438,confidence_buffer,,null,,,,,,,,,,,,,,,,,,
2338,,recognition_phase,1029779,Fictional_Cities_List/img_manmade_12.png,,52,,,,,,new,0,0.5789473684210527,,,,,,,,,,
null,,confidence_buffer,1029883,confidence_buffer,,null,,,,,,,,,,,,,,,,,,
null,,thebreak,1030386,break,,null,,,,,,,,,,,,,,,,,,
3691,,pt2_realistic_rating,1034080,US_Cities_List/mm_custer.png,,51,US_Cities_List/mm_custer.png,MM,3,,,,,,,,,,,,,,,
null,,confidence_buffer,1034184,confidence_buffer,,null,,,,,,,,,,,,,,,,,,
1022,,pt2_unique_rating,1035212,US_Cities_List/mm_custer.png,,52,,,4,,,,,,,,,,,,,,,
null,,confidence_buffer,1035316,confidence_buffer,,null,,,,,,,,,,,,,,,,,,
3572,,pt2_memorable_rating,1038891,US_Cities_List/mm_custer.png,,53,,,5,,,,,,,,,,,,,,,
null,,confidence_buffer,1038994,confidence_buffer,,null,,,,,,,,,,,,,,,,,,
2784,,recognition_phase,1041782,US_Cities_List/mm_custer.png,,52,,,,,,new,0,0.55,,,,,,,,,,
null,,confidence_buffer,1041884,confidence_buffer,,null,,,,,,,,,,,,,,,,,,
null,,thebreak,1042387,break,,null,,,,,,,,,,,,,,,,,,
4440,,pt2_realistic_rating,1046830,Fictional_Cities_List/img_natural_11.png,,50,Fictional_Cities_List/img_natural_11.png,NAT,2,,,,,,,,,,,,,,,
null,,confidence_buffer,1046934,confidence_buffer,,null,,,,,,,,,,,,,,,,,,
1916,,probe_rating,1048853,probe_rating,,49,,,,1,1,,,,,,,,,,,,,
null,,confidence_buffer,1048957,confidence_buffer,,null,,,,,,,,,,,,,,,,,,
1059,,pt2_unique_rating,1050019,Fictional_Cities_List/img_natural_11.png,,50,,,2,,,,,,,,,,,,,,,
null,,confidence_buffer,1050123,confidence_buffer,,null,,,,,,,,,,,,,,,,,,
1437,,pt2_memorable_rating,1051562,Fictional_Cities_List/img_natural_11.png,,51,,,3,,,,,,,,,,,,,,,
null,,confidence_buffer,1051666,confidence_buffer,,null,,,,,,,,,,,,,,,,,,
2319,,recognition_phase,1053989,Fictional_Cities_List/img_natural_11.png,,51,,,,,,new,1,0.5714285714285714,,,,,,,,,,
null,,confidence_buffer,1054091,confidence_buffer,,null,,,,,,,,,,,,,,,,,,
null,,thebreak,1054593,break,,null,,,,,,,,,,,,,,,,,,
7001,,pt2_realistic_rating,1061597,US_Cities_List/mm_sammamish.png,,50,US_Cities_List/mm_sammamish.png,MM,2,,,,,,,,,,,,,,,
null,,confidence_buffer,1061702,confidence_buffer,,null,,,,,,,,,,,,,,,,,,
1153,,pt2_unique_rating,1062858,US_Cities_List/mm_sammamish.png,,51,,,3,,,,,,,,,,,,,,,
null,,confidence_buffer,1062962,confidence_buffer,,null,,,,,,,,,,,,,,,,,,
1653,,probe_rating,1064617,probe_rating,,49,,,,1,1,,,,,,,,,,,,,
null,,confidence_buffer,1064722,confidence_buffer,,null,,,,,,,,,,,,,,,,,,
1631,,pt2_memorable_rating,1066356,US_Cities_List/mm_sammamish.png,,51,,,3,,,,,,,,,,,,,,,
null,,confidence_buffer,1066460,confidence_buffer,,null,,,,,,,,,,,,,,,,,,
2052,,recognition_phase,1068515,US_Cities_List/mm_sammamish.png,,52,,,,,,new,1,0.5909090909090909,,,,,,,,,,
null,,confidence_buffer,1068618,confidence_buffer,,null,,,,,,,,,,,,,,,,,,
null,,thebreak,1069120,break,,null,,,,,,,,,,,,,,,,,,
5780,,pt2_realistic_rating,1074904,US_Cities_List/mm_parkcity.png,,50,US_Cities_List/mm_parkcity.png,MM,2,,,,,,,,,,,,,,,
null,,confidence_buffer,1075007,confidence_buffer,,null,,,,,,,,,,,,,,,,,,
861,,pt2_unique_rating,1075870,US_Cities_List/mm_parkcity.png,,51,,,3,,,,,,,,,,,,,,,
null,,confidence_buffer,1075974,confidence_buffer,,null,,,,,,,,,,,,,,,,,,
996,,pt2_memorable_rating,1076974,US_Cities_List/mm_parkcity.png,,50,,,2,,,,,,,,,,,,,,,
null,,confidence_buffer,1077077,confidence_buffer,,null,,,,,,,,,,,,,,,,,,
3418,,recognition_phase,1080500,US_Cities_List/mm_parkcity.png,,51,,,,,,new,0,0.5652173913043478,,,,,,,,,,
null,,confidence_buffer,1080603,confidence_buffer,,null,,,,,,,,,,,,,,,,,,
null,,thebreak,1081103,break,,null,,,,,,,,,,,,,,,,,,
4420,,pt2_realistic_rating,1085525,Fictional_Cities_List/img_manmade_42.png,,51,Fictional_Cities_List/img_manmade_42.png,MM,3,,,,,,,,,,,,,,,
null,,confidence_buffer,1085630,confidence_buffer,,null,,,,,,,,,,,,,,,,,,
774,,pt2_unique_rating,1086408,Fictional_Cities_List/img_manmade_42.png,,50,,,2,,,,,,,,,,,,,,,
null,,confidence_buffer,1086513,confidence_buffer,,null,,,,,,,,,,,,,,,,,,
1689,,pt2_memorable_rating,1088206,Fictional_Cities_List/img_manmade_42.png,,52,,,4,,,,,,,,,,,,,,,
null,,confidence_buffer,1088309,confidence_buffer,,null,,,,,,,,,,,,,,,,,,
2806,,recognition_phase,1091118,Fictional_Cities_List/img_manmade_42.png,,52,,,,,,new,1,0.5833333333333334,,,,,,,,,,
null,,confidence_buffer,1091223,confidence_buffer,,null,,,,,,,,,,,,,,,,,,
null,,thebreak,1091724,break,,null,,,,,,,,,,,,,,,,,,
5326,,pt2_realistic_rating,1097054,Fictional_Cities_List/img_natural_19.png,,49,Fictional_Cities_List/img_natural_19.png,NAT,1,,,,,,,,,,,,,,,
null,,confidence_buffer,1097157,confidence_buffer,,null,,,,,,,,,,,,,,,,,,
1457,,pt2_unique_rating,1098616,Fictional_Cities_List/img_natural_19.png,,50,,,2,,,,,,,,,,,,,,,
null,,confidence_buffer,1098719,confidence_buffer,,null,,,,,,,,,,,,,,,,,,
864,,pt2_memorable_rating,1099587,Fictional_Cities_List/img_natural_19.png,,51,,,3,,,,,,,,,,,,,,,
null,,confidence_buffer,1099691,confidence_buffer,,null,,,,,,,,,,,,,,,,,,
1726,,recognition_phase,1101421,Fictional_Cities_List/img_natural_19.png,,52,,,,,,new,1,0.6,,,,,,,,,,
null,,confidence_buffer,1101524,confidence_buffer,,null,,,,,,,,,,,,,,,,,,
null,,thebreak,1102027,break,,null,,,,,,,,,,,,,,,,,,
4433,,pt2_realistic_rating,1106463,Fictional_Cities_List/img_manmade_33.png,,49,Fictional_Cities_List/img_manmade_33.png,MM,1,,,,,,,,,,,,,,,
null,,confidence_buffer,1106567,confidence_buffer,,null,,,,,,,,,,,,,,,,,,
1009,,pt2_unique_rating,1107578,Fictional_Cities_List/img_manmade_33.png,,50,,,2,,,,,,,,,,,,,,,
null,,confidence_buffer,1107683,confidence_buffer,,null,,,,,,,,,,,,,,,,,,
1106,,pt2_memorable_rating,1108793,Fictional_Cities_List/img_manmade_33.png,,51,,,3,,,,,,,,,,,,,,,
null,,confidence_buffer,1108895,confidence_buffer,,null,,,,,,,,,,,,,,,,,,
1981,,recognition_phase,1110881,Fictional_Cities_List/img_manmade_33.png,,50,,,,,,old,1,0.6153846153846154,,,,,,,,,,
null,,confidence_buffer,1110984,confidence_buffer,,null,,,,,,,,,,,,,,,,,,
null,,thebreak,1111486,break,,null,,,,,,,,,,,,,,,,,,
7006,,pt2_realistic_rating,1118495,Fictional_Cities_List/img_manmade_11.png,,51,Fictional_Cities_List/img_manmade_11.png,MM,3,,,,,,,,,,,,,,,
null,,confidence_buffer,1118600,confidence_buffer,,null,,,,,,,,,,,,,,,,,,
1402,,pt2_unique_rating,1120005,Fictional_Cities_List/img_manmade_11.png,,50,,,2,,,,,,,,,,,,,,,
null,,confidence_buffer,1120109,confidence_buffer,,null,,,,,,,,,,,,,,,,,,
2323,,pt2_memorable_rating,1122436,Fictional_Cities_List/img_manmade_11.png,,51,,,3,,,,,,,,,,,,,,,
null,,confidence_buffer,1122540,confidence_buffer,,null,,,,,,,,,,,,,,,,,,
1042,,recognition_phase,1123585,Fictional_Cities_List/img_manmade_11.png,,52,,,,,,new,0,0.5925925925925926,,,,,,,,,,
null,,confidence_buffer,1123688,confidence_buffer,,null,,,,,,,,,,,,,,,,,,
null,,thebreak,1124190,break,,null,,,,,,,,,,,,,,,,,,
5594,,pt2_realistic_rating,1129787,US_Cities_List/mm_gardnerville.png,,50,US_Cities_List/mm_gardnerville.png,MM,2,,,,,,,,,,,,,,,
null,,confidence_buffer,1129891,confidence_buffer,,null,,,,,,,,,,,,,,,,,,
895,,pt2_unique_rating,1130790,US_Cities_List/mm_gardnerville.png,,51,,,3,,,,,,,,,,,,,,,
null,,confidence_buffer,1130893,confidence_buffer,,null,,,,,,,,,,,,,,,,,,
1716,,pt2_memorable_rating,1132612,US_Cities_List/mm_gardnerville.png,,50,,,2,,,,,,,,,,,,,,,
null,,confidence_buffer,1132716,confidence_buffer,,null,,,,,,,,,,,,,,,,,,
2203,,probe_rating,1134922,probe_rating,,52,,,,4,1,,,,,,,,,,,,,
null,,confidence_buffer,1135027,confidence_buffer,,null,,,,,,,,,,,,,,,,,,
767,,recognition_phase,1135797,US_Cities_List/mm_gardnerville.png,,51,,,,,,new,1,0.6071428571428571,,,,,,,,,,
null,,confidence_buffer,1135901,confidence_buffer,,null,,,,,,,,,,,,,,,,,,
null,,thebreak,1136404,break,,null,,,,,,,,,,,,,,,,,,
3735,,pt2_realistic_rating,1140142,Fictional_Cities_List/img_manmade_36.png,,50,Fictional_Cities_List/img_manmade_36.png,MM,2,,,,,,,,,,,,,,,
null,,confidence_buffer,1140244,confidence_buffer,,null,,,,,,,,,,,,,,,,,,
2547,,probe_rating,1142796,probe_rating,,51,,,,3,1,,,,,,,,,,,,,
null,,confidence_buffer,1142900,confidence_buffer,,null,,,,,,,,,,,,,,,,,,
1346,,pt2_unique_rating,1144249,Fictional_Cities_List/img_manmade_36.png,,52,,,4,,,,,,,,,,,,,,,
null,,confidence_buffer,1144352,confidence_buffer,,null,,,,,,,,,,,,,,,,,,
1174,,pt2_memorable_rating,1145530,Fictional_Cities_List/img_manmade_36.png,,51,,,3,,,,,,,,,,,,,,,
null,,confidence_buffer,1145634,confidence_buffer,,null,,,,,,,,,,,,,,,,,,
1426,,recognition_phase,1147064,Fictional_Cities_List/img_manmade_36.png,,50,,,,,,old,0,0.5862068965517241,,,,,,,,,,
null,,confidence_buffer,1147168,confidence_buffer,,null,,,,,,,,,,,,,,,,,,
null,,thebreak,1147669,break,,null,,,,,,,,,,,,,,,,,,
2991,,pt2_realistic_rating,1150663,US_Cities_List/nat_huntsville.png,,49,US_Cities_List/nat_huntsville.png,NAT,1,,,,,,,,,,,,,,,
null,,confidence_buffer,1150768,confidence_buffer,,null,,,,,,,,,,,,,,,,,,
939,,pt2_unique_rating,1151711,US_Cities_List/nat_huntsville.png,,50,,,2,,,,,,,,,,,,,,,
null,,confidence_buffer,1151815,confidence_buffer,,null,,,,,,,,,,,,,,,,,,
1330,,pt2_memorable_rating,1153149,US_Cities_List/nat_huntsville.png,,51,,,3,,,,,,,,,,,,,,,
null,,confidence_buffer,1153253,confidence_buffer,,null,,,,,,,,,,,,,,,,,,
4047,,probe_rating,1157304,probe_rating,,52,,,,4,1,,,,,,,,,,,,,
null,,confidence_buffer,1157407,confidence_buffer,,null,,,,,,,,,,,,,,,,,,
764,,recognition_phase,1158174,US_Cities_List/nat_huntsville.png,,51,,,,,,new,0,0.5666666666666667,,,,,,,,,,
null,,confidence_buffer,1158277,confidence_buffer,,null,,,,,,,,,,,,,,,,,,
null,,thebreak,1158780,break,,null,,,,,,,,,,,,,,,,,,
6845,,pt2_realistic_rating,1165628,US_Cities_List/mm_hilo.png,,50,US_Cities_List/mm_hilo.png,MM,2,,,,,,,,,,,,,,,
null,,confidence_buffer,1165733,confidence_buffer,,null,,,,,,,,,,,,,,,,,,
2645,,probe_rating,1168381,probe_rating,,50,,,,2,1,,,,,,,,,,,,,
null,,confidence_buffer,1168484,confidence_buffer,,null,,,,,,,,,,,,,,,,,,
820,,pt2_unique_rating,1169306,US_Cities_List/mm_hilo.png,,51,,,3,,,,,,,,,,,,,,,
null,,confidence_buffer,1169409,confidence_buffer,,null,,,,,,,,,,,,,,,,,,
1923,,pt2_memorable_rating,1171335,US_Cities_List/mm_hilo.png,,52,,,4,,,,,,,,,,,,,,,
null,,confidence_buffer,1171439,confidence_buffer,,null,,,,,,,,,,,,,,,,,,
880,,recognition_phase,1172322,US_Cities_List/mm_hilo.png,,51,,,,,,new,1,0.5806451612903226,,,,,,,,,,
null,,confidence_buffer,1172426,confidence_buffer,,null,,,,,,,,,,,,,,,,,,
null,,thebreak,1172928,break,,null,,,,,,,,,,,,,,,,,,
4029,,pt2_realistic_rating,1176960,Fictional_Cities_List/img_natural_08.png,,49,Fictional_Cities_List/img_natural_08.png,NAT,1,,,,,,,,,,,,,,,
null,,confidence_buffer,1177064,confidence_buffer,,null,,,,,,,,,,,,,,,,,,
697,,pt2_unique_rating,1177764,Fictional_Cities_List/img_natural_08.png,,50,,,2,,,,,,,,,,,,,,,
null,,confidence_buffer,1177868,confidence_buffer,,null,,,,,,,,,,,,,,,,,,
525,,pt2_memorable_rating,1178396,Fictional_Cities_List/img_natural_08.png,,51,,,3,,,,,,,,,,,,,,,
null,,confidence_buffer,1178500,confidence_buffer,,null,,,,,,,,,,,,,,,,,,
3885,,recognition_phase,1182389,Fictional_Cities_List/img_natural_08.png,,52,,,,,,new,0,0.5625,,,,,,,,,,
null,,confidence_buffer,1182494,confidence_buffer,,null,,,,,,,,,,,,,,,,,,
null,,thebreak,1182997,break,,null,,,,,,,,,,,,,,,,,,
4908,,pt2_realistic_rating,1187909,US_Cities_List/mm_gatlinburg.png,,51,US_Cities_List/mm_gatlinburg.png,MM,3,,,,,,,,,,,,,,,
null,,confidence_buffer,1188013,confidence_buffer,,null,,,,,,,,,,,,,,,,,,
843,,pt2_unique_rating,1188860,US_Cities_List/mm_gatlinburg.png,,50,,,2,,,,,,,,,,,,,,,
null,,confidence_buffer,1188963,confidence_buffer,,null,,,,,,,,,,,,,,,,,,
2842,,pt2_memorable_rating,1191806,US_Cities_List/mm_gatlinburg.png,,52,,,4,,,,,,,,,,,,,,,
null,,confidence_buffer,1191907,confidence_buffer,,null,,,,,,,,,,,,,,,,,,
2777,,recognition_phase,1194685,US_Cities_List/mm_gatlinburg.png,,52,,,,,,new,1,0.5757575757575758,,,,,,,,,,
null,,confidence_buffer,1194789,confidence_buffer,,null,,,,,,,,,,,,,,,,,,
null,,thebreak,1195292,break,,null,,,,,,,,,,,,,,,,,,
3403,,pt2_realistic_rating,1198698,Fictional_Cities_List/img_natural_10.png,,51,Fictional_Cities_List/img_natural_10.png,NAT,3,,,,,,,,,,,,,,,
null,,confidence_buffer,1198802,confidence_buffer,,null,,,,,,,,,,,,,,,,,,
992,,pt2_unique_rating,1199800,Fictional_Cities_List/img_natural_10.png,,50,,,2,,,,,,,,,,,,,,,
null,,confidence_buffer,1199902,confidence_buffer,,null,,,,,,,,,,,,,,,,,,
669,,pt2_memorable_rating,1200574,Fictional_Cities_List/img_natural_10.png,,51,,,3,,,,,,,,,,,,,,,
null,,confidence_buffer,1200679,confidence_buffer,,null,,,,,,,,,,,,,,,,,,
1161,,recognition_phase,1201844,Fictional_Cities_List/img_natural_10.png,,52,,,,,,new,1,0.5882352941176471,,,,,,,,,,
null,,confidence_buffer,1201948,confidence_buffer,,null,,,,,,,,,,,,,,,,,,
null,,thebreak,1202451,break,,null,,,,,,,,,,,,,,,,,,
4185,,pt2_realistic_rating,1206640,Fictional_Cities_List/img_manmade_43.png,,49,Fictional_Cities_List/img_manmade_43.png,MM,1,,,,,,,,,,,,,,,
null,,confidence_buffer,1206745,confidence_buffer,,null,,,,,,,,,,,,,,,,,,
1832,,pt2_unique_rating,1208580,Fictional_Cities_List/img_manmade_43.png,,51,,,3,,,,,,,,,,,,,,,
null,,confidence_buffer,1208682,confidence_buffer,,null,,,,,,,,,,,,,,,,,,
2100,,pt2_memorable_rating,1210785,Fictional_Cities_List/img_manmade_43.png,,52,,,4,,,,,,,,,,,,,,,
null,,confidence_buffer,1210888,confidence_buffer,,null,,,,,,,,,,,,,,,,,,
921,,recognition_phase,1211812,Fictional_Cities_List/img_manmade_43.png,,51,,,,,,new,1,0.6,,,,,,,,,,
null,,confidence_buffer,1211915,confidence_buffer,,null,,,,,,,,,,,,,,,,,,
null,,thebreak,1212417,break,,null,,,,,,,,,,,,,,,,,,
5684,,pt2_realistic_rating,1218104,Fictional_Cities_List/img_natural_33.png,,51,Fictional_Cities_List/img_natural_33.png,NAT,3,,,,,,,,,,,,,,,
null,,confidence_buffer,1218208,confidence_buffer,,null,,,,,,,,,,,,,,,,,,
732,,pt2_unique_rating,1218942,Fictional_Cities_List/img_natural_33.png,,52,,,4,,,,,,,,,,,,,,,
null,,confidence_buffer,1219046,confidence_buffer,,null,,,,,,,,,,,,,,,,,,
3110,,pt2_memorable_rating,1222158,Fictional_Cities_List/img_natural_33.png,,53,,,5,,,,,,,,,,,,,,,
null,,confidence_buffer,1222262,confidence_buffer,,null,,,,,,,,,,,,,,,,,,
830,,recognition_phase,1223094,Fictional_Cities_List/img_natural_33.png,,52,,,,,,new,0,0.5833333333333334,,,,,,,,,,
null,,confidence_buffer,1223198,confidence_buffer,,null,,,,,,,,,,,,,,,,,,
null,,thebreak,1223700,break,,null,,,,,,,,,,,,,,,,,,
3356,,pt2_realistic_rating,1227059,US_Cities_List/nat_gardnerville.png,,50,US_Cities_List/nat_gardnerville.png,NAT,2,,,,,,,,,,,,,,,
null,,confidence_buffer,1227164,confidence_buffer,,null,,,,,,,,,,,,,,,,,,
1879,,pt2_unique_rating,1229045,US_Cities_List/nat_gardnerville.png,,51,,,3,,,,,,,,,,,,,,,
null,,confidence_buffer,1229150,confidence_buffer,,null,,,,,,,,,,,,,,,,,,
2349,,pt2_memorable_rating,1231503,US_Cities_List/nat_gardnerville.png,,52,,,4,,,,,,,,,,,,,,,
null,,confidence_buffer,1231607,confidence_buffer,,null,,,,,,,,,,,,,,,,,,
3421,,recognition_phase,1235031,US_Cities_List/nat_gardnerville.png,,51,,,,,,new,1,0.5945945945945946,,,,,,,,,,
null,,confidence_buffer,1235135,confidence_buffer,,null,,,,,,,,,,,,,,,,,,
null,,thebreak,1235638,break,,null,,,,,,,,,,,,,,,,,,
6248,,pt2_realistic_rating,1241889,Fictional_Cities_List/img_manmade_23.png,,53,Fictional_Cities_List/img_manmade_23.png,MM,5,,,,,,,,,,,,,,,
null,,confidence_buffer,1241994,confidence_buffer,,null,,,,,,,,,,,,,,,,,,
1338,,pt2_unique_rating,1243335,Fictional_Cities_List/img_manmade_23.png,,52,,,4,,,,,,,,,,,,,,,
null,,confidence_buffer,1243439,confidence_buffer,,null,,,,,,,,,,,,,,,,,,
705,,pt2_memorable_rating,1244147,Fictional_Cities_List/img_manmade_23.png,,51,,,3,,,,,,,,,,,,,,,
null,,confidence_buffer,1244250,confidence_buffer,,null,,,,,,,,,,,,,,,,,,
758,,recognition_phase,1245011,Fictional_Cities_List/img_manmade_23.png,,52,,,,,,new,0,0.5789473684210527,,,,,,,,,,
null,,confidence_buffer,1245114,confidence_buffer,,null,,,,,,,,,,,,,,,,,,
null,,thebreak,1245615,break,,null,,,,,,,,,,,,,,,,,,
3667,,pt2_realistic_rating,1249285,Fictional_Cities_List/img_natural_36.png,,53,Fictional_Cities_List/img_natural_36.png,NAT,5,,,,,,,,,,,,,,,
null,,confidence_buffer,1249390,confidence_buffer,,null,,,,,,,,,,,,,,,,,,
1064,,pt2_unique_rating,1250457,Fictional_Cities_List/img_natural_36.png,,52,,,4,,,,,,,,,,,,,,,
null,,confidence_buffer,1250560,confidence_buffer,,null,,,,,,,,,,,,,,,,,,
739,,pt2_memorable_rating,1251303,Fictional_Cities_List/img_natural_36.png,,51,,,3,,,,,,,,,,,,,,,
null,,confidence_buffer,1251407,confidence_buffer,,null,,,,,,,,,,,,,,,,,,
3656,,recognition_phase,1255067,Fictional_Cities_List/img_natural_36.png,,50,,,,,,old,1,0.5897435897435898,,,,,,,,,,
null,,confidence_buffer,1255172,confidence_buffer,,null,,,,,,,,,,,,,,,,,,
null,,thebreak,1255674,break,,null,,,,,,,,,,,,,,,,,,
2715,,pt2_realistic_rating,1258394,Fictional_Cities_List/img_natural_12.png,,49,Fictional_Cities_List/img_natural_12.png,NAT,1,,,,,,,,,,,,,,,
null,,confidence_buffer,1258498,confidence_buffer,,null,,,,,,,,,,,,,,,,,,
2074,,probe_rating,1260575,probe_rating,,51,,,,3,1,,,,,,,,,,,,,
null,,confidence_buffer,1260681,confidence_buffer,,null,,,,,,,,,,,,,,,,,,
1586,,pt2_unique_rating,1262270,Fictional_Cities_List/img_natural_12.png,,52,,,4,,,,,,,,,,,,,,,
null,,confidence_buffer,1262373,confidence_buffer,,null,,,,,,,,,,,,,,,,,,
666,,pt2_memorable_rating,1263042,Fictional_Cities_List/img_natural_12.png,,51,,,3,,,,,,,,,,,,,,,
null,,confidence_buffer,1263146,confidence_buffer,,null,,,,,,,,,,,,,,,,,,
1561,,recognition_phase,1264711,Fictional_Cities_List/img_natural_12.png,,52,,,,,,new,0,0.575,,,,,,,,,,
null,,confidence_buffer,1264814,confidence_buffer,,null,,,,,,,,,,,,,,,,,,
null,,thebreak,1265317,break,,null,,,,,,,,,,,,,,,,,,
4403,,pt2_realistic_rating,1269723,US_Cities_List/mm_abilene.png,,51,US_Cities_List/mm_abilene.png,MM,3,,,,,,,,,,,,,,,
null,,confidence_buffer,1269827,confidence_buffer,,null,,,,,,,,,,,,,,,,,,
667,,pt2_unique_rating,1270497,US_Cities_List/mm_abilene.png,,52,,,4,,,,,,,,,,,,,,,
null,,confidence_buffer,1270601,confidence_buffer,,null,,,,,,,,,,,,,,,,,,
1502,,pt2_memorable_rating,1272106,US_Cities_List/mm_abilene.png,,52,,,4,,,,,,,,,,,,,,,
null,,confidence_buffer,1272211,confidence_buffer,,null,,,,,,,,,,,,,,,,,,
1583,,probe_rating,1273796,probe_rating,,50,,,,2,1,,,,,,,,,,,,,
null,,confidence_buffer,1273899,confidence_buffer,,null,,,,,,,,,,,,,,,,,,
1107,,recognition_phase,1275009,US_Cities_List/mm_abilene.png,,51,,,,,,new,0,0.5609756097560976,,,,,,,,,,
null,,confidence_buffer,1275113,confidence_buffer,,null,,,,,,,,,,,,,,,,,,
null,,thebreak,1275615,break,,null,,,,,,,,,,,,,,,,,,
2699,,pt2_realistic_rating,1278318,US_Cities_List/mm_orr.png,,50,US_Cities_List/mm_orr.png,MM,2,,,,,,,,,,,,,,,
null,,confidence_buffer,1278420,confidence_buffer,,null,,,,,,,,,,,,,,,,,,
856,,pt2_unique_rating,1279278,US_Cities_List/mm_orr.png,,51,,,3,,,,,,,,,,,,,,,
null,,confidence_buffer,1279382,confidence_buffer,,null,,,,,,,,,,,,,,,,,,
946,,pt2_memorable_rating,1280331,US_Cities_List/mm_orr.png,,52,,,4,,,,,,,,,,,,,,,
null,,confidence_buffer,1280434,confidence_buffer,,null,,,,,,,,,,,,,,,,,,
1459,,recognition_phase,1281897,US_Cities_List/mm_orr.png,,51,,,,,,new,0,0.5476190476190477,,,,,,,,,,
null,,confidence_buffer,1282000,confidence_buffer,,null,,,,,,,,,,,,,,,,,,
null,,thebreak,1282503,break,,null,,,,,,,,,,,,,,,,,,
4374,,pt2_realistic_rating,1286880,Fictional_Cities_List/img_natural_46.png,,49,Fictional_Cities_List/img_natural_46.png,NAT,1,,,,,,,,,,,,,,,
null,,confidence_buffer,1286984,confidence_buffer,,null,,,,,,,,,,,,,,,,,,
847,,pt2_unique_rating,1287833,Fictional_Cities_List/img_natural_46.png,,51,,,3,,,,,,,,,,,,,,,
null,,confidence_buffer,1287937,confidence_buffer,,null,,,,,,,,,,,,,,,,,,
819,,pt2_memorable_rating,1288759,Fictional_Cities_List/img_natural_46.png,,52,,,4,,,,,,,,,,,,,,,
null,,confidence_buffer,1288864,confidence_buffer,,null,,,,,,,,,,,,,,,,,,
1499,,recognition_phase,1290367,Fictional_Cities_List/img_natural_46.png,,50,,,,,,old,1,0.5581395348837209,,,,,,,,,,
null,,confidence_buffer,1290470,confidence_buffer,,null,,,,,,,,,,,,,,,,,,
null,,thebreak,1290973,break,,null,,,,,,,,,,,,,,,,,,
8161,,pt2_realistic_rating,1299137,US_Cities_List/nat_alliance.png,,52,US_Cities_List/nat_alliance.png,NAT,4,,,,,,,,,,,,,,,
null,,confidence_buffer,1299241,confidence_buffer,,null,,,,,,,,,,,,,,,,,,
737,,pt2_unique_rating,1299982,US_Cities_List/nat_alliance.png,,51,,,3,,,,,,,,,,,,,,,
null,,confidence_buffer,1300086,confidence_buffer,,null,,,,,,,,,,,,,,,,,,
520,,pt2_memorable_rating,1300610,US_Cities_List/nat_alliance.png,,50,,,2,,,,,,,,,,,,,,,
null,,confidence_buffer,1300713,confidence_buffer,,null,,,,,,,,,,,,,,,,,,
1570,,probe_rating,1302287,probe_rating,,49,,,,1,1,,,,,,,,,,,,,
null,,confidence_buffer,1302392,confidence_buffer,,null,,,,,,,,,,,,,,,,,,
1254,,recognition_phase,1303649,US_Cities_List/nat_alliance.png,,51,,,,,,new,1,0.5681818181818182,,,,,,,,,,
null,,confidence_buffer,1303753,confidence_buffer,,null,,,,,,,,,,,,,,,,,,
null,,thebreak,1304256,break,,null,,,,,,,,,,,,,,,,,,
3951,,pt2_realistic_rating,1308210,US_Cities_List/nat_abilene.png,,51,US_Cities_List/nat_abilene.png,NAT,3,,,,,,,,,,,,,,,
null,,confidence_buffer,1308315,confidence_buffer,,null,,,,,,,,,,,,,,,,,,
743,,pt2_unique_rating,1309061,US_Cities_List/nat_abilene.png,,50,,,2,,,,,,,,,,,,,,,
null,,confidence_buffer,1309165,confidence_buffer,,null,,,,,,,,,,,,,,,,,,
1277,,pt2_memorable_rating,1310444,US_Cities_List/nat_abilene.png,,52,,,4,,,,,,,,,,,,,,,
null,,confidence_buffer,1310547,confidence_buffer,,null,,,,,,,,,,,,,,,,,,
1083,,recognition_phase,1311633,US_Cities_List/nat_abilene.png,,51,,,,,,new,0,0.5555555555555556,,,,,,,,,,
null,,confidence_buffer,1311737,confidence_buffer,,null,,,,,,,,,,,,,,,,,,
null,,thebreak,1312240,break,,null,,,,,,,,,,,,,,,,,,
3498,,pt2_realistic_rating,1315741,US_Cities_List/mm_watkinsglen.png,,52,US_Cities_List/mm_watkinsglen.png,MM,4,,,,,,,,,,,,,,,
null,,confidence_buffer,1315844,confidence_buffer,,null,,,,,,,,,,,,,,,,,,
584,,pt2_unique_rating,1316431,US_Cities_List/mm_watkinsglen.png,,51,,,3,,,,,,,,,,,,,,,
null,,confidence_buffer,1316535,confidence_buffer,,null,,,,,,,,,,,,,,,,,,
588,,pt2_memorable_rating,1317127,US_Cities_List/mm_watkinsglen.png,,50,,,2,,,,,,,,,,,,,,,
null,,confidence_buffer,1317231,confidence_buffer,,null,,,,,,,,,,,,,,,,,,
5676,,recognition_phase,1322910,US_Cities_List/mm_watkinsglen.png,,52,,,,,,new,1,0.5652173913043478,,,,,,,,,,
null,,confidence_buffer,1323014,confidence_buffer,,null,,,,,,,,,,,,,,,,,,
null,,thebreak,1323515,break,,null,,,,,,,,,,,,,,,,,,
4166,,pt2_realistic_rating,1327685,US_Cities_List/mm_healdsburg.png,,52,US_Cities_List/mm_healdsburg.png,MM,4,,,,,,,,,,,,,,,
null,,confidence_buffer,1327789,confidence_buffer,,null,,,,,,,,,,,,,,,,,,
1896,,pt2_unique_rating,1329688,US_Cities_List/mm_healdsburg.png,,51,,,3,,,,,,,,,,,,,,,
null,,confidence_buffer,1329793,confidence_buffer,,null,,,,,,,,,,,,,,,,,,
969,,pt2_memorable_rating,1330765,US_Cities_List/mm_healdsburg.png,,50,,,2,,,,,,,,,,,,,,,
null,,confidence_buffer,1330869,confidence_buffer,,null,,,,,,,,,,,,,,,,,,
3603,,recognition_phase,1334474,US_Cities_List/mm_healdsburg.png,,52,,,,,,new,0,0.5531914893617021,,,,,,,,,,
null,,confidence_buffer,1334579,confidence_buffer,,null,,,,,,,,,,,,,,,,,,
null,,thebreak,1335082,break,,null,,,,,,,,,,,,,,,,,,
7506,,pt2_realistic_rating,1342592,Fictional_Cities_List/img_natural_29.png,,49,Fictional_Cities_List/img_natural_29.png,NAT,1,,,,,,,,,,,,,,,
null,,confidence_buffer,1342695,confidence_buffer,,null,,,,,,,,,,,,,,,,,,
1164,,pt2_unique_rating,1343863,Fictional_Cities_List/img_natural_29.png,,50,,,2,,,,,,,,,,,,,,,
null,,confidence_buffer,1343966,confidence_buffer,,null,,,,,,,,,,,,,,,,,,
1122,,pt2_memorable_rating,1345091,Fictional_Cities_List/img_natural_29.png,,51,,,3,,,,,,,,,,,,,,,
null,,confidence_buffer,1345194,confidence_buffer,,null,,,,,,,,,,,,,,,,,,
2448,,recognition_phase,1347646,Fictional_Cities_List/img_natural_29.png,,52,,,,,,new,1,0.5625,,,,,,,,,,
null,,confidence_buffer,1347749,confidence_buffer,,null,,,,,,,,,,,,,,,,,,
null,,thebreak,1348252,break,,null,,,,,,,,,,,,,,,,,,
4026,,pt2_realistic_rating,1352281,US_Cities_List/nat_barnard.png,,49,US_Cities_List/nat_barnard.png,NAT,1,,,,,,,,,,,,,,,
null,,confidence_buffer,1352385,confidence_buffer,,null,,,,,,,,,,,,,,,,,,
778,,pt2_unique_rating,1353165,US_Cities_List/nat_barnard.png,,50,,,2,,,,,,,,,,,,,,,
null,,confidence_buffer,1353268,confidence_buffer,,null,,,,,,,,,,,,,,,,,,
825,,pt2_memorable_rating,1354095,US_Cities_List/nat_barnard.png,,51,,,3,,,,,,,,,,,,,,,
null,,confidence_buffer,1354199,confidence_buffer,,null,,,,,,,,,,,,,,,,,,
4192,,recognition_phase,1358395,US_Cities_List/nat_barnard.png,,50,,,,,,old,1,0.5714285714285714,,,,,,,,,,
null,,confidence_buffer,1358500,confidence_buffer,,null,,,,,,,,,,,,,,,,,,
null,,thebreak,1359003,break,,null,,,,,,,,,,,,,,,,,,
3387,,pt2_realistic_rating,1362393,US_Cities_List/nat_delawarecity.png,,53,US_Cities_List/nat_delawarecity.png,NAT,5,,,,,,,,,,,,,,,
null,,confidence_buffer,1362497,confidence_buffer,,null,,,,,,,,,,,,,,,,,,
848,,pt2_unique_rating,1363349,US_Cities_List/nat_delawarecity.png,,52,,,4,,,,,,,,,,,,,,,
null,,confidence_buffer,1363453,confidence_buffer,,null,,,,,,,,,,,,,,,,,,
850,,pt2_memorable_rating,1364306,US_Cities_List/nat_delawarecity.png,,51,,,3,,,,,,,,,,,,,,,
null,,confidence_buffer,1364410,confidence_buffer,,null,,,,,,,,,,,,,,,,,,
1269,,recognition_phase,1365681,US_Cities_List/nat_delawarecity.png,,52,,,,,,new,1,0.58,,,,,,,,,,
null,,confidence_buffer,1365784,confidence_buffer,,null,,,,,,,,,,,,,,,,,,
null,,thebreak,1366287,break,,null,,,,,,,,,,,,,,,,,,
7630,,pt2_realistic_rating,1373920,Fictional_Cities_List/img_manmade_19.png,,52,Fictional_Cities_List/img_manmade_19.png,MM,4,,,,,,,,,,,,,,,
null,,confidence_buffer,1374025,confidence_buffer,,null,,,,,,,,,,,,,,,,,,
916,,pt2_unique_rating,1374945,Fictional_Cities_List/img_manmade_19.png,,51,,,3,,,,,,,,,,,,,,,
null,,confidence_buffer,1375048,confidence_buffer,,null,,,,,,,,,,,,,,,,,,
673,,pt2_memorable_rating,1375724,Fictional_Cities_List/img_manmade_19.png,,50,,,2,,,,,,,,,,,,,,,
null,,confidence_buffer,1375828,confidence_buffer,,null,,,,,,,,,,,,,,,,,,
1317,,recognition_phase,1377148,Fictional_Cities_List/img_manmade_19.png,,51,,,,,,new,0,0.5686274509803921,,,,,,,,,,
null,,confidence_buffer,1377251,confidence_buffer,,null,,,,,,,,,,,,,,,,,,
null,,thebreak,1377753,break,,null,,,,,,,,,,,,,,,,,,
4506,,pt2_realistic_rating,1382262,Fictional_Cities_List/img_natural_48.png,,53,Fictional_Cities_List/img_natural_48.png,NAT,5,,,,,,,,,,,,,,,
null,,confidence_buffer,1382366,confidence_buffer,,null,,,,,,,,,,,,,,,,,,
3169,,probe_rating,1385538,probe_rating,,51,,,,3,1,,,,,,,,,,,,,
null,,confidence_buffer,1385644,confidence_buffer,,null,,,,,,,,,,,,,,,,,,
1542,,pt2_unique_rating,1387189,Fictional_Cities_List/img_natural_48.png,,52,,,4,,,,,,,,,,,,,,,
null,,confidence_buffer,1387293,confidence_buffer,,null,,,,,,,,,,,,,,,,,,
2047,,pt2_memorable_rating,1389343,Fictional_Cities_List/img_natural_48.png,,53,,,5,,,,,,,,,,,,,,,
null,,confidence_buffer,1389447,confidence_buffer,,null,,,,,,,,,,,,,,,,,,
762,,recognition_phase,1390213,Fictional_Cities_List/img_natural_48.png,,52,,,,,,new,0,0.5576923076923077,,,,,,,,,,
null,,confidence_buffer,1390316,confidence_buffer,,null,,,,,,,,,,,,,,,,,,
null,,thebreak,1390817,break,,null,,,,,,,,,,,,,,,,,,
3045,,pt2_realistic_rating,1393866,Fictional_Cities_List/img_manmade_30.png,,51,Fictional_Cities_List/img_manmade_30.png,MM,3,,,,,,,,,,,,,,,
null,,confidence_buffer,1393970,confidence_buffer,,null,,,,,,,,,,,,,,,,,,
1314,,pt2_unique_rating,1395287,Fictional_Cities_List/img_manmade_30.png,,52,,,4,,,,,,,,,,,,,,,
null,,confidence_buffer,1395391,confidence_buffer,,null,,,,,,,,,,,,,,,,,,
3191,,pt2_memorable_rating,1398586,Fictional_Cities_List/img_manmade_30.png,,53,,,5,,,,,,,,,,,,,,,
null,,confidence_buffer,1398689,confidence_buffer,,null,,,,,,,,,,,,,,,,,,
837,,recognition_phase,1399529,Fictional_Cities_List/img_manmade_30.png,,52,,,,,,new,1,0.5660377358490566,,,,,,,,,,
null,,confidence_buffer,1399632,confidence_buffer,,null,,,,,,,,,,,,,,,,,,
null,,thebreak,1400136,break,,null,,,,,,,,,,,,,,,,,,
13691,,pt2_realistic_rating,1413830,Fictional_Cities_List/img_natural_30.png,,53,Fictional_Cities_List/img_natural_30.png,NAT,5,,,,,,,,,,,,,,,
null,,confidence_buffer,1413933,confidence_buffer,,null,,,,,,,,,,,,,,,,,,
1111,,pt2_unique_rating,1415047,Fictional_Cities_List/img_natural_30.png,,52,,,4,,,,,,,,,,,,,,,
null,,confidence_buffer,1415150,confidence_buffer,,null,,,,,,,,,,,,,,,,,,
669,,pt2_memorable_rating,1415822,Fictional_Cities_List/img_natural_30.png,,51,,,3,,,,,,,,,,,,,,,
null,,confidence_buffer,1415925,confidence_buffer,,null,,,,,,,,,,,,,,,,,,
3321,,recognition_phase,1419250,Fictional_Cities_List/img_natural_30.png,,52,,,,,,new,1,0.5740740740740741,,,,,,,,,,
null,,confidence_buffer,1419354,confidence_buffer,,null,,,,,,,,,,,,,,,,,,
null,,thebreak,1419856,break,,null,,,,,,,,,,,,,,,,,,
8393,,pt2_realistic_rating,1428252,US_Cities_List/mm_barnard.png,,51,US_Cities_List/mm_barnard.png,MM,3,,,,,,,,,,,,,,,
null,,confidence_buffer,1428356,confidence_buffer,,null,,,,,,,,,,,,,,,,,,
812,,pt2_unique_rating,1429170,US_Cities_List/mm_barnard.png,,52,,,4,,,,,,,,,,,,,,,
null,,confidence_buffer,1429274,confidence_buffer,,null,,,,,,,,,,,,,,,,,,
989,,pt2_memorable_rating,1430267,US_Cities_List/mm_barnard.png,,50,,,2,,,,,,,,,,,,,,,
null,,confidence_buffer,1430372,confidence_buffer,,null,,,,,,,,,,,,,,,,,,
1527,,recognition_phase,1431903,US_Cities_List/mm_barnard.png,,52,,,,,,new,0,0.5636363636363636,,,,,,,,,,
null,,confidence_buffer,1432007,confidence_buffer,,null,,,,,,,,,,,,,,,,,,
null,,thebreak,1432511,break,,null,,,,,,,,,,,,,,,,,,
8124,,pt2_realistic_rating,1440638,US_Cities_List/nat_watkinsglen.png,,51,US_Cities_List/nat_watkinsglen.png,NAT,3,,,,,,,,,,,,,,,
null,,confidence_buffer,1440742,confidence_buffer,,null,,,,,,,,,,,,,,,,,,
810,,pt2_unique_rating,1441556,US_Cities_List/nat_watkinsglen.png,,52,,,4,,,,,,,,,,,,,,,
null,,confidence_buffer,1441660,confidence_buffer,,null,,,,,,,,,,,,,,,,,,
922,,pt2_memorable_rating,1442585,US_Cities_List/nat_watkinsglen.png,,50,,,2,,,,,,,,,,,,,,,
null,,confidence_buffer,1442689,confidence_buffer,,null,,,,,,,,,,,,,,,,,,
2123,,recognition_phase,1444816,US_Cities_List/nat_watkinsglen.png,,51,,,,,,new,1,0.5714285714285714,,,,,,,,,,
null,,confidence_buffer,1444919,confidence_buffer,,null,,,,,,,,,,,,,,,,,,
null,,thebreak,1445420,break,,null,,,,,,,,,,,,,,,,,,
2349,,pt2_realistic_rating,1447773,Fictional_Cities_List/img_natural_23.png,,49,Fictional_Cities_List/img_natural_23.png,NAT,1,,,,,,,,,,,,,,,
null,,confidence_buffer,1447878,confidence_buffer,,null,,,,,,,,,,,,,,,,,,
2045,,pt2_unique_rating,1449925,Fictional_Cities_List/img_natural_23.png,,50,,,2,,,,,,,,,,,,,,,
null,,confidence_buffer,1450030,confidence_buffer,,null,,,,,,,,,,,,,,,,,,
1349,,pt2_memorable_rating,1451382,Fictional_Cities_List/img_natural_23.png,,51,,,3,,,,,,,,,,,,,,,
null,,confidence_buffer,1451485,confidence_buffer,,null,,,,,,,,,,,,,,,,,,
2072,,probe_rating,1453560,probe_rating,,49,,,,1,1,,,,,,,,,,,,,
null,,confidence_buffer,1453664,confidence_buffer,,null,,,,,,,,,,,,,,,,,,
1984,,recognition_phase,1455653,Fictional_Cities_List/img_natural_23.png,,50,,,,,,old,1,0.5789473684210527,,,,,,,,,,
null,,confidence_buffer,1455757,confidence_buffer,,null,,,,,,,,,,,,,,,,,,
null,,thebreak,1456260,break,,null,,,,,,,,,,,,,,,,,,
5469,,pt2_realistic_rating,1461731,US_Cities_List/mm_newhope.png,,52,US_Cities_List/mm_newhope.png,MM,4,,,,,,,,,,,,,,,
null,,confidence_buffer,1461835,confidence_buffer,,null,,,,,,,,,,,,,,,,,,
602,,pt2_unique_rating,1462440,US_Cities_List/mm_newhope.png,,51,,,3,,,,,,,,,,,,,,,
null,,confidence_buffer,1462543,confidence_buffer,,null,,,,,,,,,,,,,,,,,,
2589,,pt2_memorable_rating,1465135,US_Cities_List/mm_newhope.png,,52,,,4,,,,,,,,,,,,,,,
null,,confidence_buffer,1465239,confidence_buffer,,null,,,,,,,,,,,,,,,,,,
5573,,recognition_phase,1470817,US_Cities_List/mm_newhope.png,,51,,,,,,new,1,0.5862068965517241,,,,,,,,,,
null,,confidence_buffer,1470920,confidence_buffer,,null,,,,,,,,,,,,,,,,,,
null,,thebreak,1471421,break,,null,,,,,,,,,,,,,,,,,,
5372,,pt2_realistic_rating,1476797,Fictional_Cities_List/img_manmade_46.png,,51,Fictional_Cities_List/img_manmade_46.png,MM,3,,,,,,,,,,,,,,,
null,,confidence_buffer,1476901,confidence_buffer,,null,,,,,,,,,,,,,,,,,,
939,,pt2_unique_rating,1477843,Fictional_Cities_List/img_manmade_46.png,,52,,,4,,,,,,,,,,,,,,,
null,,confidence_buffer,1477948,confidence_buffer,,null,,,,,,,,,,,,,,,,,,
2222,,pt2_memorable_rating,1480174,Fictional_Cities_List/img_manmade_46.png,,50,,,2,,,,,,,,,,,,,,,
null,,confidence_buffer,1480277,confidence_buffer,,null,,,,,,,,,,,,,,,,,,
3116,,recognition_phase,1483397,Fictional_Cities_List/img_manmade_46.png,,51,,,,,,new,1,0.5932203389830508,,,,,,,,,,
null,,confidence_buffer,1483501,confidence_buffer,,null,,,,,,,,,,,,,,,,,,
null,,thebreak,1484003,break,,null,,,,,,,,,,,,,,,,,,
5895,,pt2_realistic_rating,1489900,Fictional_Cities_List/img_manmade_08.png,,50,Fictional_Cities_List/img_manmade_08.png,MM,2,,,,,,,,,,,,,,,
null,,confidence_buffer,1490004,confidence_buffer,,null,,,,,,,,,,,,,,,,,,
762,,pt2_unique_rating,1490769,Fictional_Cities_List/img_manmade_08.png,,51,,,3,,,,,,,,,,,,,,,
null,,confidence_buffer,1490873,confidence_buffer,,null,,,,,,,,,,,,,,,,,,
1969,,pt2_memorable_rating,1492846,Fictional_Cities_List/img_manmade_08.png,,52,,,4,,,,,,,,,,,,,,,
null,,confidence_buffer,1492951,confidence_buffer,,null,,,,,,,,,,,,,,,,,,
2180,,recognition_phase,1495135,Fictional_Cities_List/img_manmade_08.png,,51,,,,,,new,0,0.5833333333333334,,,,,,,,,,
null,,confidence_buffer,1495240,confidence_buffer,,null,,,,,,,,,,,,,,,,,,
null,,thebreak,1495742,break,,null,,,,,,,,,,,,,,,,,,
,,survey,2327397,survey-questions,,,,,,,,,,,none,high,no,I analyzed the images,recognizable subjects,does the image stick in my mind,if it stand out,how accurately it represent reality,i have not participated in similar study,it was okay
