"rt","responses","trial_type","time_elapsed","sequence","stimulus","cities","city_images","button_pressed","response","key_press","stimulus_left","stimulus_right","accuracy","cumulative_accuracy","stimulus_down_left","stimulus_down_mid","stimulus_down_right","stimulus_correct","stimulus_short","stimulus_far","weighted_accuracy","missedtrial","condition","specific_pairs","imgL_ID","imgR_ID","linedress","linedressed","detour_trial","linedressed_detor","testedstates","currentstate","otherstate","problems","smooth","distraction","strategies","easier","similar","comments"
"2793","{""worker_id"":""3024""}","id_enter","2796","blocked","intro","Delaro Park; Riverlyn; Granton Ridge; Claywater; Orchard Bend; Cedarwyn; Hollendale; Baymarsh; Hawthorne Bluffs; Juniper Creek; New Verdan; North Arroya; Sunmere","US_Cities_List/teeth.png; US_Cities_List/barrel.png; US_Cities_List/wheelchair.png; US_Cities_List/camera.png; US_Cities_List/dustpan.png; US_Cities_List/paint.png; US_Cities_List/jukebox.png; US_Cities_List/soldier.png; US_Cities_List/gong.png; US_Cities_List/globe.png; US_Cities_List/snail.png; US_Cities_List/basket.png; US_Cities_List/hat.png","","","","","","","","","","","","","","","","","","","","","","","","","","","","","","","","",""
"824.5","","fullscreen","3625","","make_fullscreen","","","0","","","","","","","","","","","","","","","","","","","","","","","","","","","","","","","",""
"54405.40000000596","","intro_1","58037","","instruct","","","0","","","","","","","","","","","","","","","","","","","","","","","","","","","","","","","",""
"2403.2000000029802","","intro_2","60454","","instruct","","","1","Next","","","","","","","","","","","","","","","","","","","","","","","","","","","","","","",""
"3183.5","","intro_3","63646","","instruct","","","0","Previous","","","","","","","","","","","","","","","","","","","","","","","","","","","","","","",""
"1131.6000000089407","","intro_2","64782","","instruct","","","0","Previous","","","","","","","","","","","","","","","","","","","","","","","","","","","","","","",""
"8788.90000000596","","intro_1","73575","","instruct","","","0","","","","","","","","","","","","","","","","","","","","","","","","","","","","","","","",""
"20260.09999999404","","intro_2","93839","","instruct","","","1","Next","","","","","","","","","","","","","","","","","","","","","","","","","","","","","","",""
"12723.89999999106","","intro_3","106566","","instruct","","","1","Next","","","","","","","","","","","","","","","","","","","","","","","","","","","","","","",""
"51766","","intro_4","158335","","instruct","","","1","Next","","","","","","","","","","","","","","","","","","","","","","","","","","","","","","",""
"15212.5","","intro_5","173551","","instruct","","","1","Next","","","","","","","","","","","","","","","","","","","","","","","","","","","","","","",""
"20085.39999999106","","intro_6","193638","","instruct","","","1","Next","","","","","","","","","","","","","","","","","","","","","","","","","","","","","","",""
"11659.90000000596","","intro_7","205301","","instruct","","","1","Next","","","","","","","","","","","","","","","","","","","","","","","","","","","","","","",""
"4349.899999991059","","intro_8","209653","","instruct","","","1","Next","","","","","","","","","","","","","","","","","","","","","","","","","","","","","","",""
"2960.5","","intro_9","212616","","instruct","","","0","Previous","","","","","","","","","","","","","","","","","","","","","","","","","","","","","","",""
"6467.899999991059","","intro_8","219086","","instruct","","","1","Next","","","","","","","","","","","","","","","","","","","","","","","","","","","","","","",""
"996","","intro_9","220085","","instruct","","","0","Previous","","","","","","","","","","","","","","","","","","","","","","","","","","","","","","",""
"7517.600000008941","","intro_8","227605","","instruct","","","1","Next","","","","","","","","","","","","","","","","","","","","","","","","","","","","","","",""
"5677.5","","intro_9","233285","","instruct","","","1","Next","","","","","","","","","","","","","","","","","","","","","","","","","","","","","","",""
"11093.39999999106","","intro_10","244381","","instruct","","","1","Next","","","","","","","","","","","","","","","","","","","","","","","","","","","","","","",""
"11341","","intro_11","255725","","instruct","","","1","Next","","","","","","","","","","","","","","","","","","","","","","","","","","","","","","",""
"31668.70000000298","","intro_12","287396","","instruct","","","1","Next","","","","","","","","","","","","","","","","","","","","","","","","","","","","","","",""
"null","","prac_atten_color_black","288198","","black_plus_sign","","","","","null","","","","","","","","","","","","","","","","","","","","","","","","","","","","","",""
"433","","prac_atten_color","288810","","prac_stop_color","","","","","49","","","","","","","","","","","","","","","","","","","","","","","","","","","","","",""
"null","","prac_atten_color_black","290814","","black_plus_sign","","","","","null","","","","","","","","","","","","","","","","","","","","","","","","","","","","","",""
"null","","prac_atten_color_black","291615","","black_plus_sign","","","","","null","","","","","","","","","","","","","","","","","","","","","","","","","","","","","",""
"717.2000000029802","","prac_atten_color","292382","","prac_stop_color","","","","","50","","","","","","","","","","","","","","","","","","","","","","","","","","","","","",""
"null","","prac_atten_color_black","294385","","black_plus_sign","","","","","null","","","","","","","","","","","","","","","","","","","","","","","","","","","","","",""
"null","","prac_atten_color_black","295026","","black_plus_sign","","","","","null","","","","","","","","","","","","","","","","","","","","","","","","","","","","","",""
"505.8999999910593","","prac_atten_color","295747","","prac_stop_color","","","","","50","","","","","","","","","","","","","","","","","","","","","","","","","","","","","",""
"null","","prac_atten_color_black","297751","","black_plus_sign","","","","","null","","","","","","","","","","","","","","","","","","","","","","","","","","","","","",""
"null","","prac_atten_color_black","298437","","black_plus_sign","","","","","null","","","","","","","","","","","","","","","","","","","","","","","","","","","","","",""
"590.7999999970198","","prac_atten_color","299163","","prac_stop_color","","","","","49","","","","","","","","","","","","","","","","","","","","","","","","","","","","","",""
"null","","prac_atten_color_black","301166","","black_plus_sign","","","","","null","","","","","","","","","","","","","","","","","","","","","","","","","","","","","",""
"null","","prac_atten_color_black","301847","","black_plus_sign","","","","","null","","","","","","","","","","","","","","","","","","","","","","","","","","","","","",""
"null","","prac_atten_color","302267","","prac_stop_color","","","","","null","","","","","","","","","","","","","","","","","","","","","","","","","","","","","",""
"64.30000001192093","","prac_atten_color_black","304271","","black_plus_sign","","","","","50","","","","","","","","","","","","","","","","","","","","","","","","","","","","","",""
"null","","prac_atten_color_black","305258","","black_plus_sign","","","","","null","","","","","","","","","","","","","","","","","","","","","","","","","","","","","",""
"520.2000000029802","","prac_atten_color","306088","","prac_stop_color","","","","","50","","","","","","","","","","","","","","","","","","","","","","","","","","","","","",""
"null","","prac_atten_color_black","308091","","black_plus_sign","","","","","null","","","","","","","","","","","","","","","","","","","","","","","","","","","","","",""
"null","","prac_atten_color_black","308669","","black_plus_sign","","","","","null","","","","","","","","","","","","","","","","","","","","","","","","","","","","","",""
"null","","prac_atten_color","309075","","prac_stop_color","","","","","null","","","","","","","","","","","","","","","","","","","","","","","","","","","","","",""
"152.5","","prac_atten_color_black","311078","","black_plus_sign","","","","","49","","","","","","","","","","","","","","","","","","","","","","","","","","","","","",""
"null","","prac_atten_color_black","312080","","black_plus_sign","","","","","null","","","","","","","","","","","","","","","","","","","","","","","","","","","","","",""
"523","","prac_atten_color","313120","","prac_stop_color","","","","","50","","","","","","","","","","","","","","","","","","","","","","","","","","","","","",""
"null","","prac_atten_color_black","315124","","black_plus_sign","","","","","null","","","","","","","","","","","","","","","","","","","","","","","","","","","","","",""
"null","","prac_atten_color_black","315490","","black_plus_sign","","","","","null","","","","","","","","","","","","","","","","","","","","","","","","","","","","","",""
"449.29999999701977","","prac_atten_color","316426","","prac_stop_color","","","","","49","","","","","","","","","","","","","","","","","","","","","","","","","","","","","",""
"null","","prac_atten_color_black","318429","","black_plus_sign","","","","","null","","","","","","","","","","","","","","","","","","","","","","","","","","","","","",""
"null","","prac_atten_color_black","318900","","black_plus_sign","","","","","null","","","","","","","","","","","","","","","","","","","","","","","","","","","","","",""
"583.2000000029802","","prac_atten_color","319700","","prac_stop_color","","","","","49","","","","","","","","","","","","","","","","","","","","","","","","","","","","","",""
"null","","prac_atten_color_black","321706","","black_plus_sign","","","","","null","","","","","","","","","","","","","","","","","","","","","","","","","","","","","",""
"8312.79999999702","","attentioncheck_feedback","330021","","cross_check_feedback","","","0","","","","","","","","","","","","","","","","","","","","","","","","","","","","","","","",""
"65883.90000000596","","last_instruct","395907","","instruct","","","","","32","","","","","","","","","","","","","","","","","","","","","","","","","","","","","",""
"null","","learn_phase(without_color)","398920","","black_plus_sign","","","","","null","US_Cities_List/snail.png","US_Cities_List/gong.png","","","","","","","","","","","","","","","","","","","","","","","","","","","",""
"null","","black_cross(without_color)","399529","","blue","","","","","null","US_Cities_List/snail.png","US_Cities_List/gong.png","","","","","","","","","","","","","","","","","","","","","","","","","","","",""
"null","","rt_plussign_withcolor","400032","","blue","","","","","null","US_Cities_List/snail.png","US_Cities_List/gong.png","","","","","","","","","","","","","","","","","","","","","","","","","","","",""
"1162.7000000029802","","rt_thecrossant_black","401430","","black_plus_sign","","","","","49","","","1","1","","","","","","","","","","","","","","","","","","","","","","","","","",""
"null","","color_black","401536","","black_plus_sign","","","","","null","","","","","","","","","","","","","","","","","","","","","","","","","","","","","",""
"null","","learn_phase(without_color)","404552","","black_plus_sign","","","","","null","US_Cities_List/paint.png","US_Cities_List/jukebox.png","","","","","","","","","","","","","","","","","","","","","","","","","","","",""
"null","","black_cross(without_color)","405385","","green","","","","","null","US_Cities_List/paint.png","US_Cities_List/jukebox.png","","","","","","","","","","","","","","","","","","","","","","","","","","","",""
"null","","rt_plussign_withcolor","405888","","green","","","","","null","US_Cities_List/paint.png","US_Cities_List/jukebox.png","","","","","","","","","","","","","","","","","","","","","","","","","","","",""
"897.2999999970198","","rt_thecrossant_black","407062","","black_plus_sign","","","","","50","","","1","1","","","","","","","","","","","","","","","","","","","","","","","","","",""
"null","","color_black","407166","","black_plus_sign","","","","","null","","","","","","","","","","","","","","","","","","","","","","","","","","","","","",""
"null","","learn_phase(without_color)","410183","","black_plus_sign","","","","","null","US_Cities_List/camera.png","US_Cities_List/basket.png","","","","","","","","","","","","","","","","","","","","","","","","","","","",""
"null","","black_cross(without_color)","410867","","blue","","","","","null","US_Cities_List/camera.png","US_Cities_List/basket.png","","","","","","","","","","","","","","","","","","","","","","","","","","","",""
"null","","rt_plussign_withcolor","411370","","blue","","","","","null","US_Cities_List/camera.png","US_Cities_List/basket.png","","","","","","","","","","","","","","","","","","","","","","","","","","","",""
"1137.8999999910593","","rt_thecrossant_black","412693","","black_plus_sign","","","","","49","","","1","1","","","","","","","","","","","","","","","","","","","","","","","","","",""
"null","","color_black","412797","","black_plus_sign","","","","","null","","","","","","","","","","","","","","","","","","","","","","","","","","","","","",""
"null","","learn_phase(without_color)","415814","","black_plus_sign","","","","","null","US_Cities_List/jukebox.png","US_Cities_List/paint.png","","","","","","","","","","","","","","","","","","","","","","","","","","","",""
"null","","black_cross(without_color)","416760","","green","","","","","null","US_Cities_List/jukebox.png","US_Cities_List/paint.png","","","","","","","","","","","","","","","","","","","","","","","","","","","",""
"null","","rt_plussign_withcolor","417262","","green","","","","","null","US_Cities_List/jukebox.png","US_Cities_List/paint.png","","","","","","","","","","","","","","","","","","","","","","","","","","","",""
"1161.5999999940395","","rt_thecrossant_black","418322","","black_plus_sign","","","","","50","","","1","1","","","","","","","","","","","","","","","","","","","","","","","","","",""
"null","","color_black","418426","","black_plus_sign","","","","","null","","","","","","","","","","","","","","","","","","","","","","","","","","","","","",""
"null","","learn_phase(without_color)","421442","","black_plus_sign","","","","","null","US_Cities_List/basket.png","US_Cities_List/camera.png","","","","","","","","","","","","","","","","","","","","","","","","","","","",""
"null","","black_cross(without_color)","421898","","blue","","","","","null","US_Cities_List/basket.png","US_Cities_List/camera.png","","","","","","","","","","","","","","","","","","","","","","","","","","","",""
"null","","rt_plussign_withcolor","422401","","blue","","","","","null","US_Cities_List/basket.png","US_Cities_List/camera.png","","","","","","","","","","","","","","","","","","","","","","","","","","","",""
"1180.5","","rt_thecrossant_black","423953","","black_plus_sign","","","","","49","","","1","1","","","","","","","","","","","","","","","","","","","","","","","","","",""
"null","","color_black","424056","","black_plus_sign","","","","","null","","","","","","","","","","","","","","","","","","","","","","","","","","","","","",""
"null","","learn_phase(without_color)","427073","","black_plus_sign","","","","","null","US_Cities_List/jukebox.png","US_Cities_List/paint.png","","","","","","","","","","","","","","","","","","","","","","","","","","","",""
"null","","black_cross(without_color)","427767","","blue","","","","","null","US_Cities_List/jukebox.png","US_Cities_List/paint.png","","","","","","","","","","","","","","","","","","","","","","","","","","","",""
"null","","rt_plussign_withcolor","428270","","blue","","","","","null","US_Cities_List/jukebox.png","US_Cities_List/paint.png","","","","","","","","","","","","","","","","","","","","","","","","","","","",""
"613","","rt_thecrossant_black","429583","","black_plus_sign","","","","","49","","","1","1","","","","","","","","","","","","","","","","","","","","","","","","","",""
"null","","color_black","429687","","black_plus_sign","","","","","null","","","","","","","","","","","","","","","","","","","","","","","","","","","","","",""
"null","","learn_phase(without_color)","432702","","black_plus_sign","","","","","null","US_Cities_List/basket.png","US_Cities_List/camera.png","","","","","","","","","","","","","","","","","","","","","","","","","","","",""
"null","","black_cross(without_color)","433221","","green","","","","","null","US_Cities_List/basket.png","US_Cities_List/camera.png","","","","","","","","","","","","","","","","","","","","","","","","","","","",""
"null","","rt_plussign_withcolor","433724","","green","","","","","null","US_Cities_List/basket.png","US_Cities_List/camera.png","","","","","","","","","","","","","","","","","","","","","","","","","","","",""
"1764.8999999910593","","rt_thecrossant_black","435212","","black_plus_sign","","","","","49","","","0","0.8571428571428571","","","","","","","","","","","","","","","","","","","","","","","","","",""
"null","","color_black","435315","","black_plus_sign","","","","","null","","","","","","","","","","","","","","","","","","","","","","","","","","","","","",""
"null","","learn_phase(without_color)","438329","","black_plus_sign","","","","","null","US_Cities_List/barrel.png","US_Cities_List/wheelchair.png","","","","","","","","","","","","","","","","","","","","","","","","","","","",""
"null","","black_cross(without_color)","439020","","green","","","","","null","US_Cities_List/barrel.png","US_Cities_List/wheelchair.png","","","","","","","","","","","","","","","","","","","","","","","","","","","",""
"439","","rt_plussign_withcolor","439523","","green","","","","","50","US_Cities_List/barrel.png","US_Cities_List/wheelchair.png","","","","","","","","","","","","","","","","","","","","","","","","","","","",""
"null","","rt_thecrossant_black","440839","","black_plus_sign","","","","","null","","","1","0.875","","","","","","","","","","","","","","","","","","","","","","","","","",""
"null","","color_black","440943","","black_plus_sign","","","","","null","","","","","","","","","","","","","","","","","","","","","","","","","","","","","",""
"null","","learn_phase(without_color)","443958","","black_plus_sign","","","","","null","US_Cities_List/jukebox.png","US_Cities_List/paint.png","","","","","","","","","","","","","","","","","","","","","","","","","","","",""
"null","","black_cross(without_color)","444602","","green","","","","","null","US_Cities_List/jukebox.png","US_Cities_List/paint.png","","","","","","","","","","","","","","","","","","","","","","","","","","","",""
"null","","rt_plussign_withcolor","445105","","green","","","","","null","US_Cities_List/jukebox.png","US_Cities_List/paint.png","","","","","","","","","","","","","","","","","","","","","","","","","","","",""
"1685.3999999910593","","rt_thecrossant_black","446469","","black_plus_sign","","","","","50","","","1","0.8888888888888888","","","","","","","","","","","","","","","","","","","","","","","","","",""
"null","","color_black","446572","","black_plus_sign","","","","","null","","","","","","","","","","","","","","","","","","","","","","","","","","","","","",""
"null","","learn_phase(without_color)","449590","","black_plus_sign","","","","","null","US_Cities_List/camera.png","US_Cities_List/basket.png","","","","","","","","","","","","","","","","","","","","","","","","","","","",""
"null","","black_cross(without_color)","450685","","blue","","","","","null","US_Cities_List/camera.png","US_Cities_List/basket.png","","","","","","","","","","","","","","","","","","","","","","","","","","","",""
"null","","rt_plussign_withcolor","451187","","blue","","","","","null","US_Cities_List/camera.png","US_Cities_List/basket.png","","","","","","","","","","","","","","","","","","","","","","","","","","","",""
"915","","rt_thecrossant_black","452099","","black_plus_sign","","","","","49","","","1","0.9","","","","","","","","","","","","","","","","","","","","","","","","","",""
"null","","color_black","452203","","black_plus_sign","","","","","null","","","","","","","","","","","","","","","","","","","","","","","","","","","","","",""
"null","","learn_phase(without_color)","455220","","black_plus_sign","","","","","null","US_Cities_List/jukebox.png","US_Cities_List/paint.png","","","","","","","","","","","","","","","","","","","","","","","","","","","",""
"null","","black_cross(without_color)","456309","","green","","","","","null","US_Cities_List/jukebox.png","US_Cities_List/paint.png","","","","","","","","","","","","","","","","","","","","","","","","","","","",""
"null","","rt_plussign_withcolor","456812","","green","","","","","null","US_Cities_List/jukebox.png","US_Cities_List/paint.png","","","","","","","","","","","","","","","","","","","","","","","","","","","",""
"1270.0999999940395","","rt_thecrossant_black","457730","","black_plus_sign","","","","","50","","","1","0.9090909090909091","","","","","","","","","","","","","","","","","","","","","","","","","",""
"null","","color_black","457834","","black_plus_sign","","","","","null","","","","","","","","","","","","","","","","","","","","","","","","","","","","","",""
"null","","learn_phase(without_color)","460853","","black_plus_sign","","","","","null","US_Cities_List/barrel.png","US_Cities_List/wheelchair.png","","","","","","","","","","","","","","","","","","","","","","","","","","","",""
"null","","black_cross(without_color)","461283","","green","","","","","null","US_Cities_List/barrel.png","US_Cities_List/wheelchair.png","","","","","","","","","","","","","","","","","","","","","","","","","","","",""
"null","","rt_plussign_withcolor","461787","","green","","","","","null","US_Cities_List/barrel.png","US_Cities_List/wheelchair.png","","","","","","","","","","","","","","","","","","","","","","","","","","","",""
"2202.300000011921","","rt_thecrossant_black","463363","","black_plus_sign","","","","","50","","","1","0.9166666666666666","","","","","","","","","","","","","","","","","","","","","","","","","",""
"null","","color_black","463467","","black_plus_sign","","","","","null","","","","","","","","","","","","","","","","","","","","","","","","","","","","","",""
"null","","learn_phase(without_color)","466482","","black_plus_sign","","","","","null","US_Cities_List/gong.png","US_Cities_List/snail.png","","","","","","","","","","","","","","","","","","","","","","","","","","","",""
"null","","black_cross(without_color)","467328","","blue","","","","","null","US_Cities_List/gong.png","US_Cities_List/snail.png","","","","","","","","","","","","","","","","","","","","","","","","","","","",""
"null","","rt_plussign_withcolor","467831","","blue","","","","","null","US_Cities_List/gong.png","US_Cities_List/snail.png","","","","","","","","","","","","","","","","","","","","","","","","","","","",""
"610.3999999910593","","rt_thecrossant_black","468991","","black_plus_sign","","","","","49","","","1","0.9230769230769231","","","","","","","","","","","","","","","","","","","","","","","","","",""
"null","","color_black","469095","","black_plus_sign","","","","","null","","","","","","","","","","","","","","","","","","","","","","","","","","","","","",""
"null","","learn_phase(without_color)","472111","","black_plus_sign","","","","","null","US_Cities_List/barrel.png","US_Cities_List/wheelchair.png","","","","","","","","","","","","","","","","","","","","","","","","","","","",""
"null","","black_cross(without_color)","473183","","blue","","","","","null","US_Cities_List/barrel.png","US_Cities_List/wheelchair.png","","","","","","","","","","","","","","","","","","","","","","","","","","","",""
"null","","rt_plussign_withcolor","473687","","blue","","","","","null","US_Cities_List/barrel.png","US_Cities_List/wheelchair.png","","","","","","","","","","","","","","","","","","","","","","","","","","","",""
"1083.2999999970198","","rt_thecrossant_black","474621","","black_plus_sign","","","","","49","","","1","0.9285714285714286","","","","","","","","","","","","","","","","","","","","","","","","","",""
"null","","color_black","474724","","black_plus_sign","","","","","null","","","","","","","","","","","","","","","","","","","","","","","","","","","","","",""
"null","","learn_phase(without_color)","477738","","black_plus_sign","","","","","null","US_Cities_List/camera.png","US_Cities_List/basket.png","","","","","","","","","","","","","","","","","","","","","","","","","","","",""
"null","","black_cross(without_color)","478833","","green","","","","","null","US_Cities_List/camera.png","US_Cities_List/basket.png","","","","","","","","","","","","","","","","","","","","","","","","","","","",""
"null","","rt_plussign_withcolor","479337","","green","","","","","null","US_Cities_List/camera.png","US_Cities_List/basket.png","","","","","","","","","","","","","","","","","","","","","","","","","","","",""
"1306.5","","rt_thecrossant_black","480248","","black_plus_sign","","","","","50","","","1","0.9333333333333333","","","","","","","","","","","","","","","","","","","","","","","","","",""
"null","","color_black","480352","","black_plus_sign","","","","","null","","","","","","","","","","","","","","","","","","","","","","","","","","","","","",""
"null","","learn_phase(without_color)","483367","","black_plus_sign","","","","","null","US_Cities_List/wheelchair.png","US_Cities_List/barrel.png","","","","","","","","","","","","","","","","","","","","","","","","","","","",""
"null","","black_cross(without_color)","484406","","blue","","","","","null","US_Cities_List/wheelchair.png","US_Cities_List/barrel.png","","","","","","","","","","","","","","","","","","","","","","","","","","","",""
"null","","rt_plussign_withcolor","484908","","blue","","","","","null","US_Cities_List/wheelchair.png","US_Cities_List/barrel.png","","","","","","","","","","","","","","","","","","","","","","","","","","","",""
"1318.2999999970198","","rt_thecrossant_black","485876","","black_plus_sign","","","","","49","","","1","0.9375","","","","","","","","","","","","","","","","","","","","","","","","","",""
"null","","color_black","485979","","black_plus_sign","","","","","null","","","","","","","","","","","","","","","","","","","","","","","","","","","","","",""
"null","","learn_phase(without_color)","488993","","black_plus_sign","","","","","null","US_Cities_List/paint.png","US_Cities_List/jukebox.png","","","","","","","","","","","","","","","","","","","","","","","","","","","",""
"null","","black_cross(without_color)","490030","","blue","","","","","null","US_Cities_List/paint.png","US_Cities_List/jukebox.png","","","","","","","","","","","","","","","","","","","","","","","","","","","",""
"null","","rt_plussign_withcolor","490533","","blue","","","","","null","US_Cities_List/paint.png","US_Cities_List/jukebox.png","","","","","","","","","","","","","","","","","","","","","","","","","","","",""
"1348.7000000029802","","rt_thecrossant_black","491503","","black_plus_sign","","","","","49","","","1","0.9411764705882353","","","","","","","","","","","","","","","","","","","","","","","","","",""
"null","","color_black","491607","","black_plus_sign","","","","","null","","","","","","","","","","","","","","","","","","","","","","","","","","","","","",""
"null","","learn_phase(without_color)","494621","","black_plus_sign","","","","","null","US_Cities_List/camera.png","US_Cities_List/basket.png","","","","","","","","","","","","","","","","","","","","","","","","","","","",""
"null","","black_cross(without_color)","495461","","blue","","","","","null","US_Cities_List/camera.png","US_Cities_List/basket.png","","","","","","","","","","","","","","","","","","","","","","","","","","","",""
"null","","rt_plussign_withcolor","495964","","blue","","","","","null","US_Cities_List/camera.png","US_Cities_List/basket.png","","","","","","","","","","","","","","","","","","","","","","","","","","","",""
"1412.4000000059605","","rt_thecrossant_black","497131","","black_plus_sign","","","","","49","","","1","0.9444444444444444","","","","","","","","","","","","","","","","","","","","","","","","","",""
"null","","color_black","497235","","black_plus_sign","","","","","null","","","","","","","","","","","","","","","","","","","","","","","","","","","","","",""
"null","","learn_phase(without_color)","500254","","black_plus_sign","","","","","null","US_Cities_List/wheelchair.png","US_Cities_List/barrel.png","","","","","","","","","","","","","","","","","","","","","","","","","","","",""
"null","","black_cross(without_color)","500805","","green","","","","","null","US_Cities_List/wheelchair.png","US_Cities_List/barrel.png","","","","","","","","","","","","","","","","","","","","","","","","","","","",""
"null","","rt_plussign_withcolor","501308","","green","","","","","null","US_Cities_List/wheelchair.png","US_Cities_List/barrel.png","","","","","","","","","","","","","","","","","","","","","","","","","","","",""
"1079.7999999970198","","rt_thecrossant_black","502764","","black_plus_sign","","","","","50","","","1","0.9473684210526315","","","","","","","","","","","","","","","","","","","","","","","","","",""
"null","","color_black","502868","","black_plus_sign","","","","","null","","","","","","","","","","","","","","","","","","","","","","","","","","","","","",""
"null","","learn_phase(without_color)","505884","","black_plus_sign","","","","","null","US_Cities_List/jukebox.png","US_Cities_List/paint.png","","","","","","","","","","","","","","","","","","","","","","","","","","","",""
"null","","black_cross(without_color)","506434","","green","","","","","null","US_Cities_List/jukebox.png","US_Cities_List/paint.png","","","","","","","","","","","","","","","","","","","","","","","","","","","",""
"null","","rt_plussign_withcolor","506937","","green","","","","","null","US_Cities_List/jukebox.png","US_Cities_List/paint.png","","","","","","","","","","","","","","","","","","","","","","","","","","","",""
"1056.3999999910593","","rt_thecrossant_black","508394","","black_plus_sign","","","","","50","","","1","0.95","","","","","","","","","","","","","","","","","","","","","","","","","",""
"null","","color_black","508498","","black_plus_sign","","","","","null","","","","","","","","","","","","","","","","","","","","","","","","","","","","","",""
"null","","learn_phase(without_color)","511512","","black_plus_sign","","","","","null","US_Cities_List/gong.png","US_Cities_List/snail.png","","","","","","","","","","","","","","","","","","","","","","","","","","","",""
"null","","black_cross(without_color)","512180","","blue","","","","","null","US_Cities_List/gong.png","US_Cities_List/snail.png","","","","","","","","","","","","","","","","","","","","","","","","","","","",""
"null","","rt_plussign_withcolor","512684","","blue","","","","","null","US_Cities_List/gong.png","US_Cities_List/snail.png","","","","","","","","","","","","","","","","","","","","","","","","","","","",""
"988.6000000089407","","rt_thecrossant_black","514022","","black_plus_sign","","","","","49","","","1","0.9523809523809523","","","","","","","","","","","","","","","","","","","","","","","","","",""
"null","","color_black","514126","","black_plus_sign","","","","","null","","","","","","","","","","","","","","","","","","","","","","","","","","","","","",""
"null","","learn_phase(without_color)","517142","","black_plus_sign","","","","","null","US_Cities_List/wheelchair.png","US_Cities_List/barrel.png","","","","","","","","","","","","","","","","","","","","","","","","","","","",""
"null","","black_cross(without_color)","517564","","blue","","","","","null","US_Cities_List/wheelchair.png","US_Cities_List/barrel.png","","","","","","","","","","","","","","","","","","","","","","","","","","","",""
"455.5","","rt_plussign_withcolor","518067","","blue","","","","","50","US_Cities_List/wheelchair.png","US_Cities_List/barrel.png","","","","","","","","","","","","","","","","","","","","","","","","","","","",""
"null","","rt_thecrossant_black","519651","","black_plus_sign","","","","","null","","","0","0.9090909090909091","","","","","","","","","","","","","","","","","","","","","","","","","",""
"null","","color_black","519755","","black_plus_sign","","","","","null","","","","","","","","","","","","","","","","","","","","","","","","","","","","","",""
"null","","learn_phase(without_color)","522770","","black_plus_sign","","","","","null","US_Cities_List/snail.png","US_Cities_List/gong.png","","","","","","","","","","","","","","","","","","","","","","","","","","","",""
"null","","black_cross(without_color)","523737","","blue","","","","","null","US_Cities_List/snail.png","US_Cities_List/gong.png","","","","","","","","","","","","","","","","","","","","","","","","","","","",""
"null","","rt_plussign_withcolor","524240","","blue","","","","","null","US_Cities_List/snail.png","US_Cities_List/gong.png","","","","","","","","","","","","","","","","","","","","","","","","","","","",""
"607.6000000089407","","rt_thecrossant_black","525279","","black_plus_sign","","","","","49","","","1","0.9130434782608695","","","","","","","","","","","","","","","","","","","","","","","","","",""
"null","","color_black","525383","","black_plus_sign","","","","","null","","","","","","","","","","","","","","","","","","","","","","","","","","","","","",""
"null","","learn_phase(without_color)","528404","","black_plus_sign","","","","","null","US_Cities_List/barrel.png","US_Cities_List/wheelchair.png","","","","","","","","","","","","","","","","","","","","","","","","","","","",""
"null","","black_cross(without_color)","529156","","green","","","","","null","US_Cities_List/barrel.png","US_Cities_List/wheelchair.png","","","","","","","","","","","","","","","","","","","","","","","","","","","",""
"null","","rt_plussign_withcolor","529659","","green","","","","","null","US_Cities_List/barrel.png","US_Cities_List/wheelchair.png","","","","","","","","","","","","","","","","","","","","","","","","","","","",""
"1358.5999999940395","","rt_thecrossant_black","530915","","black_plus_sign","","","","","50","","","1","0.9166666666666666","","","","","","","","","","","","","","","","","","","","","","","","","",""
"null","","color_black","531019","","black_plus_sign","","","","","null","","","","","","","","","","","","","","","","","","","","","","","","","","","","","",""
"null","","learn_phase(without_color)","534033","","black_plus_sign","","","","","null","US_Cities_List/gong.png","US_Cities_List/snail.png","","","","","","","","","","","","","","","","","","","","","","","","","","","",""
"null","","black_cross(without_color)","534508","","green","","","","","null","US_Cities_List/gong.png","US_Cities_List/snail.png","","","","","","","","","","","","","","","","","","","","","","","","","","","",""
"null","","rt_plussign_withcolor","535012","","green","","","","","null","US_Cities_List/gong.png","US_Cities_List/snail.png","","","","","","","","","","","","","","","","","","","","","","","","","","","",""
"997.7999999970198","","rt_thecrossant_black","536543","","black_plus_sign","","","","","50","","","1","0.92","","","","","","","","","","","","","","","","","","","","","","","","","",""
"null","","color_black","536647","","black_plus_sign","","","","","null","","","","","","","","","","","","","","","","","","","","","","","","","","","","","",""
"null","","learn_phase(without_color)","539660","","black_plus_sign","","","","","null","US_Cities_List/basket.png","US_Cities_List/camera.png","","","","","","","","","","","","","","","","","","","","","","","","","","","",""
"null","","black_cross(without_color)","540606","","blue","","","","","null","US_Cities_List/basket.png","US_Cities_List/camera.png","","","","","","","","","","","","","","","","","","","","","","","","","","","",""
"485.29999999701977","","rt_plussign_withcolor","541108","","blue","","","","","49","US_Cities_List/basket.png","US_Cities_List/camera.png","","","","","","","","","","","","","","","","","","","","","","","","","","","",""
"null","","rt_thecrossant_black","542170","","black_plus_sign","","","","","null","","","1","0.9230769230769231","","","","","","","","","","","","","","","","","","","","","","","","","",""
"null","","color_black","542274","","black_plus_sign","","","","","null","","","","","","","","","","","","","","","","","","","","","","","","","","","","","",""
"null","","learn_phase(without_color)","545290","","black_plus_sign","","","","","null","US_Cities_List/snail.png","US_Cities_List/gong.png","","","","","","","","","","","","","","","","","","","","","","","","","","","",""
"null","","black_cross(without_color)","545972","","green","","","","","null","US_Cities_List/snail.png","US_Cities_List/gong.png","","","","","","","","","","","","","","","","","","","","","","","","","","","",""
"null","","rt_plussign_withcolor","546475","","green","","","","","null","US_Cities_List/snail.png","US_Cities_List/gong.png","","","","","","","","","","","","","","","","","","","","","","","","","","","",""
"1312.7000000029802","","rt_thecrossant_black","547800","","black_plus_sign","","","","","50","","","1","0.9259259259259259","","","","","","","","","","","","","","","","","","","","","","","","","",""
"null","","color_black","547904","","black_plus_sign","","","","","null","","","","","","","","","","","","","","","","","","","","","","","","","","","","","",""
"null","","learn_phase(without_color)","550919","","black_plus_sign","","","","","null","US_Cities_List/paint.png","US_Cities_List/jukebox.png","","","","","","","","","","","","","","","","","","","","","","","","","","","",""
"null","","black_cross(without_color)","551987","","green","","","","","null","US_Cities_List/paint.png","US_Cities_List/jukebox.png","","","","","","","","","","","","","","","","","","","","","","","","","","","",""
"495.40000000596046","","rt_plussign_withcolor","552490","","green","","","","","50","US_Cities_List/paint.png","US_Cities_List/jukebox.png","","","","","","","","","","","","","","","","","","","","","","","","","","","",""
"null","","rt_thecrossant_black","553427","","black_plus_sign","","","","","null","","","1","0.9285714285714286","","","","","","","","","","","","","","","","","","","","","","","","","",""
"null","","color_black","553532","","black_plus_sign","","","","","null","","","","","","","","","","","","","","","","","","","","","","","","","","","","","",""
"null","","learn_phase(without_color)","556548","","black_plus_sign","","","","","null","US_Cities_List/camera.png","US_Cities_List/basket.png","","","","","","","","","","","","","","","","","","","","","","","","","","","",""
"null","","black_cross(without_color)","557173","","blue","","","","","null","US_Cities_List/camera.png","US_Cities_List/basket.png","","","","","","","","","","","","","","","","","","","","","","","","","","","",""
"null","","rt_plussign_withcolor","557677","","blue","","","","","null","US_Cities_List/camera.png","US_Cities_List/basket.png","","","","","","","","","","","","","","","","","","","","","","","","","","","",""
"1250.5","","rt_thecrossant_black","559059","","black_plus_sign","","","","","49","","","1","0.9310344827586207","","","","","","","","","","","","","","","","","","","","","","","","","",""
"null","","color_black","559163","","black_plus_sign","","","","","null","","","","","","","","","","","","","","","","","","","","","","","","","","","","","",""
"null","","learn_phase(without_color)","562178","","black_plus_sign","","","","","null","US_Cities_List/gong.png","US_Cities_List/snail.png","","","","","","","","","","","","","","","","","","","","","","","","","","","",""
"null","","black_cross(without_color)","563175","","green","","","","","null","US_Cities_List/gong.png","US_Cities_List/snail.png","","","","","","","","","","","","","","","","","","","","","","","","","","","",""
"396.5","","rt_plussign_withcolor","563678","","green","","","","","50","US_Cities_List/gong.png","US_Cities_List/snail.png","","","","","","","","","","","","","","","","","","","","","","","","","","","",""
"null","","rt_thecrossant_black","564689","","black_plus_sign","","","","","null","","","1","0.9333333333333333","","","","","","","","","","","","","","","","","","","","","","","","","",""
"null","","color_black","564794","","black_plus_sign","","","","","null","","","","","","","","","","","","","","","","","","","","","","","","","","","","","",""
"null","","learn_phase(without_color)","567813","","black_plus_sign","","","","","null","US_Cities_List/barrel.png","US_Cities_List/wheelchair.png","","","","","","","","","","","","","","","","","","","","","","","","","","","",""
"null","","black_cross(without_color)","568363","","green","","","","","null","US_Cities_List/barrel.png","US_Cities_List/wheelchair.png","","","","","","","","","","","","","","","","","","","","","","","","","","","",""
"null","","rt_plussign_withcolor","568866","","green","","","","","null","US_Cities_List/barrel.png","US_Cities_List/wheelchair.png","","","","","","","","","","","","","","","","","","","","","","","","","","","",""
"1772.5","","rt_thecrossant_black","570324","","black_plus_sign","","","","","50","","","1","0.9354838709677419","","","","","","","","","","","","","","","","","","","","","","","","","",""
"null","","color_black","570428","","black_plus_sign","","","","","null","","","","","","","","","","","","","","","","","","","","","","","","","","","","","",""
"null","","learn_phase(without_color)","573445","","black_plus_sign","","","","","null","US_Cities_List/gong.png","US_Cities_List/snail.png","","","","","","","","","","","","","","","","","","","","","","","","","","","",""
"null","","black_cross(without_color)","574450","","blue","","","","","null","US_Cities_List/gong.png","US_Cities_List/snail.png","","","","","","","","","","","","","","","","","","","","","","","","","","","",""
"null","","rt_plussign_withcolor","574953","","blue","","","","","null","US_Cities_List/gong.png","US_Cities_List/snail.png","","","","","","","","","","","","","","","","","","","","","","","","","","","",""
"743","","rt_thecrossant_black","575954","","black_plus_sign","","","","","49","","","1","0.9375","","","","","","","","","","","","","","","","","","","","","","","","","",""
"null","","color_black","576059","","black_plus_sign","","","","","null","","","","","","","","","","","","","","","","","","","","","","","","","","","","","",""
"null","","learn_phase(without_color)","579073","","black_plus_sign","","","","","null","US_Cities_List/hat.png","US_Cities_List/jukebox.png","","","","","","","","","","","","","","","","","","","","","","","","","","","",""
"null","","black_cross(without_color)","579542","","green","","","","","null","US_Cities_List/hat.png","US_Cities_List/jukebox.png","","","","","","","","","","","","","","","","","","","","","","","","","","","",""
"null","","rt_plussign_withcolor","580046","","green","","","","","null","US_Cities_List/hat.png","US_Cities_List/jukebox.png","","","","","","","","","","","","","","","","","","","","","","","","","","","",""
"2105.8999999910593","","rt_thecrossant_black","581583","","black_plus_sign","","","","","50","","","1","0.9393939393939394","","","","","","","","","","","","","","","","","","","","","","","","","",""
"null","","color_black","581687","","black_plus_sign","","","","","null","","","","","","","","","","","","","","","","","","","","","","","","","","","","","",""
"null","","learn_phase(without_color)","584698","","black_plus_sign","","","","","null","US_Cities_List/soldier.png","US_Cities_List/gong.png","","","","","","","","","","","","","","","","","","","","","","","","","","","",""
"null","","black_cross(without_color)","585688","","green","","","","","null","US_Cities_List/soldier.png","US_Cities_List/gong.png","","","","","","","","","","","","","","","","","","","","","","","","","","","",""
"null","","rt_plussign_withcolor","586192","","green","","","","","null","US_Cities_List/soldier.png","US_Cities_List/gong.png","","","","","","","","","","","","","","","","","","","","","","","","","","","",""
"648.8000000119209","","rt_thecrossant_black","587209","","black_plus_sign","","","","","50","","","1","0.9411764705882353","","","","","","","","","","","","","","","","","","","","","","","","","",""
"null","","color_black","587313","","black_plus_sign","","","","","null","","","","","","","","","","","","","","","","","","","","","","","","","","","","","",""
"null","","learn_phase(without_color)","590327","","black_plus_sign","","","","","null","US_Cities_List/paint.png","US_Cities_List/wheelchair.png","","","","","","","","","","","","","","","","","","","","","","","","","","","",""
"null","","black_cross(without_color)","591207","","blue","","","","","null","US_Cities_List/paint.png","US_Cities_List/wheelchair.png","","","","","","","","","","","","","","","","","","","","","","","","","","","",""
"null","","rt_plussign_withcolor","591710","","blue","","","","","null","US_Cities_List/paint.png","US_Cities_List/wheelchair.png","","","","","","","","","","","","","","","","","","","","","","","","","","","",""
"1138.0999999940395","","rt_thecrossant_black","592838","","black_plus_sign","","","","","49","","","1","0.9428571428571428","","","","","","","","","","","","","","","","","","","","","","","","","",""
"null","","color_black","592942","","black_plus_sign","","","","","null","","","","","","","","","","","","","","","","","","","","","","","","","","","","","",""
"null","","learn_phase(without_color)","595958","","black_plus_sign","","","","","null","US_Cities_List/jukebox.png","US_Cities_List/hat.png","","","","","","","","","","","","","","","","","","","","","","","","","","","",""
"null","","black_cross(without_color)","596911","","green","","","","","null","US_Cities_List/jukebox.png","US_Cities_List/hat.png","","","","","","","","","","","","","","","","","","","","","","","","","","","",""
"null","","rt_plussign_withcolor","597414","","green","","","","","null","US_Cities_List/jukebox.png","US_Cities_List/hat.png","","","","","","","","","","","","","","","","","","","","","","","","","","","",""
"1498.9000000059605","","rt_thecrossant_black","598469","","black_plus_sign","","","","","50","","","1","0.9444444444444444","","","","","","","","","","","","","","","","","","","","","","","","","",""
"null","","color_black","598574","","black_plus_sign","","","","","null","","","","","","","","","","","","","","","","","","","","","","","","","","","","","",""
"null","","learn_phase(without_color)","601589","","black_plus_sign","","","","","null","US_Cities_List/soldier.png","US_Cities_List/gong.png","","","","","","","","","","","","","","","","","","","","","","","","","","","",""
"null","","black_cross(without_color)","602551","","blue","","","","","null","US_Cities_List/soldier.png","US_Cities_List/gong.png","","","","","","","","","","","","","","","","","","","","","","","","","","","",""
"483.6000000089407","","rt_plussign_withcolor","603053","","blue","","","","","49","US_Cities_List/soldier.png","US_Cities_List/gong.png","","","","","","","","","","","","","","","","","","","","","","","","","","","",""
"null","","rt_thecrossant_black","604099","","black_plus_sign","","","","","null","","","1","0.9459459459459459","","","","","","","","","","","","","","","","","","","","","","","","","",""
"null","","color_black","604203","","black_plus_sign","","","","","null","","","","","","","","","","","","","","","","","","","","","","","","","","","","","",""
"null","","learn_phase(without_color)","607221","","black_plus_sign","","","","","null","US_Cities_List/hat.png","US_Cities_List/jukebox.png","","","","","","","","","","","","","","","","","","","","","","","","","","","",""
"null","","black_cross(without_color)","607765","","blue","","","","","null","US_Cities_List/hat.png","US_Cities_List/jukebox.png","","","","","","","","","","","","","","","","","","","","","","","","","","","",""
"null","","rt_plussign_withcolor","608268","","blue","","","","","null","US_Cities_List/hat.png","US_Cities_List/jukebox.png","","","","","","","","","","","","","","","","","","","","","","","","","","","",""
"1062.8999999910593","","rt_thecrossant_black","609731","","black_plus_sign","","","","","49","","","1","0.9473684210526315","","","","","","","","","","","","","","","","","","","","","","","","","",""
"null","","color_black","609834","","black_plus_sign","","","","","null","","","","","","","","","","","","","","","","","","","","","","","","","","","","","",""
"null","","learn_phase(without_color)","612850","","black_plus_sign","","","","","null","US_Cities_List/wheelchair.png","US_Cities_List/paint.png","","","","","","","","","","","","","","","","","","","","","","","","","","","",""
"null","","black_cross(without_color)","613822","","green","","","","","null","US_Cities_List/wheelchair.png","US_Cities_List/paint.png","","","","","","","","","","","","","","","","","","","","","","","","","","","",""
"null","","rt_plussign_withcolor","614325","","green","","","","","null","US_Cities_List/wheelchair.png","US_Cities_List/paint.png","","","","","","","","","","","","","","","","","","","","","","","","","","","",""
"876.5","","rt_thecrossant_black","615360","","black_plus_sign","","","","","50","","","1","0.9487179487179487","","","","","","","","","","","","","","","","","","","","","","","","","",""
"null","","color_black","615464","","black_plus_sign","","","","","null","","","","","","","","","","","","","","","","","","","","","","","","","","","","","",""
"null","","learn_phase(without_color)","618480","","black_plus_sign","","","","","null","US_Cities_List/teeth.png","US_Cities_List/barrel.png","","","","","","","","","","","","","","","","","","","","","","","","","","","",""
"null","","black_cross(without_color)","619278","","blue","","","","","null","US_Cities_List/teeth.png","US_Cities_List/barrel.png","","","","","","","","","","","","","","","","","","","","","","","","","","","",""
"null","","rt_plussign_withcolor","619781","","blue","","","","","null","US_Cities_List/teeth.png","US_Cities_List/barrel.png","","","","","","","","","","","","","","","","","","","","","","","","","","","",""
"1097.7000000029802","","rt_thecrossant_black","620990","","black_plus_sign","","","","","49","","","1","0.95","","","","","","","","","","","","","","","","","","","","","","","","","",""
"null","","color_black","621094","","black_plus_sign","","","","","null","","","","","","","","","","","","","","","","","","","","","","","","","","","","","",""
"null","","learn_phase(without_color)","624107","","black_plus_sign","","","","","null","US_Cities_List/soldier.png","US_Cities_List/gong.png","","","","","","","","","","","","","","","","","","","","","","","","","","","",""
"null","","black_cross(without_color)","624959","","green","","","","","null","US_Cities_List/soldier.png","US_Cities_List/gong.png","","","","","","","","","","","","","","","","","","","","","","","","","","","",""
"null","","rt_plussign_withcolor","625462","","green","","","","","null","US_Cities_List/soldier.png","US_Cities_List/gong.png","","","","","","","","","","","","","","","","","","","","","","","","","","","",""
"915.8999999910593","","rt_thecrossant_black","626619","","black_plus_sign","","","","","50","","","1","0.9512195121951219","","","","","","","","","","","","","","","","","","","","","","","","","",""
"null","","color_black","626723","","black_plus_sign","","","","","null","","","","","","","","","","","","","","","","","","","","","","","","","","","","","",""
"null","","learn_phase(without_color)","629743","","black_plus_sign","","","","","null","US_Cities_List/teeth.png","US_Cities_List/barrel.png","","","","","","","","","","","","","","","","","","","","","","","","","","","",""
"null","","black_cross(without_color)","630240","","blue","","","","","null","US_Cities_List/teeth.png","US_Cities_List/barrel.png","","","","","","","","","","","","","","","","","","","","","","","","","","","",""
"null","","rt_plussign_withcolor","630744","","blue","","","","","null","US_Cities_List/teeth.png","US_Cities_List/barrel.png","","","","","","","","","","","","","","","","","","","","","","","","","","","",""
"974.8999999910593","","rt_thecrossant_black","632255","","black_plus_sign","","","","","49","","","1","0.9523809523809523","","","","","","","","","","","","","","","","","","","","","","","","","",""
"null","","color_black","632359","","black_plus_sign","","","","","null","","","","","","","","","","","","","","","","","","","","","","","","","","","","","",""
"null","","learn_phase(without_color)","635371","","black_plus_sign","","","","","null","US_Cities_List/wheelchair.png","US_Cities_List/paint.png","","","","","","","","","","","","","","","","","","","","","","","","","","","",""
"null","","black_cross(without_color)","636017","","blue","","","","","null","US_Cities_List/wheelchair.png","US_Cities_List/paint.png","","","","","","","","","","","","","","","","","","","","","","","","","","","",""
"null","","rt_plussign_withcolor","636521","","blue","","","","","null","US_Cities_List/wheelchair.png","US_Cities_List/paint.png","","","","","","","","","","","","","","","","","","","","","","","","","","","",""
"697.4000000059605","","rt_thecrossant_black","637882","","black_plus_sign","","","","","49","","","1","0.9534883720930233","","","","","","","","","","","","","","","","","","","","","","","","","",""
"null","","color_black","637986","","black_plus_sign","","","","","null","","","","","","","","","","","","","","","","","","","","","","","","","","","","","",""
"null","","learn_phase(without_color)","640997","","black_plus_sign","","","","","null","US_Cities_List/gong.png","US_Cities_List/soldier.png","","","","","","","","","","","","","","","","","","","","","","","","","","","",""
"null","","black_cross(without_color)","641496","","green","","","","","null","US_Cities_List/gong.png","US_Cities_List/soldier.png","","","","","","","","","","","","","","","","","","","","","","","","","","","",""
"null","","rt_plussign_withcolor","641998","","green","","","","","null","US_Cities_List/gong.png","US_Cities_List/soldier.png","","","","","","","","","","","","","","","","","","","","","","","","","","","",""
"891.7999999970198","","rt_thecrossant_black","643506","","black_plus_sign","","","","","50","","","1","0.9545454545454546","","","","","","","","","","","","","","","","","","","","","","","","","",""
"null","","color_black","643609","","black_plus_sign","","","","","null","","","","","","","","","","","","","","","","","","","","","","","","","","","","","",""
"null","","learn_phase(without_color)","646625","","black_plus_sign","","","","","null","US_Cities_List/hat.png","US_Cities_List/jukebox.png","","","","","","","","","","","","","","","","","","","","","","","","","","","",""
"null","","black_cross(without_color)","647441","","blue","","","","","null","US_Cities_List/hat.png","US_Cities_List/jukebox.png","","","","","","","","","","","","","","","","","","","","","","","","","","","",""
"null","","rt_plussign_withcolor","647944","","blue","","","","","null","US_Cities_List/hat.png","US_Cities_List/jukebox.png","","","","","","","","","","","","","","","","","","","","","","","","","","","",""
"676.7999999970198","","rt_thecrossant_black","649135","","black_plus_sign","","","","","49","","","1","0.9555555555555556","","","","","","","","","","","","","","","","","","","","","","","","","",""
"null","","color_black","649239","","black_plus_sign","","","","","null","","","","","","","","","","","","","","","","","","","","","","","","","","","","","",""
"null","","learn_phase(without_color)","652255","","black_plus_sign","","","","","null","US_Cities_List/paint.png","US_Cities_List/wheelchair.png","","","","","","","","","","","","","","","","","","","","","","","","","","","",""
"null","","black_cross(without_color)","653274","","blue","","","","","null","US_Cities_List/paint.png","US_Cities_List/wheelchair.png","","","","","","","","","","","","","","","","","","","","","","","","","","","",""
"439.79999999701977","","rt_plussign_withcolor","653778","","blue","","","","","49","US_Cities_List/paint.png","US_Cities_List/wheelchair.png","","","","","","","","","","","","","","","","","","","","","","","","","","","",""
"null","","rt_thecrossant_black","654766","","black_plus_sign","","","","","null","","","1","0.9565217391304348","","","","","","","","","","","","","","","","","","","","","","","","","",""
"null","","color_black","654870","","black_plus_sign","","","","","null","","","","","","","","","","","","","","","","","","","","","","","","","","","","","",""
"null","","learn_phase(without_color)","657889","","black_plus_sign","","","","","null","US_Cities_List/teeth.png","US_Cities_List/barrel.png","","","","","","","","","","","","","","","","","","","","","","","","","","","",""
"null","","black_cross(without_color)","658363","","blue","","","","","null","US_Cities_List/teeth.png","US_Cities_List/barrel.png","","","","","","","","","","","","","","","","","","","","","","","","","","","",""
"478.70000000298023","","rt_plussign_withcolor","658867","","blue","","","","","49","US_Cities_List/teeth.png","US_Cities_List/barrel.png","","","","","","","","","","","","","","","","","","","","","","","","","","","",""
"null","","rt_thecrossant_black","660400","","black_plus_sign","","","","","50","","","1","0.9574468085106383","","","","","","","","","","","","","","","","","","","","","","","","","",""
"null","","color_black","660504","","black_plus_sign","","","","","null","","","","","","","","","","","","","","","","","","","","","","","","","","","","","",""
"null","","learn_phase(without_color)","663518","","black_plus_sign","","","","","null","US_Cities_List/soldier.png","US_Cities_List/gong.png","","","","","","","","","","","","","","","","","","","","","","","","","","","",""
"null","","black_cross(without_color)","664473","","blue","","","","","null","US_Cities_List/soldier.png","US_Cities_List/gong.png","","","","","","","","","","","","","","","","","","","","","","","","","","","",""
"400.40000000596046","","rt_plussign_withcolor","664977","","blue","","","","","49","US_Cities_List/soldier.png","US_Cities_List/gong.png","","","","","","","","","","","","","","","","","","","","","","","","","","","",""
"null","","rt_thecrossant_black","666029","","black_plus_sign","","","","","null","","","1","0.9583333333333334","","","","","","","","","","","","","","","","","","","","","","","","","",""
"null","","color_black","666133","","black_plus_sign","","","","","null","","","","","","","","","","","","","","","","","","","","","","","","","","","","","",""
"null","","learn_phase(without_color)","669150","","black_plus_sign","","","","","null","US_Cities_List/paint.png","US_Cities_List/wheelchair.png","","","","","","","","","","","","","","","","","","","","","","","","","","","",""
"null","","black_cross(without_color)","669869","","blue","","","","","null","US_Cities_List/paint.png","US_Cities_List/wheelchair.png","","","","","","","","","","","","","","","","","","","","","","","","","","","",""
"null","","rt_plussign_withcolor","670372","","blue","","","","","null","US_Cities_List/paint.png","US_Cities_List/wheelchair.png","","","","","","","","","","","","","","","","","","","","","","","","","","","",""
"1160.8999999910593","","rt_thecrossant_black","671661","","black_plus_sign","","","","","49","","","1","0.9591836734693877","","","","","","","","","","","","","","","","","","","","","","","","","",""
"null","","color_black","671764","","black_plus_sign","","","","","null","","","","","","","","","","","","","","","","","","","","","","","","","","","","","",""
"null","","learn_phase(without_color)","674785","","black_plus_sign","","","","","null","US_Cities_List/teeth.png","US_Cities_List/barrel.png","","","","","","","","","","","","","","","","","","","","","","","","","","","",""
"null","","black_cross(without_color)","675541","","blue","","","","","null","US_Cities_List/teeth.png","US_Cities_List/barrel.png","","","","","","","","","","","","","","","","","","","","","","","","","","","",""
"397.09999999403954","","rt_plussign_withcolor","676045","","blue","","","","","49","US_Cities_List/teeth.png","US_Cities_List/barrel.png","","","","","","","","","","","","","","","","","","","","","","","","","","","",""
"null","","rt_thecrossant_black","677297","","black_plus_sign","","","","","null","","","1","0.96","","","","","","","","","","","","","","","","","","","","","","","","","",""
"null","","color_black","677400","","black_plus_sign","","","","","null","","","","","","","","","","","","","","","","","","","","","","","","","","","","","",""
"null","","learn_phase(without_color)","680413","","black_plus_sign","","","","","null","US_Cities_List/paint.png","US_Cities_List/wheelchair.png","","","","","","","","","","","","","","","","","","","","","","","","","","","",""
"null","","black_cross(without_color)","681113","","green","","","","","null","US_Cities_List/paint.png","US_Cities_List/wheelchair.png","","","","","","","","","","","","","","","","","","","","","","","","","","","",""
"null","","rt_plussign_withcolor","681616","","green","","","","","null","US_Cities_List/paint.png","US_Cities_List/wheelchair.png","","","","","","","","","","","","","","","","","","","","","","","","","","","",""
"1172.5","","rt_thecrossant_black","682923","","black_plus_sign","","","","","50","","","1","0.9607843137254902","","","","","","","","","","","","","","","","","","","","","","","","","",""
"null","","color_black","683027","","black_plus_sign","","","","","null","","","","","","","","","","","","","","","","","","","","","","","","","","","","","",""
"null","","learn_phase(without_color)","686038","","black_plus_sign","","","","","null","US_Cities_List/soldier.png","US_Cities_List/gong.png","","","","","","","","","","","","","","","","","","","","","","","","","","","",""
"null","","black_cross(without_color)","686588","","green","","","","","null","US_Cities_List/soldier.png","US_Cities_List/gong.png","","","","","","","","","","","","","","","","","","","","","","","","","","","",""
"null","","rt_plussign_withcolor","687091","","green","","","","","null","US_Cities_List/soldier.png","US_Cities_List/gong.png","","","","","","","","","","","","","","","","","","","","","","","","","","","",""
"801.2999999970198","","rt_thecrossant_black","688549","","black_plus_sign","","","","","50","","","1","0.9615384615384616","","","","","","","","","","","","","","","","","","","","","","","","","",""
"null","","color_black","688653","","black_plus_sign","","","","","null","","","","","","","","","","","","","","","","","","","","","","","","","","","","","",""
"null","","learn_phase(without_color)","691669","","black_plus_sign","","","","","null","US_Cities_List/hat.png","US_Cities_List/jukebox.png","","","","","","","","","","","","","","","","","","","","","","","","","","","",""
"null","","black_cross(without_color)","692568","","blue","","","","","null","US_Cities_List/hat.png","US_Cities_List/jukebox.png","","","","","","","","","","","","","","","","","","","","","","","","","","","",""
"null","","rt_plussign_withcolor","693071","","blue","","","","","null","US_Cities_List/hat.png","US_Cities_List/jukebox.png","","","","","","","","","","","","","","","","","","","","","","","","","","","",""
"720.7000000029802","","rt_thecrossant_black","694180","","black_plus_sign","","","","","49","","","1","0.9622641509433962","","","","","","","","","","","","","","","","","","","","","","","","","",""
"null","","color_black","694284","","black_plus_sign","","","","","null","","","","","","","","","","","","","","","","","","","","","","","","","","","","","",""
"null","","learn_phase(without_color)","697305","","black_plus_sign","","","","","null","US_Cities_List/teeth.png","US_Cities_List/barrel.png","","","","","","","","","","","","","","","","","","","","","","","","","","","",""
"null","","black_cross(without_color)","697927","","blue","","","","","null","US_Cities_List/teeth.png","US_Cities_List/barrel.png","","","","","","","","","","","","","","","","","","","","","","","","","","","",""
"null","","rt_plussign_withcolor","698429","","blue","","","","","null","US_Cities_List/teeth.png","US_Cities_List/barrel.png","","","","","","","","","","","","","","","","","","","","","","","","","","","",""
"1135.0999999940395","","rt_thecrossant_black","699816","","black_plus_sign","","","","","49","","","1","0.9629629629629629","","","","","","","","","","","","","","","","","","","","","","","","","",""
"null","","color_black","699920","","black_plus_sign","","","","","null","","","","","","","","","","","","","","","","","","","","","","","","","","","","","",""
"null","","learn_phase(without_color)","702936","","black_plus_sign","","","","","null","US_Cities_List/paint.png","US_Cities_List/wheelchair.png","","","","","","","","","","","","","","","","","","","","","","","","","","","",""
"null","","black_cross(without_color)","703543","","blue","","","","","null","US_Cities_List/paint.png","US_Cities_List/wheelchair.png","","","","","","","","","","","","","","","","","","","","","","","","","","","",""
"null","","rt_plussign_withcolor","704046","","blue","","","","","null","US_Cities_List/paint.png","US_Cities_List/wheelchair.png","","","","","","","","","","","","","","","","","","","","","","","","","","","",""
"719.7999999970198","","rt_thecrossant_black","705447","","black_plus_sign","","","","","49","","","1","0.9636363636363636","","","","","","","","","","","","","","","","","","","","","","","","","",""
"null","","color_black","705551","","black_plus_sign","","","","","null","","","","","","","","","","","","","","","","","","","","","","","","","","","","","",""
"null","","learn_phase(without_color)","708572","","black_plus_sign","","","","","null","US_Cities_List/jukebox.png","US_Cities_List/hat.png","","","","","","","","","","","","","","","","","","","","","","","","","","","",""
"null","","black_cross(without_color)","709034","","green","","","","","null","US_Cities_List/jukebox.png","US_Cities_List/hat.png","","","","","","","","","","","","","","","","","","","","","","","","","","","",""
"487.6000000089407","","rt_plussign_withcolor","709537","","green","","","","","50","US_Cities_List/jukebox.png","US_Cities_List/hat.png","","","","","","","","","","","","","","","","","","","","","","","","","","","",""
"null","","rt_thecrossant_black","711082","","black_plus_sign","","","","","null","","","1","0.9642857142857143","","","","","","","","","","","","","","","","","","","","","","","","","",""
"null","","color_black","711186","","black_plus_sign","","","","","null","","","","","","","","","","","","","","","","","","","","","","","","","","","","","",""
"null","","learn_phase(without_color)","714201","","black_plus_sign","","","","","null","US_Cities_List/paint.png","US_Cities_List/wheelchair.png","","","","","","","","","","","","","","","","","","","","","","","","","","","",""
"null","","black_cross(without_color)","715208","","blue","","","","","null","US_Cities_List/paint.png","US_Cities_List/wheelchair.png","","","","","","","","","","","","","","","","","","","","","","","","","","","",""
"null","","rt_plussign_withcolor","715711","","blue","","","","","null","US_Cities_List/paint.png","US_Cities_List/wheelchair.png","","","","","","","","","","","","","","","","","","","","","","","","","","","",""
"672.9000000059605","","rt_thecrossant_black","716711","","black_plus_sign","","","","","49","","","1","0.9649122807017544","","","","","","","","","","","","","","","","","","","","","","","","","",""
"null","","color_black","716815","","black_plus_sign","","","","","null","","","","","","","","","","","","","","","","","","","","","","","","","","","","","",""
"null","","learn_phase(without_color)","719833","","black_plus_sign","","","","","null","US_Cities_List/hat.png","US_Cities_List/jukebox.png","","","","","","","","","","","","","","","","","","","","","","","","","","","",""
"null","","black_cross(without_color)","720455","","blue","","","","","null","US_Cities_List/hat.png","US_Cities_List/jukebox.png","","","","","","","","","","","","","","","","","","","","","","","","","","","",""
"404.09999999403954","","rt_plussign_withcolor","720958","","blue","","","","","49","US_Cities_List/hat.png","US_Cities_List/jukebox.png","","","","","","","","","","","","","","","","","","","","","","","","","","","",""
"null","","rt_thecrossant_black","722345","","black_plus_sign","","","","","null","","","1","0.9655172413793104","","","","","","","","","","","","","","","","","","","","","","","","","",""
"null","","color_black","722450","","black_plus_sign","","","","","null","","","","","","","","","","","","","","","","","","","","","","","","","","","","","",""
"null","","learn_phase(without_color)","725465","","black_plus_sign","","","","","null","US_Cities_List/teeth.png","US_Cities_List/barrel.png","","","","","","","","","","","","","","","","","","","","","","","","","","","",""
"null","","black_cross(without_color)","726048","","blue","","","","","null","US_Cities_List/teeth.png","US_Cities_List/barrel.png","","","","","","","","","","","","","","","","","","","","","","","","","","","",""
"385","","rt_plussign_withcolor","726551","","blue","","","","","49","US_Cities_List/teeth.png","US_Cities_List/barrel.png","","","","","","","","","","","","","","","","","","","","","","","","","","","",""
"null","","rt_thecrossant_black","727976","","black_plus_sign","","","","","null","","","1","0.9661016949152542","","","","","","","","","","","","","","","","","","","","","","","","","",""
"null","","color_black","728080","","black_plus_sign","","","","","null","","","","","","","","","","","","","","","","","","","","","","","","","","","","","",""
"null","","learn_phase(without_color)","731091","","black_plus_sign","","","","","null","US_Cities_List/gong.png","US_Cities_List/soldier.png","","","","","","","","","","","","","","","","","","","","","","","","","","","",""
"null","","black_cross(without_color)","731540","","green","","","","","null","US_Cities_List/gong.png","US_Cities_List/soldier.png","","","","","","","","","","","","","","","","","","","","","","","","","","","",""
"null","","rt_plussign_withcolor","732043","","green","","","","","null","US_Cities_List/gong.png","US_Cities_List/soldier.png","","","","","","","","","","","","","","","","","","","","","","","","","","","",""
"925.2000000029802","","rt_thecrossant_black","733602","","black_plus_sign","","","","","50","","","1","0.9666666666666667","","","","","","","","","","","","","","","","","","","","","","","","","",""
"null","","color_black","733706","","black_plus_sign","","","","","null","","","","","","","","","","","","","","","","","","","","","","","","","","","","","",""
"null","","learn_phase(without_color)","736723","","black_plus_sign","","","","","null","US_Cities_List/barrel.png","US_Cities_List/teeth.png","","","","","","","","","","","","","","","","","","","","","","","","","","","",""
"null","","black_cross(without_color)","737610","","blue","","","","","null","US_Cities_List/barrel.png","US_Cities_List/teeth.png","","","","","","","","","","","","","","","","","","","","","","","","","","","",""
"374.40000000596046","","rt_plussign_withcolor","738114","","blue","","","","","49","US_Cities_List/barrel.png","US_Cities_List/teeth.png","","","","","","","","","","","","","","","","","","","","","","","","","","","",""
"null","","rt_thecrossant_black","739235","","black_plus_sign","","","","","null","","","1","0.9672131147540983","","","","","","","","","","","","","","","","","","","","","","","","","",""
"null","","color_black","739339","","black_plus_sign","","","","","null","","","","","","","","","","","","","","","","","","","","","","","","","","","","","",""
"null","","learn_phase(without_color)","742355","","black_plus_sign","","","","","null","US_Cities_List/jukebox.png","US_Cities_List/hat.png","","","","","","","","","","","","","","","","","","","","","","","","","","","",""
"null","","black_cross(without_color)","742925","","green","","","","","null","US_Cities_List/jukebox.png","US_Cities_List/hat.png","","","","","","","","","","","","","","","","","","","","","","","","","","","",""
"null","","rt_plussign_withcolor","743428","","green","","","","","null","US_Cities_List/jukebox.png","US_Cities_List/hat.png","","","","","","","","","","","","","","","","","","","","","","","","","","","",""
"1108.0999999940395","","rt_thecrossant_black","744866","","black_plus_sign","","","","","50","","","1","0.967741935483871","","","","","","","","","","","","","","","","","","","","","","","","","",""
"null","","color_black","744970","","black_plus_sign","","","","","null","","","","","","","","","","","","","","","","","","","","","","","","","","","","","",""
"null","","learn_phase(without_color)","747985","","black_plus_sign","","","","","null","US_Cities_List/gong.png","US_Cities_List/soldier.png","","","","","","","","","","","","","","","","","","","","","","","","","","","",""
"null","","black_cross(without_color)","749071","","green","","","","","null","US_Cities_List/gong.png","US_Cities_List/soldier.png","","","","","","","","","","","","","","","","","","","","","","","","","","","",""
"null","","rt_plussign_withcolor","749575","","green","","","","","null","US_Cities_List/gong.png","US_Cities_List/soldier.png","","","","","","","","","","","","","","","","","","","","","","","","","","","",""
"668.2999999970198","","rt_thecrossant_black","750497","","black_plus_sign","","","","","50","","","1","0.9682539682539683","","","","","","","","","","","","","","","","","","","","","","","","","",""
"null","","color_black","750601","","black_plus_sign","","","","","null","","","","","","","","","","","","","","","","","","","","","","","","","","","","","",""
"null","","learn_phase(without_color)","753623","","black_plus_sign","","","","","null","US_Cities_List/barrel.png","US_Cities_List/teeth.png","","","","","","","","","","","","","","","","","","","","","","","","","","","",""
"null","","black_cross(without_color)","754259","","green","","","","","null","US_Cities_List/barrel.png","US_Cities_List/teeth.png","","","","","","","","","","","","","","","","","","","","","","","","","","","",""
"null","","rt_plussign_withcolor","754762","","green","","","","","null","US_Cities_List/barrel.png","US_Cities_List/teeth.png","","","","","","","","","","","","","","","","","","","","","","","","","","","",""
"1421.4000000059605","","rt_thecrossant_black","756133","","black_plus_sign","","","","","50","","","1","0.96875","","","","","","","","","","","","","","","","","","","","","","","","","",""
"null","","color_black","756237","","black_plus_sign","","","","","null","","","","","","","","","","","","","","","","","","","","","","","","","","","","","",""
"null","","learn_phase(without_color)","759251","","black_plus_sign","","","","","null","US_Cities_List/paint.png","US_Cities_List/gong.png","","","","","","","","","","","","","","","","","","","","","","","","","","","",""
"null","","black_cross(without_color)","760313","","blue","","","","","null","US_Cities_List/paint.png","US_Cities_List/gong.png","","","","","","","","","","","","","","","","","","","","","","","","","","","",""
"null","","rt_plussign_withcolor","760816","","blue","","","","","null","US_Cities_List/paint.png","US_Cities_List/gong.png","","","","","","","","","","","","","","","","","","","","","","","","","","","",""
"750.0999999940395","","rt_thecrossant_black","761763","","black_plus_sign","","","","","49","","","1","0.9692307692307692","","","","","","","","","","","","","","","","","","","","","","","","","",""
"null","","color_black","761868","","black_plus_sign","","","","","null","","","","","","","","","","","","","","","","","","","","","","","","","","","","","",""
"null","","learn_phase(without_color)","764879","","black_plus_sign","","","","","null","US_Cities_List/dustpan.png","US_Cities_List/camera.png","","","","","","","","","","","","","","","","","","","","","","","","","","","",""
"null","","black_cross(without_color)","765528","","blue","","","","","null","US_Cities_List/dustpan.png","US_Cities_List/camera.png","","","","","","","","","","","","","","","","","","","","","","","","","","","",""
"null","","rt_plussign_withcolor","766031","","blue","","","","","null","US_Cities_List/dustpan.png","US_Cities_List/camera.png","","","","","","","","","","","","","","","","","","","","","","","","","","","",""
"1632.300000011921","","rt_thecrossant_black","767390","","black_plus_sign","","","","","49","","","1","0.9696969696969697","","","","","","","","","","","","","","","","","","","","","","","","","",""
"null","","color_black","767493","","black_plus_sign","","","","","null","","","","","","","","","","","","","","","","","","","","","","","","","","","","","",""
"null","","learn_phase(without_color)","770508","","black_plus_sign","","","","","null","US_Cities_List/paint.png","US_Cities_List/gong.png","","","","","","","","","","","","","","","","","","","","","","","","","","","",""
"null","","black_cross(without_color)","771306","","blue","","","","","null","US_Cities_List/paint.png","US_Cities_List/gong.png","","","","","","","","","","","","","","","","","","","","","","","","","","","",""
"null","","rt_plussign_withcolor","771810","","blue","","","","","null","US_Cities_List/paint.png","US_Cities_List/gong.png","","","","","","","","","","","","","","","","","","","","","","","","","","","",""
"1072.199999988079","","rt_thecrossant_black","773023","","black_plus_sign","","","","","49","","","1","0.9701492537313433","","","","","","","","","","","","","","","","","","","","","","","","","",""
"null","","color_black","773127","","black_plus_sign","","","","","null","","","","","","","","","","","","","","","","","","","","","","","","","","","","","",""
"null","","learn_phase(without_color)","776142","","black_plus_sign","","","","","null","US_Cities_List/snail.png","US_Cities_List/wheelchair.png","","","","","","","","","","","","","","","","","","","","","","","","","","","",""
"null","","black_cross(without_color)","776652","","blue","","","","","null","US_Cities_List/snail.png","US_Cities_List/wheelchair.png","","","","","","","","","","","","","","","","","","","","","","","","","","","",""
"null","","rt_plussign_withcolor","777155","","blue","","","","","null","US_Cities_List/snail.png","US_Cities_List/wheelchair.png","","","","","","","","","","","","","","","","","","","","","","","","","","","",""
"1808.4000000059605","","rt_thecrossant_black","778652","","black_plus_sign","","","","","49","","","1","0.9705882352941176","","","","","","","","","","","","","","","","","","","","","","","","","",""
"null","","color_black","778757","","black_plus_sign","","","","","null","","","","","","","","","","","","","","","","","","","","","","","","","","","","","",""
"null","","learn_phase(without_color)","781773","","black_plus_sign","","","","","null","US_Cities_List/paint.png","US_Cities_List/gong.png","","","","","","","","","","","","","","","","","","","","","","","","","","","",""
"null","","black_cross(without_color)","782420","","green","","","","","null","US_Cities_List/paint.png","US_Cities_List/gong.png","","","","","","","","","","","","","","","","","","","","","","","","","","","",""
"null","","rt_plussign_withcolor","782923","","green","","","","","null","US_Cities_List/paint.png","US_Cities_List/gong.png","","","","","","","","","","","","","","","","","","","","","","","","","","","",""
"780.2999999970198","","rt_thecrossant_black","784284","","black_plus_sign","","","","","50","","","1","0.9710144927536232","","","","","","","","","","","","","","","","","","","","","","","","","",""
"null","","color_black","784388","","black_plus_sign","","","","","null","","","","","","","","","","","","","","","","","","","","","","","","","","","","","",""
"null","","learn_phase(without_color)","787402","","black_plus_sign","","","","","null","US_Cities_List/soldier.png","US_Cities_List/jukebox.png","","","","","","","","","","","","","","","","","","","","","","","","","","","",""
"null","","black_cross(without_color)","788243","","green","","","","","null","US_Cities_List/soldier.png","US_Cities_List/jukebox.png","","","","","","","","","","","","","","","","","","","","","","","","","","","",""
"null","","rt_plussign_withcolor","788747","","green","","","","","null","US_Cities_List/soldier.png","US_Cities_List/jukebox.png","","","","","","","","","","","","","","","","","","","","","","","","","","","",""
"1285.2999999970198","","rt_thecrossant_black","789913","","black_plus_sign","","","","","50","","","1","0.9714285714285714","","","","","","","","","","","","","","","","","","","","","","","","","",""
"null","","color_black","790017","","black_plus_sign","","","","","null","","","","","","","","","","","","","","","","","","","","","","","","","","","","","",""
"null","","learn_phase(without_color)","793027","","black_plus_sign","","","","","null","US_Cities_List/dustpan.png","US_Cities_List/camera.png","","","","","","","","","","","","","","","","","","","","","","","","","","","",""
"null","","black_cross(without_color)","794122","","green","","","","","null","US_Cities_List/dustpan.png","US_Cities_List/camera.png","","","","","","","","","","","","","","","","","","","","","","","","","","","",""
"486.5","","rt_plussign_withcolor","794626","","green","","","","","50","US_Cities_List/dustpan.png","US_Cities_List/camera.png","","","","","","","","","","","","","","","","","","","","","","","","","","","",""
"null","","rt_thecrossant_black","795538","","black_plus_sign","","","","","null","","","1","0.971830985915493","","","","","","","","","","","","","","","","","","","","","","","","","",""
"null","","color_black","795641","","black_plus_sign","","","","","null","","","","","","","","","","","","","","","","","","","","","","","","","","","","","",""
"null","","learn_phase(without_color)","798651","","black_plus_sign","","","","","null","US_Cities_List/gong.png","US_Cities_List/paint.png","","","","","","","","","","","","","","","","","","","","","","","","","","","",""
"null","","black_cross(without_color)","799591","","blue","","","","","null","US_Cities_List/gong.png","US_Cities_List/paint.png","","","","","","","","","","","","","","","","","","","","","","","","","","","",""
"null","","rt_plussign_withcolor","800095","","blue","","","","","null","US_Cities_List/gong.png","US_Cities_List/paint.png","","","","","","","","","","","","","","","","","","","","","","","","","","","",""
"1293.7000000029802","","rt_thecrossant_black","801164","","black_plus_sign","","","","","49","","","1","0.9722222222222222","","","","","","","","","","","","","","","","","","","","","","","","","",""
"null","","color_black","801268","","black_plus_sign","","","","","null","","","","","","","","","","","","","","","","","","","","","","","","","","","","","",""
"null","","learn_phase(without_color)","804285","","black_plus_sign","","","","","null","US_Cities_List/soldier.png","US_Cities_List/jukebox.png","","","","","","","","","","","","","","","","","","","","","","","","","","","",""
"null","","black_cross(without_color)","804696","","green","","","","","null","US_Cities_List/soldier.png","US_Cities_List/jukebox.png","","","","","","","","","","","","","","","","","","","","","","","","","","","",""
"null","","rt_plussign_withcolor","805200","","green","","","","","null","US_Cities_List/soldier.png","US_Cities_List/jukebox.png","","","","","","","","","","","","","","","","","","","","","","","","","","","",""
"1226.8999999910593","","rt_thecrossant_black","806798","","black_plus_sign","","","","","50","","","1","0.9726027397260274","","","","","","","","","","","","","","","","","","","","","","","","","",""
"null","","color_black","806902","","black_plus_sign","","","","","null","","","","","","","","","","","","","","","","","","","","","","","","","","","","","",""
"null","","learn_phase(without_color)","809918","","black_plus_sign","","","","","null","US_Cities_List/gong.png","US_Cities_List/paint.png","","","","","","","","","","","","","","","","","","","","","","","","","","","",""
"null","","black_cross(without_color)","810804","","green","","","","","null","US_Cities_List/gong.png","US_Cities_List/paint.png","","","","","","","","","","","","","","","","","","","","","","","","","","","",""
"null","","rt_plussign_withcolor","811307","","green","","","","","null","US_Cities_List/gong.png","US_Cities_List/paint.png","","","","","","","","","","","","","","","","","","","","","","","","","","","",""
"1185.2999999970198","","rt_thecrossant_black","812430","","black_plus_sign","","","","","50","","","1","0.972972972972973","","","","","","","","","","","","","","","","","","","","","","","","","",""
"null","","color_black","812533","","black_plus_sign","","","","","null","","","","","","","","","","","","","","","","","","","","","","","","","","","","","",""
"null","","learn_phase(without_color)","815545","","black_plus_sign","","","","","null","US_Cities_List/camera.png","US_Cities_List/dustpan.png","","","","","","","","","","","","","","","","","","","","","","","","","","","",""
"null","","black_cross(without_color)","816191","","green","","","","","null","US_Cities_List/camera.png","US_Cities_List/dustpan.png","","","","","","","","","","","","","","","","","","","","","","","","","","","",""
"null","","rt_plussign_withcolor","816695","","green","","","","","null","US_Cities_List/camera.png","US_Cities_List/dustpan.png","","","","","","","","","","","","","","","","","","","","","","","","","","","",""
"1454.0999999940395","","rt_thecrossant_black","818057","","black_plus_sign","","","","","50","","","1","0.9733333333333334","","","","","","","","","","","","","","","","","","","","","","","","","",""
"null","","color_black","818161","","black_plus_sign","","","","","null","","","","","","","","","","","","","","","","","","","","","","","","","","","","","",""
"null","","learn_phase(without_color)","821174","","black_plus_sign","","","","","null","US_Cities_List/soldier.png","US_Cities_List/jukebox.png","","","","","","","","","","","","","","","","","","","","","","","","","","","",""
"null","","black_cross(without_color)","822173","","green","","","","","null","US_Cities_List/soldier.png","US_Cities_List/jukebox.png","","","","","","","","","","","","","","","","","","","","","","","","","","","",""
"null","","rt_plussign_withcolor","822677","","green","","","","","null","US_Cities_List/soldier.png","US_Cities_List/jukebox.png","","","","","","","","","","","","","","","","","","","","","","","","","","","",""
"825.7000000029802","","rt_thecrossant_black","823687","","black_plus_sign","","","","","50","","","1","0.9736842105263158","","","","","","","","","","","","","","","","","","","","","","","","","",""
"null","","color_black","823791","","black_plus_sign","","","","","null","","","","","","","","","","","","","","","","","","","","","","","","","","","","","",""
"null","","learn_phase(without_color)","826805","","black_plus_sign","","","","","null","US_Cities_List/snail.png","US_Cities_List/wheelchair.png","","","","","","","","","","","","","","","","","","","","","","","","","","","",""
"null","","black_cross(without_color)","827723","","blue","","","","","null","US_Cities_List/snail.png","US_Cities_List/wheelchair.png","","","","","","","","","","","","","","","","","","","","","","","","","","","",""
"null","","rt_plussign_withcolor","828227","","blue","","","","","null","US_Cities_List/snail.png","US_Cities_List/wheelchair.png","","","","","","","","","","","","","","","","","","","","","","","","","","","",""
"1181","","rt_thecrossant_black","829314","","black_plus_sign","","","","","49","","","1","0.974025974025974","","","","","","","","","","","","","","","","","","","","","","","","","",""
"null","","color_black","829419","","black_plus_sign","","","","","null","","","","","","","","","","","","","","","","","","","","","","","","","","","","","",""
"null","","learn_phase(without_color)","832433","","black_plus_sign","","","","","null","US_Cities_List/jukebox.png","US_Cities_List/soldier.png","","","","","","","","","","","","","","","","","","","","","","","","","","","",""
"null","","black_cross(without_color)","832992","","blue","","","","","null","US_Cities_List/jukebox.png","US_Cities_List/soldier.png","","","","","","","","","","","","","","","","","","","","","","","","","","","",""
"null","","rt_plussign_withcolor","833496","","blue","","","","","null","US_Cities_List/jukebox.png","US_Cities_List/soldier.png","","","","","","","","","","","","","","","","","","","","","","","","","","","",""
"1335.5","","rt_thecrossant_black","834943","","black_plus_sign","","","","","49","","","1","0.9743589743589743","","","","","","","","","","","","","","","","","","","","","","","","","",""
"null","","color_black","835048","","black_plus_sign","","","","","null","","","","","","","","","","","","","","","","","","","","","","","","","","","","","",""
"null","","learn_phase(without_color)","838069","","black_plus_sign","","","","","null","US_Cities_List/snail.png","US_Cities_List/wheelchair.png","","","","","","","","","","","","","","","","","","","","","","","","","","","",""
"null","","black_cross(without_color)","838506","","green","","","","","null","US_Cities_List/snail.png","US_Cities_List/wheelchair.png","","","","","","","","","","","","","","","","","","","","","","","","","","","",""
"null","","rt_plussign_withcolor","839009","","green","","","","","null","US_Cities_List/snail.png","US_Cities_List/wheelchair.png","","","","","","","","","","","","","","","","","","","","","","","","","","","",""
"809.2999999970198","","rt_thecrossant_black","840579","","black_plus_sign","","","","","50","","","1","0.9746835443037974","","","","","","","","","","","","","","","","","","","","","","","","","",""
"null","","color_black","840682","","black_plus_sign","","","","","null","","","","","","","","","","","","","","","","","","","","","","","","","","","","","",""
"null","","learn_phase(without_color)","843700","","black_plus_sign","","","","","null","US_Cities_List/soldier.png","US_Cities_List/jukebox.png","","","","","","","","","","","","","","","","","","","","","","","","","","","",""
"null","","black_cross(without_color)","844163","","blue","","","","","null","US_Cities_List/soldier.png","US_Cities_List/jukebox.png","","","","","","","","","","","","","","","","","","","","","","","","","","","",""
"null","","rt_plussign_withcolor","844667","","blue","","","","","null","US_Cities_List/soldier.png","US_Cities_List/jukebox.png","","","","","","","","","","","","","","","","","","","","","","","","","","","",""
"537.7999999970198","","rt_thecrossant_black","846210","","black_plus_sign","","","","","49","","","1","0.975","","","","","","","","","","","","","","","","","","","","","","","","","",""
"null","","color_black","846315","","black_plus_sign","","","","","null","","","","","","","","","","","","","","","","","","","","","","","","","","","","","",""
"null","","learn_phase(without_color)","849327","","black_plus_sign","","","","","null","US_Cities_List/camera.png","US_Cities_List/dustpan.png","","","","","","","","","","","","","","","","","","","","","","","","","","","",""
"null","","black_cross(without_color)","849750","","blue","","","","","null","US_Cities_List/camera.png","US_Cities_List/dustpan.png","","","","","","","","","","","","","","","","","","","","","","","","","","","",""
"null","","rt_plussign_withcolor","850253","","blue","","","","","null","US_Cities_List/camera.png","US_Cities_List/dustpan.png","","","","","","","","","","","","","","","","","","","","","","","","","","","",""
"818.7999999970198","","rt_thecrossant_black","851839","","black_plus_sign","","","","","49","","","1","0.9753086419753086","","","","","","","","","","","","","","","","","","","","","","","","","",""
"null","","color_black","851943","","black_plus_sign","","","","","null","","","","","","","","","","","","","","","","","","","","","","","","","","","","","",""
"null","","learn_phase(without_color)","854961","","black_plus_sign","","","","","null","US_Cities_List/snail.png","US_Cities_List/wheelchair.png","","","","","","","","","","","","","","","","","","","","","","","","","","","",""
"null","","black_cross(without_color)","855952","","green","","","","","null","US_Cities_List/snail.png","US_Cities_List/wheelchair.png","","","","","","","","","","","","","","","","","","","","","","","","","","","",""
"null","","rt_plussign_withcolor","856455","","green","","","","","null","US_Cities_List/snail.png","US_Cities_List/wheelchair.png","","","","","","","","","","","","","","","","","","","","","","","","","","","",""
"1224.2999999970198","","rt_thecrossant_black","857473","","black_plus_sign","","","","","50","","","1","0.975609756097561","","","","","","","","","","","","","","","","","","","","","","","","","",""
"null","","color_black","857577","","black_plus_sign","","","","","null","","","","","","","","","","","","","","","","","","","","","","","","","","","","","",""
"null","","learn_phase(without_color)","860593","","black_plus_sign","","","","","null","US_Cities_List/gong.png","US_Cities_List/paint.png","","","","","","","","","","","","","","","","","","","","","","","","","","","",""
"null","","black_cross(without_color)","861483","","blue","","","","","null","US_Cities_List/gong.png","US_Cities_List/paint.png","","","","","","","","","","","","","","","","","","","","","","","","","","","",""
"437.30000001192093","","rt_plussign_withcolor","861986","","blue","","","","","49","US_Cities_List/gong.png","US_Cities_List/paint.png","","","","","","","","","","","","","","","","","","","","","","","","","","","",""
"null","","rt_thecrossant_black","863103","","black_plus_sign","","","","","null","","","1","0.9759036144578314","","","","","","","","","","","","","","","","","","","","","","","","","",""
"null","","color_black","863207","","black_plus_sign","","","","","null","","","","","","","","","","","","","","","","","","","","","","","","","","","","","",""
"null","","learn_phase(without_color)","866222","","black_plus_sign","","","","","null","US_Cities_List/soldier.png","US_Cities_List/jukebox.png","","","","","","","","","","","","","","","","","","","","","","","","","","","",""
"null","","black_cross(without_color)","866642","","green","","","","","null","US_Cities_List/soldier.png","US_Cities_List/jukebox.png","","","","","","","","","","","","","","","","","","","","","","","","","","","",""
"null","","rt_plussign_withcolor","867145","","green","","","","","null","US_Cities_List/soldier.png","US_Cities_List/jukebox.png","","","","","","","","","","","","","","","","","","","","","","","","","","","",""
"1193.9000000059605","","rt_thecrossant_black","868733","","black_plus_sign","","","","","50","","","1","0.9761904761904762","","","","","","","","","","","","","","","","","","","","","","","","","",""
"null","","color_black","868837","","black_plus_sign","","","","","null","","","","","","","","","","","","","","","","","","","","","","","","","","","","","",""
"null","","learn_phase(without_color)","871852","","black_plus_sign","","","","","null","US_Cities_List/dustpan.png","US_Cities_List/camera.png","","","","","","","","","","","","","","","","","","","","","","","","","","","",""
"null","","black_cross(without_color)","872595","","green","","","","","null","US_Cities_List/dustpan.png","US_Cities_List/camera.png","","","","","","","","","","","","","","","","","","","","","","","","","","","",""
"485.80000001192093","","rt_plussign_withcolor","873098","","green","","","","","50","US_Cities_List/dustpan.png","US_Cities_List/camera.png","","","","","","","","","","","","","","","","","","","","","","","","","","","",""
"null","","rt_thecrossant_black","874362","","black_plus_sign","","","","","null","","","1","0.9764705882352941","","","","","","","","","","","","","","","","","","","","","","","","","",""
"null","","color_black","874467","","black_plus_sign","","","","","null","","","","","","","","","","","","","","","","","","","","","","","","","","","","","",""
"null","","learn_phase(without_color)","877481","","black_plus_sign","","","","","null","US_Cities_List/snail.png","US_Cities_List/wheelchair.png","","","","","","","","","","","","","","","","","","","","","","","","","","","",""
"null","","black_cross(without_color)","878110","","green","","","","","null","US_Cities_List/snail.png","US_Cities_List/wheelchair.png","","","","","","","","","","","","","","","","","","","","","","","","","","","",""
"499.59999999403954","","rt_plussign_withcolor","878612","","green","","","","","50","US_Cities_List/snail.png","US_Cities_List/wheelchair.png","","","","","","","","","","","","","","","","","","","","","","","","","","","",""
"null","","rt_thecrossant_black","879992","","black_plus_sign","","","","","null","","","1","0.9767441860465116","","","","","","","","","","","","","","","","","","","","","","","","","",""
"null","","color_black","880095","","black_plus_sign","","","","","null","","","","","","","","","","","","","","","","","","","","","","","","","","","","","",""
"null","","learn_phase(without_color)","883107","","black_plus_sign","","","","","null","US_Cities_List/jukebox.png","US_Cities_List/soldier.png","","","","","","","","","","","","","","","","","","","","","","","","","","","",""
"null","","black_cross(without_color)","883957","","blue","","","","","null","US_Cities_List/jukebox.png","US_Cities_List/soldier.png","","","","","","","","","","","","","","","","","","","","","","","","","","","",""
"null","","rt_plussign_withcolor","884461","","blue","","","","","null","US_Cities_List/jukebox.png","US_Cities_List/soldier.png","","","","","","","","","","","","","","","","","","","","","","","","","","","",""
"902.7999999970198","","rt_thecrossant_black","885618","","black_plus_sign","","","","","49","","","1","0.9770114942528736","","","","","","","","","","","","","","","","","","","","","","","","","",""
"null","","color_black","885723","","black_plus_sign","","","","","null","","","","","","","","","","","","","","","","","","","","","","","","","","","","","",""
"null","","learn_phase(without_color)","888742","","black_plus_sign","","","","","null","US_Cities_List/wheelchair.png","US_Cities_List/snail.png","","","","","","","","","","","","","","","","","","","","","","","","","","","",""
"null","","black_cross(without_color)","889483","","blue","","","","","null","US_Cities_List/wheelchair.png","US_Cities_List/snail.png","","","","","","","","","","","","","","","","","","","","","","","","","","","",""
