rt,responses,trial_type,time_elapsed,sequence,stimulus,cities,city_images,button_pressed,response,key_press,stimulus_left,stimulus_right,accuracy,cumulative_accuracy,stimulus_down_left,stimulus_down_mid,stimulus_down_right,stimulus_correct,stimulus_short,stimulus_far,weighted_accuracy,missedtrial,condition,specific_pairs,imgL_ID,imgR_ID,linedress,linedressed,detour_trial,linedressed_detor,testedstates,currentstate,otherstate,problems,smooth,distraction,strategies,easier,similar,comments,detectfocus
225697.40000000014,{worker_id:3075},id_enter,225698,blocked,intro,Hawthorne Bluffs; Hollendale; Sunmere; North Arroya; Orchard Bend; Granton Ridge; Juniper Creek; Cedarwyn; Claywater; Baymarsh; Delaro Park; Riverlyn; New Verdan,US_Cities_List/gong.png; US_Cities_List/jukebox.png; US_Cities_List/hat.png; US_Cities_List/basket.png; US_Cities_List/dustpan.png; US_Cities_List/wheelchair.png; US_Cities_List/globe.png; US_Cities_List/paint.png; US_Cities_List/camera.png; US_Cities_List/soldier.png; US_Cities_List/teeth.png; US_Cities_List/barrel.png; US_Cities_List/snail.png,,,,,,,,,,,,,,,,,,,,,,,,,,,,,,,,,,
1972.1999999999534,,fullscreen,227676,,make_fullscreen,,,0,,,,,,,,,,,,,,,,,,,,,,,,,,,,,,,,,
8038.199999999953,,intro_1,235717,,instruct,,,0,,,,,,,,,,,,,,,,,,,,,,,,,,,,,,,,,
15004,,intro_2,250724,,instruct,,,1,Next,,,,,,,,,,,,,,,,,,,,,,,,,,,,,,,,
18620,,intro_3,269346,,instruct,,,1,Next,,,,,,,,,,,,,,,,,,,,,,,,,,,,,,,,
9293.5,,intro_4,278641,,instruct,,,1,Next,,,,,,,,,,,,,,,,,,,,,,,,,,,,,,,,
11940.600000000093,,intro_5,290584,,instruct,,,1,Next,,,,,,,,,,,,,,,,,,,,,,,,,,,,,,,,
24027.300000000047,,intro_6,314613,,instruct,,,1,Next,,,,,,,,,,,,,,,,,,,,,,,,,,,,,,,,
12024.399999999907,,intro_7,326640,,instruct,,,1,Next,,,,,,,,,,,,,,,,,,,,,,,,,,,,,,,,
22221.5,,intro_8,348863,,instruct,,,1,Next,,,,,,,,,,,,,,,,,,,,,,,,,,,,,,,,
4220.800000000047,,intro_9,353085,,instruct,,,1,Next,,,,,,,,,,,,,,,,,,,,,,,,,,,,,,,,
4244,,intro_10,357331,,instruct,,,1,Next,,,,,,,,,,,,,,,,,,,,,,,,,,,,,,,,
5914.100000000093,,intro_11,363247,,instruct,,,1,Next,,,,,,,,,,,,,,,,,,,,,,,,,,,,,,,,
15938.699999999953,,intro_12,379188,,instruct,,,1,Next,,,,,,,,,,,,,,,,,,,,,,,,,,,,,,,,
null,,prac_atten_color_black,380192,,black_plus_sign,,,,,null,,,,,,,,,,,,,,,,,,,,,,,,,,,,,,,
null,,prac_atten_color,380597,,prac_stop_color,,,,,null,,,,,,,,,,,,,,,,,,,,,,,,,,,,,,,
78.89999999990687,,prac_atten_color_black,382600,,black_plus_sign,,,,,49,,,,,,,,,,,,,,,,,,,,,,,,,,,,,,,
null,,prac_atten_color_black,383605,,black_plus_sign,,,,,null,,,,,,,,,,,,,,,,,,,,,,,,,,,,,,,
484.80000000004657,,prac_atten_color,384329,,prac_stop_color,,,,,50,,,,,,,,,,,,,,,,,,,,,,,,,,,,,,,
null,,prac_atten_color_black,386333,,black_plus_sign,,,,,null,,,,,,,,,,,,,,,,,,,,,,,,,,,,,,,
null,,prac_atten_color_black,387016,,black_plus_sign,,,,,null,,,,,,,,,,,,,,,,,,,,,,,,,,,,,,,
null,,prac_atten_color,387459,,prac_stop_color,,,,,null,,,,,,,,,,,,,,,,,,,,,,,,,,,,,,,
183.19999999995343,,prac_atten_color_black,389462,,black_plus_sign,,,,,50,,,,,,,,,,,,,,,,,,,,,,,,,,,,,,,
null,,prac_atten_color_black,390426,,black_plus_sign,,,,,null,,,,,,,,,,,,,,,,,,,,,,,,,,,,,,,
null,,prac_atten_color,390901,,prac_stop_color,,,,,null,,,,,,,,,,,,,,,,,,,,,,,,,,,,,,,
89.60000000009313,,prac_atten_color_black,392904,,black_plus_sign,,,,,50,,,,,,,,,,,,,,,,,,,,,,,,,,,,,,,
4364.699999999953,,attentioncheck_help,397271,,instruct,,,,,32,,,,,,,,,,,,,,,,,,,,,,,,,,,,,,,
null,,prac_atten_color_black,398203,,black_plus_sign,,,,,null,,,,,,,,,,,,,,,,,,,,,,,,,,,,,,,
505.39999999990687,,prac_atten_color,399193,,prac_stop_color,,,,,50,,,,,,,,,,,,,,,,,,,,,,,,,,,,,,,
null,,prac_atten_color_black,401196,,black_plus_sign,,,,,null,,,,,,,,,,,,,,,,,,,,,,,,,,,,,,,
null,,prac_atten_color_black,401612,,black_plus_sign,,,,,null,,,,,,,,,,,,,,,,,,,,,,,,,,,,,,,
715.1999999999534,,prac_atten_color,402358,,prac_stop_color,,,,,50,,,,,,,,,,,,,,,,,,,,,,,,,,,,,,,
null,,prac_atten_color_black,404361,,black_plus_sign,,,,,null,,,,,,,,,,,,,,,,,,,,,,,,,,,,,,,
null,,prac_atten_color_black,405022,,black_plus_sign,,,,,null,,,,,,,,,,,,,,,,,,,,,,,,,,,,,,,
679,,prac_atten_color,405779,,prac_stop_color,,,,,49,,,,,,,,,,,,,,,,,,,,,,,,,,,,,,,
null,,prac_atten_color_black,407782,,black_plus_sign,,,,,null,,,,,,,,,,,,,,,,,,,,,,,,,,,,,,,
null,,prac_atten_color_black,408432,,black_plus_sign,,,,,null,,,,,,,,,,,,,,,,,,,,,,,,,,,,,,,
638.6999999999534,,prac_atten_color,409419,,prac_stop_color,,,,,50,,,,,,,,,,,,,,,,,,,,,,,,,,,,,,,
null,,prac_atten_color_black,411423,,black_plus_sign,,,,,null,,,,,,,,,,,,,,,,,,,,,,,,,,,,,,,
null,,prac_atten_color_black,411842,,black_plus_sign,,,,,null,,,,,,,,,,,,,,,,,,,,,,,,,,,,,,,
648.9000000001397,,prac_atten_color,412936,,prac_stop_color,,,,,49,,,,,,,,,,,,,,,,,,,,,,,,,,,,,,,
null,,prac_atten_color_black,414939,,black_plus_sign,,,,,null,,,,,,,,,,,,,,,,,,,,,,,,,,,,,,,
null,,prac_atten_color_black,415253,,black_plus_sign,,,,,null,,,,,,,,,,,,,,,,,,,,,,,,,,,,,,,
640.8000000000466,,prac_atten_color,415955,,prac_stop_color,,,,,49,,,,,,,,,,,,,,,,,,,,,,,,,,,,,,,
null,,prac_atten_color_black,417957,,black_plus_sign,,,,,null,,,,,,,,,,,,,,,,,,,,,,,,,,,,,,,
5396,,attentioncheck_feedback,423356,,cross_check_feedback,,,0,,,,,,,,,,,,,,,,,,,,,,,,,,,,,,,,,
16816.899999999907,,last_instruct,440174,,instruct,,,,,32,,,,,,,,,,,,,,,,,,,,,,,,,,,,,,,
null,,learn_phase(without_color),443193,,black_plus_sign,,,,,null,US_Cities_List/basket.png,US_Cities_List/jukebox.png,,,,,,,,,,,,,,,,,,,,,,,,,,,,,
null,,black_cross(without_color),443597,,green,,,,,null,US_Cities_List/basket.png,US_Cities_List/jukebox.png,,,,,,,,,,,,,,,,,,,,,,,,,,,,,
null,,rt_plussign_withcolor,444100,,green,,,,,null,US_Cities_List/basket.png,US_Cities_List/jukebox.png,,,,,,,,,,,,,,,,,,,,,,,,,,,,,
1241.1999999999534,,rt_thecrossant_black,445704,,black_plus_sign,,,,,50,,,1,1,,,,,,,,,,,,,,,,,,,,,,,,,,,
null,,color_black,445808,,black_plus_sign,,,,,null,,,,,,,,,,,,,,,,,,,,,,,,,,,,,,,
null,,learn_phase(without_color),448821,,black_plus_sign,,,,,null,US_Cities_List/wheelchair.png,US_Cities_List/camera.png,,,,,,,,,,,,,,,,,,,,,,,,,,,,,
null,,black_cross(without_color),449670,,blue,,,,,null,US_Cities_List/wheelchair.png,US_Cities_List/camera.png,,,,,,,,,,,,,,,,,,,,,,,,,,,,,
null,,rt_plussign_withcolor,450173,,blue,,,,,null,US_Cities_List/wheelchair.png,US_Cities_List/camera.png,,,,,,,,,,,,,,,,,,,,,,,,,,,,,
1135,,rt_thecrossant_black,451330,,black_plus_sign,,,,,49,,,1,1,,,,,,,,,,,,,,,,,,,,,,,,,,,
null,,color_black,451434,,black_plus_sign,,,,,null,,,,,,,,,,,,,,,,,,,,,,,,,,,,,,,
null,,learn_phase(without_color),454453,,black_plus_sign,,,,,null,US_Cities_List/jukebox.png,US_Cities_List/basket.png,,,,,,,,,,,,,,,,,,,,,,,,,,,,,
null,,black_cross(without_color),455059,,blue,,,,,null,US_Cities_List/jukebox.png,US_Cities_List/basket.png,,,,,,,,,,,,,,,,,,,,,,,,,,,,,
null,,rt_plussign_withcolor,455562,,blue,,,,,null,US_Cities_List/jukebox.png,US_Cities_List/basket.png,,,,,,,,,,,,,,,,,,,,,,,,,,,,,
1072.8000000000466,,rt_thecrossant_black,456961,,black_plus_sign,,,,,49,,,1,1,,,,,,,,,,,,,,,,,,,,,,,,,,,
null,,color_black,457064,,black_plus_sign,,,,,null,,,,,,,,,,,,,,,,,,,,,,,,,,,,,,,
null,,learn_phase(without_color),460079,,black_plus_sign,,,,,null,US_Cities_List/teeth.png,US_Cities_List/hat.png,,,,,,,,,,,,,,,,,,,,,,,,,,,,,
null,,black_cross(without_color),460751,,green,,,,,null,US_Cities_List/teeth.png,US_Cities_List/hat.png,,,,,,,,,,,,,,,,,,,,,,,,,,,,,
null,,rt_plussign_withcolor,461253,,green,,,,,null,US_Cities_List/teeth.png,US_Cities_List/hat.png,,,,,,,,,,,,,,,,,,,,,,,,,,,,,
806.5999999998603,,rt_thecrossant_black,462588,,black_plus_sign,,,,,50,,,1,1,,,,,,,,,,,,,,,,,,,,,,,,,,,
null,,color_black,462691,,black_plus_sign,,,,,null,,,,,,,,,,,,,,,,,,,,,,,,,,,,,,,
null,,learn_phase(without_color),465708,,black_plus_sign,,,,,null,US_Cities_List/basket.png,US_Cities_List/jukebox.png,,,,,,,,,,,,,,,,,,,,,,,,,,,,,
null,,black_cross(without_color),466331,,green,,,,,null,US_Cities_List/basket.png,US_Cities_List/jukebox.png,,,,,,,,,,,,,,,,,,,,,,,,,,,,,
null,,rt_plussign_withcolor,466833,,green,,,,,null,US_Cities_List/basket.png,US_Cities_List/jukebox.png,,,,,,,,,,,,,,,,,,,,,,,,,,,,,
974.3999999999069,,rt_thecrossant_black,468217,,black_plus_sign,,,,,50,,,1,1,,,,,,,,,,,,,,,,,,,,,,,,,,,
null,,color_black,468320,,black_plus_sign,,,,,null,,,,,,,,,,,,,,,,,,,,,,,,,,,,,,,
null,,learn_phase(without_color),471335,,black_plus_sign,,,,,null,US_Cities_List/camera.png,US_Cities_List/wheelchair.png,,,,,,,,,,,,,,,,,,,,,,,,,,,,,
null,,black_cross(without_color),472238,,green,,,,,null,US_Cities_List/camera.png,US_Cities_List/wheelchair.png,,,,,,,,,,,,,,,,,,,,,,,,,,,,,
null,,rt_plussign_withcolor,472740,,green,,,,,null,US_Cities_List/camera.png,US_Cities_List/wheelchair.png,,,,,,,,,,,,,,,,,,,,,,,,,,,,,
839.5,,rt_thecrossant_black,473844,,black_plus_sign,,,,,50,,,1,1,,,,,,,,,,,,,,,,,,,,,,,,,,,
null,,color_black,473948,,black_plus_sign,,,,,null,,,,,,,,,,,,,,,,,,,,,,,,,,,,,,,
null,,learn_phase(without_color),476965,,black_plus_sign,,,,,null,US_Cities_List/basket.png,US_Cities_List/jukebox.png,,,,,,,,,,,,,,,,,,,,,,,,,,,,,
null,,black_cross(without_color),477676,,blue,,,,,null,US_Cities_List/basket.png,US_Cities_List/jukebox.png,,,,,,,,,,,,,,,,,,,,,,,,,,,,,
null,,rt_plussign_withcolor,478179,,blue,,,,,null,US_Cities_List/basket.png,US_Cities_List/jukebox.png,,,,,,,,,,,,,,,,,,,,,,,,,,,,,
1063.5999999998603,,rt_thecrossant_black,479474,,black_plus_sign,,,,,49,,,1,1,,,,,,,,,,,,,,,,,,,,,,,,,,,
null,,color_black,479577,,black_plus_sign,,,,,null,,,,,,,,,,,,,,,,,,,,,,,,,,,,,,,
null,,learn_phase(without_color),482592,,black_plus_sign,,,,,null,US_Cities_List/camera.png,US_Cities_List/wheelchair.png,,,,,,,,,,,,,,,,,,,,,,,,,,,,,
null,,black_cross(without_color),483101,,green,,,,,null,US_Cities_List/camera.png,US_Cities_List/wheelchair.png,,,,,,,,,,,,,,,,,,,,,,,,,,,,,
null,,rt_plussign_withcolor,483604,,green,,,,,null,US_Cities_List/camera.png,US_Cities_List/wheelchair.png,,,,,,,,,,,,,,,,,,,,,,,,,,,,,
1080.2000000001863,,rt_thecrossant_black,485102,,black_plus_sign,,,,,50,,,1,1,,,,,,,,,,,,,,,,,,,,,,,,,,,
null,,color_black,485205,,black_plus_sign,,,,,null,,,,,,,,,,,,,,,,,,,,,,,,,,,,,,,
null,,learn_phase(without_color),488220,,black_plus_sign,,,,,null,US_Cities_List/jukebox.png,US_Cities_List/basket.png,,,,,,,,,,,,,,,,,,,,,,,,,,,,,
null,,black_cross(without_color),488747,,green,,,,,null,US_Cities_List/jukebox.png,US_Cities_List/basket.png,,,,,,,,,,,,,,,,,,,,,,,,,,,,,
null,,rt_plussign_withcolor,489250,,green,,,,,null,US_Cities_List/jukebox.png,US_Cities_List/basket.png,,,,,,,,,,,,,,,,,,,,,,,,,,,,,
873.1999999999534,,rt_thecrossant_black,490729,,black_plus_sign,,,,,50,,,1,1,,,,,,,,,,,,,,,,,,,,,,,,,,,
null,,color_black,490832,,black_plus_sign,,,,,null,,,,,,,,,,,,,,,,,,,,,,,,,,,,,,,
null,,learn_phase(without_color),493846,,black_plus_sign,,,,,null,US_Cities_List/hat.png,US_Cities_List/teeth.png,,,,,,,,,,,,,,,,,,,,,,,,,,,,,
null,,black_cross(without_color),494555,,green,,,,,null,US_Cities_List/hat.png,US_Cities_List/teeth.png,,,,,,,,,,,,,,,,,,,,,,,,,,,,,
null,,rt_plussign_withcolor,495058,,green,,,,,null,US_Cities_List/hat.png,US_Cities_List/teeth.png,,,,,,,,,,,,,,,,,,,,,,,,,,,,,
624.2000000001863,,rt_thecrossant_black,496354,,black_plus_sign,,,,,50,,,1,1,,,,,,,,,,,,,,,,,,,,,,,,,,,
null,,color_black,496457,,black_plus_sign,,,,,null,,,,,,,,,,,,,,,,,,,,,,,,,,,,,,,
null,,learn_phase(without_color),499470,,black_plus_sign,,,,,null,US_Cities_List/camera.png,US_Cities_List/wheelchair.png,,,,,,,,,,,,,,,,,,,,,,,,,,,,,
null,,black_cross(without_color),500392,,green,,,,,null,US_Cities_List/camera.png,US_Cities_List/wheelchair.png,,,,,,,,,,,,,,,,,,,,,,,,,,,,,
null,,rt_plussign_withcolor,500894,,green,,,,,null,US_Cities_List/camera.png,US_Cities_List/wheelchair.png,,,,,,,,,,,,,,,,,,,,,,,,,,,,,
829.5,,rt_thecrossant_black,501978,,black_plus_sign,,,,,50,,,1,1,,,,,,,,,,,,,,,,,,,,,,,,,,,
null,,color_black,502081,,black_plus_sign,,,,,null,,,,,,,,,,,,,,,,,,,,,,,,,,,,,,,
null,,learn_phase(without_color),505098,,black_plus_sign,,,,,null,US_Cities_List/hat.png,US_Cities_List/teeth.png,,,,,,,,,,,,,,,,,,,,,,,,,,,,,
null,,black_cross(without_color),505623,,green,,,,,null,US_Cities_List/hat.png,US_Cities_List/teeth.png,,,,,,,,,,,,,,,,,,,,,,,,,,,,,
null,,rt_plussign_withcolor,506126,,green,,,,,null,US_Cities_List/hat.png,US_Cities_List/teeth.png,,,,,,,,,,,,,,,,,,,,,,,,,,,,,
1199.5,,rt_thecrossant_black,507607,,black_plus_sign,,,,,50,,,1,1,,,,,,,,,,,,,,,,,,,,,,,,,,,
null,,color_black,507710,,black_plus_sign,,,,,null,,,,,,,,,,,,,,,,,,,,,,,,,,,,,,,
null,,learn_phase(without_color),510723,,black_plus_sign,,,,,null,US_Cities_List/globe.png,US_Cities_List/snail.png,,,,,,,,,,,,,,,,,,,,,,,,,,,,,
null,,black_cross(without_color),511346,,green,,,,,null,US_Cities_List/globe.png,US_Cities_List/snail.png,,,,,,,,,,,,,,,,,,,,,,,,,,,,,
499.10000000009313,,rt_plussign_withcolor,511848,,green,,,,,50,US_Cities_List/globe.png,US_Cities_List/snail.png,,,,,,,,,,,,,,,,,,,,,,,,,,,,,
null,,rt_thecrossant_black,513233,,black_plus_sign,,,,,null,,,1,1,,,,,,,,,,,,,,,,,,,,,,,,,,,
null,,color_black,513336,,black_plus_sign,,,,,null,,,,,,,,,,,,,,,,,,,,,,,,,,,,,,,
null,,learn_phase(without_color),516351,,black_plus_sign,,,,,null,US_Cities_List/camera.png,US_Cities_List/wheelchair.png,,,,,,,,,,,,,,,,,,,,,,,,,,,,,
null,,black_cross(without_color),517069,,green,,,,,null,US_Cities_List/camera.png,US_Cities_List/wheelchair.png,,,,,,,,,,,,,,,,,,,,,,,,,,,,,
null,,rt_plussign_withcolor,517572,,green,,,,,null,US_Cities_List/camera.png,US_Cities_List/wheelchair.png,,,,,,,,,,,,,,,,,,,,,,,,,,,,,
836,,rt_thecrossant_black,518860,,black_plus_sign,,,,,50,,,1,1,,,,,,,,,,,,,,,,,,,,,,,,,,,
null,,color_black,518963,,black_plus_sign,,,,,null,,,,,,,,,,,,,,,,,,,,,,,,,,,,,,,
null,,learn_phase(without_color),521980,,black_plus_sign,,,,,null,US_Cities_List/hat.png,US_Cities_List/teeth.png,,,,,,,,,,,,,,,,,,,,,,,,,,,,,
null,,black_cross(without_color),523081,,blue,,,,,null,US_Cities_List/hat.png,US_Cities_List/teeth.png,,,,,,,,,,,,,,,,,,,,,,,,,,,,,
null,,rt_plussign_withcolor,523584,,blue,,,,,null,US_Cities_List/hat.png,US_Cities_List/teeth.png,,,,,,,,,,,,,,,,,,,,,,,,,,,,,
1074,,rt_thecrossant_black,524489,,black_plus_sign,,,,,49,,,1,1,,,,,,,,,,,,,,,,,,,,,,,,,,,
null,,color_black,524592,,black_plus_sign,,,,,null,,,,,,,,,,,,,,,,,,,,,,,,,,,,,,,
null,,learn_phase(without_color),527607,,black_plus_sign,,,,,null,US_Cities_List/camera.png,US_Cities_List/wheelchair.png,,,,,,,,,,,,,,,,,,,,,,,,,,,,,
null,,black_cross(without_color),528117,,green,,,,,null,US_Cities_List/camera.png,US_Cities_List/wheelchair.png,,,,,,,,,,,,,,,,,,,,,,,,,,,,,
null,,rt_plussign_withcolor,528620,,green,,,,,null,US_Cities_List/camera.png,US_Cities_List/wheelchair.png,,,,,,,,,,,,,,,,,,,,,,,,,,,,,
1210.6999999999534,,rt_thecrossant_black,530116,,black_plus_sign,,,,,50,,,1,1,,,,,,,,,,,,,,,,,,,,,,,,,,,
null,,color_black,530219,,black_plus_sign,,,,,null,,,,,,,,,,,,,,,,,,,,,,,,,,,,,,,
null,,learn_phase(without_color),533231,,black_plus_sign,,,,,null,US_Cities_List/snail.png,US_Cities_List/globe.png,,,,,,,,,,,,,,,,,,,,,,,,,,,,,
null,,black_cross(without_color),534182,,green,,,,,null,US_Cities_List/snail.png,US_Cities_List/globe.png,,,,,,,,,,,,,,,,,,,,,,,,,,,,,
465,,rt_plussign_withcolor,534684,,green,,,,,50,US_Cities_List/snail.png,US_Cities_List/globe.png,,,,,,,,,,,,,,,,,,,,,,,,,,,,,
null,,rt_thecrossant_black,535740,,black_plus_sign,,,,,null,,,1,1,,,,,,,,,,,,,,,,,,,,,,,,,,,
null,,color_black,535843,,black_plus_sign,,,,,null,,,,,,,,,,,,,,,,,,,,,,,,,,,,,,,
null,,learn_phase(without_color),538857,,black_plus_sign,,,,,null,US_Cities_List/wheelchair.png,US_Cities_List/camera.png,,,,,,,,,,,,,,,,,,,,,,,,,,,,,
null,,black_cross(without_color),539795,,blue,,,,,null,US_Cities_List/wheelchair.png,US_Cities_List/camera.png,,,,,,,,,,,,,,,,,,,,,,,,,,,,,
null,,rt_plussign_withcolor,540298,,blue,,,,,null,US_Cities_List/wheelchair.png,US_Cities_List/camera.png,,,,,,,,,,,,,,,,,,,,,,,,,,,,,
1082.2999999998137,,rt_thecrossant_black,541366,,black_plus_sign,,,,,49,,,1,1,,,,,,,,,,,,,,,,,,,,,,,,,,,
null,,color_black,541470,,black_plus_sign,,,,,null,,,,,,,,,,,,,,,,,,,,,,,,,,,,,,,
null,,learn_phase(without_color),544482,,black_plus_sign,,,,,null,US_Cities_List/snail.png,US_Cities_List/globe.png,,,,,,,,,,,,,,,,,,,,,,,,,,,,,
null,,black_cross(without_color),544907,,green,,,,,null,US_Cities_List/snail.png,US_Cities_List/globe.png,,,,,,,,,,,,,,,,,,,,,,,,,,,,,
null,,rt_plussign_withcolor,545410,,green,,,,,null,US_Cities_List/snail.png,US_Cities_List/globe.png,,,,,,,,,,,,,,,,,,,,,,,,,,,,,
1229.5,,rt_thecrossant_black,546993,,black_plus_sign,,,,,50,,,1,1,,,,,,,,,,,,,,,,,,,,,,,,,,,
null,,color_black,547096,,black_plus_sign,,,,,null,,,,,,,,,,,,,,,,,,,,,,,,,,,,,,,
null,,learn_phase(without_color),550111,,black_plus_sign,,,,,null,US_Cities_List/teeth.png,US_Cities_List/hat.png,,,,,,,,,,,,,,,,,,,,,,,,,,,,,
null,,black_cross(without_color),550813,,green,,,,,null,US_Cities_List/teeth.png,US_Cities_List/hat.png,,,,,,,,,,,,,,,,,,,,,,,,,,,,,
null,,rt_plussign_withcolor,551315,,green,,,,,null,US_Cities_List/teeth.png,US_Cities_List/hat.png,,,,,,,,,,,,,,,,,,,,,,,,,,,,,
565.8999999999069,,rt_thecrossant_black,552618,,black_plus_sign,,,,,50,,,1,1,,,,,,,,,,,,,,,,,,,,,,,,,,,
null,,color_black,552721,,black_plus_sign,,,,,null,,,,,,,,,,,,,,,,,,,,,,,,,,,,,,,
null,,learn_phase(without_color),555736,,black_plus_sign,,,,,null,US_Cities_List/basket.png,US_Cities_List/jukebox.png,,,,,,,,,,,,,,,,,,,,,,,,,,,,,
null,,black_cross(without_color),556578,,blue,,,,,null,US_Cities_List/basket.png,US_Cities_List/jukebox.png,,,,,,,,,,,,,,,,,,,,,,,,,,,,,
null,,rt_plussign_withcolor,557081,,blue,,,,,null,US_Cities_List/basket.png,US_Cities_List/jukebox.png,,,,,,,,,,,,,,,,,,,,,,,,,,,,,
1026.3999999999069,,rt_thecrossant_black,558245,,black_plus_sign,,,,,49,,,1,1,,,,,,,,,,,,,,,,,,,,,,,,,,,
null,,color_black,558349,,black_plus_sign,,,,,null,,,,,,,,,,,,,,,,,,,,,,,,,,,,,,,
null,,learn_phase(without_color),561366,,black_plus_sign,,,,,null,US_Cities_List/snail.png,US_Cities_List/globe.png,,,,,,,,,,,,,,,,,,,,,,,,,,,,,
null,,black_cross(without_color),561998,,green,,,,,null,US_Cities_List/snail.png,US_Cities_List/globe.png,,,,,,,,,,,,,,,,,,,,,,,,,,,,,
null,,rt_plussign_withcolor,562500,,green,,,,,null,US_Cities_List/snail.png,US_Cities_List/globe.png,,,,,,,,,,,,,,,,,,,,,,,,,,,,,
1131.8000000000466,,rt_thecrossant_black,563875,,black_plus_sign,,,,,50,,,1,1,,,,,,,,,,,,,,,,,,,,,,,,,,,
null,,color_black,563978,,black_plus_sign,,,,,null,,,,,,,,,,,,,,,,,,,,,,,,,,,,,,,
null,,learn_phase(without_color),566996,,black_plus_sign,,,,,null,US_Cities_List/teeth.png,US_Cities_List/hat.png,,,,,,,,,,,,,,,,,,,,,,,,,,,,,
null,,black_cross(without_color),567520,,blue,,,,,null,US_Cities_List/teeth.png,US_Cities_List/hat.png,,,,,,,,,,,,,,,,,,,,,,,,,,,,,
null,,rt_plussign_withcolor,568023,,blue,,,,,null,US_Cities_List/teeth.png,US_Cities_List/hat.png,,,,,,,,,,,,,,,,,,,,,,,,,,,,,
845,,rt_thecrossant_black,569506,,black_plus_sign,,,,,49,,,1,1,,,,,,,,,,,,,,,,,,,,,,,,,,,
null,,color_black,569610,,black_plus_sign,,,,,null,,,,,,,,,,,,,,,,,,,,,,,,,,,,,,,
null,,learn_phase(without_color),572625,,black_plus_sign,,,,,null,US_Cities_List/globe.png,US_Cities_List/snail.png,,,,,,,,,,,,,,,,,,,,,,,,,,,,,
null,,black_cross(without_color),573413,,green,,,,,null,US_Cities_List/globe.png,US_Cities_List/snail.png,,,,,,,,,,,,,,,,,,,,,,,,,,,,,
null,,rt_plussign_withcolor,573916,,green,,,,,null,US_Cities_List/globe.png,US_Cities_List/snail.png,,,,,,,,,,,,,,,,,,,,,,,,,,,,,
850.6999999999534,,rt_thecrossant_black,575134,,black_plus_sign,,,,,50,,,1,1,,,,,,,,,,,,,,,,,,,,,,,,,,,
null,,color_black,575238,,black_plus_sign,,,,,null,,,,,,,,,,,,,,,,,,,,,,,,,,,,,,,
null,,learn_phase(without_color),578256,,black_plus_sign,,,,,null,US_Cities_List/teeth.png,US_Cities_List/hat.png,,,,,,,,,,,,,,,,,,,,,,,,,,,,,
null,,black_cross(without_color),578782,,green,,,,,null,US_Cities_List/teeth.png,US_Cities_List/hat.png,,,,,,,,,,,,,,,,,,,,,,,,,,,,,
null,,rt_plussign_withcolor,579284,,green,,,,,null,US_Cities_List/teeth.png,US_Cities_List/hat.png,,,,,,,,,,,,,,,,,,,,,,,,,,,,,
899.6999999999534,,rt_thecrossant_black,580765,,black_plus_sign,,,,,50,,,1,1,,,,,,,,,,,,,,,,,,,,,,,,,,,
null,,color_black,580868,,black_plus_sign,,,,,null,,,,,,,,,,,,,,,,,,,,,,,,,,,,,,,
null,,learn_phase(without_color),583884,,black_plus_sign,,,,,null,US_Cities_List/basket.png,US_Cities_List/jukebox.png,,,,,,,,,,,,,,,,,,,,,,,,,,,,,
null,,black_cross(without_color),584834,,blue,,,,,null,US_Cities_List/basket.png,US_Cities_List/jukebox.png,,,,,,,,,,,,,,,,,,,,,,,,,,,,,
null,,rt_plussign_withcolor,585337,,blue,,,,,null,US_Cities_List/basket.png,US_Cities_List/jukebox.png,,,,,,,,,,,,,,,,,,,,,,,,,,,,,
683.1999999999534,,rt_thecrossant_black,586394,,black_plus_sign,,,,,49,,,1,1,,,,,,,,,,,,,,,,,,,,,,,,,,,
null,,color_black,586497,,black_plus_sign,,,,,null,,,,,,,,,,,,,,,,,,,,,,,,,,,,,,,
null,,learn_phase(without_color),589515,,black_plus_sign,,,,,null,US_Cities_List/hat.png,US_Cities_List/teeth.png,,,,,,,,,,,,,,,,,,,,,,,,,,,,,
null,,black_cross(without_color),590570,,green,,,,,null,US_Cities_List/hat.png,US_Cities_List/teeth.png,,,,,,,,,,,,,,,,,,,,,,,,,,,,,
null,,rt_plussign_withcolor,591072,,green,,,,,null,US_Cities_List/hat.png,US_Cities_List/teeth.png,,,,,,,,,,,,,,,,,,,,,,,,,,,,,
1224.3999999999069,,rt_thecrossant_black,592024,,black_plus_sign,,,,,50,,,1,1,,,,,,,,,,,,,,,,,,,,,,,,,,,
null,,color_black,592127,,black_plus_sign,,,,,null,,,,,,,,,,,,,,,,,,,,,,,,,,,,,,,
null,,learn_phase(without_color),595139,,black_plus_sign,,,,,null,US_Cities_List/snail.png,US_Cities_List/globe.png,,,,,,,,,,,,,,,,,,,,,,,,,,,,,
null,,black_cross(without_color),595793,,green,,,,,null,US_Cities_List/snail.png,US_Cities_List/globe.png,,,,,,,,,,,,,,,,,,,,,,,,,,,,,
null,,rt_plussign_withcolor,596296,,green,,,,,null,US_Cities_List/snail.png,US_Cities_List/globe.png,,,,,,,,,,,,,,,,,,,,,,,,,,,,,
1375.0999999998603,,rt_thecrossant_black,597649,,black_plus_sign,,,,,50,,,1,1,,,,,,,,,,,,,,,,,,,,,,,,,,,
null,,color_black,597752,,black_plus_sign,,,,,null,,,,,,,,,,,,,,,,,,,,,,,,,,,,,,,
null,,learn_phase(without_color),600769,,black_plus_sign,,,,,null,US_Cities_List/globe.png,US_Cities_List/snail.png,,,,,,,,,,,,,,,,,,,,,,,,,,,,,
null,,black_cross(without_color),601404,,green,,,,,null,US_Cities_List/globe.png,US_Cities_List/snail.png,,,,,,,,,,,,,,,,,,,,,,,,,,,,,
481.60000000009313,,rt_plussign_withcolor,601907,,green,,,,,50,US_Cities_List/globe.png,US_Cities_List/snail.png,,,,,,,,,,,,,,,,,,,,,,,,,,,,,
null,,rt_thecrossant_black,603279,,black_plus_sign,,,,,null,,,1,1,,,,,,,,,,,,,,,,,,,,,,,,,,,
null,,color_black,603382,,black_plus_sign,,,,,null,,,,,,,,,,,,,,,,,,,,,,,,,,,,,,,
null,,learn_phase(without_color),606403,,black_plus_sign,,,,,null,US_Cities_List/jukebox.png,US_Cities_List/basket.png,,,,,,,,,,,,,,,,,,,,,,,,,,,,,
null,,black_cross(without_color),607286,,green,,,,,null,US_Cities_List/jukebox.png,US_Cities_List/basket.png,,,,,,,,,,,,,,,,,,,,,,,,,,,,,
null,,rt_plussign_withcolor,607789,,green,,,,,null,US_Cities_List/jukebox.png,US_Cities_List/basket.png,,,,,,,,,,,,,,,,,,,,,,,,,,,,,
758.5,,rt_thecrossant_black,608913,,black_plus_sign,,,,,50,,,1,1,,,,,,,,,,,,,,,,,,,,,,,,,,,
null,,color_black,609016,,black_plus_sign,,,,,null,,,,,,,,,,,,,,,,,,,,,,,,,,,,,,,
null,,learn_phase(without_color),612032,,black_plus_sign,,,,,null,US_Cities_List/snail.png,US_Cities_List/globe.png,,,,,,,,,,,,,,,,,,,,,,,,,,,,,
null,,black_cross(without_color),612613,,green,,,,,null,US_Cities_List/snail.png,US_Cities_List/globe.png,,,,,,,,,,,,,,,,,,,,,,,,,,,,,
null,,rt_plussign_withcolor,613116,,green,,,,,null,US_Cities_List/snail.png,US_Cities_List/globe.png,,,,,,,,,,,,,,,,,,,,,,,,,,,,,
1104.1000000000931,,rt_thecrossant_black,614541,,black_plus_sign,,,,,50,,,1,1,,,,,,,,,,,,,,,,,,,,,,,,,,,
null,,color_black,614644,,black_plus_sign,,,,,null,,,,,,,,,,,,,,,,,,,,,,,,,,,,,,,
null,,learn_phase(without_color),617657,,black_plus_sign,,,,,null,US_Cities_List/camera.png,US_Cities_List/wheelchair.png,,,,,,,,,,,,,,,,,,,,,,,,,,,,,
null,,black_cross(without_color),618063,,blue,,,,,null,US_Cities_List/camera.png,US_Cities_List/wheelchair.png,,,,,,,,,,,,,,,,,,,,,,,,,,,,,
null,,rt_plussign_withcolor,618566,,blue,,,,,null,US_Cities_List/camera.png,US_Cities_List/wheelchair.png,,,,,,,,,,,,,,,,,,,,,,,,,,,,,
784.6999999999534,,rt_thecrossant_black,620167,,black_plus_sign,,,,,49,,,1,1,,,,,,,,,,,,,,,,,,,,,,,,,,,
null,,color_black,620271,,black_plus_sign,,,,,null,,,,,,,,,,,,,,,,,,,,,,,,,,,,,,,
null,,learn_phase(without_color),623286,,black_plus_sign,,,,,null,US_Cities_List/basket.png,US_Cities_List/barrel.png,,,,,,,,,,,,,,,,,,,,,,,,,,,,,
null,,black_cross(without_color),624183,,green,,,,,null,US_Cities_List/basket.png,US_Cities_List/barrel.png,,,,,,,,,,,,,,,,,,,,,,,,,,,,,
null,,rt_plussign_withcolor,624685,,green,,,,,null,US_Cities_List/basket.png,US_Cities_List/barrel.png,,,,,,,,,,,,,,,,,,,,,,,,,,,,,
548.6000000000931,,rt_thecrossant_black,625794,,black_plus_sign,,,,,49,,,0,0.9696969696969697,,,,,,,,,,,,,,,,,,,,,,,,,,,
null,,color_black,625898,,black_plus_sign,,,,,null,,,,,,,,,,,,,,,,,,,,,,,,,,,,,,,
null,,learn_phase(without_color),628913,,black_plus_sign,,,,,null,US_Cities_List/jukebox.png,US_Cities_List/hat.png,,,,,,,,,,,,,,,,,,,,,,,,,,,,,
null,,black_cross(without_color),629746,,blue,,,,,null,US_Cities_List/jukebox.png,US_Cities_List/hat.png,,,,,,,,,,,,,,,,,,,,,,,,,,,,,
null,,rt_plussign_withcolor,630249,,blue,,,,,null,US_Cities_List/jukebox.png,US_Cities_List/hat.png,,,,,,,,,,,,,,,,,,,,,,,,,,,,,
1113.0999999998603,,rt_thecrossant_black,631423,,black_plus_sign,,,,,49,,,1,0.9705882352941176,,,,,,,,,,,,,,,,,,,,,,,,,,,
null,,color_black,631526,,black_plus_sign,,,,,null,,,,,,,,,,,,,,,,,,,,,,,,,,,,,,,
null,,learn_phase(without_color),634540,,black_plus_sign,,,,,null,US_Cities_List/teeth.png,US_Cities_List/camera.png,,,,,,,,,,,,,,,,,,,,,,,,,,,,,
null,,black_cross(without_color),635218,,green,,,,,null,US_Cities_List/teeth.png,US_Cities_List/camera.png,,,,,,,,,,,,,,,,,,,,,,,,,,,,,
null,,rt_plussign_withcolor,635721,,green,,,,,null,US_Cities_List/teeth.png,US_Cities_List/camera.png,,,,,,,,,,,,,,,,,,,,,,,,,,,,,
1068.6999999999534,,rt_thecrossant_black,637049,,black_plus_sign,,,,,49,,,0,0.9428571428571428,,,,,,,,,,,,,,,,,,,,,,,,,,,
null,,color_black,637152,,black_plus_sign,,,,,null,,,,,,,,,,,,,,,,,,,,,,,,,,,,,,,
null,,learn_phase(without_color),640164,,black_plus_sign,,,,,null,US_Cities_List/paint.png,US_Cities_List/globe.png,,,,,,,,,,,,,,,,,,,,,,,,,,,,,
null,,black_cross(without_color),641158,,green,,,,,null,US_Cities_List/paint.png,US_Cities_List/globe.png,,,,,,,,,,,,,,,,,,,,,,,,,,,,,
443.10000000009313,,rt_plussign_withcolor,641660,,green,,,,,50,US_Cities_List/paint.png,US_Cities_List/globe.png,,,,,,,,,,,,,,,,,,,,,,,,,,,,,
null,,rt_thecrossant_black,642674,,black_plus_sign,,,,,null,,,1,0.9444444444444444,,,,,,,,,,,,,,,,,,,,,,,,,,,
null,,color_black,642778,,black_plus_sign,,,,,null,,,,,,,,,,,,,,,,,,,,,,,,,,,,,,,
null,,learn_phase(without_color),645795,,black_plus_sign,,,,,null,US_Cities_List/camera.png,US_Cities_List/teeth.png,,,,,,,,,,,,,,,,,,,,,,,,,,,,,
null,,black_cross(without_color),646841,,blue,,,,,null,US_Cities_List/camera.png,US_Cities_List/teeth.png,,,,,,,,,,,,,,,,,,,,,,,,,,,,,
null,,rt_plussign_withcolor,647344,,blue,,,,,null,US_Cities_List/camera.png,US_Cities_List/teeth.png,,,,,,,,,,,,,,,,,,,,,,,,,,,,,
1233.5,,rt_thecrossant_black,648304,,black_plus_sign,,,,,49,,,1,0.9459459459459459,,,,,,,,,,,,,,,,,,,,,,,,,,,
null,,color_black,648408,,black_plus_sign,,,,,null,,,,,,,,,,,,,,,,,,,,,,,,,,,,,,,
null,,learn_phase(without_color),651421,,black_plus_sign,,,,,null,US_Cities_List/jukebox.png,US_Cities_List/hat.png,,,,,,,,,,,,,,,,,,,,,,,,,,,,,
null,,black_cross(without_color),652135,,blue,,,,,null,US_Cities_List/jukebox.png,US_Cities_List/hat.png,,,,,,,,,,,,,,,,,,,,,,,,,,,,,
null,,rt_plussign_withcolor,652638,,blue,,,,,null,US_Cities_List/jukebox.png,US_Cities_List/hat.png,,,,,,,,,,,,,,,,,,,,,,,,,,,,,
1293.1999999999534,,rt_thecrossant_black,653931,,black_plus_sign,,,,,49,,,1,0.9473684210526315,,,,,,,,,,,,,,,,,,,,,,,,,,,
null,,color_black,654035,,black_plus_sign,,,,,null,,,,,,,,,,,,,,,,,,,,,,,,,,,,,,,
null,,learn_phase(without_color),657051,,black_plus_sign,,,,,null,US_Cities_List/camera.png,US_Cities_List/teeth.png,,,,,,,,,,,,,,,,,,,,,,,,,,,,,
null,,black_cross(without_color),658038,,blue,,,,,null,US_Cities_List/camera.png,US_Cities_List/teeth.png,,,,,,,,,,,,,,,,,,,,,,,,,,,,,
null,,rt_plussign_withcolor,658541,,blue,,,,,null,US_Cities_List/camera.png,US_Cities_List/teeth.png,,,,,,,,,,,,,,,,,,,,,,,,,,,,,
991.3999999999069,,rt_thecrossant_black,659561,,black_plus_sign,,,,,49,,,1,0.9487179487179487,,,,,,,,,,,,,,,,,,,,,,,,,,,
null,,color_black,659664,,black_plus_sign,,,,,null,,,,,,,,,,,,,,,,,,,,,,,,,,,,,,,
null,,learn_phase(without_color),662680,,black_plus_sign,,,,,null,US_Cities_List/globe.png,US_Cities_List/paint.png,,,,,,,,,,,,,,,,,,,,,,,,,,,,,
null,,black_cross(without_color),663533,,blue,,,,,null,US_Cities_List/globe.png,US_Cities_List/paint.png,,,,,,,,,,,,,,,,,,,,,,,,,,,,,
null,,rt_plussign_withcolor,664037,,blue,,,,,null,US_Cities_List/globe.png,US_Cities_List/paint.png,,,,,,,,,,,,,,,,,,,,,,,,,,,,,
1269.5,,rt_thecrossant_black,665190,,black_plus_sign,,,,,49,,,1,0.95,,,,,,,,,,,,,,,,,,,,,,,,,,,
null,,color_black,665293,,black_plus_sign,,,,,null,,,,,,,,,,,,,,,,,,,,,,,,,,,,,,,
null,,learn_phase(without_color),668308,,black_plus_sign,,,,,null,US_Cities_List/basket.png,US_Cities_List/barrel.png,,,,,,,,,,,,,,,,,,,,,,,,,,,,,
null,,black_cross(without_color),668821,,green,,,,,null,US_Cities_List/basket.png,US_Cities_List/barrel.png,,,,,,,,,,,,,,,,,,,,,,,,,,,,,
null,,rt_plussign_withcolor,669324,,green,,,,,null,US_Cities_List/basket.png,US_Cities_List/barrel.png,,,,,,,,,,,,,,,,,,,,,,,,,,,,,
1629.5,,rt_thecrossant_black,670817,,black_plus_sign,,,,,50,,,1,0.9512195121951219,,,,,,,,,,,,,,,,,,,,,,,,,,,
null,,color_black,670920,,black_plus_sign,,,,,null,,,,,,,,,,,,,,,,,,,,,,,,,,,,,,,
null,,learn_phase(without_color),673936,,black_plus_sign,,,,,null,US_Cities_List/teeth.png,US_Cities_List/camera.png,,,,,,,,,,,,,,,,,,,,,,,,,,,,,
null,,black_cross(without_color),674618,,blue,,,,,null,US_Cities_List/teeth.png,US_Cities_List/camera.png,,,,,,,,,,,,,,,,,,,,,,,,,,,,,
null,,rt_plussign_withcolor,675120,,blue,,,,,null,US_Cities_List/teeth.png,US_Cities_List/camera.png,,,,,,,,,,,,,,,,,,,,,,,,,,,,,
839.8000000000466,,rt_thecrossant_black,676445,,black_plus_sign,,,,,49,,,1,0.9523809523809523,,,,,,,,,,,,,,,,,,,,,,,,,,,
null,,color_black,676548,,black_plus_sign,,,,,null,,,,,,,,,,,,,,,,,,,,,,,,,,,,,,,
null,,learn_phase(without_color),679563,,black_plus_sign,,,,,null,US_Cities_List/barrel.png,US_Cities_List/basket.png,,,,,,,,,,,,,,,,,,,,,,,,,,,,,
null,,black_cross(without_color),680425,,blue,,,,,null,US_Cities_List/barrel.png,US_Cities_List/basket.png,,,,,,,,,,,,,,,,,,,,,,,,,,,,,
null,,rt_plussign_withcolor,680928,,blue,,,,,null,US_Cities_List/barrel.png,US_Cities_List/basket.png,,,,,,,,,,,,,,,,,,,,,,,,,,,,,
1189.6999999999534,,rt_thecrossant_black,682073,,black_plus_sign,,,,,49,,,1,0.9534883720930233,,,,,,,,,,,,,,,,,,,,,,,,,,,
null,,color_black,682177,,black_plus_sign,,,,,null,,,,,,,,,,,,,,,,,,,,,,,,,,,,,,,
null,,learn_phase(without_color),685191,,black_plus_sign,,,,,null,US_Cities_List/hat.png,US_Cities_List/jukebox.png,,,,,,,,,,,,,,,,,,,,,,,,,,,,,
null,,black_cross(without_color),686232,,blue,,,,,null,US_Cities_List/hat.png,US_Cities_List/jukebox.png,,,,,,,,,,,,,,,,,,,,,,,,,,,,,
null,,rt_plussign_withcolor,686735,,blue,,,,,null,US_Cities_List/hat.png,US_Cities_List/jukebox.png,,,,,,,,,,,,,,,,,,,,,,,,,,,,,
1133.3000000000466,,rt_thecrossant_black,687701,,black_plus_sign,,,,,49,,,1,0.9545454545454546,,,,,,,,,,,,,,,,,,,,,,,,,,,
null,,color_black,687805,,black_plus_sign,,,,,null,,,,,,,,,,,,,,,,,,,,,,,,,,,,,,,
null,,learn_phase(without_color),690822,,black_plus_sign,,,,,null,US_Cities_List/basket.png,US_Cities_List/barrel.png,,,,,,,,,,,,,,,,,,,,,,,,,,,,,
null,,black_cross(without_color),691491,,green,,,,,null,US_Cities_List/basket.png,US_Cities_List/barrel.png,,,,,,,,,,,,,,,,,,,,,,,,,,,,,
null,,rt_plussign_withcolor,691994,,green,,,,,null,US_Cities_List/basket.png,US_Cities_List/barrel.png,,,,,,,,,,,,,,,,,,,,,,,,,,,,,
1376.6999999999534,,rt_thecrossant_black,693333,,black_plus_sign,,,,,50,,,1,0.9555555555555556,,,,,,,,,,,,,,,,,,,,,,,,,,,
null,,color_black,693437,,black_plus_sign,,,,,null,,,,,,,,,,,,,,,,,,,,,,,,,,,,,,,
null,,learn_phase(without_color),696454,,black_plus_sign,,,,,null,US_Cities_List/jukebox.png,US_Cities_List/hat.png,,,,,,,,,,,,,,,,,,,,,,,,,,,,,
null,,black_cross(without_color),697393,,blue,,,,,null,US_Cities_List/jukebox.png,US_Cities_List/hat.png,,,,,,,,,,,,,,,,,,,,,,,,,,,,,
null,,rt_plussign_withcolor,697897,,blue,,,,,null,US_Cities_List/jukebox.png,US_Cities_List/hat.png,,,,,,,,,,,,,,,,,,,,,,,,,,,,,
1046,,rt_thecrossant_black,698964,,black_plus_sign,,,,,49,,,1,0.9565217391304348,,,,,,,,,,,,,,,,,,,,,,,,,,,
null,,color_black,699068,,black_plus_sign,,,,,null,,,,,,,,,,,,,,,,,,,,,,,,,,,,,,,
null,,learn_phase(without_color),702085,,black_plus_sign,,,,,null,US_Cities_List/barrel.png,US_Cities_List/basket.png,,,,,,,,,,,,,,,,,,,,,,,,,,,,,
null,,black_cross(without_color),702634,,green,,,,,null,US_Cities_List/barrel.png,US_Cities_List/basket.png,,,,,,,,,,,,,,,,,,,,,,,,,,,,,
null,,rt_plussign_withcolor,703136,,green,,,,,null,US_Cities_List/barrel.png,US_Cities_List/basket.png,,,,,,,,,,,,,,,,,,,,,,,,,,,,,
1182.9000000001397,,rt_thecrossant_black,704595,,black_plus_sign,,,,,50,,,1,0.9574468085106383,,,,,,,,,,,,,,,,,,,,,,,,,,,
null,,color_black,704698,,black_plus_sign,,,,,null,,,,,,,,,,,,,,,,,,,,,,,,,,,,,,,
null,,learn_phase(without_color),707714,,black_plus_sign,,,,,null,US_Cities_List/camera.png,US_Cities_List/teeth.png,,,,,,,,,,,,,,,,,,,,,,,,,,,,,
null,,black_cross(without_color),708596,,blue,,,,,null,US_Cities_List/camera.png,US_Cities_List/teeth.png,,,,,,,,,,,,,,,,,,,,,,,,,,,,,
null,,rt_plussign_withcolor,709098,,blue,,,,,null,US_Cities_List/camera.png,US_Cities_List/teeth.png,,,,,,,,,,,,,,,,,,,,,,,,,,,,,
722.3999999999069,,rt_thecrossant_black,710224,,black_plus_sign,,,,,49,,,1,0.9583333333333334,,,,,,,,,,,,,,,,,,,,,,,,,,,
null,,color_black,710327,,black_plus_sign,,,,,null,,,,,,,,,,,,,,,,,,,,,,,,,,,,,,,
null,,learn_phase(without_color),713345,,black_plus_sign,,,,,null,US_Cities_List/hat.png,US_Cities_List/jukebox.png,,,,,,,,,,,,,,,,,,,,,,,,,,,,,
null,,black_cross(without_color),714092,,blue,,,,,null,US_Cities_List/hat.png,US_Cities_List/jukebox.png,,,,,,,,,,,,,,,,,,,,,,,,,,,,,
null,,rt_plussign_withcolor,714595,,blue,,,,,null,US_Cities_List/hat.png,US_Cities_List/jukebox.png,,,,,,,,,,,,,,,,,,,,,,,,,,,,,
1245.8999999999069,,rt_thecrossant_black,715854,,black_plus_sign,,,,,50,,,0,0.9387755102040817,,,,,,,,,,,,,,,,,,,,,,,,,,,
null,,color_black,715958,,black_plus_sign,,,,,null,,,,,,,,,,,,,,,,,,,,,,,,,,,,,,,
null,,learn_phase(without_color),718971,,black_plus_sign,,,,,null,US_Cities_List/camera.png,US_Cities_List/teeth.png,,,,,,,,,,,,,,,,,,,,,,,,,,,,,
null,,black_cross(without_color),719386,,green,,,,,null,US_Cities_List/camera.png,US_Cities_List/teeth.png,,,,,,,,,,,,,,,,,,,,,,,,,,,,,
null,,rt_plussign_withcolor,719889,,green,,,,,null,US_Cities_List/camera.png,US_Cities_List/teeth.png,,,,,,,,,,,,,,,,,,,,,,,,,,,,,
1058.5,,rt_thecrossant_black,721481,,black_plus_sign,,,,,50,,,1,0.94,,,,,,,,,,,,,,,,,,,,,,,,,,,
null,,color_black,721584,,black_plus_sign,,,,,null,,,,,,,,,,,,,,,,,,,,,,,,,,,,,,,
null,,learn_phase(without_color),724598,,black_plus_sign,,,,,null,US_Cities_List/hat.png,US_Cities_List/jukebox.png,,,,,,,,,,,,,,,,,,,,,,,,,,,,,
null,,black_cross(without_color),725634,,green,,,,,null,US_Cities_List/hat.png,US_Cities_List/jukebox.png,,,,,,,,,,,,,,,,,,,,,,,,,,,,,
null,,rt_plussign_withcolor,726138,,green,,,,,null,US_Cities_List/hat.png,US_Cities_List/jukebox.png,,,,,,,,,,,,,,,,,,,,,,,,,,,,,
957.8999999999069,,rt_thecrossant_black,727108,,black_plus_sign,,,,,50,,,1,0.9411764705882353,,,,,,,,,,,,,,,,,,,,,,,,,,,
null,,color_black,727213,,black_plus_sign,,,,,null,,,,,,,,,,,,,,,,,,,,,,,,,,,,,,,
null,,learn_phase(without_color),730224,,black_plus_sign,,,,,null,US_Cities_List/paint.png,US_Cities_List/globe.png,,,,,,,,,,,,,,,,,,,,,,,,,,,,,
null,,black_cross(without_color),731052,,green,,,,,null,US_Cities_List/paint.png,US_Cities_List/globe.png,,,,,,,,,,,,,,,,,,,,,,,,,,,,,
null,,rt_plussign_withcolor,731555,,green,,,,,null,US_Cities_List/paint.png,US_Cities_List/globe.png,,,,,,,,,,,,,,,,,,,,,,,,,,,,,
1248.6000000000931,,rt_thecrossant_black,732733,,black_plus_sign,,,,,50,,,1,0.9423076923076923,,,,,,,,,,,,,,,,,,,,,,,,,,,
null,,color_black,732837,,black_plus_sign,,,,,null,,,,,,,,,,,,,,,,,,,,,,,,,,,,,,,
null,,learn_phase(without_color),735852,,black_plus_sign,,,,,null,US_Cities_List/basket.png,US_Cities_List/barrel.png,,,,,,,,,,,,,,,,,,,,,,,,,,,,,
null,,black_cross(without_color),736354,,green,,,,,null,US_Cities_List/basket.png,US_Cities_List/barrel.png,,,,,,,,,,,,,,,,,,,,,,,,,,,,,
null,,rt_plussign_withcolor,736858,,green,,,,,null,US_Cities_List/basket.png,US_Cities_List/barrel.png,,,,,,,,,,,,,,,,,,,,,,,,,,,,,
1019.1000000000931,,rt_thecrossant_black,738363,,black_plus_sign,,,,,50,,,1,0.9433962264150944,,,,,,,,,,,,,,,,,,,,,,,,,,,
null,,color_black,738465,,black_plus_sign,,,,,null,,,,,,,,,,,,,,,,,,,,,,,,,,,,,,,
null,,learn_phase(without_color),741480,,black_plus_sign,,,,,null,US_Cities_List/globe.png,US_Cities_List/paint.png,,,,,,,,,,,,,,,,,,,,,,,,,,,,,
null,,black_cross(without_color),742458,,green,,,,,null,US_Cities_List/globe.png,US_Cities_List/paint.png,,,,,,,,,,,,,,,,,,,,,,,,,,,,,
null,,rt_plussign_withcolor,742961,,green,,,,,null,US_Cities_List/globe.png,US_Cities_List/paint.png,,,,,,,,,,,,,,,,,,,,,,,,,,,,,
769.6000000000931,,rt_thecrossant_black,743990,,black_plus_sign,,,,,49,,,0,0.9259259259259259,,,,,,,,,,,,,,,,,,,,,,,,,,,
null,,color_black,744093,,black_plus_sign,,,,,null,,,,,,,,,,,,,,,,,,,,,,,,,,,,,,,
null,,learn_phase(without_color),747110,,black_plus_sign,,,,,null,US_Cities_List/hat.png,US_Cities_List/jukebox.png,,,,,,,,,,,,,,,,,,,,,,,,,,,,,
null,,black_cross(without_color),747834,,blue,,,,,null,US_Cities_List/hat.png,US_Cities_List/jukebox.png,,,,,,,,,,,,,,,,,,,,,,,,,,,,,
null,,rt_plussign_withcolor,748337,,blue,,,,,null,US_Cities_List/hat.png,US_Cities_List/jukebox.png,,,,,,,,,,,,,,,,,,,,,,,,,,,,,
1107.6000000000931,,rt_thecrossant_black,749621,,black_plus_sign,,,,,49,,,1,0.9272727272727272,,,,,,,,,,,,,,,,,,,,,,,,,,,
null,,color_black,749725,,black_plus_sign,,,,,null,,,,,,,,,,,,,,,,,,,,,,,,,,,,,,,
null,,learn_phase(without_color),752739,,black_plus_sign,,,,,null,US_Cities_List/camera.png,US_Cities_List/teeth.png,,,,,,,,,,,,,,,,,,,,,,,,,,,,,
null,,black_cross(without_color),753229,,blue,,,,,null,US_Cities_List/camera.png,US_Cities_List/teeth.png,,,,,,,,,,,,,,,,,,,,,,,,,,,,,
null,,rt_plussign_withcolor,753732,,blue,,,,,null,US_Cities_List/camera.png,US_Cities_List/teeth.png,,,,,,,,,,,,,,,,,,,,,,,,,,,,,
1162.8000000000466,,rt_thecrossant_black,755250,,black_plus_sign,,,,,49,,,1,0.9285714285714286,,,,,,,,,,,,,,,,,,,,,,,,,,,
null,,color_black,755354,,black_plus_sign,,,,,null,,,,,,,,,,,,,,,,,,,,,,,,,,,,,,,
null,,learn_phase(without_color),758369,,black_plus_sign,,,,,null,US_Cities_List/globe.png,US_Cities_List/paint.png,,,,,,,,,,,,,,,,,,,,,,,,,,,,,
null,,black_cross(without_color),759378,,green,,,,,null,US_Cities_List/globe.png,US_Cities_List/paint.png,,,,,,,,,,,,,,,,,,,,,,,,,,,,,
null,,rt_plussign_withcolor,759881,,green,,,,,null,US_Cities_List/globe.png,US_Cities_List/paint.png,,,,,,,,,,,,,,,,,,,,,,,,,,,,,
742.1999999999534,,rt_thecrossant_black,760879,,black_plus_sign,,,,,50,,,1,0.9298245614035088,,,,,,,,,,,,,,,,,,,,,,,,,,,
null,,color_black,760983,,black_plus_sign,,,,,null,,,,,,,,,,,,,,,,,,,,,,,,,,,,,,,
null,,learn_phase(without_color),764000,,black_plus_sign,,,,,null,US_Cities_List/camera.png,US_Cities_List/teeth.png,,,,,,,,,,,,,,,,,,,,,,,,,,,,,
null,,black_cross(without_color),764611,,green,,,,,null,US_Cities_List/camera.png,US_Cities_List/teeth.png,,,,,,,,,,,,,,,,,,,,,,,,,,,,,
null,,rt_plussign_withcolor,765114,,green,,,,,null,US_Cities_List/camera.png,US_Cities_List/teeth.png,,,,,,,,,,,,,,,,,,,,,,,,,,,,,
1278,,rt_thecrossant_black,766510,,black_plus_sign,,,,,50,,,1,0.9310344827586207,,,,,,,,,,,,,,,,,,,,,,,,,,,
null,,color_black,766614,,black_plus_sign,,,,,null,,,,,,,,,,,,,,,,,,,,,,,,,,,,,,,
null,,learn_phase(without_color),769632,,black_plus_sign,,,,,null,US_Cities_List/jukebox.png,US_Cities_List/hat.png,,,,,,,,,,,,,,,,,,,,,,,,,,,,,
null,,black_cross(without_color),770316,,green,,,,,null,US_Cities_List/jukebox.png,US_Cities_List/hat.png,,,,,,,,,,,,,,,,,,,,,,,,,,,,,
null,,rt_plussign_withcolor,770818,,green,,,,,null,US_Cities_List/jukebox.png,US_Cities_List/hat.png,,,,,,,,,,,,,,,,,,,,,,,,,,,,,
738,,rt_thecrossant_black,772141,,black_plus_sign,,,,,50,,,1,0.9322033898305084,,,,,,,,,,,,,,,,,,,,,,,,,,,
null,,color_black,772244,,black_plus_sign,,,,,null,,,,,,,,,,,,,,,,,,,,,,,,,,,,,,,
null,,learn_phase(without_color),775256,,black_plus_sign,,,,,null,US_Cities_List/globe.png,US_Cities_List/paint.png,,,,,,,,,,,,,,,,,,,,,,,,,,,,,
null,,black_cross(without_color),775746,,blue,,,,,null,US_Cities_List/globe.png,US_Cities_List/paint.png,,,,,,,,,,,,,,,,,,,,,,,,,,,,,
null,,rt_plussign_withcolor,776249,,blue,,,,,null,US_Cities_List/globe.png,US_Cities_List/paint.png,,,,,,,,,,,,,,,,,,,,,,,,,,,,,
1118.6000000000931,,rt_thecrossant_black,777767,,black_plus_sign,,,,,49,,,1,0.9333333333333333,,,,,,,,,,,,,,,,,,,,,,,,,,,
null,,color_black,777870,,black_plus_sign,,,,,null,,,,,,,,,,,,,,,,,,,,,,,,,,,,,,,
null,,learn_phase(without_color),780885,,black_plus_sign,,,,,null,US_Cities_List/basket.png,US_Cities_List/barrel.png,,,,,,,,,,,,,,,,,,,,,,,,,,,,,
null,,black_cross(without_color),781685,,blue,,,,,null,US_Cities_List/basket.png,US_Cities_List/barrel.png,,,,,,,,,,,,,,,,,,,,,,,,,,,,,
null,,rt_plussign_withcolor,782188,,blue,,,,,null,US_Cities_List/basket.png,US_Cities_List/barrel.png,,,,,,,,,,,,,,,,,,,,,,,,,,,,,
1087.9000000001397,,rt_thecrossant_black,783395,,black_plus_sign,,,,,49,,,1,0.9344262295081968,,,,,,,,,,,,,,,,,,,,,,,,,,,
null,,color_black,783499,,black_plus_sign,,,,,null,,,,,,,,,,,,,,,,,,,,,,,,,,,,,,,
null,,learn_phase(without_color),786514,,black_plus_sign,,,,,null,US_Cities_List/paint.png,US_Cities_List/globe.png,,,,,,,,,,,,,,,,,,,,,,,,,,,,,
null,,black_cross(without_color),787498,,green,,,,,null,US_Cities_List/paint.png,US_Cities_List/globe.png,,,,,,,,,,,,,,,,,,,,,,,,,,,,,
null,,rt_plussign_withcolor,788001,,green,,,,,null,US_Cities_List/paint.png,US_Cities_List/globe.png,,,,,,,,,,,,,,,,,,,,,,,,,,,,,
1033.6000000000931,,rt_thecrossant_black,789025,,black_plus_sign,,,,,50,,,1,0.9354838709677419,,,,,,,,,,,,,,,,,,,,,,,,,,,
null,,color_black,789129,,black_plus_sign,,,,,null,,,,,,,,,,,,,,,,,,,,,,,,,,,,,,,
null,,learn_phase(without_color),792146,,black_plus_sign,,,,,null,US_Cities_List/barrel.png,US_Cities_List/basket.png,,,,,,,,,,,,,,,,,,,,,,,,,,,,,
null,,black_cross(without_color),793228,,green,,,,,null,US_Cities_List/barrel.png,US_Cities_List/basket.png,,,,,,,,,,,,,,,,,,,,,,,,,,,,,
null,,rt_plussign_withcolor,793731,,green,,,,,null,US_Cities_List/barrel.png,US_Cities_List/basket.png,,,,,,,,,,,,,,,,,,,,,,,,,,,,,
1381.6000000000931,,rt_thecrossant_black,794655,,black_plus_sign,,,,,50,,,1,0.9365079365079365,,,,,,,,,,,,,,,,,,,,,,,,,,,
null,,color_black,794759,,black_plus_sign,,,,,null,,,,,,,,,,,,,,,,,,,,,,,,,,,,,,,
null,,learn_phase(without_color),797772,,black_plus_sign,,,,,null,US_Cities_List/paint.png,US_Cities_List/globe.png,,,,,,,,,,,,,,,,,,,,,,,,,,,,,
null,,black_cross(without_color),798780,,blue,,,,,null,US_Cities_List/paint.png,US_Cities_List/globe.png,,,,,,,,,,,,,,,,,,,,,,,,,,,,,
null,,rt_plussign_withcolor,799283,,blue,,,,,null,US_Cities_List/paint.png,US_Cities_List/globe.png,,,,,,,,,,,,,,,,,,,,,,,,,,,,,
1370,,rt_thecrossant_black,800282,,black_plus_sign,,,,,49,,,1,0.9375,,,,,,,,,,,,,,,,,,,,,,,,,,,
null,,color_black,800386,,black_plus_sign,,,,,null,,,,,,,,,,,,,,,,,,,,,,,,,,,,,,,
null,,learn_phase(without_color),803402,,black_plus_sign,,,,,null,US_Cities_List/wheelchair.png,US_Cities_List/hat.png,,,,,,,,,,,,,,,,,,,,,,,,,,,,,
null,,black_cross(without_color),804110,,green,,,,,null,US_Cities_List/wheelchair.png,US_Cities_List/hat.png,,,,,,,,,,,,,,,,,,,,,,,,,,,,,
null,,rt_plussign_withcolor,804613,,green,,,,,null,US_Cities_List/wheelchair.png,US_Cities_List/hat.png,,,,,,,,,,,,,,,,,,,,,,,,,,,,,
1209.3999999999069,,rt_thecrossant_black,805912,,black_plus_sign,,,,,50,,,1,0.9384615384615385,,,,,,,,,,,,,,,,,,,,,,,,,,,
null,,color_black,806016,,black_plus_sign,,,,,null,,,,,,,,,,,,,,,,,,,,,,,,,,,,,,,
null,,learn_phase(without_color),809028,,black_plus_sign,,,,,null,US_Cities_List/soldier.png,US_Cities_List/paint.png,,,,,,,,,,,,,,,,,,,,,,,,,,,,,
null,,black_cross(without_color),809958,,green,,,,,null,US_Cities_List/soldier.png,US_Cities_List/paint.png,,,,,,,,,,,,,,,,,,,,,,,,,,,,,
null,,rt_plussign_withcolor,810461,,green,,,,,null,US_Cities_List/soldier.png,US_Cities_List/paint.png,,,,,,,,,,,,,,,,,,,,,,,,,,,,,
1326.5,,rt_thecrossant_black,811539,,black_plus_sign,,,,,50,,,1,0.9393939393939394,,,,,,,,,,,,,,,,,,,,,,,,,,,
null,,color_black,811643,,black_plus_sign,,,,,null,,,,,,,,,,,,,,,,,,,,,,,,,,,,,,,
null,,learn_phase(without_color),814658,,black_plus_sign,,,,,null,US_Cities_List/camera.png,US_Cities_List/globe.png,,,,,,,,,,,,,,,,,,,,,,,,,,,,,
null,,black_cross(without_color),815651,,blue,,,,,null,US_Cities_List/camera.png,US_Cities_List/globe.png,,,,,,,,,,,,,,,,,,,,,,,,,,,,,
null,,rt_plussign_withcolor,816154,,blue,,,,,null,US_Cities_List/camera.png,US_Cities_List/globe.png,,,,,,,,,,,,,,,,,,,,,,,,,,,,,
1219.3000000000466,,rt_thecrossant_black,817169,,black_plus_sign,,,,,49,,,1,0.9402985074626866,,,,,,,,,,,,,,,,,,,,,,,,,,,
null,,color_black,817272,,black_plus_sign,,,,,null,,,,,,,,,,,,,,,,,,,,,,,,,,,,,,,
null,,learn_phase(without_color),820290,,black_plus_sign,,,,,null,US_Cities_List/hat.png,US_Cities_List/wheelchair.png,,,,,,,,,,,,,,,,,,,,,,,,,,,,,
null,,black_cross(without_color),820767,,green,,,,,null,US_Cities_List/hat.png,US_Cities_List/wheelchair.png,,,,,,,,,,,,,,,,,,,,,,,,,,,,,
null,,rt_plussign_withcolor,821270,,green,,,,,null,US_Cities_List/hat.png,US_Cities_List/wheelchair.png,,,,,,,,,,,,,,,,,,,,,,,,,,,,,
1824,,rt_thecrossant_black,822801,,black_plus_sign,,,,,50,,,1,0.9411764705882353,,,,,,,,,,,,,,,,,,,,,,,,,,,
null,,color_black,822905,,black_plus_sign,,,,,null,,,,,,,,,,,,,,,,,,,,,,,,,,,,,,,
null,,learn_phase(without_color),825917,,black_plus_sign,,,,,null,US_Cities_List/camera.png,US_Cities_List/globe.png,,,,,,,,,,,,,,,,,,,,,,,,,,,,,
null,,black_cross(without_color),826454,,green,,,,,null,US_Cities_List/camera.png,US_Cities_List/globe.png,,,,,,,,,,,,,,,,,,,,,,,,,,,,,
null,,rt_plussign_withcolor,826957,,green,,,,,null,US_Cities_List/camera.png,US_Cities_List/globe.png,,,,,,,,,,,,,,,,,,,,,,,,,,,,,
1058.1000000000931,,rt_thecrossant_black,828427,,black_plus_sign,,,,,50,,,1,0.9420289855072463,,,,,,,,,,,,,,,,,,,,,,,,,,,
null,,color_black,828531,,black_plus_sign,,,,,null,,,,,,,,,,,,,,,,,,,,,,,,,,,,,,,
null,,learn_phase(without_color),831544,,black_plus_sign,,,,,null,US_Cities_List/soldier.png,US_Cities_List/paint.png,,,,,,,,,,,,,,,,,,,,,,,,,,,,,
null,,black_cross(without_color),832436,,blue,,,,,null,US_Cities_List/soldier.png,US_Cities_List/paint.png,,,,,,,,,,,,,,,,,,,,,,,,,,,,,
null,,rt_plussign_withcolor,832938,,blue,,,,,null,US_Cities_List/soldier.png,US_Cities_List/paint.png,,,,,,,,,,,,,,,,,,,,,,,,,,,,,
872.6999999999534,,rt_thecrossant_black,834053,,black_plus_sign,,,,,49,,,1,0.9428571428571428,,,,,,,,,,,,,,,,,,,,,,,,,,,
null,,color_black,834157,,black_plus_sign,,,,,null,,,,,,,,,,,,,,,,,,,,,,,,,,,,,,,
null,,learn_phase(without_color),837171,,black_plus_sign,,,,,null,US_Cities_List/hat.png,US_Cities_List/wheelchair.png,,,,,,,,,,,,,,,,,,,,,,,,,,,,,
null,,black_cross(without_color),838016,,blue,,,,,null,US_Cities_List/hat.png,US_Cities_List/wheelchair.png,,,,,,,,,,,,,,,,,,,,,,,,,,,,,
null,,rt_plussign_withcolor,838520,,blue,,,,,null,US_Cities_List/hat.png,US_Cities_List/wheelchair.png,,,,,,,,,,,,,,,,,,,,,,,,,,,,,
1036.5,,rt_thecrossant_black,839684,,black_plus_sign,,,,,50,,,0,0.9295774647887324,,,,,,,,,,,,,,,,,,,,,,,,,,,
null,,color_black,839788,,black_plus_sign,,,,,null,,,,,,,,,,,,,,,,,,,,,,,,,,,,,,,
null,,learn_phase(without_color),842802,,black_plus_sign,,,,,null,US_Cities_List/globe.png,US_Cities_List/camera.png,,,,,,,,,,,,,,,,,,,,,,,,,,,,,
null,,black_cross(without_color),843329,,blue,,,,,null,US_Cities_List/globe.png,US_Cities_List/camera.png,,,,,,,,,,,,,,,,,,,,,,,,,,,,,
null,,rt_plussign_withcolor,843833,,blue,,,,,null,US_Cities_List/globe.png,US_Cities_List/camera.png,,,,,,,,,,,,,,,,,,,,,,,,,,,,,
1216.1999999999534,,rt_thecrossant_black,845313,,black_plus_sign,,,,,49,,,1,0.9305555555555556,,,,,,,,,,,,,,,,,,,,,,,,,,,
null,,color_black,845417,,black_plus_sign,,,,,null,,,,,,,,,,,,,,,,,,,,,,,,,,,,,,,
null,,learn_phase(without_color),848433,,black_plus_sign,,,,,null,US_Cities_List/hat.png,US_Cities_List/wheelchair.png,,,,,,,,,,,,,,,,,,,,,,,,,,,,,
null,,black_cross(without_color),849235,,blue,,,,,null,US_Cities_List/hat.png,US_Cities_List/wheelchair.png,,,,,,,,,,,,,,,,,,,,,,,,,,,,,
null,,rt_plussign_withcolor,849738,,blue,,,,,null,US_Cities_List/hat.png,US_Cities_List/wheelchair.png,,,,,,,,,,,,,,,,,,,,,,,,,,,,,
663.3000000000466,,rt_thecrossant_black,850944,,black_plus_sign,,,,,49,,,1,0.9315068493150684,,,,,,,,,,,,,,,,,,,,,,,,,,,
null,,color_black,851048,,black_plus_sign,,,,,null,,,,,,,,,,,,,,,,,,,,,,,,,,,,,,,
null,,learn_phase(without_color),854060,,black_plus_sign,,,,,null,US_Cities_List/dustpan.png,US_Cities_List/basket.png,,,,,,,,,,,,,,,,,,,,,,,,,,,,,
null,,black_cross(without_color),855083,,green,,,,,null,US_Cities_List/dustpan.png,US_Cities_List/basket.png,,,,,,,,,,,,,,,,,,,,,,,,,,,,,
null,,rt_plussign_withcolor,855586,,green,,,,,null,US_Cities_List/dustpan.png,US_Cities_List/basket.png,,,,,,,,,,,,,,,,,,,,,,,,,,,,,
1194.3999999999069,,rt_thecrossant_black,856571,,black_plus_sign,,,,,50,,,1,0.9324324324324325,,,,,,,,,,,,,,,,,,,,,,,,,,,
null,,color_black,856674,,black_plus_sign,,,,,null,,,,,,,,,,,,,,,,,,,,,,,,,,,,,,,
null,,learn_phase(without_color),859691,,black_plus_sign,,,,,null,US_Cities_List/wheelchair.png,US_Cities_List/hat.png,,,,,,,,,,,,,,,,,,,,,,,,,,,,,
null,,black_cross(without_color),860759,,green,,,,,null,US_Cities_List/wheelchair.png,US_Cities_List/hat.png,,,,,,,,,,,,,,,,,,,,,,,,,,,,,
null,,rt_plussign_withcolor,861262,,green,,,,,null,US_Cities_List/wheelchair.png,US_Cities_List/hat.png,,,,,,,,,,,,,,,,,,,,,,,,,,,,,
1202.8999999999069,,rt_thecrossant_black,862202,,black_plus_sign,,,,,50,,,1,0.9333333333333333,,,,,,,,,,,,,,,,,,,,,,,,,,,
null,,color_black,862305,,black_plus_sign,,,,,null,,,,,,,,,,,,,,,,,,,,,,,,,,,,,,,
null,,learn_phase(without_color),865317,,black_plus_sign,,,,,null,US_Cities_List/soldier.png,US_Cities_List/paint.png,,,,,,,,,,,,,,,,,,,,,,,,,,,,,
null,,black_cross(without_color),866093,,green,,,,,null,US_Cities_List/soldier.png,US_Cities_List/paint.png,,,,,,,,,,,,,,,,,,,,,,,,,,,,,
null,,rt_plussign_withcolor,866597,,green,,,,,null,US_Cities_List/soldier.png,US_Cities_List/paint.png,,,,,,,,,,,,,,,,,,,,,,,,,,,,,
1498.6999999997206,,rt_thecrossant_black,867828,,black_plus_sign,,,,,50,,,1,0.9342105263157895,,,,,,,,,,,,,,,,,,,,,,,,,,,
null,,color_black,867932,,black_plus_sign,,,,,null,,,,,,,,,,,,,,,,,,,,,,,,,,,,,,,
null,,learn_phase(without_color),870948,,black_plus_sign,,,,,null,US_Cities_List/basket.png,US_Cities_List/dustpan.png,,,,,,,,,,,,,,,,,,,,,,,,,,,,,
null,,black_cross(without_color),871853,,green,,,,,null,US_Cities_List/basket.png,US_Cities_List/dustpan.png,,,,,,,,,,,,,,,,,,,,,,,,,,,,,
null,,rt_plussign_withcolor,872356,,green,,,,,null,US_Cities_List/basket.png,US_Cities_List/dustpan.png,,,,,,,,,,,,,,,,,,,,,,,,,,,,,
1205.5,,rt_thecrossant_black,873459,,black_plus_sign,,,,,50,,,1,0.935064935064935,,,,,,,,,,,,,,,,,,,,,,,,,,,
null,,color_black,873563,,black_plus_sign,,,,,null,,,,,,,,,,,,,,,,,,,,,,,,,,,,,,,
null,,learn_phase(without_color),876579,,black_plus_sign,,,,,null,US_Cities_List/wheelchair.png,US_Cities_List/hat.png,,,,,,,,,,,,,,,,,,,,,,,,,,,,,
null,,black_cross(without_color),877355,,blue,,,,,null,US_Cities_List/wheelchair.png,US_Cities_List/hat.png,,,,,,,,,,,,,,,,,,,,,,,,,,,,,
null,,rt_plussign_withcolor,877858,,blue,,,,,null,US_Cities_List/wheelchair.png,US_Cities_List/hat.png,,,,,,,,,,,,,,,,,,,,,,,,,,,,,
1186.8999999999069,,rt_thecrossant_black,879090,,black_plus_sign,,,,,49,,,1,0.9358974358974359,,,,,,,,,,,,,,,,,,,,,,,,,,,
null,,color_black,879194,,black_plus_sign,,,,,null,,,,,,,,,,,,,,,,,,,,,,,,,,,,,,,
null,,learn_phase(without_color),882203,,black_plus_sign,,,,,null,US_Cities_List/dustpan.png,US_Cities_List/basket.png,,,,,,,,,,,,,,,,,,,,,,,,,,,,,
null,,black_cross(without_color),883209,,green,,,,,null,US_Cities_List/dustpan.png,US_Cities_List/basket.png,,,,,,,,,,,,,,,,,,,,,,,,,,,,,
null,,rt_plussign_withcolor,883712,,green,,,,,null,US_Cities_List/dustpan.png,US_Cities_List/basket.png,,,,,,,,,,,,,,,,,,,,,,,,,,,,,
1426.1000000000931,,rt_thecrossant_black,884714,,black_plus_sign,,,,,50,,,1,0.9367088607594937,,,,,,,,,,,,,,,,,,,,,,,,,,,
null,,color_black,884818,,black_plus_sign,,,,,null,,,,,,,,,,,,,,,,,,,,,,,,,,,,,,,
null,,learn_phase(without_color),887834,,black_plus_sign,,,,,null,US_Cities_List/hat.png,US_Cities_List/wheelchair.png,,,,,,,,,,,,,,,,,,,,,,,,,,,,,
null,,black_cross(without_color),888887,,green,,,,,null,US_Cities_List/hat.png,US_Cities_List/wheelchair.png,,,,,,,,,,,,,,,,,,,,,,,,,,,,,
null,,rt_plussign_withcolor,889390,,green,,,,,null,US_Cities_List/hat.png,US_Cities_List/wheelchair.png,,,,,,,,,,,,,,,,,,,,,,,,,,,,,
1731.1999999997206,,rt_thecrossant_black,890345,,black_plus_sign,,,,,50,,,1,0.9375,,,,,,,,,,,,,,,,,,,,,,,,,,,
null,,color_black,890449,,black_plus_sign,,,,,null,,,,,,,,,,,,,,,,,,,,,,,,,,,,,,,
null,,learn_phase(without_color),893462,,black_plus_sign,,,,,null,US_Cities_List/paint.png,US_Cities_List/soldier.png,,,,,,,,,,,,,,,,,,,,,,,,,,,,,
null,,black_cross(without_color),894017,,green,,,,,null,US_Cities_List/paint.png,US_Cities_List/soldier.png,,,,,,,,,,,,,,,,,,,,,,,,,,,,,
null,,rt_plussign_withcolor,894521,,green,,,,,null,US_Cities_List/paint.png,US_Cities_List/soldier.png,,,,,,,,,,,,,,,,,,,,,,,,,,,,,
1406.2999999998137,,rt_thecrossant_black,895973,,black_plus_sign,,,,,50,,,1,0.9382716049382716,,,,,,,,,,,,,,,,,,,,,,,,,,,
null,,color_black,896077,,black_plus_sign,,,,,null,,,,,,,,,,,,,,,,,,,,,,,,,,,,,,,
null,,learn_phase(without_color),899090,,black_plus_sign,,,,,null,US_Cities_List/dustpan.png,US_Cities_List/basket.png,,,,,,,,,,,,,,,,,,,,,,,,,,,,,
null,,black_cross(without_color),899887,,green,,,,,null,US_Cities_List/dustpan.png,US_Cities_List/basket.png,,,,,,,,,,,,,,,,,,,,,,,,,,,,,
null,,rt_plussign_withcolor,900391,,green,,,,,null,US_Cities_List/dustpan.png,US_Cities_List/basket.png,,,,,,,,,,,,,,,,,,,,,,,,,,,,,
1256.2999999998137,,rt_thecrossant_black,901602,,black_plus_sign,,,,,50,,,1,0.9390243902439024,,,,,,,,,,,,,,,,,,,,,,,,,,,
null,,color_black,901706,,black_plus_sign,,,,,null,,,,,,,,,,,,,,,,,,,,,,,,,,,,,,,
null,,learn_phase(without_color),904719,,black_plus_sign,,,,,null,US_Cities_List/soldier.png,US_Cities_List/paint.png,,,,,,,,,,,,,,,,,,,,,,,,,,,,,
null,,black_cross(without_color),905180,,blue,,,,,null,US_Cities_List/soldier.png,US_Cities_List/paint.png,,,,,,,,,,,,,,,,,,,,,,,,,,,,,
null,,rt_plussign_withcolor,905684,,blue,,,,,null,US_Cities_List/soldier.png,US_Cities_List/paint.png,,,,,,,,,,,,,,,,,,,,,,,,,,,,,
1033.6000000000931,,rt_thecrossant_black,907229,,black_plus_sign,,,,,49,,,1,0.9397590361445783,,,,,,,,,,,,,,,,,,,,,,,,,,,
null,,color_black,907333,,black_plus_sign,,,,,null,,,,,,,,,,,,,,,,,,,,,,,,,,,,,,,
null,,learn_phase(without_color),910346,,black_plus_sign,,,,,null,US_Cities_List/globe.png,US_Cities_List/camera.png,,,,,,,,,,,,,,,,,,,,,,,,,,,,,
null,,black_cross(without_color),911352,,green,,,,,null,US_Cities_List/globe.png,US_Cities_List/camera.png,,,,,,,,,,,,,,,,,,,,,,,,,,,,,
null,,rt_plussign_withcolor,911855,,green,,,,,null,US_Cities_List/globe.png,US_Cities_List/camera.png,,,,,,,,,,,,,,,,,,,,,,,,,,,,,
703.5,,rt_thecrossant_black,912856,,black_plus_sign,,,,,50,,,1,0.9404761904761905,,,,,,,,,,,,,,,,,,,,,,,,,,,
null,,color_black,912960,,black_plus_sign,,,,,null,,,,,,,,,,,,,,,,,,,,,,,,,,,,,,,
null,,learn_phase(without_color),915973,,black_plus_sign,,,,,null,US_Cities_List/basket.png,US_Cities_List/dustpan.png,,,,,,,,,,,,,,,,,,,,,,,,,,,,,
null,,black_cross(without_color),916470,,green,,,,,null,US_Cities_List/basket.png,US_Cities_List/dustpan.png,,,,,,,,,,,,,,,,,,,,,,,,,,,,,
null,,rt_plussign_withcolor,916974,,green,,,,,null,US_Cities_List/basket.png,US_Cities_List/dustpan.png,,,,,,,,,,,,,,,,,,,,,,,,,,,,,
1412.7000000001863,,rt_thecrossant_black,918485,,black_plus_sign,,,,,50,,,1,0.9411764705882353,,,,,,,,,,,,,,,,,,,,,,,,,,,
null,,color_black,918589,,black_plus_sign,,,,,null,,,,,,,,,,,,,,,,,,,,,,,,,,,,,,,
null,,learn_phase(without_color),921602,,black_plus_sign,,,,,null,US_Cities_List/soldier.png,US_Cities_List/paint.png,,,,,,,,,,,,,,,,,,,,,,,,,,,,,
null,,black_cross(without_color),922547,,blue,,,,,null,US_Cities_List/soldier.png,US_Cities_List/paint.png,,,,,,,,,,,,,,,,,,,,,,,,,,,,,
null,,rt_plussign_withcolor,923050,,blue,,,,,null,US_Cities_List/soldier.png,US_Cities_List/paint.png,,,,,,,,,,,,,,,,,,,,,,,,,,,,,
1359.8000000002794,,rt_thecrossant_black,924114,,black_plus_sign,,,,,49,,,1,0.9418604651162791,,,,,,,,,,,,,,,,,,,,,,,,,,,
null,,color_black,924219,,black_plus_sign,,,,,null,,,,,,,,,,,,,,,,,,,,,,,,,,,,,,,
null,,learn_phase(without_color),927233,,black_plus_sign,,,,,null,US_Cities_List/dustpan.png,US_Cities_List/basket.png,,,,,,,,,,,,,,,,,,,,,,,,,,,,,
null,,black_cross(without_color),927901,,green,,,,,null,US_Cities_List/dustpan.png,US_Cities_List/basket.png,,,,,,,,,,,,,,,,,,,,,,,,,,,,,
null,,rt_plussign_withcolor,928405,,green,,,,,null,US_Cities_List/dustpan.png,US_Cities_List/basket.png,,,,,,,,,,,,,,,,,,,,,,,,,,,,,
1292.4000000003725,,rt_thecrossant_black,929743,,black_plus_sign,,,,,50,,,1,0.9425287356321839,,,,,,,,,,,,,,,,,,,,,,,,,,,
null,,color_black,929847,,black_plus_sign,,,,,null,,,,,,,,,,,,,,,,,,,,,,,,,,,,,,,
null,,learn_phase(without_color),932862,,black_plus_sign,,,,,null,US_Cities_List/globe.png,US_Cities_List/camera.png,,,,,,,,,,,,,,,,,,,,,,,,,,,,,
null,,black_cross(without_color),933306,,green,,,,,null,US_Cities_List/globe.png,US_Cities_List/camera.png,,,,,,,,,,,,,,,,,,,,,,,,,,,,,
null,,rt_plussign_withcolor,933809,,green,,,,,null,US_Cities_List/globe.png,US_Cities_List/camera.png,,,,,,,,,,,,,,,,,,,,,,,,,,,,,
1183.1999999997206,,rt_thecrossant_black,935372,,black_plus_sign,,,,,50,,,1,0.9431818181818182,,,,,,,,,,,,,,,,,,,,,,,,,,,
null,,color_black,935476,,black_plus_sign,,,,,null,,,,,,,,,,,,,,,,,,,,,,,,,,,,,,,
null,,learn_phase(without_color),938489,,black_plus_sign,,,,,null,US_Cities_List/wheelchair.png,US_Cities_List/hat.png,,,,,,,,,,,,,,,,,,,,,,,,,,,,,
null,,black_cross(without_color),938965,,blue,,,,,null,US_Cities_List/wheelchair.png,US_Cities_List/hat.png,,,,,,,,,,,,,,,,,,,,,,,,,,,,,
null,,rt_plussign_withcolor,939468,,blue,,,,,null,US_Cities_List/wheelchair.png,US_Cities_List/hat.png,,,,,,,,,,,,,,,,,,,,,,,,,,,,,
1161.2000000001863,,rt_thecrossant_black,941000,,black_plus_sign,,,,,49,,,1,0.9438202247191011,,,,,,,,,,,,,,,,,,,,,,,,,,,
null,,color_black,941104,,black_plus_sign,,,,,null,,,,,,,,,,,,,,,,,,,,,,,,,,,,,,,
null,,learn_phase(without_color),944118,,black_plus_sign,,,,,null,US_Cities_List/camera.png,US_Cities_List/globe.png,,,,,,,,,,,,,,,,,,,,,,,,,,,,,
null,,black_cross(without_color),944807,,green,,,,,null,US_Cities_List/camera.png,US_Cities_List/globe.png,,,,,,,,,,,,,,,,,,,,,,,,,,,,,
null,,rt_plussign_withcolor,945311,,green,,,,,null,US_Cities_List/camera.png,US_Cities_List/globe.png,,,,,,,,,,,,,,,,,,,,,,,,,,,,,
1334.6000000000931,,rt_thecrossant_black,946630,,black_plus_sign,,,,,50,,,1,0.9444444444444444,,,,,,,,,,,,,,,,,,,,,,,,,,,
null,,color_black,946734,,black_plus_sign,,,,,null,,,,,,,,,,,,,,,,,,,,,,,,,,,,,,,
null,,learn_phase(without_color),949746,,black_plus_sign,,,,,null,US_Cities_List/paint.png,US_Cities_List/soldier.png,,,,,,,,,,,,,,,,,,,,,,,,,,,,,
null,,black_cross(without_color),950755,,blue,,,,,null,US_Cities_List/paint.png,US_Cities_List/soldier.png,,,,,,,,,,,,,,,,,,,,,,,,,,,,,
null,,rt_plussign_withcolor,951258,,blue,,,,,null,US_Cities_List/paint.png,US_Cities_List/soldier.png,,,,,,,,,,,,,,,,,,,,,,,,,,,,,
1001.7999999998137,,rt_thecrossant_black,952257,,black_plus_sign,,,,,49,,,1,0.945054945054945,,,,,,,,,,,,,,,,,,,,,,,,,,,
null,,color_black,952361,,black_plus_sign,,,,,null,,,,,,,,,,,,,,,,,,,,,,,,,,,,,,,
null,,learn_phase(without_color),955373,,black_plus_sign,,,,,null,US_Cities_List/dustpan.png,US_Cities_List/basket.png,,,,,,,,,,,,,,,,,,,,,,,,,,,,,
null,,black_cross(without_color),955971,,blue,,,,,null,US_Cities_List/dustpan.png,US_Cities_List/basket.png,,,,,,,,,,,,,,,,,,,,,,,,,,,,,
null,,rt_plussign_withcolor,956474,,blue,,,,,null,US_Cities_List/dustpan.png,US_Cities_List/basket.png,,,,,,,,,,,,,,,,,,,,,,,,,,,,,
1327.8000000002794,,rt_thecrossant_black,957884,,black_plus_sign,,,,,49,,,1,0.9456521739130435,,,,,,,,,,,,,,,,,,,,,,,,,,,
null,,color_black,957988,,black_plus_sign,,,,,null,,,,,,,,,,,,,,,,,,,,,,,,,,,,,,,
null,,learn_phase(without_color),961002,,black_plus_sign,,,,,null,US_Cities_List/camera.png,US_Cities_List/globe.png,,,,,,,,,,,,,,,,,,,,,,,,,,,,,
null,,black_cross(without_color),962050,,blue,,,,,null,US_Cities_List/camera.png,US_Cities_List/globe.png,,,,,,,,,,,,,,,,,,,,,,,,,,,,,
null,,rt_plussign_withcolor,962553,,blue,,,,,null,US_Cities_List/camera.png,US_Cities_List/globe.png,,,,,,,,,,,,,,,,,,,,,,,,,,,,,
1030.8999999999069,,rt_thecrossant_black,963512,,black_plus_sign,,,,,49,,,1,0.946236559139785,,,,,,,,,,,,,,,,,,,,,,,,,,,
null,,color_black,963617,,black_plus_sign,,,,,null,,,,,,,,,,,,,,,,,,,,,,,,,,,,,,,
null,,learn_phase(without_color),966632,,black_plus_sign,,,,,null,US_Cities_List/dustpan.png,US_Cities_List/basket.png,,,,,,,,,,,,,,,,,,,,,,,,,,,,,
null,,black_cross(without_color),967081,,green,,,,,null,US_Cities_List/dustpan.png,US_Cities_List/basket.png,,,,,,,,,,,,,,,,,,,,,,,,,,,,,
null,,rt_plussign_withcolor,967583,,green,,,,,null,US_Cities_List/dustpan.png,US_Cities_List/basket.png,,,,,,,,,,,,,,,,,,,,,,,,,,,,,
1340.1000000000931,,rt_thecrossant_black,969142,,black_plus_sign,,,,,50,,,1,0.9468085106382979,,,,,,,,,,,,,,,,,,,,,,,,,,,
null,,color_black,969246,,black_plus_sign,,,,,null,,,,,,,,,,,,,,,,,,,,,,,,,,,,,,,
null,,learn_phase(without_color),972259,,black_plus_sign,,,,,null,US_Cities_List/paint.png,US_Cities_List/soldier.png,,,,,,,,,,,,,,,,,,,,,,,,,,,,,
null,,black_cross(without_color),972955,,green,,,,,null,US_Cities_List/paint.png,US_Cities_List/soldier.png,,,,,,,,,,,,,,,,,,,,,,,,,,,,,
null,,rt_plussign_withcolor,973459,,green,,,,,null,US_Cities_List/paint.png,US_Cities_List/soldier.png,,,,,,,,,,,,,,,,,,,,,,,,,,,,,
662.1000000000931,,rt_thecrossant_black,974772,,black_plus_sign,,,,,50,,,1,0.9473684210526315,,,,,,,,,,,,,,,,,,,,,,,,,,,
null,,color_black,974876,,black_plus_sign,,,,,null,,,,,,,,,,,,,,,,,,,,,,,,,,,,,,,
null,,learn_phase(without_color),977890,,black_plus_sign,,,,,null,US_Cities_List/globe.png,US_Cities_List/camera.png,,,,,,,,,,,,,,,,,,,,,,,,,,,,,
null,,black_cross(without_color),978860,,blue,,,,,null,US_Cities_List/globe.png,US_Cities_List/camera.png,,,,,,,,,,,,,,,,,,,,,,,,,,,,,
null,,rt_plussign_withcolor,979363,,blue,,,,,null,US_Cities_List/globe.png,US_Cities_List/camera.png,,,,,,,,,,,,,,,,,,,,,,,,,,,,,
1120.3999999999069,,rt_thecrossant_black,980401,,black_plus_sign,,,,,49,,,1,0.9479166666666666,,,,,,,,,,,,,,,,,,,,,,,,,,,
null,,color_black,980505,,black_plus_sign,,,,,null,,,,,,,,,,,,,,,,,,,,,,,,,,,,,,,
null,,learn_phase(without_color),983522,,black_plus_sign,,,,,null,US_Cities_List/barrel.png,US_Cities_List/teeth.png,,,,,,,,,,,,,,,,,,,,,,,,,,,,,
null,,black_cross(without_color),984239,,green,,,,,null,US_Cities_List/barrel.png,US_Cities_List/teeth.png,,,,,,,,,,,,,,,,,,,,,,,,,,,,,
null,,rt_plussign_withcolor,984743,,green,,,,,null,US_Cities_List/barrel.png,US_Cities_List/teeth.png,,,,,,,,,,,,,,,,,,,,,,,,,,,,,
2016.2999999998137,,rt_thecrossant_black,986034,,black_plus_sign,,,,,50,,,1,0.9484536082474226,,,,,,,,,,,,,,,,,,,,,,,,,,,
null,,color_black,986138,,black_plus_sign,,,,,null,,,,,,,,,,,,,,,,,,,,,,,,,,,,,,,
null,,learn_phase(without_color),989153,,black_plus_sign,,,,,null,US_Cities_List/camera.png,US_Cities_List/paint.png,,,,,,,,,,,,,,,,,,,,,,,,,,,,,
null,,black_cross(without_color),989780,,blue,,,,,null,US_Cities_List/camera.png,US_Cities_List/paint.png,,,,,,,,,,,,,,,,,,,,,,,,,,,,,
null,,rt_plussign_withcolor,990282,,blue,,,,,null,US_Cities_List/camera.png,US_Cities_List/paint.png,,,,,,,,,,,,,,,,,,,,,,,,,,,,,
1278.7999999998137,,rt_thecrossant_black,991663,,black_plus_sign,,,,,49,,,1,0.9489795918367347,,,,,,,,,,,,,,,,,,,,,,,,,,,
null,,color_black,991767,,black_plus_sign,,,,,null,,,,,,,,,,,,,,,,,,,,,,,,,,,,,,,
null,,learn_phase(without_color),994782,,black_plus_sign,,,,,null,US_Cities_List/jukebox.png,US_Cities_List/gong.png,,,,,,,,,,,,,,,,,,,,,,,,,,,,,
null,,black_cross(without_color),995366,,blue,,,,,null,US_Cities_List/jukebox.png,US_Cities_List/gong.png,,,,,,,,,,,,,,,,,,,,,,,,,,,,,
null,,rt_plussign_withcolor,995870,,blue,,,,,null,US_Cities_List/jukebox.png,US_Cities_List/gong.png,,,,,,,,,,,,,,,,,,,,,,,,,,,,,
944.2000000001863,,rt_thecrossant_black,997295,,black_plus_sign,,,,,49,,,1,0.9494949494949495,,,,,,,,,,,,,,,,,,,,,,,,,,,
null,,color_black,997399,,black_plus_sign,,,,,null,,,,,,,,,,,,,,,,,,,,,,,,,,,,,,,
null,,learn_phase(without_color),1000415,,black_plus_sign,,,,,null,US_Cities_List/teeth.png,US_Cities_List/barrel.png,,,,,,,,,,,,,,,,,,,,,,,,,,,,,
null,,black_cross(without_color),1000879,,green,,,,,null,US_Cities_List/teeth.png,US_Cities_List/barrel.png,,,,,,,,,,,,,,,,,,,,,,,,,,,,,
null,,rt_plussign_withcolor,1001382,,green,,,,,null,US_Cities_List/teeth.png,US_Cities_List/barrel.png,,,,,,,,,,,,,,,,,,,,,,,,,,,,,
1148.3000000002794,,rt_thecrossant_black,1002925,,black_plus_sign,,,,,50,,,1,0.95,,,,,,,,,,,,,,,,,,,,,,,,,,,
null,,color_black,1003029,,black_plus_sign,,,,,null,,,,,,,,,,,,,,,,,,,,,,,,,,,,,,,
null,,learn_phase(without_color),1006043,,black_plus_sign,,,,,null,US_Cities_List/wheelchair.png,US_Cities_List/globe.png,,,,,,,,,,,,,,,,,,,,,,,,,,,,,
null,,black_cross(without_color),1007112,,blue,,,,,null,US_Cities_List/wheelchair.png,US_Cities_List/globe.png,,,,,,,,,,,,,,,,,,,,,,,,,,,,,
null,,rt_plussign_withcolor,1007616,,blue,,,,,null,US_Cities_List/wheelchair.png,US_Cities_List/globe.png,,,,,,,,,,,,,,,,,,,,,,,,,,,,,
762,,rt_thecrossant_black,1008555,,black_plus_sign,,,,,49,,,1,0.9504950495049505,,,,,,,,,,,,,,,,,,,,,,,,,,,
null,,color_black,1008660,,black_plus_sign,,,,,null,,,,,,,,,,,,,,,,,,,,,,,,,,,,,,,
null,,learn_phase(without_color),1011672,,black_plus_sign,,,,,null,US_Cities_List/paint.png,US_Cities_List/camera.png,,,,,,,,,,,,,,,,,,,,,,,,,,,,,
null,,black_cross(without_color),1012611,,green,,,,,null,US_Cities_List/paint.png,US_Cities_List/camera.png,,,,,,,,,,,,,,,,,,,,,,,,,,,,,
null,,rt_plussign_withcolor,1013115,,green,,,,,null,US_Cities_List/paint.png,US_Cities_List/camera.png,,,,,,,,,,,,,,,,,,,,,,,,,,,,,
1439.1999999997206,,rt_thecrossant_black,1014183,,black_plus_sign,,,,,50,,,1,0.9509803921568627,,,,,,,,,,,,,,,,,,,,,,,,,,,
null,,color_black,1014287,,black_plus_sign,,,,,null,,,,,,,,,,,,,,,,,,,,,,,,,,,,,,,
null,,learn_phase(without_color),1017307,,black_plus_sign,,,,,null,US_Cities_List/barrel.png,US_Cities_List/teeth.png,,,,,,,,,,,,,,,,,,,,,,,,,,,,,
null,,black_cross(without_color),1018151,,blue,,,,,null,US_Cities_List/barrel.png,US_Cities_List/teeth.png,,,,,,,,,,,,,,,,,,,,,,,,,,,,,
null,,rt_plussign_withcolor,1018655,,blue,,,,,null,US_Cities_List/barrel.png,US_Cities_List/teeth.png,,,,,,,,,,,,,,,,,,,,,,,,,,,,,
1414.8999999999069,,rt_thecrossant_black,1019819,,black_plus_sign,,,,,49,,,1,0.9514563106796117,,,,,,,,,,,,,,,,,,,,,,,,,,,
null,,color_black,1019924,,black_plus_sign,,,,,null,,,,,,,,,,,,,,,,,,,,,,,,,,,,,,,
null,,learn_phase(without_color),1022938,,black_plus_sign,,,,,null,US_Cities_List/camera.png,US_Cities_List/paint.png,,,,,,,,,,,,,,,,,,,,,,,,,,,,,
null,,black_cross(without_color),1023800,,green,,,,,null,US_Cities_List/camera.png,US_Cities_List/paint.png,,,,,,,,,,,,,,,,,,,,,,,,,,,,,
null,,rt_plussign_withcolor,1024303,,green,,,,,null,US_Cities_List/camera.png,US_Cities_List/paint.png,,,,,,,,,,,,,,,,,,,,,,,,,,,,,
1204.2000000001863,,rt_thecrossant_black,1025449,,black_plus_sign,,,,,50,,,1,0.9519230769230769,,,,,,,,,,,,,,,,,,,,,,,,,,,
null,,color_black,1025554,,black_plus_sign,,,,,null,,,,,,,,,,,,,,,,,,,,,,,,,,,,,,,
null,,learn_phase(without_color),1028568,,black_plus_sign,,,,,null,US_Cities_List/wheelchair.png,US_Cities_List/globe.png,,,,,,,,,,,,,,,,,,,,,,,,,,,,,
null,,black_cross(without_color),1029217,,green,,,,,null,US_Cities_List/wheelchair.png,US_Cities_List/globe.png,,,,,,,,,,,,,,,,,,,,,,,,,,,,,
null,,rt_plussign_withcolor,1029720,,green,,,,,null,US_Cities_List/wheelchair.png,US_Cities_List/globe.png,,,,,,,,,,,,,,,,,,,,,,,,,,,,,
1552.2999999998137,,rt_thecrossant_black,1031079,,black_plus_sign,,,,,50,,,1,0.9523809523809523,,,,,,,,,,,,,,,,,,,,,,,,,,,
null,,color_black,1031183,,black_plus_sign,,,,,null,,,,,,,,,,,,,,,,,,,,,,,,,,,,,,,
null,,learn_phase(without_color),1034198,,black_plus_sign,,,,,null,US_Cities_List/camera.png,US_Cities_List/paint.png,,,,,,,,,,,,,,,,,,,,,,,,,,,,,
null,,black_cross(without_color),1035229,,green,,,,,null,US_Cities_List/camera.png,US_Cities_List/paint.png,,,,,,,,,,,,,,,,,,,,,,,,,,,,,
null,,rt_plussign_withcolor,1035732,,green,,,,,null,US_Cities_List/camera.png,US_Cities_List/paint.png,,,,,,,,,,,,,,,,,,,,,,,,,,,,,
954.4000000003725,,rt_thecrossant_black,1036709,,black_plus_sign,,,,,50,,,1,0.9528301886792453,,,,,,,,,,,,,,,,,,,,,,,,,,,
null,,color_black,1036813,,black_plus_sign,,,,,null,,,,,,,,,,,,,,,,,,,,,,,,,,,,,,,
null,,learn_phase(without_color),1039835,,black_plus_sign,,,,,null,US_Cities_List/barrel.png,US_Cities_List/teeth.png,,,,,,,,,,,,,,,,,,,,,,,,,,,,,
null,,black_cross(without_color),1040766,,blue,,,,,null,US_Cities_List/barrel.png,US_Cities_List/teeth.png,,,,,,,,,,,,,,,,,,,,,,,,,,,,,
null,,rt_plussign_withcolor,1041270,,blue,,,,,null,US_Cities_List/barrel.png,US_Cities_List/teeth.png,,,,,,,,,,,,,,,,,,,,,,,,,,,,,
1498.3000000002794,,rt_thecrossant_black,1042346,,black_plus_sign,,,,,49,,,1,0.9532710280373832,,,,,,,,,,,,,,,,,,,,,,,,,,,
null,,color_black,1042449,,black_plus_sign,,,,,null,,,,,,,,,,,,,,,,,,,,,,,,,,,,,,,
null,,learn_phase(without_color),1045465,,black_plus_sign,,,,,null,US_Cities_List/gong.png,US_Cities_List/jukebox.png,,,,,,,,,,,,,,,,,,,,,,,,,,,,,
null,,black_cross(without_color),1046377,,blue,,,,,null,US_Cities_List/gong.png,US_Cities_List/jukebox.png,,,,,,,,,,,,,,,,,,,,,,,,,,,,,
null,,rt_plussign_withcolor,1046880,,blue,,,,,null,US_Cities_List/gong.png,US_Cities_List/jukebox.png,,,,,,,,,,,,,,,,,,,,,,,,,,,,,
1193.1000000000931,,rt_thecrossant_black,1047976,,black_plus_sign,,,,,49,,,1,0.9537037037037037,,,,,,,,,,,,,,,,,,,,,,,,,,,
null,,color_black,1048080,,black_plus_sign,,,,,null,,,,,,,,,,,,,,,,,,,,,,,,,,,,,,,
null,,learn_phase(without_color),1051092,,black_plus_sign,,,,,null,US_Cities_List/camera.png,US_Cities_List/paint.png,,,,,,,,,,,,,,,,,,,,,,,,,,,,,
null,,black_cross(without_color),1052183,,blue,,,,,null,US_Cities_List/camera.png,US_Cities_List/paint.png,,,,,,,,,,,,,,,,,,,,,,,,,,,,,
null,,rt_plussign_withcolor,1052686,,blue,,,,,null,US_Cities_List/camera.png,US_Cities_List/paint.png,,,,,,,,,,,,,,,,,,,,,,,,,,,,,
1244.5,,rt_thecrossant_black,1053604,,black_plus_sign,,,,,49,,,1,0.9541284403669725,,,,,,,,,,,,,,,,,,,,,,,,,,,
null,,color_black,1053709,,black_plus_sign,,,,,null,,,,,,,,,,,,,,,,,,,,,,,,,,,,,,,
null,,learn_phase(without_color),1056726,,black_plus_sign,,,,,null,US_Cities_List/teeth.png,US_Cities_List/barrel.png,,,,,,,,,,,,,,,,,,,,,,,,,,,,,
null,,black_cross(without_color),1057182,,green,,,,,null,US_Cities_List/teeth.png,US_Cities_List/barrel.png,,,,,,,,,,,,,,,,,,,,,,,,,,,,,
null,,rt_plussign_withcolor,1057686,,green,,,,,null,US_Cities_List/teeth.png,US_Cities_List/barrel.png,,,,,,,,,,,,,,,,,,,,,,,,,,,,,
1876.2000000001863,,rt_thecrossant_black,1059238,,black_plus_sign,,,,,50,,,1,0.9545454545454546,,,,,,,,,,,,,,,,,,,,,,,,,,,
null,,color_black,1059342,,black_plus_sign,,,,,null,,,,,,,,,,,,,,,,,,,,,,,,,,,,,,,
null,,learn_phase(without_color),1062358,,black_plus_sign,,,,,null,US_Cities_List/camera.png,US_Cities_List/paint.png,,,,,,,,,,,,,,,,,,,,,,,,,,,,,
null,,black_cross(without_color),1062800,,green,,,,,null,US_Cities_List/camera.png,US_Cities_List/paint.png,,,,,,,,,,,,,,,,,,,,,,,,,,,,,
null,,rt_plussign_withcolor,1063303,,green,,,,,null,US_Cities_List/camera.png,US_Cities_List/paint.png,,,,,,,,,,,,,,,,,,,,,,,,,,,,,
722.3000000002794,,rt_thecrossant_black,1064870,,black_plus_sign,,,,,50,,,1,0.954954954954955,,,,,,,,,,,,,,,,,,,,,,,,,,,
null,,color_black,1064974,,black_plus_sign,,,,,null,,,,,,,,,,,,,,,,,,,,,,,,,,,,,,,
null,,learn_phase(without_color),1067990,,black_plus_sign,,,,,null,US_Cities_List/gong.png,US_Cities_List/jukebox.png,,,,,,,,,,,,,,,,,,,,,,,,,,,,,
null,,black_cross(without_color),1069057,,blue,,,,,null,US_Cities_List/gong.png,US_Cities_List/jukebox.png,,,,,,,,,,,,,,,,,,,,,,,,,,,,,
null,,rt_plussign_withcolor,1069561,,blue,,,,,null,US_Cities_List/gong.png,US_Cities_List/jukebox.png,,,,,,,,,,,,,,,,,,,,,,,,,,,,,
772,,rt_thecrossant_black,1070501,,black_plus_sign,,,,,49,,,1,0.9553571428571429,,,,,,,,,,,,,,,,,,,,,,,,,,,
null,,color_black,1070605,,black_plus_sign,,,,,null,,,,,,,,,,,,,,,,,,,,,,,,,,,,,,,
null,,learn_phase(without_color),1073619,,black_plus_sign,,,,,null,US_Cities_List/paint.png,US_Cities_List/camera.png,,,,,,,,,,,,,,,,,,,,,,,,,,,,,
null,,black_cross(without_color),1074402,,green,,,,,null,US_Cities_List/paint.png,US_Cities_List/camera.png,,,,,,,,,,,,,,,,,,,,,,,,,,,,,
null,,rt_plussign_withcolor,1074906,,green,,,,,null,US_Cities_List/paint.png,US_Cities_List/camera.png,,,,,,,,,,,,,,,,,,,,,,,,,,,,,
1346.2999999998137,,rt_thecrossant_black,1076131,,black_plus_sign,,,,,50,,,1,0.9557522123893806,,,,,,,,,,,,,,,,,,,,,,,,,,,
null,,color_black,1076236,,black_plus_sign,,,,,null,,,,,,,,,,,,,,,,,,,,,,,,,,,,,,,
null,,learn_phase(without_color),1079250,,black_plus_sign,,,,,null,US_Cities_List/wheelchair.png,US_Cities_List/globe.png,,,,,,,,,,,,,,,,,,,,,,,,,,,,,
null,,black_cross(without_color),1080103,,green,,,,,null,US_Cities_List/wheelchair.png,US_Cities_List/globe.png,,,,,,,,,,,,,,,,,,,,,,,,,,,,,
null,,rt_plussign_withcolor,1080608,,green,,,,,null,US_Cities_List/wheelchair.png,US_Cities_List/globe.png,,,,,,,,,,,,,,,,,,,,,,,,,,,,,
1073.6000000000931,,rt_thecrossant_black,1081762,,black_plus_sign,,,,,50,,,1,0.956140350877193,,,,,,,,,,,,,,,,,,,,,,,,,,,
null,,color_black,1081866,,black_plus_sign,,,,,null,,,,,,,,,,,,,,,,,,,,,,,,,,,,,,,
null,,learn_phase(without_color),1084886,,black_plus_sign,,,,,null,US_Cities_List/gong.png,US_Cities_List/jukebox.png,,,,,,,,,,,,,,,,,,,,,,,,,,,,,
null,,black_cross(without_color),1085744,,green,,,,,null,US_Cities_List/gong.png,US_Cities_List/jukebox.png,,,,,,,,,,,,,,,,,,,,,,,,,,,,,
null,,rt_plussign_withcolor,1086248,,green,,,,,null,US_Cities_List/gong.png,US_Cities_List/jukebox.png,,,,,,,,,,,,,,,,,,,,,,,,,,,,,
1122.2000000001863,,rt_thecrossant_black,1087397,,black_plus_sign,,,,,50,,,1,0.9565217391304348,,,,,,,,,,,,,,,,,,,,,,,,,,,
null,,color_black,1087501,,black_plus_sign,,,,,null,,,,,,,,,,,,,,,,,,,,,,,,,,,,,,,
null,,learn_phase(without_color),1090519,,black_plus_sign,,,,,null,US_Cities_List/wheelchair.png,US_Cities_List/globe.png,,,,,,,,,,,,,,,,,,,,,,,,,,,,,
null,,black_cross(without_color),1090949,,blue,,,,,null,US_Cities_List/wheelchair.png,US_Cities_List/globe.png,,,,,,,,,,,,,,,,,,,,,,,,,,,,,
null,,rt_plussign_withcolor,1091453,,blue,,,,,null,US_Cities_List/wheelchair.png,US_Cities_List/globe.png,,,,,,,,,,,,,,,,,,,,,,,,,,,,,
1130.0999999996275,,rt_thecrossant_black,1093032,,black_plus_sign,,,,,49,,,1,0.9568965517241379,,,,,,,,,,,,,,,,,,,,,,,,,,,
null,,color_black,1093136,,black_plus_sign,,,,,null,,,,,,,,,,,,,,,,,,,,,,,,,,,,,,,
null,,learn_phase(without_color),1096158,,black_plus_sign,,,,,null,US_Cities_List/teeth.png,US_Cities_List/barrel.png,,,,,,,,,,,,,,,,,,,,,,,,,,,,,
null,,black_cross(without_color),1096969,,green,,,,,null,US_Cities_List/teeth.png,US_Cities_List/barrel.png,,,,,,,,,,,,,,,,,,,,,,,,,,,,,
null,,rt_plussign_withcolor,1097472,,green,,,,,null,US_Cities_List/teeth.png,US_Cities_List/barrel.png,,,,,,,,,,,,,,,,,,,,,,,,,,,,,
866.3000000002794,,rt_thecrossant_black,1098670,,black_plus_sign,,,,,50,,,1,0.9572649572649573,,,,,,,,,,,,,,,,,,,,,,,,,,,
null,,color_black,1098774,,black_plus_sign,,,,,null,,,,,,,,,,,,,,,,,,,,,,,,,,,,,,,
null,,learn_phase(without_color),1101788,,black_plus_sign,,,,,null,US_Cities_List/jukebox.png,US_Cities_List/gong.png,,,,,,,,,,,,,,,,,,,,,,,,,,,,,
null,,black_cross(without_color),1102483,,green,,,,,null,US_Cities_List/jukebox.png,US_Cities_List/gong.png,,,,,,,,,,,,,,,,,,,,,,,,,,,,,
null,,rt_plussign_withcolor,1102986,,green,,,,,null,US_Cities_List/jukebox.png,US_Cities_List/gong.png,,,,,,,,,,,,,,,,,,,,,,,,,,,,,
1473.5,,rt_thecrossant_black,1104299,,black_plus_sign,,,,,50,,,1,0.9576271186440678,,,,,,,,,,,,,,,,,,,,,,,,,,,
null,,color_black,1104403,,black_plus_sign,,,,,null,,,,,,,,,,,,,,,,,,,,,,,,,,,,,,,
null,,learn_phase(without_color),1107418,,black_plus_sign,,,,,null,US_Cities_List/globe.png,US_Cities_List/wheelchair.png,,,,,,,,,,,,,,,,,,,,,,,,,,,,,
null,,black_cross(without_color),1108332,,blue,,,,,null,US_Cities_List/globe.png,US_Cities_List/wheelchair.png,,,,,,,,,,,,,,,,,,,,,,,,,,,,,
null,,rt_plussign_withcolor,1108836,,blue,,,,,null,US_Cities_List/globe.png,US_Cities_List/wheelchair.png,,,,,,,,,,,,,,,,,,,,,,,,,,,,,
1102.3999999999069,,rt_thecrossant_black,1109930,,black_plus_sign,,,,,49,,,1,0.957983193277311,,,,,,,,,,,,,,,,,,,,,,,,,,,
null,,color_black,1110033,,black_plus_sign,,,,,null,,,,,,,,,,,,,,,,,,,,,,,,,,,,,,,
null,,learn_phase(without_color),1113051,,black_plus_sign,,,,,null,US_Cities_List/teeth.png,US_Cities_List/barrel.png,,,,,,,,,,,,,,,,,,,,,,,,,,,,,
null,,black_cross(without_color),1113749,,blue,,,,,null,US_Cities_List/teeth.png,US_Cities_List/barrel.png,,,,,,,,,,,,,,,,,,,,,,,,,,,,,
null,,rt_plussign_withcolor,1114253,,blue,,,,,null,US_Cities_List/teeth.png,US_Cities_List/barrel.png,,,,,,,,,,,,,,,,,,,,,,,,,,,,,
1566.3000000002794,,rt_thecrossant_black,1115563,,black_plus_sign,,,,,49,,,1,0.9583333333333334,,,,,,,,,,,,,,,,,,,,,,,,,,,
null,,color_black,1115668,,black_plus_sign,,,,,null,,,,,,,,,,,,,,,,,,,,,,,,,,,,,,,
null,,learn_phase(without_color),1118684,,black_plus_sign,,,,,null,US_Cities_List/globe.png,US_Cities_List/wheelchair.png,,,,,,,,,,,,,,,,,,,,,,,,,,,,,
null,,black_cross(without_color),1119663,,blue,,,,,null,US_Cities_List/globe.png,US_Cities_List/wheelchair.png,,,,,,,,,,,,,,,,,,,,,,,,,,,,,
null,,rt_plussign_withcolor,1120167,,blue,,,,,null,US_Cities_List/globe.png,US_Cities_List/wheelchair.png,,,,,,,,,,,,,,,,,,,,,,,,,,,,,
910.6000000000931,,rt_thecrossant_black,1121195,,black_plus_sign,,,,,49,,,1,0.9586776859504132,,,,,,,,,,,,,,,,,,,,,,,,,,,
null,,color_black,1121299,,black_plus_sign,,,,,null,,,,,,,,,,,,,,,,,,,,,,,,,,,,,,,
null,,learn_phase(without_color),1124321,,black_plus_sign,,,,,null,US_Cities_List/barrel.png,US_Cities_List/teeth.png,,,,,,,,,,,,,,,,,,,,,,,,,,,,,
null,,black_cross(without_color),1125246,,green,,,,,null,US_Cities_List/barrel.png,US_Cities_List/teeth.png,,,,,,,,,,,,,,,,,,,,,,,,,,,,,
null,,rt_plussign_withcolor,1125750,,green,,,,,null,US_Cities_List/barrel.png,US_Cities_List/teeth.png,,,,,,,,,,,,,,,,,,,,,,,,,,,,,
1523.8000000002794,,rt_thecrossant_black,1126832,,black_plus_sign,,,,,50,,,1,0.9590163934426229,,,,,,,,,,,,,,,,,,,,,,,,,,,
null,,color_black,1126936,,black_plus_sign,,,,,null,,,,,,,,,,,,,,,,,,,,,,,,,,,,,,,
null,,learn_phase(without_color),1129948,,black_plus_sign,,,,,null,US_Cities_List/paint.png,US_Cities_List/camera.png,,,,,,,,,,,,,,,,,,,,,,,,,,,,,
null,,black_cross(without_color),1130823,,blue,,,,,null,US_Cities_List/paint.png,US_Cities_List/camera.png,,,,,,,,,,,,,,,,,,,,,,,,,,,,,
null,,rt_plussign_withcolor,1131326,,blue,,,,,null,US_Cities_List/paint.png,US_Cities_List/camera.png,,,,,,,,,,,,,,,,,,,,,,,,,,,,,
1219.7000000001863,,rt_thecrossant_black,1132460,,black_plus_sign,,,,,49,,,1,0.959349593495935,,,,,,,,,,,,,,,,,,,,,,,,,,,
null,,color_black,1132564,,black_plus_sign,,,,,null,,,,,,,,,,,,,,,,,,,,,,,,,,,,,,,
null,,learn_phase(without_color),1135580,,black_plus_sign,,,,,null,US_Cities_List/wheelchair.png,US_Cities_List/globe.png,,,,,,,,,,,,,,,,,,,,,,,,,,,,,
null,,black_cross(without_color),1136562,,blue,,,,,null,US_Cities_List/wheelchair.png,US_Cities_List/globe.png,,,,,,,,,,,,,,,,,,,,,,,,,,,,,
null,,rt_plussign_withcolor,1137066,,blue,,,,,null,US_Cities_List/wheelchair.png,US_Cities_List/globe.png,,,,,,,,,,,,,,,,,,,,,,,,,,,,,
1080.2000000001863,,rt_thecrossant_black,1138092,,black_plus_sign,,,,,49,,,1,0.9596774193548387,,,,,,,,,,,,,,,,,,,,,,,,,,,
null,,color_black,1138196,,black_plus_sign,,,,,null,,,,,,,,,,,,,,,,,,,,,,,,,,,,,,,
null,,learn_phase(without_color),1141217,,black_plus_sign,,,,,null,US_Cities_List/gong.png,US_Cities_List/jukebox.png,,,,,,,,,,,,,,,,,,,,,,,,,,,,,
null,,black_cross(without_color),1141746,,green,,,,,null,US_Cities_List/gong.png,US_Cities_List/jukebox.png,,,,,,,,,,,,,,,,,,,,,,,,,,,,,
null,,rt_plussign_withcolor,1142249,,green,,,,,null,US_Cities_List/gong.png,US_Cities_List/jukebox.png,,,,,,,,,,,,,,,,,,,,,,,,,,,,,
1223.2000000001863,,rt_thecrossant_black,1143729,,black_plus_sign,,,,,50,,,1,0.96,,,,,,,,,,,,,,,,,,,,,,,,,,,
null,,color_black,1143834,,black_plus_sign,,,,,null,,,,,,,,,,,,,,,,,,,,,,,,,,,,,,,
null,,learn_phase(without_color),1146854,,black_plus_sign,,,,,null,US_Cities_List/jukebox.png,US_Cities_List/gong.png,,,,,,,,,,,,,,,,,,,,,,,,,,,,,
null,,black_cross(without_color),1147711,,green,,,,,null,US_Cities_List/jukebox.png,US_Cities_List/gong.png,,,,,,,,,,,,,,,,,,,,,,,,,,,,,
null,,rt_plussign_withcolor,1148215,,green,,,,,null,US_Cities_List/jukebox.png,US_Cities_List/gong.png,,,,,,,,,,,,,,,,,,,,,,,,,,,,,
765.1000000000931,,rt_thecrossant_black,1149366,,black_plus_sign,,,,,50,,,1,0.9603174603174603,,,,,,,,,,,,,,,,,,,,,,,,,,,
null,,color_black,1149471,,black_plus_sign,,,,,null,,,,,,,,,,,,,,,,,,,,,,,,,,,,,,,
null,,learn_phase(without_color),1152488,,black_plus_sign,,,,,null,US_Cities_List/globe.png,US_Cities_List/wheelchair.png,,,,,,,,,,,,,,,,,,,,,,,,,,,,,
null,,black_cross(without_color),1153073,,blue,,,,,null,US_Cities_List/globe.png,US_Cities_List/wheelchair.png,,,,,,,,,,,,,,,,,,,,,,,,,,,,,
null,,rt_plussign_withcolor,1153577,,blue,,,,,null,US_Cities_List/globe.png,US_Cities_List/wheelchair.png,,,,,,,,,,,,,,,,,,,,,,,,,,,,,
1105.7000000001863,,rt_thecrossant_black,1155001,,black_plus_sign,,,,,49,,,1,0.9606299212598425,,,,,,,,,,,,,,,,,,,,,,,,,,,
null,,color_black,1155105,,black_plus_sign,,,,,null,,,,,,,,,,,,,,,,,,,,,,,,,,,,,,,
null,,learn_phase(without_color),1158125,,black_plus_sign,,,,,null,US_Cities_List/gong.png,US_Cities_List/jukebox.png,,,,,,,,,,,,,,,,,,,,,,,,,,,,,
null,,black_cross(without_color),1159120,,green,,,,,null,US_Cities_List/gong.png,US_Cities_List/jukebox.png,,,,,,,,,,,,,,,,,,,,,,,,,,,,,
null,,rt_plussign_withcolor,1159623,,green,,,,,null,US_Cities_List/gong.png,US_Cities_List/jukebox.png,,,,,,,,,,,,,,,,,,,,,,,,,,,,,
808.2999999998137,,rt_thecrossant_black,1160636,,black_plus_sign,,,,,50,,,1,0.9609375,,,,,,,,,,,,,,,,,,,,,,,,,,,
null,,color_black,1160740,,black_plus_sign,,,,,null,,,,,,,,,,,,,,,,,,,,,,,,,,,,,,,
13713.80000000028,,intro_1,1174458,,instruct,,,0,,,,,,,,,,,,,,,,,,,,,,,,,,,,,,,,,
15098.399999999907,,intro_2,1189559,,instruct,,,1,Next,,,,,,,,,,,,,,,,,,,,,,,,,,,,,,,,
2724.899999999907,,directmemory_phase,1192303,,../static/images/US_Cities_List/paint.png,,,,,49,,,1,1,../static/images/US_Cities_List/camera.png,../static/images/US_Cities_List/barrel.png,../static/images/US_Cities_List/snail.png,../static/images/US_Cities_List/camera.png,../static/images/US_Cities_List/snail.png,../static/images/US_Cities_List/barrel.png,1,,,,,,,,,,,,,,,,,,,,
null,,html-keyboard-response,1193309,,<p></p>,,,,,null,,,,,,,,,,,,,,,,,,,,,,,,,,,,,,,
1762.7999999998137,,directmemory_phase,1195094,,../static/images/US_Cities_List/jukebox.png,,,,,49,,,1,1,../static/images/US_Cities_List/gong.png,../static/images/US_Cities_List/camera.png,../static/images/US_Cities_List/teeth.png,../static/images/US_Cities_List/gong.png,../static/images/US_Cities_List/teeth.png,../static/images/US_Cities_List/camera.png,1,,,,,,,,,,,,,,,,,,,,
null,,html-keyboard-response,1196100,,<p></p>,,,,,null,,,,,,,,,,,,,,,,,,,,,,,,,,,,,,,
1981.7999999998137,,directmemory_phase,1198108,,../static/images/US_Cities_List/basket.png,,,,,50,,,0,0.6666666666666666,../static/images/US_Cities_List/barrel.png,../static/images/US_Cities_List/wheelchair.png,../static/images/US_Cities_List/teeth.png,../static/images/US_Cities_List/barrel.png,../static/images/US_Cities_List/teeth.png,../static/images/US_Cities_List/wheelchair.png,0.5,closer,,,,,,,,,,,,,,,,,,,
null,,html-keyboard-response,1199114,,<p></p>,,,,,null,,,,,,,,,,,,,,,,,,,,,,,,,,,,,,,
4384.5,,directmemory_phase,1203529,,../static/images/US_Cities_List/wheelchair.png,,,,,51,,,1,0.75,../static/images/US_Cities_List/barrel.png,../static/images/US_Cities_List/jukebox.png,../static/images/US_Cities_List/hat.png,../static/images/US_Cities_List/hat.png,../static/images/US_Cities_List/jukebox.png,../static/images/US_Cities_List/barrel.png,1,,,,,,,,,,,,,,,,,,,,
null,,html-keyboard-response,1204535,,<p></p>,,,,,null,,,,,,,,,,,,,,,,,,,,,,,,,,,,,,,
null,,directmemory_phase,1211059,,../static/images/US_Cities_List/globe.png,,,,,null,,,0,0.6,../static/images/US_Cities_List/teeth.png,../static/images/US_Cities_List/paint.png,../static/images/US_Cities_List/jukebox.png,../static/images/US_Cities_List/paint.png,../static/images/US_Cities_List/teeth.png,../static/images/US_Cities_List/jukebox.png,0,,,,,,,,,,,,,,,,,,,,
null,,html-keyboard-response,1212064,,<p></p>,,,,,null,,,,,,,,,,,,,,,,,,,,,,,,,,,,,,,
4465.299999999814,,directmemory_phase,1216550,,../static/images/US_Cities_List/barrel.png,,,,,50,,,1,0.6666666666666666,../static/images/US_Cities_List/dustpan.png,../static/images/US_Cities_List/basket.png,../static/images/US_Cities_List/wheelchair.png,../static/images/US_Cities_List/basket.png,../static/images/US_Cities_List/dustpan.png,../static/images/US_Cities_List/wheelchair.png,1,,,,,,,,,,,,,,,,,,,,
null,,html-keyboard-response,1217554,,<p></p>,,,,,null,,,,,,,,,,,,,,,,,,,,,,,,,,,,,,,
1565.4000000003725,,directmemory_phase,1219144,,../static/images/US_Cities_List/paint.png,,,,,49,,,1,0.7142857142857143,../static/images/US_Cities_List/globe.png,../static/images/US_Cities_List/hat.png,../static/images/US_Cities_List/snail.png,../static/images/US_Cities_List/globe.png,../static/images/US_Cities_List/snail.png,../static/images/US_Cities_List/hat.png,1,,,,,,,,,,,,,,,,,,,,
null,,html-keyboard-response,1220151,,<p></p>,,,,,null,,,,,,,,,,,,,,,,,,,,,,,,,,,,,,,
3773.899999999907,,directmemory_phase,1223943,,../static/images/US_Cities_List/barrel.png,,,,,50,,,0,0.625,../static/images/US_Cities_List/soldier.png,../static/images/US_Cities_List/hat.png,../static/images/US_Cities_List/teeth.png,../static/images/US_Cities_List/teeth.png,../static/images/US_Cities_List/hat.png,../static/images/US_Cities_List/soldier.png,0.5,closer,,,,,,,,,,,,,,,,,,,
null,,html-keyboard-response,1224948,,<p></p>,,,,,null,,,,,,,,,,,,,,,,,,,,,,,,,,,,,,,
1841.7000000001863,,directmemory_phase,1226808,,../static/images/US_Cities_List/camera.png,,,,,51,,,1,0.6666666666666666,../static/images/US_Cities_List/dustpan.png,../static/images/US_Cities_List/snail.png,../static/images/US_Cities_List/paint.png,../static/images/US_Cities_List/paint.png,../static/images/US_Cities_List/snail.png,../static/images/US_Cities_List/dustpan.png,1,,,,,,,,,,,,,,,,,,,,
null,,html-keyboard-response,1227814,,<p></p>,,,,,null,,,,,,,,,,,,,,,,,,,,,,,,,,,,,,,
5047.100000000093,,directmemory_phase,1232882,,../static/images/US_Cities_List/teeth.png,,,,,49,,,1,0.7,../static/images/US_Cities_List/hat.png,../static/images/US_Cities_List/soldier.png,../static/images/US_Cities_List/jukebox.png,../static/images/US_Cities_List/hat.png,../static/images/US_Cities_List/jukebox.png,../static/images/US_Cities_List/soldier.png,1,,,,,,,,,,,,,,,,,,,,
null,,html-keyboard-response,1233887,,<p></p>,,,,,null,,,,,,,,,,,,,,,,,,,,,,,,,,,,,,,
2006.5999999996275,,directmemory_phase,1235910,,../static/images/US_Cities_List/dustpan.png,,,,,51,,,1,0.7272727272727273,../static/images/US_Cities_List/gong.png,../static/images/US_Cities_List/barrel.png,../static/images/US_Cities_List/basket.png,../static/images/US_Cities_List/basket.png,../static/images/US_Cities_List/barrel.png,../static/images/US_Cities_List/gong.png,1,,,,,,,,,,,,,,,,,,,,
null,,html-keyboard-response,1236917,,<p></p>,,,,,null,,,,,,,,,,,,,,,,,,,,,,,,,,,,,,,
5727.5,,directmemory_phase,1242665,,../static/images/US_Cities_List/wheelchair.png,,,,,50,,,0,0.6666666666666666,../static/images/US_Cities_List/camera.png,../static/images/US_Cities_List/barrel.png,../static/images/US_Cities_List/teeth.png,../static/images/US_Cities_List/camera.png,../static/images/US_Cities_List/teeth.png,../static/images/US_Cities_List/barrel.png,0.5,closer,,,,,,,,,,,,,,,,,,,
null,,html-keyboard-response,1243671,,<p></p>,,,,,null,,,,,,,,,,,,,,,,,,,,,,,,,,,,,,,
null,,directmemory_phase,1250202,,../static/images/US_Cities_List/teeth.png,,,,,null,,,0,0.6153846153846154,../static/images/US_Cities_List/snail.png,../static/images/US_Cities_List/wheelchair.png,../static/images/US_Cities_List/barrel.png,../static/images/US_Cities_List/barrel.png,../static/images/US_Cities_List/wheelchair.png,../static/images/US_Cities_List/snail.png,0,,,,,,,,,,,,,,,,,,,,
null,,html-keyboard-response,1251208,,<p></p>,,,,,null,,,,,,,,,,,,,,,,,,,,,,,,,,,,,,,
3172.3000000002794,,directmemory_phase,1254406,,../static/images/US_Cities_List/camera.png,,,,,51,,,1,0.6428571428571429,../static/images/US_Cities_List/gong.png,../static/images/US_Cities_List/hat.png,../static/images/US_Cities_List/wheelchair.png,../static/images/US_Cities_List/wheelchair.png,../static/images/US_Cities_List/hat.png,../static/images/US_Cities_List/gong.png,1,,,,,,,,,,,,,,,,,,,,
null,,html-keyboard-response,1255412,,<p></p>,,,,,null,,,,,,,,,,,,,,,,,,,,,,,,,,,,,,,
3849.5,,directmemory_phase,1259283,,../static/images/US_Cities_List/hat.png,,,,,51,,,1,0.6666666666666666,../static/images/US_Cities_List/dustpan.png,../static/images/US_Cities_List/camera.png,../static/images/US_Cities_List/teeth.png,../static/images/US_Cities_List/teeth.png,../static/images/US_Cities_List/camera.png,../static/images/US_Cities_List/dustpan.png,1,,,,,,,,,,,,,,,,,,,,
null,,html-keyboard-response,1260287,,<p></p>,,,,,null,,,,,,,,,,,,,,,,,,,,,,,,,,,,,,,
4059.4000000003725,,directmemory_phase,1264367,,../static/images/US_Cities_List/globe.png,,,,,51,,,1,0.6875,../static/images/US_Cities_List/gong.png,../static/images/US_Cities_List/teeth.png,../static/images/US_Cities_List/camera.png,../static/images/US_Cities_List/camera.png,../static/images/US_Cities_List/teeth.png,../static/images/US_Cities_List/gong.png,1,,,,,,,,,,,,,,,,,,,,
null,,html-keyboard-response,1265373,,<p></p>,,,,,null,,,,,,,,,,,,,,,,,,,,,,,,,,,,,,,
2762.2000000001863,,directmemory_phase,1268164,,../static/images/US_Cities_List/jukebox.png,,,,,49,,,1,0.7058823529411765,../static/images/US_Cities_List/basket.png,../static/images/US_Cities_List/camera.png,../static/images/US_Cities_List/barrel.png,../static/images/US_Cities_List/basket.png,../static/images/US_Cities_List/barrel.png,../static/images/US_Cities_List/camera.png,1,,,,,,,,,,,,,,,,,,,,
null,,html-keyboard-response,1269168,,<p></p>,,,,,null,,,,,,,,,,,,,,,,,,,,,,,,,,,,,,,
3466,,directmemory_phase,1272649,,../static/images/US_Cities_List/wheelchair.png,,,,,49,,,1,0.7222222222222222,../static/images/US_Cities_List/globe.png,../static/images/US_Cities_List/dustpan.png,../static/images/US_Cities_List/paint.png,../static/images/US_Cities_List/globe.png,../static/images/US_Cities_List/paint.png,../static/images/US_Cities_List/dustpan.png,1,,,,,,,,,,,,,,,,,,,,
null,,html-keyboard-response,1273654,,<p></p>,,,,,null,,,,,,,,,,,,,,,,,,,,,,,,,,,,,,,
1144.6000000000931,,directmemory_phase,1274817,,../static/images/US_Cities_List/gong.png,,,,,51,,,1,0.7368421052631579,../static/images/US_Cities_List/camera.png,../static/images/US_Cities_List/hat.png,../static/images/US_Cities_List/jukebox.png,../static/images/US_Cities_List/jukebox.png,../static/images/US_Cities_List/hat.png,../static/images/US_Cities_List/camera.png,1,,,,,,,,,,,,,,,,,,,,
null,,html-keyboard-response,1275823,,<p></p>,,,,,null,,,,,,,,,,,,,,,,,,,,,,,,,,,,,,,
3208.8000000002794,,directmemory_phase,1279052,,../static/images/US_Cities_List/basket.png,,,,,51,,,1,0.75,../static/images/US_Cities_List/wheelchair.png,../static/images/US_Cities_List/teeth.png,../static/images/US_Cities_List/dustpan.png,../static/images/US_Cities_List/dustpan.png,../static/images/US_Cities_List/teeth.png,../static/images/US_Cities_List/wheelchair.png,1,,,,,,,,,,,,,,,,,,,,
null,,html-keyboard-response,1280057,,<p></p>,,,,,null,,,,,,,,,,,,,,,,,,,,,,,,,,,,,,,
null,,directmemory_phase,1286578,,../static/images/US_Cities_List/hat.png,,,,,null,,,0,0.7142857142857143,../static/images/US_Cities_List/jukebox.png,../static/images/US_Cities_List/snail.png,../static/images/US_Cities_List/gong.png,../static/images/US_Cities_List/jukebox.png,../static/images/US_Cities_List/gong.png,../static/images/US_Cities_List/snail.png,0,,,,,,,,,,,,,,,,,,,,
null,,html-keyboard-response,1287585,,<p></p>,,,,,null,,,,,,,,,,,,,,,,,,,,,,,,,,,,,,,
3029.2000000001863,,directmemory_phase,1290632,,../static/images/US_Cities_List/soldier.png,,,,,49,,,1,0.7272727272727273,../static/images/US_Cities_List/paint.png,../static/images/US_Cities_List/teeth.png,../static/images/US_Cities_List/globe.png,../static/images/US_Cities_List/paint.png,../static/images/US_Cities_List/globe.png,../static/images/US_Cities_List/teeth.png,1,,,,,,,,,,,,,,,,,,,,
null,,html-keyboard-response,1291637,,<p></p>,,,,,null,,,,,,,,,,,,,,,,,,,,,,,,,,,,,,,
4982.800000000279,,directmemory_phase,1296645,,../static/images/US_Cities_List/basket.png,,,,,51,,,1,0.7391304347826086,../static/images/US_Cities_List/camera.png,../static/images/US_Cities_List/gong.png,../static/images/US_Cities_List/jukebox.png,../static/images/US_Cities_List/jukebox.png,../static/images/US_Cities_List/gong.png,../static/images/US_Cities_List/camera.png,1,,,,,,,,,,,,,,,,,,,,
null,,html-keyboard-response,1297649,,<p></p>,,,,,null,,,,,,,,,,,,,,,,,,,,,,,,,,,,,,,
3475.7000000001863,,directmemory_phase,1301144,,../static/images/US_Cities_List/camera.png,,,,,51,,,1,0.75,../static/images/US_Cities_List/basket.png,../static/images/US_Cities_List/hat.png,../static/images/US_Cities_List/globe.png,../static/images/US_Cities_List/globe.png,../static/images/US_Cities_List/hat.png,../static/images/US_Cities_List/basket.png,1,,,,,,,,,,,,,,,,,,,,
null,,html-keyboard-response,1302148,,<p></p>,,,,,null,,,,,,,,,,,,,,,,,,,,,,,,,,,,,,,
4812.899999999907,,directmemory_phase,1306986,,../static/images/US_Cities_List/jukebox.png,,,,,50,,,1,0.76,../static/images/US_Cities_List/teeth.png,../static/images/US_Cities_List/hat.png,../static/images/US_Cities_List/camera.png,../static/images/US_Cities_List/hat.png,../static/images/US_Cities_List/teeth.png,../static/images/US_Cities_List/camera.png,1,,,,,,,,,,,,,,,,,,,,
null,,html-keyboard-response,1307991,,<p></p>,,,,,null,,,,,,,,,,,,,,,,,,,,,,,,,,,,,,,
4848.100000000093,,directmemory_phase,1312858,,../static/images/US_Cities_List/camera.png,,,,,49,,,1,0.7692307692307693,../static/images/US_Cities_List/teeth.png,../static/images/US_Cities_List/dustpan.png,../static/images/US_Cities_List/barrel.png,../static/images/US_Cities_List/teeth.png,../static/images/US_Cities_List/barrel.png,../static/images/US_Cities_List/dustpan.png,1,,,,,,,,,,,,,,,,,,,,
null,,html-keyboard-response,1313863,,<p></p>,,,,,null,,,,,,,,,,,,,,,,,,,,,,,,,,,,,,,
4010.2999999998137,,directmemory_phase,1317894,,../static/images/US_Cities_List/globe.png,,,,,49,,,0,0.7407407407407407,../static/images/US_Cities_List/barrel.png,../static/images/US_Cities_List/hat.png,../static/images/US_Cities_List/snail.png,../static/images/US_Cities_List/snail.png,../static/images/US_Cities_List/hat.png,../static/images/US_Cities_List/barrel.png,0.5,closer,,,,,,,,,,,,,,,,,,,
null,,html-keyboard-response,1318900,,<p></p>,,,,,null,,,,,,,,,,,,,,,,,,,,,,,,,,,,,,,
null,,directmemory_phase,1325424,,../static/images/US_Cities_List/hat.png,,,,,null,,,0,0.7142857142857143,../static/images/US_Cities_List/wheelchair.png,../static/images/US_Cities_List/soldier.png,../static/images/US_Cities_List/globe.png,../static/images/US_Cities_List/wheelchair.png,../static/images/US_Cities_List/globe.png,../static/images/US_Cities_List/soldier.png,0,,,,,,,,,,,,,,,,,,,,
null,,html-keyboard-response,1326429,,<p></p>,,,,,null,,,,,,,,,,,,,,,,,,,,,,,,,,,,,,,
null,,directmemory_phase,1332949,,../static/images/US_Cities_List/snail.png,,,,,null,,,0,0.6896551724137931,../static/images/US_Cities_List/wheelchair.png,../static/images/US_Cities_List/globe.png,../static/images/US_Cities_List/teeth.png,../static/images/US_Cities_List/globe.png,../static/images/US_Cities_List/wheelchair.png,../static/images/US_Cities_List/teeth.png,0,,,,,,,,,,,,,,,,,,,,
null,,html-keyboard-response,1333954,,<p></p>,,,,,null,,,,,,,,,,,,,,,,,,,,,,,,,,,,,,,
1515.5,,directmemory_phase,1335485,,../static/images/US_Cities_List/paint.png,,,,,51,,,1,0.7,../static/images/US_Cities_List/basket.png,../static/images/US_Cities_List/snail.png,../static/images/US_Cities_List/soldier.png,../static/images/US_Cities_List/soldier.png,../static/images/US_Cities_List/snail.png,../static/images/US_Cities_List/basket.png,1,,,,,,,,,,,,,,,,,,,,
null,,html-keyboard-response,1336491,,<p></p>,,,,,null,,,,,,,,,,,,,,,,,,,,,,,,,,,,,,,
5221.299999999814,,directmemory_phase,1341730,,../static/images/US_Cities_List/globe.png,,,,,51,,,1,0.7096774193548387,../static/images/US_Cities_List/gong.png,../static/images/US_Cities_List/teeth.png,../static/images/US_Cities_List/wheelchair.png,../static/images/US_Cities_List/wheelchair.png,../static/images/US_Cities_List/teeth.png,../static/images/US_Cities_List/gong.png,1,,,,,,,,,,,,,,,,,,,,
null,,html-keyboard-response,1342736,,<p></p>,,,,,null,,,,,,,,,,,,,,,,,,,,,,,,,,,,,,,
1897.6000000000931,,directmemory_phase,1344652,,../static/images/US_Cities_List/teeth.png,,,,,51,,,1,0.71875,../static/images/US_Cities_List/soldier.png,../static/images/US_Cities_List/basket.png,../static/images/US_Cities_List/camera.png,../static/images/US_Cities_List/camera.png,../static/images/US_Cities_List/basket.png,../static/images/US_Cities_List/soldier.png,1,,,,,,,,,,,,,,,,,,,,
null,,html-keyboard-response,1345655,,<p></p>,,,,,null,,,,,,,,,,,,,,,,,,,,,,,,,,,,,,,
15696.599999999627,,intro_1,1361354,,instruct,,,0,,,,,,,,,,,,,,,,,,,,,,,,,,,,,,,,,
16180.900000000373,,intro_2,1377538,,instruct,,,1,Next,,,,,,,,,,,,,,,,,,,,,,,,,,,,,,,,
4374.199999999721,,intro_3,1381916,,instruct,,,1,Next,,,,,,,,,,,,,,,,,,,,,,,,,,,,,,,,
