rt,responses,trial_type,time_elapsed,stimulus,cities,city_images,button_pressed,response,key_press,stimulus_left,stimulus_right,accuracy,cumulative_accuracy,stimulus_down_left,stimulus_down_mid,stimulus_down_right,stimulus_correct,stimulus_short,stimulus_far,weighted_accuracy,missedtrial,condition,specific_pairs,imgL_ID,imgR_ID,linedress,linedressed,image_position,unknowncity,testedstates,currentstate,otherstate,problems,smooth,distraction,strategies,easier,similar,comments
19768.299999952316,{worker_id:615e420a23219efe3427a367},id_enter,19772,intro,Peoria; Boulder; Racine; Shreveport; New Hope; Hot Springs; Huntsville; Leesburg; Gatlinburg; Carmel; Hanover; Cornwall; West Palm Beach,US_Cities_List/nat_peoria.png; US_Cities_List/mm_boulder.png; US_Cities_List/mm_racine.png; US_Cities_List/nat_shreveport.png; US_Cities_List/nat_newhope.png; US_Cities_List/mm_hotsprings.png; US_Cities_List/mm_huntsville.png; US_Cities_List/nat_leesburg.png; US_Cities_List/nat_gatlinburg.png; US_Cities_List/nat_carmel.png; US_Cities_List/mm_hanover.png; US_Cities_List/mm_cornwall.png; US_Cities_List/mm_westpalmbeach.png,,,,,,,,,,,,,,,,,,,,,,,,,,,,,,,,,
20423.400000095367,,fullscreen,40211,make_fullscreen,,,0,,,,,,,,,,,,,,,,,,,,,,,,,,,,,,,,
4236.300000190735,,intro_1,44458,instruct,,,0,,,,,,,,,,,,,,,,,,,,,,,,,,,,,,,,
6741.5,,intro_2,51222,instruct,,,1,Next,,,,,,,,,,,,,,,,,,,,,,,,,,,,,,,
6791.5,,intro_3,58017,instruct,,,1,Next,,,,,,,,,,,,,,,,,,,,,,,,,,,,,,,
8211,,intro_4,66231,instruct,,,1,Next,,,,,,,,,,,,,,,,,,,,,,,,,,,,,,,
18144.799999952316,,intro_5,84379,instruct,,,1,Next,,,,,,,,,,,,,,,,,,,,,,,,,,,,,,,
21734.200000047684,,intro_6,106116,instruct,,,1,Next,,,,,,,,,,,,,,,,,,,,,,,,,,,,,,,
null,,prac_atten_color_black,107005,black_plus_sign,,,,,null,,,,,,,,,,,,,,,,,,,,,,,,,,,,,,
null,,prac_atten_color,107554,prac_stop_color,,,,,null,,,,,,,,,,,,,,,,,,,,,,,,,,,,,,
161.89999985694885,,prac_atten_color_black,109563,black_plus_sign,,,,,49,,,,,,,,,,,,,,,,,,,,,,,,,,,,,,
null,,prac_atten_color_black,110423,black_plus_sign,,,,,null,,,,,,,,,,,,,,,,,,,,,,,,,,,,,,
790.4000000953674,,prac_atten_color,111513,prac_stop_color,,,,,50,,,,,,,,,,,,,,,,,,,,,,,,,,,,,,
null,,prac_atten_color_black,113521,black_plus_sign,,,,,null,,,,,,,,,,,,,,,,,,,,,,,,,,,,,,
null,,prac_atten_color_black,113846,black_plus_sign,,,,,null,,,,,,,,,,,,,,,,,,,,,,,,,,,,,,
729.5,,prac_atten_color,114738,prac_stop_color,,,,,50,,,,,,,,,,,,,,,,,,,,,,,,,,,,,,
null,,prac_atten_color_black,116754,black_plus_sign,,,,,null,,,,,,,,,,,,,,,,,,,,,,,,,,,,,,
null,,prac_atten_color_black,117281,black_plus_sign,,,,,null,,,,,,,,,,,,,,,,,,,,,,,,,,,,,,
498.7999999523163,,prac_atten_color,118379,prac_stop_color,,,,,49,,,,,,,,,,,,,,,,,,,,,,,,,,,,,,
null,,prac_atten_color_black,120386,black_plus_sign,,,,,null,,,,,,,,,,,,,,,,,,,,,,,,,,,,,,
null,,prac_atten_color_black,120702,black_plus_sign,,,,,null,,,,,,,,,,,,,,,,,,,,,,,,,,,,,,
null,,prac_atten_color,121255,prac_stop_color,,,,,null,,,,,,,,,,,,,,,,,,,,,,,,,,,,,,
556.2000000476837,,prac_atten_color_black,123262,black_plus_sign,,,,,50,,,,,,,,,,,,,,,,,,,,,,,,,,,,,,
null,,prac_atten_color_black,124161,black_plus_sign,,,,,null,,,,,,,,,,,,,,,,,,,,,,,,,,,,,,
null,,prac_atten_color,124638,prac_stop_color,,,,,null,,,,,,,,,,,,,,,,,,,,,,,,,,,,,,
224.5,,prac_atten_color_black,126644,black_plus_sign,,,,,50,,,,,,,,,,,,,,,,,,,,,,,,,,,,,,
null,,prac_atten_color_black,127588,black_plus_sign,,,,,null,,,,,,,,,,,,,,,,,,,,,,,,,,,,,,
472,,prac_atten_color,128143,prac_stop_color,,,,,49,,,,,,,,,,,,,,,,,,,,,,,,,,,,,,
null,,prac_atten_color_black,130145,black_plus_sign,,,,,null,,,,,,,,,,,,,,,,,,,,,,,,,,,,,,
null,,prac_atten_color_black,131011,black_plus_sign,,,,,null,,,,,,,,,,,,,,,,,,,,,,,,,,,,,,
777.9000000953674,,prac_atten_color,131924,prac_stop_color,,,,,50,,,,,,,,,,,,,,,,,,,,,,,,,,,,,,
null,,prac_atten_color_black,133927,black_plus_sign,,,,,null,,,,,,,,,,,,,,,,,,,,,,,,,,,,,,
null,,prac_atten_color_black,134426,black_plus_sign,,,,,null,,,,,,,,,,,,,,,,,,,,,,,,,,,,,,
688.5,,prac_atten_color,135209,prac_stop_color,,,,,50,,,,,,,,,,,,,,,,,,,,,,,,,,,,,,
null,,prac_atten_color_black,137220,black_plus_sign,,,,,null,,,,,,,,,,,,,,,,,,,,,,,,,,,,,,
5538.099999904633,,attentioncheck_help,142762,instruct,,,,,32,,,,,,,,,,,,,,,,,,,,,,,,,,,,,,
null,,prac_atten_color_black,143392,black_plus_sign,,,,,null,,,,,,,,,,,,,,,,,,,,,,,,,,,,,,
null,,prac_atten_color,144052,prac_stop_color,,,,,null,,,,,,,,,,,,,,,,,,,,,,,,,,,,,,
496.40000009536743,,prac_atten_color_black,146059,black_plus_sign,,,,,49,,,,,,,,,,,,,,,,,,,,,,,,,,,,,,
6003.699999809265,,attentioncheck_feedback,152065,cross_check_feedback,,,0,,,,,,,,,,,,,,,,,,,,,,,,,,,,,,,,
7108.700000047684,,last_instruct,159177,instruct,,,,,32,,,,,,,,,,,,,,,,,,,,,,,,,,,,,,
null,,learn_phase(without_color),161214,black_plus_sign,,,,,null,US_Cities_List/mm_boulder.png,US_Cities_List/mm_racine.png,,,,,,,,,,,,,,,,,,,,,,,,,,,,
null,,black_cross(without_color),161765,blue,,,,,null,US_Cities_List/mm_boulder.png,US_Cities_List/mm_racine.png,,,,,,,,,,,,,,,,,,,,,,,,,,,,
null,,rt_plussign_withcolor,162267,blue,,,,,null,US_Cities_List/mm_boulder.png,US_Cities_List/mm_racine.png,,,,,,,,,,,,,,,,,,,,,,,,,,,,
846,,rt_thecrossant_black,163725,black_plus_sign,,,,,50,,,0,0,,,,,,,,,,,,,,,,,,,,,,,,,,
null,,color_black,163838,black_plus_sign,,,,,null,,,,,,,,,,,,,,,,,,,,,,,,,,,,,,
null,,learn_phase(without_color),166380,black_plus_sign,,,,,null,US_Cities_List/nat_leesburg.png,US_Cities_List/nat_carmel.png,,,,,,,,,,,,,,,,,,,,,,,,,,,,
null,,black_cross(without_color),167414,green,,,,,null,US_Cities_List/nat_leesburg.png,US_Cities_List/nat_carmel.png,,,,,,,,,,,,,,,,,,,,,,,,,,,,
null,,rt_plussign_withcolor,167922,green,,,,,null,US_Cities_List/nat_leesburg.png,US_Cities_List/nat_carmel.png,,,,,,,,,,,,,,,,,,,,,,,,,,,,
1184.3999998569489,,rt_thecrossant_black,168905,black_plus_sign,,,,,50,,,1,0.5,,,,,,,,,,,,,,,,,,,,,,,,,,
null,,color_black,169013,black_plus_sign,,,,,null,,,,,,,,,,,,,,,,,,,,,,,,,,,,,,
null,,learn_phase(without_color),171563,black_plus_sign,,,,,null,US_Cities_List/mm_huntsville.png,US_Cities_List/nat_leesburg.png,,,,,,,,,,,,,,,,,,,,,,,,,,,,
null,,black_cross(without_color),172099,blue,,,,,null,US_Cities_List/mm_huntsville.png,US_Cities_List/nat_leesburg.png,,,,,,,,,,,,,,,,,,,,,,,,,,,,
null,,rt_plussign_withcolor,172609,blue,,,,,null,US_Cities_List/mm_huntsville.png,US_Cities_List/nat_leesburg.png,,,,,,,,,,,,,,,,,,,,,,,,,,,,
1364.7999999523163,,rt_thecrossant_black,174092,black_plus_sign,,,,,50,,,0,0.3333333333333333,,,,,,,,,,,,,,,,,,,,,,,,,,
null,,color_black,174199,black_plus_sign,,,,,null,,,,,,,,,,,,,,,,,,,,,,,,,,,,,,
null,,learn_phase(without_color),176739,black_plus_sign,,,,,null,US_Cities_List/mm_hanover.png,US_Cities_List/mm_cornwall.png,,,,,,,,,,,,,,,,,,,,,,,,,,,,
null,,black_cross(without_color),177747,blue,,,,,null,US_Cities_List/mm_hanover.png,US_Cities_List/mm_cornwall.png,,,,,,,,,,,,,,,,,,,,,,,,,,,,
474.90000009536743,,rt_plussign_withcolor,178254,blue,,,,,49,US_Cities_List/mm_hanover.png,US_Cities_List/mm_cornwall.png,,,,,,,,,,,,,,,,,,,,,,,,,,,,
null,,rt_thecrossant_black,179255,black_plus_sign,,,,,null,,,1,0.5,,,,,,,,,,,,,,,,,,,,,,,,,,
null,,color_black,179373,black_plus_sign,,,,,null,,,,,,,,,,,,,,,,,,,,,,,,,,,,,,
null,,learn_phase(without_color),181912,black_plus_sign,,,,,null,US_Cities_List/mm_huntsville.png,US_Cities_List/nat_gatlinburg.png,,,,,,,,,,,,,,,,,,,,,,,,,,,,
null,,black_cross(without_color),182700,blue,,,,,null,US_Cities_List/mm_huntsville.png,US_Cities_List/nat_gatlinburg.png,,,,,,,,,,,,,,,,,,,,,,,,,,,,
null,,rt_plussign_withcolor,183205,blue,,,,,null,US_Cities_List/mm_huntsville.png,US_Cities_List/nat_gatlinburg.png,,,,,,,,,,,,,,,,,,,,,,,,,,,,
1283.5999999046326,,rt_thecrossant_black,184436,black_plus_sign,,,,,50,,,0,0.4,,,,,,,,,,,,,,,,,,,,,,,,,,
null,,color_black,184545,black_plus_sign,,,,,null,,,,,,,,,,,,,,,,,,,,,,,,,,,,,,
null,,learn_phase(without_color),187078,black_plus_sign,,,,,null,US_Cities_List/mm_huntsville.png,US_Cities_List/mm_westpalmbeach.png,,,,,,,,,,,,,,,,,,,,,,,,,,,,
null,,black_cross(without_color),187612,green,,,,,null,US_Cities_List/mm_huntsville.png,US_Cities_List/mm_westpalmbeach.png,,,,,,,,,,,,,,,,,,,,,,,,,,,,
null,,rt_plussign_withcolor,188130,green,,,,,null,US_Cities_List/mm_huntsville.png,US_Cities_List/mm_westpalmbeach.png,,,,,,,,,,,,,,,,,,,,,,,,,,,,
979.1999998092651,,rt_thecrossant_black,189619,black_plus_sign,,,,,50,,,1,0.5,,,,,,,,,,,,,,,,,,,,,,,,,,
null,,color_black,189731,black_plus_sign,,,,,null,,,,,,,,,,,,,,,,,,,,,,,,,,,,,,
null,,learn_phase(without_color),192265,black_plus_sign,,,,,null,US_Cities_List/mm_hanover.png,US_Cities_List/mm_cornwall.png,,,,,,,,,,,,,,,,,,,,,,,,,,,,
null,,black_cross(without_color),192686,green,,,,,null,US_Cities_List/mm_hanover.png,US_Cities_List/mm_cornwall.png,,,,,,,,,,,,,,,,,,,,,,,,,,,,
null,,rt_plussign_withcolor,193202,green,,,,,null,US_Cities_List/mm_hanover.png,US_Cities_List/mm_cornwall.png,,,,,,,,,,,,,,,,,,,,,,,,,,,,
648.7999999523163,,rt_thecrossant_black,194794,black_plus_sign,,,,,50,,,1,0.5714285714285714,,,,,,,,,,,,,,,,,,,,,,,,,,
null,,color_black,194897,black_plus_sign,,,,,null,,,,,,,,,,,,,,,,,,,,,,,,,,,,,,
null,,learn_phase(without_color),197451,black_plus_sign,,,,,null,US_Cities_List/mm_racine.png,US_Cities_List/mm_hanover.png,,,,,,,,,,,,,,,,,,,,,,,,,,,,
null,,black_cross(without_color),197929,blue,,,,,null,US_Cities_List/mm_racine.png,US_Cities_List/mm_hanover.png,,,,,,,,,,,,,,,,,,,,,,,,,,,,
null,,rt_plussign_withcolor,198434,blue,,,,,null,US_Cities_List/mm_racine.png,US_Cities_List/mm_hanover.png,,,,,,,,,,,,,,,,,,,,,,,,,,,,
582.3999998569489,,rt_thecrossant_black,199976,black_plus_sign,,,,,50,,,0,0.5,,,,,,,,,,,,,,,,,,,,,,,,,,
null,,color_black,200085,black_plus_sign,,,,,null,,,,,,,,,,,,,,,,,,,,,,,,,,,,,,
null,,learn_phase(without_color),202653,black_plus_sign,,,,,null,US_Cities_List/nat_gatlinburg.png,US_Cities_List/mm_hanover.png,,,,,,,,,,,,,,,,,,,,,,,,,,,,
null,,black_cross(without_color),203735,blue,,,,,null,US_Cities_List/nat_gatlinburg.png,US_Cities_List/mm_hanover.png,,,,,,,,,,,,,,,,,,,,,,,,,,,,
null,,rt_plussign_withcolor,204252,blue,,,,,null,US_Cities_List/nat_gatlinburg.png,US_Cities_List/mm_hanover.png,,,,,,,,,,,,,,,,,,,,,,,,,,,,
824.0999999046326,,rt_thecrossant_black,205189,black_plus_sign,,,,,50,,,0,0.4444444444444444,,,,,,,,,,,,,,,,,,,,,,,,,,
null,,warning_page,208200,warning,,,,,null,,,,,,,,,,,,,,,,,,,,,,,,,,,,,,
null,,color_black,208301,black_plus_sign,,,,,null,,,,,,,,,,,,,,,,,,,,,,,,,,,,,,
null,,learn_phase(without_color),210839,black_plus_sign,,,,,null,US_Cities_List/mm_hotsprings.png,US_Cities_List/nat_gatlinburg.png,,,,,,,,,,,,,,,,,,,,,,,,,,,,
null,,black_cross(without_color),211340,green,,,,,null,US_Cities_List/mm_hotsprings.png,US_Cities_List/nat_gatlinburg.png,,,,,,,,,,,,,,,,,,,,,,,,,,,,
null,,rt_plussign_withcolor,211843,green,,,,,null,US_Cities_List/mm_hotsprings.png,US_Cities_List/nat_gatlinburg.png,,,,,,,,,,,,,,,,,,,,,,,,,,,,
1189.5999999046326,,rt_thecrossant_black,213359,black_plus_sign,,,,,50,,,1,0.5,,,,,,,,,,,,,,,,,,,,,,,,,,
null,,color_black,213467,black_plus_sign,,,,,null,,,,,,,,,,,,,,,,,,,,,,,,,,,,,,
null,,learn_phase(without_color),216016,black_plus_sign,,,,,null,US_Cities_List/nat_shreveport.png,US_Cities_List/nat_newhope.png,,,,,,,,,,,,,,,,,,,,,,,,,,,,
null,,black_cross(without_color),216797,blue,,,,,null,US_Cities_List/nat_shreveport.png,US_Cities_List/nat_newhope.png,,,,,,,,,,,,,,,,,,,,,,,,,,,,
427.10000014305115,,rt_plussign_withcolor,217308,blue,,,,,49,US_Cities_List/nat_shreveport.png,US_Cities_List/nat_newhope.png,,,,,,,,,,,,,,,,,,,,,,,,,,,,
null,,rt_thecrossant_black,218541,black_plus_sign,,,,,null,,,1,0.5454545454545454,,,,,,,,,,,,,,,,,,,,,,,,,,
null,,color_black,218658,black_plus_sign,,,,,null,,,,,,,,,,,,,,,,,,,,,,,,,,,,,,
null,,learn_phase(without_color),221197,black_plus_sign,,,,,null,US_Cities_List/mm_hotsprings.png,US_Cities_List/mm_huntsville.png,,,,,,,,,,,,,,,,,,,,,,,,,,,,
null,,black_cross(without_color),222107,blue,,,,,null,US_Cities_List/mm_hotsprings.png,US_Cities_List/mm_huntsville.png,,,,,,,,,,,,,,,,,,,,,,,,,,,,
null,,rt_plussign_withcolor,222616,blue,,,,,null,US_Cities_List/mm_hotsprings.png,US_Cities_List/mm_huntsville.png,,,,,,,,,,,,,,,,,,,,,,,,,,,,
993.1999998092651,,rt_thecrossant_black,223716,black_plus_sign,,,,,50,,,0,0.5,,,,,,,,,,,,,,,,,,,,,,,,,,
null,,color_black,223832,black_plus_sign,,,,,null,,,,,,,,,,,,,,,,,,,,,,,,,,,,,,
null,,learn_phase(without_color),226370,black_plus_sign,,,,,null,US_Cities_List/nat_shreveport.png,US_Cities_List/mm_cornwall.png,,,,,,,,,,,,,,,,,,,,,,,,,,,,
null,,black_cross(without_color),226883,green,,,,,null,US_Cities_List/nat_shreveport.png,US_Cities_List/mm_cornwall.png,,,,,,,,,,,,,,,,,,,,,,,,,,,,
null,,rt_plussign_withcolor,227390,green,,,,,null,US_Cities_List/nat_shreveport.png,US_Cities_List/mm_cornwall.png,,,,,,,,,,,,,,,,,,,,,,,,,,,,
1039.2000000476837,,rt_thecrossant_black,228890,black_plus_sign,,,,,50,,,1,0.5384615384615384,,,,,,,,,,,,,,,,,,,,,,,,,,
null,,color_black,228997,black_plus_sign,,,,,null,,,,,,,,,,,,,,,,,,,,,,,,,,,,,,
null,,learn_phase(without_color),231543,black_plus_sign,,,,,null,US_Cities_List/mm_huntsville.png,US_Cities_List/mm_westpalmbeach.png,,,,,,,,,,,,,,,,,,,,,,,,,,,,
null,,black_cross(without_color),232215,green,,,,,null,US_Cities_List/mm_huntsville.png,US_Cities_List/mm_westpalmbeach.png,,,,,,,,,,,,,,,,,,,,,,,,,,,,
491.2999999523163,,rt_plussign_withcolor,232723,green,,,,,50,US_Cities_List/mm_huntsville.png,US_Cities_List/mm_westpalmbeach.png,,,,,,,,,,,,,,,,,,,,,,,,,,,,
null,,rt_thecrossant_black,234072,black_plus_sign,,,,,null,,,1,0.5714285714285714,,,,,,,,,,,,,,,,,,,,,,,,,,
null,,color_black,234188,black_plus_sign,,,,,null,,,,,,,,,,,,,,,,,,,,,,,,,,,,,,
null,,learn_phase(without_color),236731,black_plus_sign,,,,,null,US_Cities_List/nat_peoria.png,US_Cities_List/mm_boulder.png,,,,,,,,,,,,,,,,,,,,,,,,,,,,
null,,black_cross(without_color),237738,blue,,,,,null,US_Cities_List/nat_peoria.png,US_Cities_List/mm_boulder.png,,,,,,,,,,,,,,,,,,,,,,,,,,,,
null,,rt_plussign_withcolor,238247,blue,,,,,null,US_Cities_List/nat_peoria.png,US_Cities_List/mm_boulder.png,,,,,,,,,,,,,,,,,,,,,,,,,,,,
1166,,rt_thecrossant_black,239254,black_plus_sign,,,,,50,,,0,0.5333333333333333,,,,,,,,,,,,,,,,,,,,,,,,,,
null,,color_black,239370,black_plus_sign,,,,,null,,,,,,,,,,,,,,,,,,,,,,,,,,,,,,
null,,learn_phase(without_color),241929,black_plus_sign,,,,,null,US_Cities_List/mm_boulder.png,US_Cities_List/nat_shreveport.png,,,,,,,,,,,,,,,,,,,,,,,,,,,,
null,,black_cross(without_color),242379,blue,,,,,null,US_Cities_List/mm_boulder.png,US_Cities_List/nat_shreveport.png,,,,,,,,,,,,,,,,,,,,,,,,,,,,
null,,rt_plussign_withcolor,242886,blue,,,,,null,US_Cities_List/mm_boulder.png,US_Cities_List/nat_shreveport.png,,,,,,,,,,,,,,,,,,,,,,,,,,,,
1668.7999999523163,,rt_thecrossant_black,244461,black_plus_sign,,,,,49,,,1,0.5625,,,,,,,,,,,,,,,,,,,,,,,,,,
null,,color_black,244570,black_plus_sign,,,,,null,,,,,,,,,,,,,,,,,,,,,,,,,,,,,,
null,,learn_phase(without_color),247119,black_plus_sign,,,,,null,US_Cities_List/mm_huntsville.png,US_Cities_List/nat_leesburg.png,,,,,,,,,,,,,,,,,,,,,,,,,,,,
null,,black_cross(without_color),248070,blue,,,,,null,US_Cities_List/mm_huntsville.png,US_Cities_List/nat_leesburg.png,,,,,,,,,,,,,,,,,,,,,,,,,,,,
null,,rt_plussign_withcolor,248579,blue,,,,,null,US_Cities_List/mm_huntsville.png,US_Cities_List/nat_leesburg.png,,,,,,,,,,,,,,,,,,,,,,,,,,,,
808.2000000476837,,rt_thecrossant_black,249645,black_plus_sign,,,,,50,,,0,0.5294117647058824,,,,,,,,,,,,,,,,,,,,,,,,,,
null,,color_black,249763,black_plus_sign,,,,,null,,,,,,,,,,,,,,,,,,,,,,,,,,,,,,
null,,learn_phase(without_color),252321,black_plus_sign,,,,,null,US_Cities_List/mm_huntsville.png,US_Cities_List/mm_westpalmbeach.png,,,,,,,,,,,,,,,,,,,,,,,,,,,,
null,,black_cross(without_color),253087,green,,,,,null,US_Cities_List/mm_huntsville.png,US_Cities_List/mm_westpalmbeach.png,,,,,,,,,,,,,,,,,,,,,,,,,,,,
null,,rt_plussign_withcolor,253594,green,,,,,null,US_Cities_List/mm_huntsville.png,US_Cities_List/mm_westpalmbeach.png,,,,,,,,,,,,,,,,,,,,,,,,,,,,
1228.5,,rt_thecrossant_black,254838,black_plus_sign,,,,,50,,,1,0.5555555555555556,,,,,,,,,,,,,,,,,,,,,,,,,,
null,,color_black,254944,black_plus_sign,,,,,null,,,,,,,,,,,,,,,,,,,,,,,,,,,,,,
null,,learn_phase(without_color),257499,black_plus_sign,,,,,null,US_Cities_List/nat_peoria.png,US_Cities_List/mm_boulder.png,,,,,,,,,,,,,,,,,,,,,,,,,,,,
null,,black_cross(without_color),258369,blue,,,,,null,US_Cities_List/nat_peoria.png,US_Cities_List/mm_boulder.png,,,,,,,,,,,,,,,,,,,,,,,,,,,,
null,,rt_plussign_withcolor,258875,blue,,,,,null,US_Cities_List/nat_peoria.png,US_Cities_List/mm_boulder.png,,,,,,,,,,,,,,,,,,,,,,,,,,,,
920,,rt_thecrossant_black,260018,black_plus_sign,,,,,49,,,1,0.5789473684210527,,,,,,,,,,,,,,,,,,,,,,,,,,
null,,color_black,260126,black_plus_sign,,,,,null,,,,,,,,,,,,,,,,,,,,,,,,,,,,,,
null,,learn_phase(without_color),262677,black_plus_sign,,,,,null,US_Cities_List/mm_hanover.png,US_Cities_List/mm_cornwall.png,,,,,,,,,,,,,,,,,,,,,,,,,,,,
null,,black_cross(without_color),263726,green,,,,,null,US_Cities_List/mm_hanover.png,US_Cities_List/mm_cornwall.png,,,,,,,,,,,,,,,,,,,,,,,,,,,,
null,,rt_plussign_withcolor,264235,green,,,,,null,US_Cities_List/mm_hanover.png,US_Cities_List/mm_cornwall.png,,,,,,,,,,,,,,,,,,,,,,,,,,,,
996.2000000476837,,rt_thecrossant_black,265202,black_plus_sign,,,,,50,,,1,0.6,,,,,,,,,,,,,,,,,,,,,,,,,,
null,,color_black,265309,black_plus_sign,,,,,null,,,,,,,,,,,,,,,,,,,,,,,,,,,,,,
null,,learn_phase(without_color),267869,black_plus_sign,,,,,null,US_Cities_List/nat_shreveport.png,US_Cities_List/nat_newhope.png,,,,,,,,,,,,,,,,,,,,,,,,,,,,
null,,black_cross(without_color),268314,blue,,,,,null,US_Cities_List/nat_shreveport.png,US_Cities_List/nat_newhope.png,,,,,,,,,,,,,,,,,,,,,,,,,,,,
null,,rt_plussign_withcolor,268825,blue,,,,,null,US_Cities_List/nat_shreveport.png,US_Cities_List/nat_newhope.png,,,,,,,,,,,,,,,,,,,,,,,,,,,,
1436.7999999523163,,rt_thecrossant_black,270392,black_plus_sign,,,,,50,,,0,0.5714285714285714,,,,,,,,,,,,,,,,,,,,,,,,,,
null,,color_black,270509,black_plus_sign,,,,,null,,,,,,,,,,,,,,,,,,,,,,,,,,,,,,
null,,learn_phase(without_color),273055,black_plus_sign,,,,,null,US_Cities_List/nat_gatlinburg.png,US_Cities_List/mm_hanover.png,,,,,,,,,,,,,,,,,,,,,,,,,,,,
null,,black_cross(without_color),273477,blue,,,,,null,US_Cities_List/nat_gatlinburg.png,US_Cities_List/mm_hanover.png,,,,,,,,,,,,,,,,,,,,,,,,,,,,
null,,rt_plussign_withcolor,273991,blue,,,,,null,US_Cities_List/nat_gatlinburg.png,US_Cities_List/mm_hanover.png,,,,,,,,,,,,,,,,,,,,,,,,,,,,
796.2999999523163,,rt_thecrossant_black,275599,black_plus_sign,,,,,50,,,0,0.5454545454545454,,,,,,,,,,,,,,,,,,,,,,,,,,
null,,warning_page,278608,warning,,,,,null,,,,,,,,,,,,,,,,,,,,,,,,,,,,,,
null,,color_black,278717,black_plus_sign,,,,,null,,,,,,,,,,,,,,,,,,,,,,,,,,,,,,
null,,learn_phase(without_color),281247,black_plus_sign,,,,,null,US_Cities_List/mm_boulder.png,US_Cities_List/nat_shreveport.png,,,,,,,,,,,,,,,,,,,,,,,,,,,,
null,,black_cross(without_color),281967,green,,,,,null,US_Cities_List/mm_boulder.png,US_Cities_List/nat_shreveport.png,,,,,,,,,,,,,,,,,,,,,,,,,,,,
null,,rt_plussign_withcolor,282474,green,,,,,null,US_Cities_List/mm_boulder.png,US_Cities_List/nat_shreveport.png,,,,,,,,,,,,,,,,,,,,,,,,,,,,
734.5,,rt_thecrossant_black,283772,black_plus_sign,,,,,50,,,1,0.5652173913043478,,,,,,,,,,,,,,,,,,,,,,,,,,
null,,color_black,283881,black_plus_sign,,,,,null,,,,,,,,,,,,,,,,,,,,,,,,,,,,,,
null,,learn_phase(without_color),286424,black_plus_sign,,,,,null,US_Cities_List/mm_huntsville.png,US_Cities_List/nat_gatlinburg.png,,,,,,,,,,,,,,,,,,,,,,,,,,,,
null,,black_cross(without_color),287519,green,,,,,null,US_Cities_List/mm_huntsville.png,US_Cities_List/nat_gatlinburg.png,,,,,,,,,,,,,,,,,,,,,,,,,,,,
null,,rt_plussign_withcolor,288022,green,,,,,null,US_Cities_List/mm_huntsville.png,US_Cities_List/nat_gatlinburg.png,,,,,,,,,,,,,,,,,,,,,,,,,,,,
916.9000000953674,,rt_thecrossant_black,288937,black_plus_sign,,,,,50,,,1,0.5833333333333334,,,,,,,,,,,,,,,,,,,,,,,,,,
null,,color_black,289048,black_plus_sign,,,,,null,,,,,,,,,,,,,,,,,,,,,,,,,,,,,,
null,,learn_phase(without_color),291597,black_plus_sign,,,,,null,US_Cities_List/mm_racine.png,US_Cities_List/mm_hotsprings.png,,,,,,,,,,,,,,,,,,,,,,,,,,,,
null,,black_cross(without_color),292415,blue,,,,,null,US_Cities_List/mm_racine.png,US_Cities_List/mm_hotsprings.png,,,,,,,,,,,,,,,,,,,,,,,,,,,,
null,,rt_plussign_withcolor,292923,blue,,,,,null,US_Cities_List/mm_racine.png,US_Cities_List/mm_hotsprings.png,,,,,,,,,,,,,,,,,,,,,,,,,,,,
1247.7000000476837,,rt_thecrossant_black,294122,black_plus_sign,,,,,49,,,1,0.6,,,,,,,,,,,,,,,,,,,,,,,,,,
null,,color_black,294238,black_plus_sign,,,,,null,,,,,,,,,,,,,,,,,,,,,,,,,,,,,,
null,,learn_phase(without_color),296798,black_plus_sign,,,,,null,US_Cities_List/nat_shreveport.png,US_Cities_List/mm_cornwall.png,,,,,,,,,,,,,,,,,,,,,,,,,,,,
null,,black_cross(without_color),297279,green,,,,,null,US_Cities_List/nat_shreveport.png,US_Cities_List/mm_cornwall.png,,,,,,,,,,,,,,,,,,,,,,,,,,,,
null,,rt_plussign_withcolor,297780,green,,,,,null,US_Cities_List/nat_shreveport.png,US_Cities_List/mm_cornwall.png,,,,,,,,,,,,,,,,,,,,,,,,,,,,
1190.5,,rt_thecrossant_black,299306,black_plus_sign,,,,,50,,,1,0.6153846153846154,,,,,,,,,,,,,,,,,,,,,,,,,,
null,,color_black,299422,black_plus_sign,,,,,null,,,,,,,,,,,,,,,,,,,,,,,,,,,,,,
null,,learn_phase(without_color),301983,black_plus_sign,,,,,null,US_Cities_List/mm_racine.png,US_Cities_List/mm_hotsprings.png,,,,,,,,,,,,,,,,,,,,,,,,,,,,
null,,black_cross(without_color),302411,blue,,,,,null,US_Cities_List/mm_racine.png,US_Cities_List/mm_hotsprings.png,,,,,,,,,,,,,,,,,,,,,,,,,,,,
null,,rt_plussign_withcolor,302923,blue,,,,,null,US_Cities_List/mm_racine.png,US_Cities_List/mm_hotsprings.png,,,,,,,,,,,,,,,,,,,,,,,,,,,,
718.8999998569489,,rt_thecrossant_black,304514,black_plus_sign,,,,,50,,,0,0.5925925925925926,,,,,,,,,,,,,,,,,,,,,,,,,,
null,,color_black,304623,black_plus_sign,,,,,null,,,,,,,,,,,,,,,,,,,,,,,,,,,,,,
null,,learn_phase(without_color),307152,black_plus_sign,,,,,null,US_Cities_List/mm_huntsville.png,US_Cities_List/nat_gatlinburg.png,,,,,,,,,,,,,,,,,,,,,,,,,,,,
null,,black_cross(without_color),307981,green,,,,,null,US_Cities_List/mm_huntsville.png,US_Cities_List/nat_gatlinburg.png,,,,,,,,,,,,,,,,,,,,,,,,,,,,
null,,rt_plussign_withcolor,308488,green,,,,,null,US_Cities_List/mm_huntsville.png,US_Cities_List/nat_gatlinburg.png,,,,,,,,,,,,,,,,,,,,,,,,,,,,
644.3999998569489,,rt_thecrossant_black,309672,black_plus_sign,,,,,50,,,1,0.6071428571428571,,,,,,,,,,,,,,,,,,,,,,,,,,
null,,color_black,309780,black_plus_sign,,,,,null,,,,,,,,,,,,,,,,,,,,,,,,,,,,,,
null,,learn_phase(without_color),312329,black_plus_sign,,,,,null,US_Cities_List/mm_racine.png,US_Cities_List/mm_hotsprings.png,,,,,,,,,,,,,,,,,,,,,,,,,,,,
null,,black_cross(without_color),313096,blue,,,,,null,US_Cities_List/mm_racine.png,US_Cities_List/mm_hotsprings.png,,,,,,,,,,,,,,,,,,,,,,,,,,,,
459.5,,rt_plussign_withcolor,313602,blue,,,,,49,US_Cities_List/mm_racine.png,US_Cities_List/mm_hotsprings.png,,,,,,,,,,,,,,,,,,,,,,,,,,,,
null,,rt_thecrossant_black,314845,black_plus_sign,,,,,null,,,1,0.6206896551724138,,,,,,,,,,,,,,,,,,,,,,,,,,
null,,color_black,314961,black_plus_sign,,,,,null,,,,,,,,,,,,,,,,,,,,,,,,,,,,,,
null,,learn_phase(without_color),317503,black_plus_sign,,,,,null,US_Cities_List/nat_leesburg.png,US_Cities_List/nat_carmel.png,,,,,,,,,,,,,,,,,,,,,,,,,,,,
null,,black_cross(without_color),318603,green,,,,,null,US_Cities_List/nat_leesburg.png,US_Cities_List/nat_carmel.png,,,,,,,,,,,,,,,,,,,,,,,,,,,,
null,,rt_plussign_withcolor,319111,green,,,,,null,US_Cities_List/nat_leesburg.png,US_Cities_List/nat_carmel.png,,,,,,,,,,,,,,,,,,,,,,,,,,,,
958.2000000476837,,rt_thecrossant_black,320027,black_plus_sign,,,,,50,,,1,0.6333333333333333,,,,,,,,,,,,,,,,,,,,,,,,,,
null,,color_black,320136,black_plus_sign,,,,,null,,,,,,,,,,,,,,,,,,,,,,,,,,,,,,
null,,learn_phase(without_color),322694,black_plus_sign,,,,,null,US_Cities_List/mm_boulder.png,US_Cities_List/mm_racine.png,,,,,,,,,,,,,,,,,,,,,,,,,,,,
null,,black_cross(without_color),323519,green,,,,,null,US_Cities_List/mm_boulder.png,US_Cities_List/mm_racine.png,,,,,,,,,,,,,,,,,,,,,,,,,,,,
null,,rt_plussign_withcolor,324022,green,,,,,null,US_Cities_List/mm_boulder.png,US_Cities_List/mm_racine.png,,,,,,,,,,,,,,,,,,,,,,,,,,,,
1357.1000001430511,,rt_thecrossant_black,325210,black_plus_sign,,,,,50,,,1,0.6451612903225806,,,,,,,,,,,,,,,,,,,,,,,,,,
null,,color_black,325318,black_plus_sign,,,,,null,,,,,,,,,,,,,,,,,,,,,,,,,,,,,,
null,,learn_phase(without_color),327869,black_plus_sign,,,,,null,US_Cities_List/nat_gatlinburg.png,US_Cities_List/mm_hanover.png,,,,,,,,,,,,,,,,,,,,,,,,,,,,
null,,black_cross(without_color),328662,green,,,,,null,US_Cities_List/nat_gatlinburg.png,US_Cities_List/mm_hanover.png,,,,,,,,,,,,,,,,,,,,,,,,,,,,
null,,rt_plussign_withcolor,329169,green,,,,,null,US_Cities_List/nat_gatlinburg.png,US_Cities_List/mm_hanover.png,,,,,,,,,,,,,,,,,,,,,,,,,,,,
968.5999999046326,,rt_thecrossant_black,330401,black_plus_sign,,,,,50,,,1,0.65625,,,,,,,,,,,,,,,,,,,,,,,,,,
null,,color_black,330509,black_plus_sign,,,,,null,,,,,,,,,,,,,,,,,,,,,,,,,,,,,,
null,,learn_phase(without_color),333057,black_plus_sign,,,,,null,US_Cities_List/nat_shreveport.png,US_Cities_List/nat_newhope.png,,,,,,,,,,,,,,,,,,,,,,,,,,,,
null,,black_cross(without_color),333941,blue,,,,,null,US_Cities_List/nat_shreveport.png,US_Cities_List/nat_newhope.png,,,,,,,,,,,,,,,,,,,,,,,,,,,,
null,,rt_plussign_withcolor,334449,blue,,,,,null,US_Cities_List/nat_shreveport.png,US_Cities_List/nat_newhope.png,,,,,,,,,,,,,,,,,,,,,,,,,,,,
983.5999999046326,,rt_thecrossant_black,335577,black_plus_sign,,,,,50,,,0,0.6363636363636364,,,,,,,,,,,,,,,,,,,,,,,,,,
null,,color_black,335684,black_plus_sign,,,,,null,,,,,,,,,,,,,,,,,,,,,,,,,,,,,,
null,,learn_phase(without_color),338242,black_plus_sign,,,,,null,US_Cities_List/mm_boulder.png,US_Cities_List/mm_racine.png,,,,,,,,,,,,,,,,,,,,,,,,,,,,
null,,black_cross(without_color),338868,blue,,,,,null,US_Cities_List/mm_boulder.png,US_Cities_List/mm_racine.png,,,,,,,,,,,,,,,,,,,,,,,,,,,,
null,,rt_plussign_withcolor,339385,blue,,,,,null,US_Cities_List/mm_boulder.png,US_Cities_List/mm_racine.png,,,,,,,,,,,,,,,,,,,,,,,,,,,,
1103.8999998569489,,rt_thecrossant_black,340783,black_plus_sign,,,,,49,,,1,0.6470588235294118,,,,,,,,,,,,,,,,,,,,,,,,,,
null,,color_black,340893,black_plus_sign,,,,,null,,,,,,,,,,,,,,,,,,,,,,,,,,,,,,
null,,learn_phase(without_color),343441,black_plus_sign,,,,,null,US_Cities_List/mm_racine.png,US_Cities_List/mm_hanover.png,,,,,,,,,,,,,,,,,,,,,,,,,,,,
null,,black_cross(without_color),344091,green,,,,,null,US_Cities_List/mm_racine.png,US_Cities_List/mm_hanover.png,,,,,,,,,,,,,,,,,,,,,,,,,,,,
null,,rt_plussign_withcolor,344597,green,,,,,null,US_Cities_List/mm_racine.png,US_Cities_List/mm_hanover.png,,,,,,,,,,,,,,,,,,,,,,,,,,,,
896.3000001907349,,rt_thecrossant_black,345966,black_plus_sign,,,,,50,,,1,0.6571428571428571,,,,,,,,,,,,,,,,,,,,,,,,,,
null,,color_black,346074,black_plus_sign,,,,,null,,,,,,,,,,,,,,,,,,,,,,,,,,,,,,
null,,learn_phase(without_color),348624,black_plus_sign,,,,,null,US_Cities_List/mm_hotsprings.png,US_Cities_List/nat_gatlinburg.png,,,,,,,,,,,,,,,,,,,,,,,,,,,,
null,,black_cross(without_color),349066,green,,,,,null,US_Cities_List/mm_hotsprings.png,US_Cities_List/nat_gatlinburg.png,,,,,,,,,,,,,,,,,,,,,,,,,,,,
null,,rt_plussign_withcolor,349574,green,,,,,null,US_Cities_List/mm_hotsprings.png,US_Cities_List/nat_gatlinburg.png,,,,,,,,,,,,,,,,,,,,,,,,,,,,
923.7999999523163,,rt_thecrossant_black,351142,black_plus_sign,,,,,50,,,1,0.6666666666666666,,,,,,,,,,,,,,,,,,,,,,,,,,
null,,color_black,351249,black_plus_sign,,,,,null,,,,,,,,,,,,,,,,,,,,,,,,,,,,,,
null,,learn_phase(without_color),353794,black_plus_sign,,,,,null,US_Cities_List/mm_boulder.png,US_Cities_List/nat_shreveport.png,,,,,,,,,,,,,,,,,,,,,,,,,,,,
null,,black_cross(without_color),354823,blue,,,,,null,US_Cities_List/mm_boulder.png,US_Cities_List/nat_shreveport.png,,,,,,,,,,,,,,,,,,,,,,,,,,,,
null,,rt_plussign_withcolor,355332,blue,,,,,null,US_Cities_List/mm_boulder.png,US_Cities_List/nat_shreveport.png,,,,,,,,,,,,,,,,,,,,,,,,,,,,
812.4000000953674,,rt_thecrossant_black,356337,black_plus_sign,,,,,49,,,1,0.6756756756756757,,,,,,,,,,,,,,,,,,,,,,,,,,
null,,color_black,356440,black_plus_sign,,,,,null,,,,,,,,,,,,,,,,,,,,,,,,,,,,,,
null,,learn_phase(without_color),358976,black_plus_sign,,,,,null,US_Cities_List/mm_huntsville.png,US_Cities_List/nat_leesburg.png,,,,,,,,,,,,,,,,,,,,,,,,,,,,
null,,black_cross(without_color),359840,blue,,,,,null,US_Cities_List/mm_huntsville.png,US_Cities_List/nat_leesburg.png,,,,,,,,,,,,,,,,,,,,,,,,,,,,
null,,rt_plussign_withcolor,360353,blue,,,,,null,US_Cities_List/mm_huntsville.png,US_Cities_List/nat_leesburg.png,,,,,,,,,,,,,,,,,,,,,,,,,,,,
1355.6000001430511,,rt_thecrossant_black,361507,black_plus_sign,,,,,49,,,1,0.6842105263157895,,,,,,,,,,,,,,,,,,,,,,,,,,
null,,color_black,361616,black_plus_sign,,,,,null,,,,,,,,,,,,,,,,,,,,,,,,,,,,,,
null,,learn_phase(without_color),364171,black_plus_sign,,,,,null,US_Cities_List/nat_shreveport.png,US_Cities_List/mm_cornwall.png,,,,,,,,,,,,,,,,,,,,,,,,,,,,
null,,black_cross(without_color),365172,blue,,,,,null,US_Cities_List/nat_shreveport.png,US_Cities_List/mm_cornwall.png,,,,,,,,,,,,,,,,,,,,,,,,,,,,
null,,rt_plussign_withcolor,365675,blue,,,,,null,US_Cities_List/nat_shreveport.png,US_Cities_List/mm_cornwall.png,,,,,,,,,,,,,,,,,,,,,,,,,,,,
1210.1000001430511,,rt_thecrossant_black,366685,black_plus_sign,,,,,49,,,1,0.6923076923076923,,,,,,,,,,,,,,,,,,,,,,,,,,
null,,color_black,366786,black_plus_sign,,,,,null,,,,,,,,,,,,,,,,,,,,,,,,,,,,,,
null,,learn_phase(without_color),369305,black_plus_sign,,,,,null,US_Cities_List/mm_racine.png,US_Cities_List/mm_hanover.png,,,,,,,,,,,,,,,,,,,,,,,,,,,,
null,,black_cross(without_color),369746,blue,,,,,null,US_Cities_List/mm_racine.png,US_Cities_List/mm_hanover.png,,,,,,,,,,,,,,,,,,,,,,,,,,,,
null,,rt_plussign_withcolor,370254,blue,,,,,null,US_Cities_List/mm_racine.png,US_Cities_List/mm_hanover.png,,,,,,,,,,,,,,,,,,,,,,,,,,,,
1241.9000000953674,,rt_thecrossant_black,371831,black_plus_sign,,,,,49,,,1,0.7,,,,,,,,,,,,,,,,,,,,,,,,,,
null,,color_black,371938,black_plus_sign,,,,,null,,,,,,,,,,,,,,,,,,,,,,,,,,,,,,
null,,learn_phase(without_color),374510,black_plus_sign,,,,,null,US_Cities_List/mm_hotsprings.png,US_Cities_List/nat_gatlinburg.png,,,,,,,,,,,,,,,,,,,,,,,,,,,,
null,,black_cross(without_color),375596,green,,,,,null,US_Cities_List/mm_hotsprings.png,US_Cities_List/nat_gatlinburg.png,,,,,,,,,,,,,,,,,,,,,,,,,,,,
null,,rt_plussign_withcolor,376110,green,,,,,null,US_Cities_List/mm_hotsprings.png,US_Cities_List/nat_gatlinburg.png,,,,,,,,,,,,,,,,,,,,,,,,,,,,
642.2999999523163,,rt_thecrossant_black,377033,black_plus_sign,,,,,50,,,1,0.7073170731707317,,,,,,,,,,,,,,,,,,,,,,,,,,
null,,color_black,377146,black_plus_sign,,,,,null,,,,,,,,,,,,,,,,,,,,,,,,,,,,,,
null,,learn_phase(without_color),379687,black_plus_sign,,,,,null,US_Cities_List/mm_hotsprings.png,US_Cities_List/mm_huntsville.png,,,,,,,,,,,,,,,,,,,,,,,,,,,,
null,,black_cross(without_color),380287,blue,,,,,null,US_Cities_List/mm_hotsprings.png,US_Cities_List/mm_huntsville.png,,,,,,,,,,,,,,,,,,,,,,,,,,,,
425,,rt_plussign_withcolor,380795,blue,,,,,49,US_Cities_List/mm_hotsprings.png,US_Cities_List/mm_huntsville.png,,,,,,,,,,,,,,,,,,,,,,,,,,,,
null,,rt_thecrossant_black,382219,black_plus_sign,,,,,null,,,1,0.7142857142857143,,,,,,,,,,,,,,,,,,,,,,,,,,
null,,color_black,382329,black_plus_sign,,,,,null,,,,,,,,,,,,,,,,,,,,,,,,,,,,,,
null,,learn_phase(without_color),384879,black_plus_sign,,,,,null,US_Cities_List/nat_leesburg.png,US_Cities_List/nat_gatlinburg.png,,,,,,,,,,,,,,,,,,,,,,,,,,,,
null,,black_cross(without_color),385535,blue,,,,,null,US_Cities_List/nat_leesburg.png,US_Cities_List/nat_gatlinburg.png,,,,,,,,,,,,,,,,,,,,,,,,,,,,
null,,rt_plussign_withcolor,386038,blue,,,,,null,US_Cities_List/nat_leesburg.png,US_Cities_List/nat_gatlinburg.png,,,,,,,,,,,,,,,,,,,,,,,,,,,,
1177.7999999523163,,rt_thecrossant_black,387410,black_plus_sign,,,,,49,,,1,0.7209302325581395,,,,,,,,,,,,,,,,,,,,,,,,,,
null,,color_black,387519,black_plus_sign,,,,,null,,,,,,,,,,,,,,,,,,,,,,,,,,,,,,
null,,learn_phase(without_color),390052,black_plus_sign,,,,,null,US_Cities_List/mm_hotsprings.png,US_Cities_List/nat_gatlinburg.png,,,,,,,,,,,,,,,,,,,,,,,,,,,,
null,,black_cross(without_color),390685,blue,,,,,null,US_Cities_List/mm_hotsprings.png,US_Cities_List/nat_gatlinburg.png,,,,,,,,,,,,,,,,,,,,,,,,,,,,
null,,rt_plussign_withcolor,391201,blue,,,,,null,US_Cities_List/mm_hotsprings.png,US_Cities_List/nat_gatlinburg.png,,,,,,,,,,,,,,,,,,,,,,,,,,,,
962.2000000476837,,rt_thecrossant_black,392577,black_plus_sign,,,,,49,,,1,0.7272727272727273,,,,,,,,,,,,,,,,,,,,,,,,,,
null,,color_black,392685,black_plus_sign,,,,,null,,,,,,,,,,,,,,,,,,,,,,,,,,,,,,
null,,learn_phase(without_color),395236,black_plus_sign,,,,,null,US_Cities_List/mm_hotsprings.png,US_Cities_List/mm_huntsville.png,,,,,,,,,,,,,,,,,,,,,,,,,,,,
null,,black_cross(without_color),396324,blue,,,,,null,US_Cities_List/mm_hotsprings.png,US_Cities_List/mm_huntsville.png,,,,,,,,,,,,,,,,,,,,,,,,,,,,
null,,rt_plussign_withcolor,396833,blue,,,,,null,US_Cities_List/mm_hotsprings.png,US_Cities_List/mm_huntsville.png,,,,,,,,,,,,,,,,,,,,,,,,,,,,
913.7999999523163,,rt_thecrossant_black,397773,black_plus_sign,,,,,49,,,1,0.7333333333333333,,,,,,,,,,,,,,,,,,,,,,,,,,
null,,color_black,397889,black_plus_sign,,,,,null,,,,,,,,,,,,,,,,,,,,,,,,,,,,,,
null,,learn_phase(without_color),400434,black_plus_sign,,,,,null,US_Cities_List/mm_hanover.png,US_Cities_List/mm_cornwall.png,,,,,,,,,,,,,,,,,,,,,,,,,,,,
null,,black_cross(without_color),401039,blue,,,,,null,US_Cities_List/mm_hanover.png,US_Cities_List/mm_cornwall.png,,,,,,,,,,,,,,,,,,,,,,,,,,,,
null,,rt_plussign_withcolor,401542,blue,,,,,null,US_Cities_List/mm_hanover.png,US_Cities_List/mm_cornwall.png,,,,,,,,,,,,,,,,,,,,,,,,,,,,
1648.5,,rt_thecrossant_black,402961,black_plus_sign,,,,,49,,,1,0.7391304347826086,,,,,,,,,,,,,,,,,,,,,,,,,,
null,,color_black,403079,black_plus_sign,,,,,null,,,,,,,,,,,,,,,,,,,,,,,,,,,,,,
null,,learn_phase(without_color),405625,black_plus_sign,,,,,null,US_Cities_List/nat_shreveport.png,US_Cities_List/nat_newhope.png,,,,,,,,,,,,,,,,,,,,,,,,,,,,
null,,black_cross(without_color),406675,blue,,,,,null,US_Cities_List/nat_shreveport.png,US_Cities_List/nat_newhope.png,,,,,,,,,,,,,,,,,,,,,,,,,,,,
null,,rt_plussign_withcolor,407192,blue,,,,,null,US_Cities_List/nat_shreveport.png,US_Cities_List/nat_newhope.png,,,,,,,,,,,,,,,,,,,,,,,,,,,,
980.9000000953674,,rt_thecrossant_black,408175,black_plus_sign,,,,,49,,,1,0.7446808510638298,,,,,,,,,,,,,,,,,,,,,,,,,,
null,,color_black,408283,black_plus_sign,,,,,null,,,,,,,,,,,,,,,,,,,,,,,,,,,,,,
null,,learn_phase(without_color),410839,black_plus_sign,,,,,null,US_Cities_List/nat_leesburg.png,US_Cities_List/nat_carmel.png,,,,,,,,,,,,,,,,,,,,,,,,,,,,
null,,black_cross(without_color),411643,green,,,,,null,US_Cities_List/nat_leesburg.png,US_Cities_List/nat_carmel.png,,,,,,,,,,,,,,,,,,,,,,,,,,,,
null,,rt_plussign_withcolor,412159,green,,,,,null,US_Cities_List/nat_leesburg.png,US_Cities_List/nat_carmel.png,,,,,,,,,,,,,,,,,,,,,,,,,,,,
1384.3999998569489,,rt_thecrossant_black,413367,black_plus_sign,,,,,50,,,1,0.75,,,,,,,,,,,,,,,,,,,,,,,,,,
null,,color_black,413477,black_plus_sign,,,,,null,,,,,,,,,,,,,,,,,,,,,,,,,,,,,,
null,,learn_phase(without_color),416036,black_plus_sign,,,,,null,US_Cities_List/nat_leesburg.png,US_Cities_List/nat_gatlinburg.png,,,,,,,,,,,,,,,,,,,,,,,,,,,,
null,,black_cross(without_color),417040,blue,,,,,null,US_Cities_List/nat_leesburg.png,US_Cities_List/nat_gatlinburg.png,,,,,,,,,,,,,,,,,,,,,,,,,,,,
null,,rt_plussign_withcolor,417551,blue,,,,,null,US_Cities_List/nat_leesburg.png,US_Cities_List/nat_gatlinburg.png,,,,,,,,,,,,,,,,,,,,,,,,,,,,
1047.9000000953674,,rt_thecrossant_black,418565,black_plus_sign,,,,,49,,,1,0.7551020408163265,,,,,,,,,,,,,,,,,,,,,,,,,,
null,,color_black,418674,black_plus_sign,,,,,null,,,,,,,,,,,,,,,,,,,,,,,,,,,,,,
null,,learn_phase(without_color),421217,black_plus_sign,,,,,null,US_Cities_List/nat_gatlinburg.png,US_Cities_List/mm_hanover.png,,,,,,,,,,,,,,,,,,,,,,,,,,,,
null,,black_cross(without_color),421862,green,,,,,null,US_Cities_List/nat_gatlinburg.png,US_Cities_List/mm_hanover.png,,,,,,,,,,,,,,,,,,,,,,,,,,,,
null,,rt_plussign_withcolor,422372,green,,,,,null,US_Cities_List/nat_gatlinburg.png,US_Cities_List/mm_hanover.png,,,,,,,,,,,,,,,,,,,,,,,,,,,,
1255.9000000953674,,rt_thecrossant_black,423740,black_plus_sign,,,,,50,,,1,0.76,,,,,,,,,,,,,,,,,,,,,,,,,,
null,,color_black,423846,black_plus_sign,,,,,null,,,,,,,,,,,,,,,,,,,,,,,,,,,,,,
null,,learn_phase(without_color),426382,black_plus_sign,,,,,null,US_Cities_List/nat_leesburg.png,US_Cities_List/nat_gatlinburg.png,,,,,,,,,,,,,,,,,,,,,,,,,,,,
null,,black_cross(without_color),427040,green,,,,,null,US_Cities_List/nat_leesburg.png,US_Cities_List/nat_gatlinburg.png,,,,,,,,,,,,,,,,,,,,,,,,,,,,
null,,rt_plussign_withcolor,427547,green,,,,,null,US_Cities_List/nat_leesburg.png,US_Cities_List/nat_gatlinburg.png,,,,,,,,,,,,,,,,,,,,,,,,,,,,
834.9000000953674,,rt_thecrossant_black,428905,black_plus_sign,,,,,50,,,1,0.7647058823529411,,,,,,,,,,,,,,,,,,,,,,,,,,
null,,color_black,429007,black_plus_sign,,,,,null,,,,,,,,,,,,,,,,,,,,,,,,,,,,,,
null,,learn_phase(without_color),431563,black_plus_sign,,,,,null,US_Cities_List/mm_racine.png,US_Cities_List/mm_hanover.png,,,,,,,,,,,,,,,,,,,,,,,,,,,,
null,,black_cross(without_color),432290,blue,,,,,null,US_Cities_List/mm_racine.png,US_Cities_List/mm_hanover.png,,,,,,,,,,,,,,,,,,,,,,,,,,,,
null,,rt_plussign_withcolor,432797,blue,,,,,null,US_Cities_List/mm_racine.png,US_Cities_List/mm_hanover.png,,,,,,,,,,,,,,,,,,,,,,,,,,,,
1042.4000000953674,,rt_thecrossant_black,434081,black_plus_sign,,,,,50,,,0,0.75,,,,,,,,,,,,,,,,,,,,,,,,,,
null,,color_black,434197,black_plus_sign,,,,,null,,,,,,,,,,,,,,,,,,,,,,,,,,,,,,
null,,learn_phase(without_color),436754,black_plus_sign,,,,,null,US_Cities_List/nat_gatlinburg.png,US_Cities_List/mm_hanover.png,,,,,,,,,,,,,,,,,,,,,,,,,,,,
null,,black_cross(without_color),437699,green,,,,,null,US_Cities_List/nat_gatlinburg.png,US_Cities_List/mm_hanover.png,,,,,,,,,,,,,,,,,,,,,,,,,,,,
null,,rt_plussign_withcolor,438214,green,,,,,null,US_Cities_List/nat_gatlinburg.png,US_Cities_List/mm_hanover.png,,,,,,,,,,,,,,,,,,,,,,,,,,,,
1074.1000001430511,,rt_thecrossant_black,439279,black_plus_sign,,,,,50,,,1,0.7547169811320755,,,,,,,,,,,,,,,,,,,,,,,,,,
null,,color_black,439387,black_plus_sign,,,,,null,,,,,,,,,,,,,,,,,,,,,,,,,,,,,,
null,,learn_phase(without_color),441944,black_plus_sign,,,,,null,US_Cities_List/nat_leesburg.png,US_Cities_List/nat_gatlinburg.png,,,,,,,,,,,,,,,,,,,,,,,,,,,,
null,,black_cross(without_color),442527,green,,,,,null,US_Cities_List/nat_leesburg.png,US_Cities_List/nat_gatlinburg.png,,,,,,,,,,,,,,,,,,,,,,,,,,,,
null,,rt_plussign_withcolor,443034,green,,,,,null,US_Cities_List/nat_leesburg.png,US_Cities_List/nat_gatlinburg.png,,,,,,,,,,,,,,,,,,,,,,,,,,,,
1303.6000001430511,,rt_thecrossant_black,444477,black_plus_sign,,,,,50,,,1,0.7592592592592593,,,,,,,,,,,,,,,,,,,,,,,,,,
null,,color_black,444588,black_plus_sign,,,,,null,,,,,,,,,,,,,,,,,,,,,,,,,,,,,,
null,,learn_phase(without_color),447130,black_plus_sign,,,,,null,US_Cities_List/mm_hotsprings.png,US_Cities_List/mm_huntsville.png,,,,,,,,,,,,,,,,,,,,,,,,,,,,
null,,black_cross(without_color),448036,blue,,,,,null,US_Cities_List/mm_hotsprings.png,US_Cities_List/mm_huntsville.png,,,,,,,,,,,,,,,,,,,,,,,,,,,,
null,,rt_plussign_withcolor,448541,blue,,,,,null,US_Cities_List/mm_hotsprings.png,US_Cities_List/mm_huntsville.png,,,,,,,,,,,,,,,,,,,,,,,,,,,,
1063.5999999046326,,rt_thecrossant_black,449661,black_plus_sign,,,,,49,,,1,0.7636363636363637,,,,,,,,,,,,,,,,,,,,,,,,,,
null,,color_black,449779,black_plus_sign,,,,,null,,,,,,,,,,,,,,,,,,,,,,,,,,,,,,
null,,learn_phase(without_color),452302,black_plus_sign,,,,,null,US_Cities_List/nat_shreveport.png,US_Cities_List/nat_newhope.png,,,,,,,,,,,,,,,,,,,,,,,,,,,,
null,,black_cross(without_color),452944,green,,,,,null,US_Cities_List/nat_shreveport.png,US_Cities_List/nat_newhope.png,,,,,,,,,,,,,,,,,,,,,,,,,,,,
null,,rt_plussign_withcolor,453460,green,,,,,null,US_Cities_List/nat_shreveport.png,US_Cities_List/nat_newhope.png,,,,,,,,,,,,,,,,,,,,,,,,,,,,
1164.5999999046326,,rt_thecrossant_black,454832,black_plus_sign,,,,,50,,,1,0.7678571428571429,,,,,,,,,,,,,,,,,,,,,,,,,,
null,,color_black,454949,black_plus_sign,,,,,null,,,,,,,,,,,,,,,,,,,,,,,,,,,,,,
null,,learn_phase(without_color),457518,black_plus_sign,,,,,null,US_Cities_List/mm_huntsville.png,US_Cities_List/nat_leesburg.png,,,,,,,,,,,,,,,,,,,,,,,,,,,,
null,,black_cross(without_color),458253,blue,,,,,null,US_Cities_List/mm_huntsville.png,US_Cities_List/nat_leesburg.png,,,,,,,,,,,,,,,,,,,,,,,,,,,,
null,,rt_plussign_withcolor,458759,blue,,,,,null,US_Cities_List/mm_huntsville.png,US_Cities_List/nat_leesburg.png,,,,,,,,,,,,,,,,,,,,,,,,,,,,
951.5,,rt_thecrossant_black,460036,black_plus_sign,,,,,49,,,1,0.7719298245614035,,,,,,,,,,,,,,,,,,,,,,,,,,
null,,color_black,460145,black_plus_sign,,,,,null,,,,,,,,,,,,,,,,,,,,,,,,,,,,,,
null,,learn_phase(without_color),462701,black_plus_sign,,,,,null,US_Cities_List/nat_gatlinburg.png,US_Cities_List/mm_hanover.png,,,,,,,,,,,,,,,,,,,,,,,,,,,,
null,,black_cross(without_color),463773,blue,,,,,null,US_Cities_List/nat_gatlinburg.png,US_Cities_List/mm_hanover.png,,,,,,,,,,,,,,,,,,,,,,,,,,,,
null,,rt_plussign_withcolor,464276,blue,,,,,null,US_Cities_List/nat_gatlinburg.png,US_Cities_List/mm_hanover.png,,,,,,,,,,,,,,,,,,,,,,,,,,,,
928.4000000953674,,rt_thecrossant_black,465209,black_plus_sign,,,,,49,,,1,0.7758620689655172,,,,,,,,,,,,,,,,,,,,,,,,,,
null,,color_black,465316,black_plus_sign,,,,,null,,,,,,,,,,,,,,,,,,,,,,,,,,,,,,
null,,learn_phase(without_color),467866,black_plus_sign,,,,,null,US_Cities_List/mm_boulder.png,US_Cities_List/nat_shreveport.png,,,,,,,,,,,,,,,,,,,,,,,,,,,,
null,,black_cross(without_color),468629,blue,,,,,null,US_Cities_List/mm_boulder.png,US_Cities_List/nat_shreveport.png,,,,,,,,,,,,,,,,,,,,,,,,,,,,
null,,rt_plussign_withcolor,469133,blue,,,,,null,US_Cities_List/mm_boulder.png,US_Cities_List/nat_shreveport.png,,,,,,,,,,,,,,,,,,,,,,,,,,,,
1308.9000000953674,,rt_thecrossant_black,470383,black_plus_sign,,,,,49,,,1,0.7796610169491526,,,,,,,,,,,,,,,,,,,,,,,,,,
null,,color_black,470491,black_plus_sign,,,,,null,,,,,,,,,,,,,,,,,,,,,,,,,,,,,,
null,,learn_phase(without_color),473037,black_plus_sign,,,,,null,US_Cities_List/nat_leesburg.png,US_Cities_List/nat_gatlinburg.png,,,,,,,,,,,,,,,,,,,,,,,,,,,,
null,,black_cross(without_color),473683,blue,,,,,null,US_Cities_List/nat_leesburg.png,US_Cities_List/nat_gatlinburg.png,,,,,,,,,,,,,,,,,,,,,,,,,,,,
null,,rt_plussign_withcolor,474191,blue,,,,,null,US_Cities_List/nat_leesburg.png,US_Cities_List/nat_gatlinburg.png,,,,,,,,,,,,,,,,,,,,,,,,,,,,
1103.2000000476837,,rt_thecrossant_black,475563,black_plus_sign,,,,,49,,,1,0.7833333333333333,,,,,,,,,,,,,,,,,,,,,,,,,,
null,,color_black,475666,black_plus_sign,,,,,null,,,,,,,,,,,,,,,,,,,,,,,,,,,,,,
null,,learn_phase(without_color),478216,black_plus_sign,,,,,null,US_Cities_List/mm_boulder.png,US_Cities_List/mm_racine.png,,,,,,,,,,,,,,,,,,,,,,,,,,,,
null,,black_cross(without_color),479290,green,,,,,null,US_Cities_List/mm_boulder.png,US_Cities_List/mm_racine.png,,,,,,,,,,,,,,,,,,,,,,,,,,,,
null,,rt_plussign_withcolor,479799,green,,,,,null,US_Cities_List/mm_boulder.png,US_Cities_List/mm_racine.png,,,,,,,,,,,,,,,,,,,,,,,,,,,,
989.2000000476837,,rt_thecrossant_black,480749,black_plus_sign,,,,,50,,,1,0.7868852459016393,,,,,,,,,,,,,,,,,,,,,,,,,,
null,,color_black,480865,black_plus_sign,,,,,null,,,,,,,,,,,,,,,,,,,,,,,,,,,,,,
null,,learn_phase(without_color),483392,black_plus_sign,,,,,null,US_Cities_List/mm_huntsville.png,US_Cities_List/nat_gatlinburg.png,,,,,,,,,,,,,,,,,,,,,,,,,,,,
null,,black_cross(without_color),483940,green,,,,,null,US_Cities_List/mm_huntsville.png,US_Cities_List/nat_gatlinburg.png,,,,,,,,,,,,,,,,,,,,,,,,,,,,
null,,rt_plussign_withcolor,484450,green,,,,,null,US_Cities_List/mm_huntsville.png,US_Cities_List/nat_gatlinburg.png,,,,,,,,,,,,,,,,,,,,,,,,,,,,
1447.9000000953674,,rt_thecrossant_black,485924,black_plus_sign,,,,,50,,,1,0.7903225806451613,,,,,,,,,,,,,,,,,,,,,,,,,,
null,,color_black,486032,black_plus_sign,,,,,null,,,,,,,,,,,,,,,,,,,,,,,,,,,,,,
null,,learn_phase(without_color),488577,black_plus_sign,,,,,null,US_Cities_List/mm_hotsprings.png,US_Cities_List/mm_huntsville.png,,,,,,,,,,,,,,,,,,,,,,,,,,,,
null,,black_cross(without_color),489092,green,,,,,null,US_Cities_List/mm_hotsprings.png,US_Cities_List/mm_huntsville.png,,,,,,,,,,,,,,,,,,,,,,,,,,,,
null,,rt_plussign_withcolor,489597,green,,,,,null,US_Cities_List/mm_hotsprings.png,US_Cities_List/mm_huntsville.png,,,,,,,,,,,,,,,,,,,,,,,,,,,,
829.6000001430511,,rt_thecrossant_black,491102,black_plus_sign,,,,,50,,,1,0.7936507936507936,,,,,,,,,,,,,,,,,,,,,,,,,,
null,,color_black,491219,black_plus_sign,,,,,null,,,,,,,,,,,,,,,,,,,,,,,,,,,,,,
null,,learn_phase(without_color),493781,black_plus_sign,,,,,null,US_Cities_List/mm_hotsprings.png,US_Cities_List/nat_gatlinburg.png,,,,,,,,,,,,,,,,,,,,,,,,,,,,
null,,black_cross(without_color),494210,green,,,,,null,US_Cities_List/mm_hotsprings.png,US_Cities_List/nat_gatlinburg.png,,,,,,,,,,,,,,,,,,,,,,,,,,,,
null,,rt_plussign_withcolor,494714,green,,,,,null,US_Cities_List/mm_hotsprings.png,US_Cities_List/nat_gatlinburg.png,,,,,,,,,,,,,,,,,,,,,,,,,,,,
793.6000001430511,,rt_thecrossant_black,496297,black_plus_sign,,,,,50,,,1,0.796875,,,,,,,,,,,,,,,,,,,,,,,,,,
null,,color_black,496404,black_plus_sign,,,,,null,,,,,,,,,,,,,,,,,,,,,,,,,,,,,,
null,,learn_phase(without_color),498969,black_plus_sign,,,,,null,US_Cities_List/mm_boulder.png,US_Cities_List/nat_shreveport.png,,,,,,,,,,,,,,,,,,,,,,,,,,,,
null,,black_cross(without_color),499711,blue,,,,,null,US_Cities_List/mm_boulder.png,US_Cities_List/nat_shreveport.png,,,,,,,,,,,,,,,,,,,,,,,,,,,,
null,,rt_plussign_withcolor,500224,blue,,,,,null,US_Cities_List/mm_boulder.png,US_Cities_List/nat_shreveport.png,,,,,,,,,,,,,,,,,,,,,,,,,,,,
943.5,,rt_thecrossant_black,501496,black_plus_sign,,,,,49,,,1,0.8,,,,,,,,,,,,,,,,,,,,,,,,,,
null,,color_black,501604,black_plus_sign,,,,,null,,,,,,,,,,,,,,,,,,,,,,,,,,,,,,
null,,learn_phase(without_color),504146,black_plus_sign,,,,,null,US_Cities_List/nat_gatlinburg.png,US_Cities_List/mm_hanover.png,,,,,,,,,,,,,,,,,,,,,,,,,,,,
null,,black_cross(without_color),504756,blue,,,,,null,US_Cities_List/nat_gatlinburg.png,US_Cities_List/mm_hanover.png,,,,,,,,,,,,,,,,,,,,,,,,,,,,
null,,rt_plussign_withcolor,505262,blue,,,,,null,US_Cities_List/nat_gatlinburg.png,US_Cities_List/mm_hanover.png,,,,,,,,,,,,,,,,,,,,,,,,,,,,
1010.1000001430511,,rt_thecrossant_black,506670,black_plus_sign,,,,,49,,,1,0.803030303030303,,,,,,,,,,,,,,,,,,,,,,,,,,
null,,color_black,506788,black_plus_sign,,,,,null,,,,,,,,,,,,,,,,,,,,,,,,,,,,,,
null,,learn_phase(without_color),509312,black_plus_sign,,,,,null,US_Cities_List/mm_racine.png,US_Cities_List/mm_hanover.png,,,,,,,,,,,,,,,,,,,,,,,,,,,,
null,,black_cross(without_color),509826,blue,,,,,null,US_Cities_List/mm_racine.png,US_Cities_List/mm_hanover.png,,,,,,,,,,,,,,,,,,,,,,,,,,,,
null,,rt_plussign_withcolor,510343,blue,,,,,null,US_Cities_List/mm_racine.png,US_Cities_List/mm_hanover.png,,,,,,,,,,,,,,,,,,,,,,,,,,,,
974.5999999046326,,rt_thecrossant_black,511846,black_plus_sign,,,,,49,,,1,0.8059701492537313,,,,,,,,,,,,,,,,,,,,,,,,,,
null,,color_black,511953,black_plus_sign,,,,,null,,,,,,,,,,,,,,,,,,,,,,,,,,,,,,
null,,learn_phase(without_color),514494,black_plus_sign,,,,,null,US_Cities_List/mm_huntsville.png,US_Cities_List/nat_leesburg.png,,,,,,,,,,,,,,,,,,,,,,,,,,,,
null,,black_cross(without_color),515252,blue,,,,,null,US_Cities_List/mm_huntsville.png,US_Cities_List/nat_leesburg.png,,,,,,,,,,,,,,,,,,,,,,,,,,,,
480.2000000476837,,rt_plussign_withcolor,515754,blue,,,,,49,US_Cities_List/mm_huntsville.png,US_Cities_List/nat_leesburg.png,,,,,,,,,,,,,,,,,,,,,,,,,,,,
null,,rt_thecrossant_black,517015,black_plus_sign,,,,,null,,,1,0.8088235294117647,,,,,,,,,,,,,,,,,,,,,,,,,,
null,,color_black,517132,black_plus_sign,,,,,null,,,,,,,,,,,,,,,,,,,,,,,,,,,,,,
null,,learn_phase(without_color),519686,black_plus_sign,,,,,null,US_Cities_List/mm_hotsprings.png,US_Cities_List/mm_huntsville.png,,,,,,,,,,,,,,,,,,,,,,,,,,,,
null,,black_cross(without_color),520359,green,,,,,null,US_Cities_List/mm_hotsprings.png,US_Cities_List/mm_huntsville.png,,,,,,,,,,,,,,,,,,,,,,,,,,,,
null,,rt_plussign_withcolor,520868,green,,,,,null,US_Cities_List/mm_hotsprings.png,US_Cities_List/mm_huntsville.png,,,,,,,,,,,,,,,,,,,,,,,,,,,,
1059.5999999046326,,rt_thecrossant_black,522209,black_plus_sign,,,,,50,,,1,0.8115942028985508,,,,,,,,,,,,,,,,,,,,,,,,,,
null,,color_black,522317,black_plus_sign,,,,,null,,,,,,,,,,,,,,,,,,,,,,,,,,,,,,
null,,learn_phase(without_color),524869,black_plus_sign,,,,,null,US_Cities_List/mm_boulder.png,US_Cities_List/mm_racine.png,,,,,,,,,,,,,,,,,,,,,,,,,,,,
null,,black_cross(without_color),525356,green,,,,,null,US_Cities_List/mm_boulder.png,US_Cities_List/mm_racine.png,,,,,,,,,,,,,,,,,,,,,,,,,,,,
null,,rt_plussign_withcolor,525866,green,,,,,null,US_Cities_List/mm_boulder.png,US_Cities_List/mm_racine.png,,,,,,,,,,,,,,,,,,,,,,,,,,,,
882.5999999046326,,rt_thecrossant_black,527392,black_plus_sign,,,,,50,,,1,0.8142857142857143,,,,,,,,,,,,,,,,,,,,,,,,,,
null,,color_black,527502,black_plus_sign,,,,,null,,,,,,,,,,,,,,,,,,,,,,,,,,,,,,
null,,learn_phase(without_color),530060,black_plus_sign,,,,,null,US_Cities_List/mm_boulder.png,US_Cities_List/nat_shreveport.png,,,,,,,,,,,,,,,,,,,,,,,,,,,,
null,,black_cross(without_color),530809,green,,,,,null,US_Cities_List/mm_boulder.png,US_Cities_List/nat_shreveport.png,,,,,,,,,,,,,,,,,,,,,,,,,,,,
null,,rt_plussign_withcolor,531319,green,,,,,null,US_Cities_List/mm_boulder.png,US_Cities_List/nat_shreveport.png,,,,,,,,,,,,,,,,,,,,,,,,,,,,
919,,rt_thecrossant_black,532583,black_plus_sign,,,,,50,,,1,0.8169014084507042,,,,,,,,,,,,,,,,,,,,,,,,,,
null,,color_black,532692,black_plus_sign,,,,,null,,,,,,,,,,,,,,,,,,,,,,,,,,,,,,
null,,learn_phase(without_color),535245,black_plus_sign,,,,,null,US_Cities_List/mm_huntsville.png,US_Cities_List/mm_westpalmbeach.png,,,,,,,,,,,,,,,,,,,,,,,,,,,,
null,,black_cross(without_color),536116,blue,,,,,null,US_Cities_List/mm_huntsville.png,US_Cities_List/mm_westpalmbeach.png,,,,,,,,,,,,,,,,,,,,,,,,,,,,
null,,rt_plussign_withcolor,536618,blue,,,,,null,US_Cities_List/mm_huntsville.png,US_Cities_List/mm_westpalmbeach.png,,,,,,,,,,,,,,,,,,,,,,,,,,,,
1172.6000001430511,,rt_thecrossant_black,537766,black_plus_sign,,,,,49,,,1,0.8194444444444444,,,,,,,,,,,,,,,,,,,,,,,,,,
null,,color_black,537874,black_plus_sign,,,,,null,,,,,,,,,,,,,,,,,,,,,,,,,,,,,,
null,,learn_phase(without_color),540436,black_plus_sign,,,,,null,US_Cities_List/nat_leesburg.png,US_Cities_List/nat_gatlinburg.png,,,,,,,,,,,,,,,,,,,,,,,,,,,,
null,,black_cross(without_color),541518,green,,,,,null,US_Cities_List/nat_leesburg.png,US_Cities_List/nat_gatlinburg.png,,,,,,,,,,,,,,,,,,,,,,,,,,,,
null,,rt_plussign_withcolor,542031,green,,,,,null,US_Cities_List/nat_leesburg.png,US_Cities_List/nat_gatlinburg.png,,,,,,,,,,,,,,,,,,,,,,,,,,,,
1252.5,,rt_thecrossant_black,542976,black_plus_sign,,,,,50,,,1,0.821917808219178,,,,,,,,,,,,,,,,,,,,,,,,,,
null,,color_black,543084,black_plus_sign,,,,,null,,,,,,,,,,,,,,,,,,,,,,,,,,,,,,
null,,learn_phase(without_color),545633,black_plus_sign,,,,,null,US_Cities_List/mm_hanover.png,US_Cities_List/mm_cornwall.png,,,,,,,,,,,,,,,,,,,,,,,,,,,,
null,,black_cross(without_color),546514,blue,,,,,null,US_Cities_List/mm_hanover.png,US_Cities_List/mm_cornwall.png,,,,,,,,,,,,,,,,,,,,,,,,,,,,
null,,rt_plussign_withcolor,547017,blue,,,,,null,US_Cities_List/mm_hanover.png,US_Cities_List/mm_cornwall.png,,,,,,,,,,,,,,,,,,,,,,,,,,,,
1436.5,,rt_thecrossant_black,548147,black_plus_sign,,,,,49,,,1,0.8243243243243243,,,,,,,,,,,,,,,,,,,,,,,,,,
null,,color_black,548257,black_plus_sign,,,,,null,,,,,,,,,,,,,,,,,,,,,,,,,,,,,,
null,,learn_phase(without_color),550815,black_plus_sign,,,,,null,US_Cities_List/nat_shreveport.png,US_Cities_List/mm_cornwall.png,,,,,,,,,,,,,,,,,,,,,,,,,,,,
null,,black_cross(without_color),551356,blue,,,,,null,US_Cities_List/nat_shreveport.png,US_Cities_List/mm_cornwall.png,,,,,,,,,,,,,,,,,,,,,,,,,,,,
null,,rt_plussign_withcolor,551864,blue,,,,,null,US_Cities_List/nat_shreveport.png,US_Cities_List/mm_cornwall.png,,,,,,,,,,,,,,,,,,,,,,,,,,,,
1031.5,,rt_thecrossant_black,553339,black_plus_sign,,,,,49,,,1,0.8266666666666667,,,,,,,,,,,,,,,,,,,,,,,,,,
null,,color_black,553448,black_plus_sign,,,,,null,,,,,,,,,,,,,,,,,,,,,,,,,,,,,,
null,,learn_phase(without_color),555990,black_plus_sign,,,,,null,US_Cities_List/mm_racine.png,US_Cities_List/mm_hotsprings.png,,,,,,,,,,,,,,,,,,,,,,,,,,,,
null,,black_cross(without_color),556855,blue,,,,,null,US_Cities_List/mm_racine.png,US_Cities_List/mm_hotsprings.png,,,,,,,,,,,,,,,,,,,,,,,,,,,,
null,,rt_plussign_withcolor,557364,blue,,,,,null,US_Cities_List/mm_racine.png,US_Cities_List/mm_hotsprings.png,,,,,,,,,,,,,,,,,,,,,,,,,,,,
867.5,,rt_thecrossant_black,558517,black_plus_sign,,,,,49,,,1,0.8289473684210527,,,,,,,,,,,,,,,,,,,,,,,,,,
null,,color_black,558624,black_plus_sign,,,,,null,,,,,,,,,,,,,,,,,,,,,,,,,,,,,,
null,,learn_phase(without_color),561148,black_plus_sign,,,,,null,US_Cities_List/nat_shreveport.png,US_Cities_List/mm_cornwall.png,,,,,,,,,,,,,,,,,,,,,,,,,,,,
null,,black_cross(without_color),561955,green,,,,,null,US_Cities_List/nat_shreveport.png,US_Cities_List/mm_cornwall.png,,,,,,,,,,,,,,,,,,,,,,,,,,,,
null,,rt_plussign_withcolor,562464,green,,,,,null,US_Cities_List/nat_shreveport.png,US_Cities_List/mm_cornwall.png,,,,,,,,,,,,,,,,,,,,,,,,,,,,
1021.8000001907349,,rt_thecrossant_black,563672,black_plus_sign,,,,,50,,,1,0.8311688311688312,,,,,,,,,,,,,,,,,,,,,,,,,,
null,,color_black,563780,black_plus_sign,,,,,null,,,,,,,,,,,,,,,,,,,,,,,,,,,,,,
null,,learn_phase(without_color),566322,black_plus_sign,,,,,null,US_Cities_List/nat_peoria.png,US_Cities_List/mm_boulder.png,,,,,,,,,,,,,,,,,,,,,,,,,,,,
null,,black_cross(without_color),566896,green,,,,,null,US_Cities_List/nat_peoria.png,US_Cities_List/mm_boulder.png,,,,,,,,,,,,,,,,,,,,,,,,,,,,
null,,rt_plussign_withcolor,567413,green,,,,,null,US_Cities_List/nat_peoria.png,US_Cities_List/mm_boulder.png,,,,,,,,,,,,,,,,,,,,,,,,,,,,
1086.3999998569489,,rt_thecrossant_black,568847,black_plus_sign,,,,,50,,,1,0.8333333333333334,,,,,,,,,,,,,,,,,,,,,,,,,,
null,,color_black,568962,black_plus_sign,,,,,null,,,,,,,,,,,,,,,,,,,,,,,,,,,,,,
null,,learn_phase(without_color),571487,black_plus_sign,,,,,null,US_Cities_List/mm_hotsprings.png,US_Cities_List/nat_gatlinburg.png,,,,,,,,,,,,,,,,,,,,,,,,,,,,
null,,black_cross(without_color),571978,green,,,,,null,US_Cities_List/mm_hotsprings.png,US_Cities_List/nat_gatlinburg.png,,,,,,,,,,,,,,,,,,,,,,,,,,,,
null,,rt_plussign_withcolor,572487,green,,,,,null,US_Cities_List/mm_hotsprings.png,US_Cities_List/nat_gatlinburg.png,,,,,,,,,,,,,,,,,,,,,,,,,,,,
756.5999999046326,,rt_thecrossant_black,574011,black_plus_sign,,,,,50,,,1,0.8354430379746836,,,,,,,,,,,,,,,,,,,,,,,,,,
null,,color_black,574119,black_plus_sign,,,,,null,,,,,,,,,,,,,,,,,,,,,,,,,,,,,,
null,,learn_phase(without_color),576669,black_plus_sign,,,,,null,US_Cities_List/mm_hotsprings.png,US_Cities_List/mm_huntsville.png,,,,,,,,,,,,,,,,,,,,,,,,,,,,
null,,black_cross(without_color),577116,green,,,,,null,US_Cities_List/mm_hotsprings.png,US_Cities_List/mm_huntsville.png,,,,,,,,,,,,,,,,,,,,,,,,,,,,
null,,rt_plussign_withcolor,577624,green,,,,,null,US_Cities_List/mm_hotsprings.png,US_Cities_List/mm_huntsville.png,,,,,,,,,,,,,,,,,,,,,,,,,,,,
636,,rt_thecrossant_black,579191,black_plus_sign,,,,,49,,,0,0.825,,,,,,,,,,,,,,,,,,,,,,,,,,
null,,color_black,579303,black_plus_sign,,,,,null,,,,,,,,,,,,,,,,,,,,,,,,,,,,,,
null,,learn_phase(without_color),581851,black_plus_sign,,,,,null,US_Cities_List/nat_leesburg.png,US_Cities_List/nat_carmel.png,,,,,,,,,,,,,,,,,,,,,,,,,,,,
null,,black_cross(without_color),582268,green,,,,,null,US_Cities_List/nat_leesburg.png,US_Cities_List/nat_carmel.png,,,,,,,,,,,,,,,,,,,,,,,,,,,,
null,,rt_plussign_withcolor,582779,green,,,,,null,US_Cities_List/nat_leesburg.png,US_Cities_List/nat_carmel.png,,,,,,,,,,,,,,,,,,,,,,,,,,,,
828,,rt_thecrossant_black,584369,black_plus_sign,,,,,50,,,1,0.8271604938271605,,,,,,,,,,,,,,,,,,,,,,,,,,
null,,color_black,584477,black_plus_sign,,,,,null,,,,,,,,,,,,,,,,,,,,,,,,,,,,,,
null,,learn_phase(without_color),587026,black_plus_sign,,,,,null,US_Cities_List/mm_hanover.png,US_Cities_List/mm_cornwall.png,,,,,,,,,,,,,,,,,,,,,,,,,,,,
null,,black_cross(without_color),587627,green,,,,,null,US_Cities_List/mm_hanover.png,US_Cities_List/mm_cornwall.png,,,,,,,,,,,,,,,,,,,,,,,,,,,,
null,,rt_plussign_withcolor,588135,green,,,,,null,US_Cities_List/mm_hanover.png,US_Cities_List/mm_cornwall.png,,,,,,,,,,,,,,,,,,,,,,,,,,,,
721.7999999523163,,rt_thecrossant_black,589543,black_plus_sign,,,,,50,,,1,0.8292682926829268,,,,,,,,,,,,,,,,,,,,,,,,,,
null,,color_black,589661,black_plus_sign,,,,,null,,,,,,,,,,,,,,,,,,,,,,,,,,,,,,
null,,learn_phase(without_color),592206,black_plus_sign,,,,,null,US_Cities_List/mm_racine.png,US_Cities_List/mm_hanover.png,,,,,,,,,,,,,,,,,,,,,,,,,,,,
null,,black_cross(without_color),592749,blue,,,,,null,US_Cities_List/mm_racine.png,US_Cities_List/mm_hanover.png,,,,,,,,,,,,,,,,,,,,,,,,,,,,
null,,rt_plussign_withcolor,593251,blue,,,,,null,US_Cities_List/mm_racine.png,US_Cities_List/mm_hanover.png,,,,,,,,,,,,,,,,,,,,,,,,,,,,
1027.4000000953674,,rt_thecrossant_black,594721,black_plus_sign,,,,,49,,,1,0.8313253012048193,,,,,,,,,,,,,,,,,,,,,,,,,,
null,,color_black,594825,black_plus_sign,,,,,null,,,,,,,,,,,,,,,,,,,,,,,,,,,,,,
null,,learn_phase(without_color),597365,black_plus_sign,,,,,null,US_Cities_List/mm_huntsville.png,US_Cities_List/nat_gatlinburg.png,,,,,,,,,,,,,,,,,,,,,,,,,,,,
null,,black_cross(without_color),598074,green,,,,,null,US_Cities_List/mm_huntsville.png,US_Cities_List/nat_gatlinburg.png,,,,,,,,,,,,,,,,,,,,,,,,,,,,
null,,rt_plussign_withcolor,598583,green,,,,,null,US_Cities_List/mm_huntsville.png,US_Cities_List/nat_gatlinburg.png,,,,,,,,,,,,,,,,,,,,,,,,,,,,
731,,rt_thecrossant_black,599885,black_plus_sign,,,,,50,,,1,0.8333333333333334,,,,,,,,,,,,,,,,,,,,,,,,,,
null,,color_black,600001,black_plus_sign,,,,,null,,,,,,,,,,,,,,,,,,,,,,,,,,,,,,
null,,learn_phase(without_color),602555,black_plus_sign,,,,,null,US_Cities_List/mm_hanover.png,US_Cities_List/mm_cornwall.png,,,,,,,,,,,,,,,,,,,,,,,,,,,,
null,,black_cross(without_color),603222,green,,,,,null,US_Cities_List/mm_hanover.png,US_Cities_List/mm_cornwall.png,,,,,,,,,,,,,,,,,,,,,,,,,,,,
null,,rt_plussign_withcolor,603725,green,,,,,null,US_Cities_List/mm_hanover.png,US_Cities_List/mm_cornwall.png,,,,,,,,,,,,,,,,,,,,,,,,,,,,
1009.8999998569489,,rt_thecrossant_black,605066,black_plus_sign,,,,,50,,,1,0.8352941176470589,,,,,,,,,,,,,,,,,,,,,,,,,,
null,,color_black,605183,black_plus_sign,,,,,null,,,,,,,,,,,,,,,,,,,,,,,,,,,,,,
null,,learn_phase(without_color),607747,black_plus_sign,,,,,null,US_Cities_List/mm_racine.png,US_Cities_List/mm_hanover.png,,,,,,,,,,,,,,,,,,,,,,,,,,,,
null,,black_cross(without_color),608249,blue,,,,,null,US_Cities_List/mm_racine.png,US_Cities_List/mm_hanover.png,,,,,,,,,,,,,,,,,,,,,,,,,,,,
null,,rt_plussign_withcolor,608757,blue,,,,,null,US_Cities_List/mm_racine.png,US_Cities_List/mm_hanover.png,,,,,,,,,,,,,,,,,,,,,,,,,,,,
1168.9000000953674,,rt_thecrossant_black,610282,black_plus_sign,,,,,49,,,1,0.8372093023255814,,,,,,,,,,,,,,,,,,,,,,,,,,
null,,color_black,610398,black_plus_sign,,,,,null,,,,,,,,,,,,,,,,,,,,,,,,,,,,,,
null,,learn_phase(without_color),612948,black_plus_sign,,,,,null,US_Cities_List/nat_peoria.png,US_Cities_List/mm_boulder.png,,,,,,,,,,,,,,,,,,,,,,,,,,,,
null,,black_cross(without_color),613382,green,,,,,null,US_Cities_List/nat_peoria.png,US_Cities_List/mm_boulder.png,,,,,,,,,,,,,,,,,,,,,,,,,,,,
null,,rt_plussign_withcolor,613890,green,,,,,null,US_Cities_List/nat_peoria.png,US_Cities_List/mm_boulder.png,,,,,,,,,,,,,,,,,,,,,,,,,,,,
851.7999999523163,,rt_thecrossant_black,615481,black_plus_sign,,,,,50,,,1,0.8390804597701149,,,,,,,,,,,,,,,,,,,,,,,,,,
null,,color_black,615590,black_plus_sign,,,,,null,,,,,,,,,,,,,,,,,,,,,,,,,,,,,,
null,,learn_phase(without_color),618149,black_plus_sign,,,,,null,US_Cities_List/nat_shreveport.png,US_Cities_List/nat_newhope.png,,,,,,,,,,,,,,,,,,,,,,,,,,,,
null,,black_cross(without_color),618752,blue,,,,,null,US_Cities_List/nat_shreveport.png,US_Cities_List/nat_newhope.png,,,,,,,,,,,,,,,,,,,,,,,,,,,,
485.2000000476837,,rt_plussign_withcolor,619254,blue,,,,,49,US_Cities_List/nat_shreveport.png,US_Cities_List/nat_newhope.png,,,,,,,,,,,,,,,,,,,,,,,,,,,,
null,,rt_thecrossant_black,620664,black_plus_sign,,,,,null,,,1,0.8409090909090909,,,,,,,,,,,,,,,,,,,,,,,,,,
null,,color_black,620782,black_plus_sign,,,,,null,,,,,,,,,,,,,,,,,,,,,,,,,,,,,,
null,,learn_phase(without_color),623330,black_plus_sign,,,,,null,US_Cities_List/mm_huntsville.png,US_Cities_List/mm_westpalmbeach.png,,,,,,,,,,,,,,,,,,,,,,,,,,,,
null,,black_cross(without_color),624005,blue,,,,,null,US_Cities_List/mm_huntsville.png,US_Cities_List/mm_westpalmbeach.png,,,,,,,,,,,,,,,,,,,,,,,,,,,,
478.40000009536743,,rt_plussign_withcolor,624515,blue,,,,,49,US_Cities_List/mm_huntsville.png,US_Cities_List/mm_westpalmbeach.png,,,,,,,,,,,,,,,,,,,,,,,,,,,,
null,,rt_thecrossant_black,625855,black_plus_sign,,,,,null,,,1,0.8426966292134831,,,,,,,,,,,,,,,,,,,,,,,,,,
null,,color_black,625963,black_plus_sign,,,,,null,,,,,,,,,,,,,,,,,,,,,,,,,,,,,,
null,,learn_phase(without_color),628529,black_plus_sign,,,,,null,US_Cities_List/mm_huntsville.png,US_Cities_List/nat_gatlinburg.png,,,,,,,,,,,,,,,,,,,,,,,,,,,,
null,,black_cross(without_color),629370,blue,,,,,null,US_Cities_List/mm_huntsville.png,US_Cities_List/nat_gatlinburg.png,,,,,,,,,,,,,,,,,,,,,,,,,,,,
null,,rt_plussign_withcolor,629888,blue,,,,,null,US_Cities_List/mm_huntsville.png,US_Cities_List/nat_gatlinburg.png,,,,,,,,,,,,,,,,,,,,,,,,,,,,
895.7999999523163,,rt_thecrossant_black,631059,black_plus_sign,,,,,49,,,1,0.8444444444444444,,,,,,,,,,,,,,,,,,,,,,,,,,
null,,color_black,631168,black_plus_sign,,,,,null,,,,,,,,,,,,,,,,,,,,,,,,,,,,,,
null,,learn_phase(without_color),633720,black_plus_sign,,,,,null,US_Cities_List/mm_racine.png,US_Cities_List/mm_hotsprings.png,,,,,,,,,,,,,,,,,,,,,,,,,,,,
null,,black_cross(without_color),634438,green,,,,,null,US_Cities_List/mm_racine.png,US_Cities_List/mm_hotsprings.png,,,,,,,,,,,,,,,,,,,,,,,,,,,,
null,,rt_plussign_withcolor,634945,green,,,,,null,US_Cities_List/mm_racine.png,US_Cities_List/mm_hotsprings.png,,,,,,,,,,,,,,,,,,,,,,,,,,,,
1171.7999999523163,,rt_thecrossant_black,636245,black_plus_sign,,,,,50,,,1,0.8461538461538461,,,,,,,,,,,,,,,,,,,,,,,,,,
null,,color_black,636361,black_plus_sign,,,,,null,,,,,,,,,,,,,,,,,,,,,,,,,,,,,,
null,,learn_phase(without_color),638928,black_plus_sign,,,,,null,US_Cities_List/mm_hotsprings.png,US_Cities_List/nat_gatlinburg.png,,,,,,,,,,,,,,,,,,,,,,,,,,,,
null,,black_cross(without_color),639971,green,,,,,null,US_Cities_List/mm_hotsprings.png,US_Cities_List/nat_gatlinburg.png,,,,,,,,,,,,,,,,,,,,,,,,,,,,
null,,rt_plussign_withcolor,640478,green,,,,,null,US_Cities_List/mm_hotsprings.png,US_Cities_List/nat_gatlinburg.png,,,,,,,,,,,,,,,,,,,,,,,,,,,,
1079.5999999046326,,rt_thecrossant_black,641446,black_plus_sign,,,,,50,,,1,0.8478260869565217,,,,,,,,,,,,,,,,,,,,,,,,,,
null,,color_black,641554,black_plus_sign,,,,,null,,,,,,,,,,,,,,,,,,,,,,,,,,,,,,
null,,learn_phase(without_color),644119,black_plus_sign,,,,,null,US_Cities_List/mm_racine.png,US_Cities_List/mm_hotsprings.png,,,,,,,,,,,,,,,,,,,,,,,,,,,,
null,,black_cross(without_color),645082,green,,,,,null,US_Cities_List/mm_racine.png,US_Cities_List/mm_hotsprings.png,,,,,,,,,,,,,,,,,,,,,,,,,,,,
null,,rt_plussign_withcolor,645587,green,,,,,null,US_Cities_List/mm_racine.png,US_Cities_List/mm_hotsprings.png,,,,,,,,,,,,,,,,,,,,,,,,,,,,
1360.0999999046326,,rt_thecrossant_black,646637,black_plus_sign,,,,,50,,,1,0.8494623655913979,,,,,,,,,,,,,,,,,,,,,,,,,,
null,,color_black,646744,black_plus_sign,,,,,null,,,,,,,,,,,,,,,,,,,,,,,,,,,,,,
null,,learn_phase(without_color),649286,black_plus_sign,,,,,null,US_Cities_List/mm_huntsville.png,US_Cities_List/nat_gatlinburg.png,,,,,,,,,,,,,,,,,,,,,,,,,,,,
null,,black_cross(without_color),649994,blue,,,,,null,US_Cities_List/mm_huntsville.png,US_Cities_List/nat_gatlinburg.png,,,,,,,,,,,,,,,,,,,,,,,,,,,,
484.2999999523163,,rt_plussign_withcolor,650502,blue,,,,,49,US_Cities_List/mm_huntsville.png,US_Cities_List/nat_gatlinburg.png,,,,,,,,,,,,,,,,,,,,,,,,,,,,
null,,rt_thecrossant_black,651801,black_plus_sign,,,,,null,,,1,0.851063829787234,,,,,,,,,,,,,,,,,,,,,,,,,,
null,,color_black,651911,black_plus_sign,,,,,null,,,,,,,,,,,,,,,,,,,,,,,,,,,,,,
null,,learn_phase(without_color),654476,black_plus_sign,,,,,null,US_Cities_List/mm_boulder.png,US_Cities_List/mm_racine.png,,,,,,,,,,,,,,,,,,,,,,,,,,,,
null,,black_cross(without_color),655059,green,,,,,null,US_Cities_List/mm_boulder.png,US_Cities_List/mm_racine.png,,,,,,,,,,,,,,,,,,,,,,,,,,,,
null,,rt_plussign_withcolor,655568,green,,,,,null,US_Cities_List/mm_boulder.png,US_Cities_List/mm_racine.png,,,,,,,,,,,,,,,,,,,,,,,,,,,,
995.6999998092651,,rt_thecrossant_black,657009,black_plus_sign,,,,,50,,,1,0.8526315789473684,,,,,,,,,,,,,,,,,,,,,,,,,,
null,,color_black,657118,black_plus_sign,,,,,null,,,,,,,,,,,,,,,,,,,,,,,,,,,,,,
null,,learn_phase(without_color),659674,black_plus_sign,,,,,null,US_Cities_List/nat_shreveport.png,US_Cities_List/nat_newhope.png,,,,,,,,,,,,,,,,,,,,,,,,,,,,
null,,black_cross(without_color),660616,green,,,,,null,US_Cities_List/nat_shreveport.png,US_Cities_List/nat_newhope.png,,,,,,,,,,,,,,,,,,,,,,,,,,,,
null,,rt_plussign_withcolor,661127,green,,,,,null,US_Cities_List/nat_shreveport.png,US_Cities_List/nat_newhope.png,,,,,,,,,,,,,,,,,,,,,,,,,,,,
942.8000001907349,,rt_thecrossant_black,662201,black_plus_sign,,,,,50,,,1,0.8541666666666666,,,,,,,,,,,,,,,,,,,,,,,,,,
null,,color_black,662308,black_plus_sign,,,,,null,,,,,,,,,,,,,,,,,,,,,,,,,,,,,,
null,,learn_phase(without_color),664851,black_plus_sign,,,,,null,US_Cities_List/nat_peoria.png,US_Cities_List/mm_boulder.png,,,,,,,,,,,,,,,,,,,,,,,,,,,,
null,,black_cross(without_color),665541,green,,,,,null,US_Cities_List/nat_peoria.png,US_Cities_List/mm_boulder.png,,,,,,,,,,,,,,,,,,,,,,,,,,,,
null,,rt_plussign_withcolor,666043,green,,,,,null,US_Cities_List/nat_peoria.png,US_Cities_List/mm_boulder.png,,,,,,,,,,,,,,,,,,,,,,,,,,,,
1210.8999998569489,,rt_thecrossant_black,667376,black_plus_sign,,,,,50,,,1,0.8556701030927835,,,,,,,,,,,,,,,,,,,,,,,,,,
null,,color_black,667492,black_plus_sign,,,,,null,,,,,,,,,,,,,,,,,,,,,,,,,,,,,,
null,,learn_phase(without_color),670040,black_plus_sign,,,,,null,US_Cities_List/mm_hotsprings.png,US_Cities_List/nat_gatlinburg.png,,,,,,,,,,,,,,,,,,,,,,,,,,,,
null,,black_cross(without_color),670633,green,,,,,null,US_Cities_List/mm_hotsprings.png,US_Cities_List/nat_gatlinburg.png,,,,,,,,,,,,,,,,,,,,,,,,,,,,
null,,rt_plussign_withcolor,671139,green,,,,,null,US_Cities_List/mm_hotsprings.png,US_Cities_List/nat_gatlinburg.png,,,,,,,,,,,,,,,,,,,,,,,,,,,,
1097.0999999046326,,rt_thecrossant_black,672561,black_plus_sign,,,,,50,,,1,0.8571428571428571,,,,,,,,,,,,,,,,,,,,,,,,,,
null,,color_black,672669,black_plus_sign,,,,,null,,,,,,,,,,,,,,,,,,,,,,,,,,,,,,
null,,learn_phase(without_color),675224,black_plus_sign,,,,,null,US_Cities_List/nat_gatlinburg.png,US_Cities_List/mm_hanover.png,,,,,,,,,,,,,,,,,,,,,,,,,,,,
null,,black_cross(without_color),676294,green,,,,,null,US_Cities_List/nat_gatlinburg.png,US_Cities_List/mm_hanover.png,,,,,,,,,,,,,,,,,,,,,,,,,,,,
null,,rt_plussign_withcolor,676798,green,,,,,null,US_Cities_List/nat_gatlinburg.png,US_Cities_List/mm_hanover.png,,,,,,,,,,,,,,,,,,,,,,,,,,,,
963.8999998569489,,rt_thecrossant_black,677740,black_plus_sign,,,,,50,,,1,0.8585858585858586,,,,,,,,,,,,,,,,,,,,,,,,,,
null,,color_black,677851,black_plus_sign,,,,,null,,,,,,,,,,,,,,,,,,,,,,,,,,,,,,
null,,learn_phase(without_color),680398,black_plus_sign,,,,,null,US_Cities_List/nat_leesburg.png,US_Cities_List/nat_carmel.png,,,,,,,,,,,,,,,,,,,,,,,,,,,,
null,,black_cross(without_color),681489,green,,,,,null,US_Cities_List/nat_leesburg.png,US_Cities_List/nat_carmel.png,,,,,,,,,,,,,,,,,,,,,,,,,,,,
null,,rt_plussign_withcolor,681998,green,,,,,null,US_Cities_List/nat_leesburg.png,US_Cities_List/nat_carmel.png,,,,,,,,,,,,,,,,,,,,,,,,,,,,
1393.2999999523163,,rt_thecrossant_black,682922,black_plus_sign,,,,,50,,,1,0.86,,,,,,,,,,,,,,,,,,,,,,,,,,
null,,color_black,683039,black_plus_sign,,,,,null,,,,,,,,,,,,,,,,,,,,,,,,,,,,,,
null,,learn_phase(without_color),685597,black_plus_sign,,,,,null,US_Cities_List/mm_racine.png,US_Cities_List/mm_hotsprings.png,,,,,,,,,,,,,,,,,,,,,,,,,,,,
null,,black_cross(without_color),686688,green,,,,,null,US_Cities_List/mm_racine.png,US_Cities_List/mm_hotsprings.png,,,,,,,,,,,,,,,,,,,,,,,,,,,,
null,,rt_plussign_withcolor,687190,green,,,,,null,US_Cities_List/mm_racine.png,US_Cities_List/mm_hotsprings.png,,,,,,,,,,,,,,,,,,,,,,,,,,,,
1568.4000000953674,,rt_thecrossant_black,688115,black_plus_sign,,,,,50,,,1,0.8613861386138614,,,,,,,,,,,,,,,,,,,,,,,,,,
null,,color_black,688221,black_plus_sign,,,,,null,,,,,,,,,,,,,,,,,,,,,,,,,,,,,,
null,,learn_phase(without_color),690772,black_plus_sign,,,,,null,US_Cities_List/mm_huntsville.png,US_Cities_List/mm_westpalmbeach.png,,,,,,,,,,,,,,,,,,,,,,,,,,,,
null,,black_cross(without_color),691538,blue,,,,,null,US_Cities_List/mm_huntsville.png,US_Cities_List/mm_westpalmbeach.png,,,,,,,,,,,,,,,,,,,,,,,,,,,,
null,,rt_plussign_withcolor,692049,blue,,,,,null,US_Cities_List/mm_huntsville.png,US_Cities_List/mm_westpalmbeach.png,,,,,,,,,,,,,,,,,,,,,,,,,,,,
1568.5999999046326,,rt_thecrossant_black,693293,black_plus_sign,,,,,49,,,1,0.8627450980392157,,,,,,,,,,,,,,,,,,,,,,,,,,
null,,color_black,693399,black_plus_sign,,,,,null,,,,,,,,,,,,,,,,,,,,,,,,,,,,,,
null,,learn_phase(without_color),695924,black_plus_sign,,,,,null,US_Cities_List/nat_peoria.png,US_Cities_List/mm_boulder.png,,,,,,,,,,,,,,,,,,,,,,,,,,,,
null,,black_cross(without_color),696478,blue,,,,,null,US_Cities_List/nat_peoria.png,US_Cities_List/mm_boulder.png,,,,,,,,,,,,,,,,,,,,,,,,,,,,
null,,rt_plussign_withcolor,696995,blue,,,,,null,US_Cities_List/nat_peoria.png,US_Cities_List/mm_boulder.png,,,,,,,,,,,,,,,,,,,,,,,,,,,,
1227.1999998092651,,rt_thecrossant_black,698463,black_plus_sign,,,,,49,,,1,0.8640776699029126,,,,,,,,,,,,,,,,,,,,,,,,,,
null,,color_black,698572,black_plus_sign,,,,,null,,,,,,,,,,,,,,,,,,,,,,,,,,,,,,
null,,learn_phase(without_color),701120,black_plus_sign,,,,,null,US_Cities_List/nat_shreveport.png,US_Cities_List/mm_cornwall.png,,,,,,,,,,,,,,,,,,,,,,,,,,,,
null,,black_cross(without_color),701547,blue,,,,,null,US_Cities_List/nat_shreveport.png,US_Cities_List/mm_cornwall.png,,,,,,,,,,,,,,,,,,,,,,,,,,,,
null,,rt_plussign_withcolor,702052,blue,,,,,null,US_Cities_List/nat_shreveport.png,US_Cities_List/mm_cornwall.png,,,,,,,,,,,,,,,,,,,,,,,,,,,,
815.9000000953674,,rt_thecrossant_black,703644,black_plus_sign,,,,,49,,,1,0.8653846153846154,,,,,,,,,,,,,,,,,,,,,,,,,,
null,,color_black,703749,black_plus_sign,,,,,null,,,,,,,,,,,,,,,,,,,,,,,,,,,,,,
null,,learn_phase(without_color),706308,black_plus_sign,,,,,null,US_Cities_List/mm_huntsville.png,US_Cities_List/nat_gatlinburg.png,,,,,,,,,,,,,,,,,,,,,,,,,,,,
null,,black_cross(without_color),707070,blue,,,,,null,US_Cities_List/mm_huntsville.png,US_Cities_List/nat_gatlinburg.png,,,,,,,,,,,,,,,,,,,,,,,,,,,,
null,,rt_plussign_withcolor,707578,blue,,,,,null,US_Cities_List/mm_huntsville.png,US_Cities_List/nat_gatlinburg.png,,,,,,,,,,,,,,,,,,,,,,,,,,,,
717.6999998092651,,rt_thecrossant_black,708830,black_plus_sign,,,,,49,,,1,0.8666666666666667,,,,,,,,,,,,,,,,,,,,,,,,,,
null,,color_black,708936,black_plus_sign,,,,,null,,,,,,,,,,,,,,,,,,,,,,,,,,,,,,
null,,learn_phase(without_color),711494,black_plus_sign,,,,,null,US_Cities_List/mm_huntsville.png,US_Cities_List/nat_leesburg.png,,,,,,,,,,,,,,,,,,,,,,,,,,,,
null,,black_cross(without_color),711969,green,,,,,null,US_Cities_List/mm_huntsville.png,US_Cities_List/nat_leesburg.png,,,,,,,,,,,,,,,,,,,,,,,,,,,,
null,,rt_plussign_withcolor,712477,green,,,,,null,US_Cities_List/mm_huntsville.png,US_Cities_List/nat_leesburg.png,,,,,,,,,,,,,,,,,,,,,,,,,,,,
1113.2000000476837,,rt_thecrossant_black,714030,black_plus_sign,,,,,50,,,1,0.8679245283018868,,,,,,,,,,,,,,,,,,,,,,,,,,
null,,color_black,714139,black_plus_sign,,,,,null,,,,,,,,,,,,,,,,,,,,,,,,,,,,,,
null,,learn_phase(without_color),716702,black_plus_sign,,,,,null,US_Cities_List/mm_hotsprings.png,US_Cities_List/mm_huntsville.png,,,,,,,,,,,,,,,,,,,,,,,,,,,,
null,,black_cross(without_color),717767,green,,,,,null,US_Cities_List/mm_hotsprings.png,US_Cities_List/mm_huntsville.png,,,,,,,,,,,,,,,,,,,,,,,,,,,,
null,,rt_plussign_withcolor,718279,green,,,,,null,US_Cities_List/mm_hotsprings.png,US_Cities_List/mm_huntsville.png,,,,,,,,,,,,,,,,,,,,,,,,,,,,
779.7000000476837,,rt_thecrossant_black,719227,black_plus_sign,,,,,50,,,1,0.8691588785046729,,,,,,,,,,,,,,,,,,,,,,,,,,
null,,color_black,719334,black_plus_sign,,,,,null,,,,,,,,,,,,,,,,,,,,,,,,,,,,,,
null,,learn_phase(without_color),721872,black_plus_sign,,,,,null,US_Cities_List/nat_leesburg.png,US_Cities_List/nat_carmel.png,,,,,,,,,,,,,,,,,,,,,,,,,,,,
null,,black_cross(without_color),722500,blue,,,,,null,US_Cities_List/nat_leesburg.png,US_Cities_List/nat_carmel.png,,,,,,,,,,,,,,,,,,,,,,,,,,,,
null,,rt_plussign_withcolor,723010,blue,,,,,null,US_Cities_List/nat_leesburg.png,US_Cities_List/nat_carmel.png,,,,,,,,,,,,,,,,,,,,,,,,,,,,
1444.0999999046326,,rt_thecrossant_black,724400,black_plus_sign,,,,,49,,,1,0.8703703703703703,,,,,,,,,,,,,,,,,,,,,,,,,,
null,,color_black,724510,black_plus_sign,,,,,null,,,,,,,,,,,,,,,,,,,,,,,,,,,,,,
null,,learn_phase(without_color),727067,black_plus_sign,,,,,null,US_Cities_List/mm_racine.png,US_Cities_List/mm_hanover.png,,,,,,,,,,,,,,,,,,,,,,,,,,,,
null,,black_cross(without_color),727690,blue,,,,,null,US_Cities_List/mm_racine.png,US_Cities_List/mm_hanover.png,,,,,,,,,,,,,,,,,,,,,,,,,,,,
null,,rt_plussign_withcolor,728201,blue,,,,,null,US_Cities_List/mm_racine.png,US_Cities_List/mm_hanover.png,,,,,,,,,,,,,,,,,,,,,,,,,,,,
885.5,,rt_thecrossant_black,729592,black_plus_sign,,,,,49,,,1,0.8715596330275229,,,,,,,,,,,,,,,,,,,,,,,,,,
null,,color_black,729700,black_plus_sign,,,,,null,,,,,,,,,,,,,,,,,,,,,,,,,,,,,,
null,,learn_phase(without_color),732241,black_plus_sign,,,,,null,US_Cities_List/mm_boulder.png,US_Cities_List/mm_racine.png,,,,,,,,,,,,,,,,,,,,,,,,,,,,
null,,black_cross(without_color),732949,green,,,,,null,US_Cities_List/mm_boulder.png,US_Cities_List/mm_racine.png,,,,,,,,,,,,,,,,,,,,,,,,,,,,
null,,rt_plussign_withcolor,733458,green,,,,,null,US_Cities_List/mm_boulder.png,US_Cities_List/mm_racine.png,,,,,,,,,,,,,,,,,,,,,,,,,,,,
1003.4000000953674,,rt_thecrossant_black,734782,black_plus_sign,,,,,50,,,1,0.8727272727272727,,,,,,,,,,,,,,,,,,,,,,,,,,
null,,color_black,734891,black_plus_sign,,,,,null,,,,,,,,,,,,,,,,,,,,,,,,,,,,,,
null,,learn_phase(without_color),737449,black_plus_sign,,,,,null,US_Cities_List/mm_hanover.png,US_Cities_List/mm_cornwall.png,,,,,,,,,,,,,,,,,,,,,,,,,,,,
null,,black_cross(without_color),738026,green,,,,,null,US_Cities_List/mm_hanover.png,US_Cities_List/mm_cornwall.png,,,,,,,,,,,,,,,,,,,,,,,,,,,,
null,,rt_plussign_withcolor,738533,green,,,,,null,US_Cities_List/mm_hanover.png,US_Cities_List/mm_cornwall.png,,,,,,,,,,,,,,,,,,,,,,,,,,,,
1005,,rt_thecrossant_black,739973,black_plus_sign,,,,,50,,,1,0.8738738738738738,,,,,,,,,,,,,,,,,,,,,,,,,,
null,,color_black,740089,black_plus_sign,,,,,null,,,,,,,,,,,,,,,,,,,,,,,,,,,,,,
null,,learn_phase(without_color),742624,black_plus_sign,,,,,null,US_Cities_List/mm_huntsville.png,US_Cities_List/nat_leesburg.png,,,,,,,,,,,,,,,,,,,,,,,,,,,,
null,,black_cross(without_color),743649,blue,,,,,null,US_Cities_List/mm_huntsville.png,US_Cities_List/nat_leesburg.png,,,,,,,,,,,,,,,,,,,,,,,,,,,,
null,,rt_plussign_withcolor,744166,blue,,,,,null,US_Cities_List/mm_huntsville.png,US_Cities_List/nat_leesburg.png,,,,,,,,,,,,,,,,,,,,,,,,,,,,
687.7999999523163,,rt_thecrossant_black,745166,black_plus_sign,,,,,49,,,1,0.875,,,,,,,,,,,,,,,,,,,,,,,,,,
null,,color_black,745274,black_plus_sign,,,,,null,,,,,,,,,,,,,,,,,,,,,,,,,,,,,,
null,,learn_phase(without_color),747835,black_plus_sign,,,,,null,US_Cities_List/mm_racine.png,US_Cities_List/mm_hotsprings.png,,,,,,,,,,,,,,,,,,,,,,,,,,,,
null,,black_cross(without_color),748857,blue,,,,,null,US_Cities_List/mm_racine.png,US_Cities_List/mm_hotsprings.png,,,,,,,,,,,,,,,,,,,,,,,,,,,,
null,,rt_plussign_withcolor,749372,blue,,,,,null,US_Cities_List/mm_racine.png,US_Cities_List/mm_hotsprings.png,,,,,,,,,,,,,,,,,,,,,,,,,,,,
1186.2000000476837,,rt_thecrossant_black,750360,black_plus_sign,,,,,49,,,1,0.8761061946902655,,,,,,,,,,,,,,,,,,,,,,,,,,
null,,color_black,750467,black_plus_sign,,,,,null,,,,,,,,,,,,,,,,,,,,,,,,,,,,,,
null,,learn_phase(without_color),753021,black_plus_sign,,,,,null,US_Cities_List/mm_huntsville.png,US_Cities_List/mm_westpalmbeach.png,,,,,,,,,,,,,,,,,,,,,,,,,,,,
null,,black_cross(without_color),754084,green,,,,,null,US_Cities_List/mm_huntsville.png,US_Cities_List/mm_westpalmbeach.png,,,,,,,,,,,,,,,,,,,,,,,,,,,,
null,,rt_plussign_withcolor,754597,green,,,,,null,US_Cities_List/mm_huntsville.png,US_Cities_List/mm_westpalmbeach.png,,,,,,,,,,,,,,,,,,,,,,,,,,,,
1350.0999999046326,,rt_thecrossant_black,755555,black_plus_sign,,,,,50,,,1,0.8771929824561403,,,,,,,,,,,,,,,,,,,,,,,,,,
null,,color_black,755663,black_plus_sign,,,,,null,,,,,,,,,,,,,,,,,,,,,,,,,,,,,,
null,,learn_phase(without_color),758222,black_plus_sign,,,,,null,US_Cities_List/mm_huntsville.png,US_Cities_List/nat_leesburg.png,,,,,,,,,,,,,,,,,,,,,,,,,,,,
null,,black_cross(without_color),758770,green,,,,,null,US_Cities_List/mm_huntsville.png,US_Cities_List/nat_leesburg.png,,,,,,,,,,,,,,,,,,,,,,,,,,,,
null,,rt_plussign_withcolor,759275,green,,,,,null,US_Cities_List/mm_huntsville.png,US_Cities_List/nat_leesburg.png,,,,,,,,,,,,,,,,,,,,,,,,,,,,
1336.3999998569489,,rt_thecrossant_black,760746,black_plus_sign,,,,,50,,,1,0.8782608695652174,,,,,,,,,,,,,,,,,,,,,,,,,,
null,,color_black,760854,black_plus_sign,,,,,null,,,,,,,,,,,,,,,,,,,,,,,,,,,,,,
null,,learn_phase(without_color),763404,black_plus_sign,,,,,null,US_Cities_List/nat_shreveport.png,US_Cities_List/mm_cornwall.png,,,,,,,,,,,,,,,,,,,,,,,,,,,,
null,,black_cross(without_color),764096,blue,,,,,null,US_Cities_List/nat_shreveport.png,US_Cities_List/mm_cornwall.png,,,,,,,,,,,,,,,,,,,,,,,,,,,,
null,,rt_plussign_withcolor,764612,blue,,,,,null,US_Cities_List/nat_shreveport.png,US_Cities_List/mm_cornwall.png,,,,,,,,,,,,,,,,,,,,,,,,,,,,
774,,rt_thecrossant_black,765927,black_plus_sign,,,,,49,,,1,0.8793103448275862,,,,,,,,,,,,,,,,,,,,,,,,,,
null,,color_black,766045,black_plus_sign,,,,,null,,,,,,,,,,,,,,,,,,,,,,,,,,,,,,
null,,learn_phase(without_color),768605,black_plus_sign,,,,,null,US_Cities_List/nat_shreveport.png,US_Cities_List/nat_newhope.png,,,,,,,,,,,,,,,,,,,,,,,,,,,,
null,,black_cross(without_color),769044,green,,,,,null,US_Cities_List/nat_shreveport.png,US_Cities_List/nat_newhope.png,,,,,,,,,,,,,,,,,,,,,,,,,,,,
null,,rt_plussign_withcolor,769554,green,,,,,null,US_Cities_List/nat_shreveport.png,US_Cities_List/nat_newhope.png,,,,,,,,,,,,,,,,,,,,,,,,,,,,
973.2000000476837,,rt_thecrossant_black,771138,black_plus_sign,,,,,50,,,1,0.8803418803418803,,,,,,,,,,,,,,,,,,,,,,,,,,
null,,color_black,771254,black_plus_sign,,,,,null,,,,,,,,,,,,,,,,,,,,,,,,,,,,,,
null,,learn_phase(without_color),773812,black_plus_sign,,,,,null,US_Cities_List/mm_boulder.png,US_Cities_List/nat_shreveport.png,,,,,,,,,,,,,,,,,,,,,,,,,,,,
null,,black_cross(without_color),774597,green,,,,,null,US_Cities_List/mm_boulder.png,US_Cities_List/nat_shreveport.png,,,,,,,,,,,,,,,,,,,,,,,,,,,,
null,,rt_plussign_withcolor,775101,green,,,,,null,US_Cities_List/mm_boulder.png,US_Cities_List/nat_shreveport.png,,,,,,,,,,,,,,,,,,,,,,,,,,,,
828.0999999046326,,rt_thecrossant_black,776335,black_plus_sign,,,,,50,,,1,0.8813559322033898,,,,,,,,,,,,,,,,,,,,,,,,,,
null,,color_black,776446,black_plus_sign,,,,,null,,,,,,,,,,,,,,,,,,,,,,,,,,,,,,
null,,learn_phase(without_color),779009,black_plus_sign,,,,,null,US_Cities_List/nat_leesburg.png,US_Cities_List/nat_gatlinburg.png,,,,,,,,,,,,,,,,,,,,,,,,,,,,
null,,black_cross(without_color),779868,blue,,,,,null,US_Cities_List/nat_leesburg.png,US_Cities_List/nat_gatlinburg.png,,,,,,,,,,,,,,,,,,,,,,,,,,,,
null,,rt_plussign_withcolor,780385,blue,,,,,null,US_Cities_List/nat_leesburg.png,US_Cities_List/nat_gatlinburg.png,,,,,,,,,,,,,,,,,,,,,,,,,,,,
906.7000000476837,,rt_thecrossant_black,781543,black_plus_sign,,,,,49,,,1,0.8823529411764706,,,,,,,,,,,,,,,,,,,,,,,,,,
null,,color_black,781651,black_plus_sign,,,,,null,,,,,,,,,,,,,,,,,,,,,,,,,,,,,,
null,,learn_phase(without_color),784205,black_plus_sign,,,,,null,US_Cities_List/mm_boulder.png,US_Cities_List/mm_racine.png,,,,,,,,,,,,,,,,,,,,,,,,,,,,
null,,black_cross(without_color),785075,blue,,,,,null,US_Cities_List/mm_boulder.png,US_Cities_List/mm_racine.png,,,,,,,,,,,,,,,,,,,,,,,,,,,,
null,,rt_plussign_withcolor,785592,blue,,,,,null,US_Cities_List/mm_boulder.png,US_Cities_List/mm_racine.png,,,,,,,,,,,,,,,,,,,,,,,,,,,,
1226.5999999046326,,rt_thecrossant_black,786737,black_plus_sign,,,,,49,,,1,0.8833333333333333,,,,,,,,,,,,,,,,,,,,,,,,,,
null,,color_black,786842,black_plus_sign,,,,,null,,,,,,,,,,,,,,,,,,,,,,,,,,,,,,
null,,learn_phase(without_color),789399,black_plus_sign,,,,,null,US_Cities_List/nat_shreveport.png,US_Cities_List/mm_cornwall.png,,,,,,,,,,,,,,,,,,,,,,,,,,,,
null,,black_cross(without_color),790389,green,,,,,null,US_Cities_List/nat_shreveport.png,US_Cities_List/mm_cornwall.png,,,,,,,,,,,,,,,,,,,,,,,,,,,,
null,,rt_plussign_withcolor,790900,green,,,,,null,US_Cities_List/nat_shreveport.png,US_Cities_List/mm_cornwall.png,,,,,,,,,,,,,,,,,,,,,,,,,,,,
1134.1000001430511,,rt_thecrossant_black,791925,black_plus_sign,,,,,50,,,1,0.8842975206611571,,,,,,,,,,,,,,,,,,,,,,,,,,
null,,color_black,792041,black_plus_sign,,,,,null,,,,,,,,,,,,,,,,,,,,,,,,,,,,,,
null,,learn_phase(without_color),794601,black_plus_sign,,,,,null,US_Cities_List/nat_leesburg.png,US_Cities_List/nat_gatlinburg.png,,,,,,,,,,,,,,,,,,,,,,,,,,,,
null,,black_cross(without_color),795391,green,,,,,null,US_Cities_List/nat_leesburg.png,US_Cities_List/nat_gatlinburg.png,,,,,,,,,,,,,,,,,,,,,,,,,,,,
null,,rt_plussign_withcolor,795894,green,,,,,null,US_Cities_List/nat_leesburg.png,US_Cities_List/nat_gatlinburg.png,,,,,,,,,,,,,,,,,,,,,,,,,,,,
1324,,rt_thecrossant_black,797116,black_plus_sign,,,,,50,,,1,0.8852459016393442,,,,,,,,,,,,,,,,,,,,,,,,,,
null,,color_black,797234,black_plus_sign,,,,,null,,,,,,,,,,,,,,,,,,,,,,,,,,,,,,
null,,learn_phase(without_color),799772,black_plus_sign,,,,,null,US_Cities_List/mm_boulder.png,US_Cities_List/nat_shreveport.png,,,,,,,,,,,,,,,,,,,,,,,,,,,,
null,,black_cross(without_color),800652,blue,,,,,null,US_Cities_List/mm_boulder.png,US_Cities_List/nat_shreveport.png,,,,,,,,,,,,,,,,,,,,,,,,,,,,
null,,rt_plussign_withcolor,801159,blue,,,,,null,US_Cities_List/mm_boulder.png,US_Cities_List/nat_shreveport.png,,,,,,,,,,,,,,,,,,,,,,,,,,,,
1349.2000000476837,,rt_thecrossant_black,802298,black_plus_sign,,,,,49,,,1,0.8861788617886179,,,,,,,,,,,,,,,,,,,,,,,,,,
null,,color_black,802414,black_plus_sign,,,,,null,,,,,,,,,,,,,,,,,,,,,,,,,,,,,,
null,,learn_phase(without_color),804963,black_plus_sign,,,,,null,US_Cities_List/nat_peoria.png,US_Cities_List/mm_boulder.png,,,,,,,,,,,,,,,,,,,,,,,,,,,,
null,,black_cross(without_color),806044,blue,,,,,null,US_Cities_List/nat_peoria.png,US_Cities_List/mm_boulder.png,,,,,,,,,,,,,,,,,,,,,,,,,,,,
null,,rt_plussign_withcolor,806548,blue,,,,,null,US_Cities_List/nat_peoria.png,US_Cities_List/mm_boulder.png,,,,,,,,,,,,,,,,,,,,,,,,,,,,
1150.1000001430511,,rt_thecrossant_black,807481,black_plus_sign,,,,,49,,,1,0.8870967741935484,,,,,,,,,,,,,,,,,,,,,,,,,,
null,,color_black,807589,black_plus_sign,,,,,null,,,,,,,,,,,,,,,,,,,,,,,,,,,,,,
null,,learn_phase(without_color),810137,black_plus_sign,,,,,null,US_Cities_List/mm_huntsville.png,US_Cities_List/mm_westpalmbeach.png,,,,,,,,,,,,,,,,,,,,,,,,,,,,
null,,black_cross(without_color),811106,green,,,,,null,US_Cities_List/mm_huntsville.png,US_Cities_List/mm_westpalmbeach.png,,,,,,,,,,,,,,,,,,,,,,,,,,,,
null,,rt_plussign_withcolor,811622,green,,,,,null,US_Cities_List/mm_huntsville.png,US_Cities_List/mm_westpalmbeach.png,,,,,,,,,,,,,,,,,,,,,,,,,,,,
1438.2000000476837,,rt_thecrossant_black,812672,black_plus_sign,,,,,50,,,1,0.888,,,,,,,,,,,,,,,,,,,,,,,,,,
null,,color_black,812781,black_plus_sign,,,,,null,,,,,,,,,,,,,,,,,,,,,,,,,,,,,,
null,,learn_phase(without_color),815306,black_plus_sign,,,,,null,US_Cities_List/nat_leesburg.png,US_Cities_List/nat_carmel.png,,,,,,,,,,,,,,,,,,,,,,,,,,,,
null,,black_cross(without_color),815988,green,,,,,null,US_Cities_List/nat_leesburg.png,US_Cities_List/nat_carmel.png,,,,,,,,,,,,,,,,,,,,,,,,,,,,
null,,rt_plussign_withcolor,816499,green,,,,,null,US_Cities_List/nat_leesburg.png,US_Cities_List/nat_carmel.png,,,,,,,,,,,,,,,,,,,,,,,,,,,,
1289.2999999523163,,rt_thecrossant_black,817832,black_plus_sign,,,,,50,,,1,0.8888888888888888,,,,,,,,,,,,,,,,,,,,,,,,,,
null,,color_black,817939,black_plus_sign,,,,,null,,,,,,,,,,,,,,,,,,,,,,,,,,,,,,
null,,learn_phase(without_color),820493,black_plus_sign,,,,,null,US_Cities_List/nat_leesburg.png,US_Cities_List/nat_carmel.png,,,,,,,,,,,,,,,,,,,,,,,,,,,,
null,,black_cross(without_color),821273,green,,,,,null,US_Cities_List/nat_leesburg.png,US_Cities_List/nat_carmel.png,,,,,,,,,,,,,,,,,,,,,,,,,,,,
null,,rt_plussign_withcolor,821789,green,,,,,null,US_Cities_List/nat_leesburg.png,US_Cities_List/nat_carmel.png,,,,,,,,,,,,,,,,,,,,,,,,,,,,
1057.9000000953674,,rt_thecrossant_black,823022,black_plus_sign,,,,,50,,,1,0.889763779527559,,,,,,,,,,,,,,,,,,,,,,,,,,
null,,color_black,823129,black_plus_sign,,,,,null,,,,,,,,,,,,,,,,,,,,,,,,,,,,,,
null,,learn_phase(without_color),825672,black_plus_sign,,,,,null,US_Cities_List/nat_peoria.png,US_Cities_List/mm_boulder.png,,,,,,,,,,,,,,,,,,,,,,,,,,,,
null,,black_cross(without_color),826697,blue,,,,,null,US_Cities_List/nat_peoria.png,US_Cities_List/mm_boulder.png,,,,,,,,,,,,,,,,,,,,,,,,,,,,
null,,rt_plussign_withcolor,827206,blue,,,,,null,US_Cities_List/nat_peoria.png,US_Cities_List/mm_boulder.png,,,,,,,,,,,,,,,,,,,,,,,,,,,,
877.8999998569489,,rt_thecrossant_black,828198,black_plus_sign,,,,,49,,,1,0.890625,,,,,,,,,,,,,,,,,,,,,,,,,,
null,,color_black,828306,black_plus_sign,,,,,null,,,,,,,,,,,,,,,,,,,,,,,,,,,,,,
21806.89999985695,,intro_1,850115,instruct,,,0,,,,,,,,,,,,,,,,,,,,,,,,,,,,,,,,
538222.7999999523,,intro_2,1388343,instruct,,,1,Next,,,,,,,,,,,,,,,,,,,,,,,,,,,,,,,
3456.5999999046326,,directmemory_phase,1391872,../static/images/US_Cities_List/mm_huntsville.png,,,,,51,,,1,1,../static/images/US_Cities_List/mm_cornwall.png,../static/images/US_Cities_List/nat_carmel.png,../static/images/US_Cities_List/mm_westpalmbeach.png,../static/images/US_Cities_List/mm_westpalmbeach.png,../static/images/US_Cities_List/nat_carmel.png,../static/images/US_Cities_List/mm_cornwall.png,1,,,,,,,,,,,,,,,,,,,
null,,html-keyboard-response,1392880,<p></p>,,,,,null,,,,,,,,,,,,,,,,,,,,,,,,,,,,,,
5103.799999952316,,directmemory_phase,1398061,../static/images/US_Cities_List/nat_shreveport.png,,,,,50,,,0,0.5,../static/images/US_Cities_List/mm_huntsville.png,../static/images/US_Cities_List/mm_hanover.png,../static/images/US_Cities_List/mm_cornwall.png,../static/images/US_Cities_List/mm_cornwall.png,../static/images/US_Cities_List/mm_hanover.png,../static/images/US_Cities_List/mm_huntsville.png,0.5,closer,,,,,,,,,,,,,,,,,,
null,,html-keyboard-response,1399069,<p></p>,,,,,null,,,,,,,,,,,,,,,,,,,,,,,,,,,,,,
4259.299999952316,,directmemory_phase,1403399,../static/images/US_Cities_List/mm_hotsprings.png,,,,,50,,,0,0.3333333333333333,../static/images/US_Cities_List/mm_racine.png,../static/images/US_Cities_List/mm_cornwall.png,../static/images/US_Cities_List/mm_boulder.png,../static/images/US_Cities_List/mm_racine.png,../static/images/US_Cities_List/mm_boulder.png,../static/images/US_Cities_List/mm_cornwall.png,0.5,closer,,,,,,,,,,,,,,,,,,
null,,html-keyboard-response,1404408,<p></p>,,,,,null,,,,,,,,,,,,,,,,,,,,,,,,,,,,,,
3669.899999856949,,directmemory_phase,1408142,../static/images/US_Cities_List/mm_cornwall.png,,,,,49,,,1,0.5,../static/images/US_Cities_List/mm_hanover.png,../static/images/US_Cities_List/nat_leesburg.png,../static/images/US_Cities_List/nat_gatlinburg.png,../static/images/US_Cities_List/mm_hanover.png,../static/images/US_Cities_List/nat_gatlinburg.png,../static/images/US_Cities_List/nat_leesburg.png,1,,,,,,,,,,,,,,,,,,,
null,,html-keyboard-response,1409150,<p></p>,,,,,null,,,,,,,,,,,,,,,,,,,,,,,,,,,,,,
6027.400000095367,,directmemory_phase,1415239,../static/images/US_Cities_List/mm_racine.png,,,,,49,,,0,0.4,../static/images/US_Cities_List/nat_newhope.png,../static/images/US_Cities_List/nat_peoria.png,../static/images/US_Cities_List/mm_boulder.png,../static/images/US_Cities_List/mm_boulder.png,../static/images/US_Cities_List/nat_peoria.png,../static/images/US_Cities_List/nat_newhope.png,0.5,closer,,,,,,,,,,,,,,,,,,
null,,html-keyboard-response,1416246,<p></p>,,,,,null,,,,,,,,,,,,,,,,,,,,,,,,,,,,,,
3341,,directmemory_phase,1419657,../static/images/US_Cities_List/nat_carmel.png,,,,,51,,,0,0.3333333333333333,../static/images/US_Cities_List/mm_huntsville.png,../static/images/US_Cities_List/nat_leesburg.png,../static/images/US_Cities_List/mm_racine.png,../static/images/US_Cities_List/nat_leesburg.png,../static/images/US_Cities_List/mm_huntsville.png,../static/images/US_Cities_List/mm_racine.png,0.5,closer,,,,,,,,,,,,,,,,,,
null,,html-keyboard-response,1420664,<p></p>,,,,,null,,,,,,,,,,,,,,,,,,,,,,,,,,,,,,
5042.699999809265,,directmemory_phase,1425786,../static/images/US_Cities_List/mm_hotsprings.png,,,,,51,,,1,0.42857142857142855,../static/images/US_Cities_List/nat_peoria.png,../static/images/US_Cities_List/mm_westpalmbeach.png,../static/images/US_Cities_List/nat_gatlinburg.png,../static/images/US_Cities_List/nat_gatlinburg.png,../static/images/US_Cities_List/mm_westpalmbeach.png,../static/images/US_Cities_List/nat_peoria.png,1,,,,,,,,,,,,,,,,,,,
null,,html-keyboard-response,1426793,<p></p>,,,,,null,,,,,,,,,,,,,,,,,,,,,,,,,,,,,,
2721.5,,directmemory_phase,1429569,../static/images/US_Cities_List/mm_boulder.png,,,,,49,,,0,0.375,../static/images/US_Cities_List/mm_hotsprings.png,../static/images/US_Cities_List/nat_peoria.png,../static/images/US_Cities_List/nat_leesburg.png,../static/images/US_Cities_List/nat_peoria.png,../static/images/US_Cities_List/mm_hotsprings.png,../static/images/US_Cities_List/nat_leesburg.png,0.5,closer,,,,,,,,,,,,,,,,,,
null,,html-keyboard-response,1430579,<p></p>,,,,,null,,,,,,,,,,,,,,,,,,,,,,,,,,,,,,
null,,directmemory_phase,1437145,../static/images/US_Cities_List/nat_gatlinburg.png,,,,,null,,,0,0.3333333333333333,../static/images/US_Cities_List/mm_boulder.png,../static/images/US_Cities_List/mm_racine.png,../static/images/US_Cities_List/mm_hotsprings.png,../static/images/US_Cities_List/mm_hotsprings.png,../static/images/US_Cities_List/mm_racine.png,../static/images/US_Cities_List/mm_boulder.png,0,,,,,,,,,,,,,,,,,,,
null,,html-keyboard-response,1438152,<p></p>,,,,,null,,,,,,,,,,,,,,,,,,,,,,,,,,,,,,
2721.2999999523163,,directmemory_phase,1440935,../static/images/US_Cities_List/mm_hanover.png,,,,,51,,,1,0.4,../static/images/US_Cities_List/mm_westpalmbeach.png,../static/images/US_Cities_List/mm_hotsprings.png,../static/images/US_Cities_List/mm_cornwall.png,../static/images/US_Cities_List/mm_cornwall.png,../static/images/US_Cities_List/mm_hotsprings.png,../static/images/US_Cities_List/mm_westpalmbeach.png,1,,,,,,,,,,,,,,,,,,,
null,,html-keyboard-response,1441943,<p></p>,,,,,null,,,,,,,,,,,,,,,,,,,,,,,,,,,,,,
1956.2999999523163,,directmemory_phase,1443963,../static/images/US_Cities_List/nat_leesburg.png,,,,,49,,,1,0.45454545454545453,../static/images/US_Cities_List/nat_gatlinburg.png,../static/images/US_Cities_List/mm_boulder.png,../static/images/US_Cities_List/mm_hanover.png,../static/images/US_Cities_List/nat_gatlinburg.png,../static/images/US_Cities_List/mm_hanover.png,../static/images/US_Cities_List/mm_boulder.png,1,,,,,,,,,,,,,,,,,,,
null,,html-keyboard-response,1444968,<p></p>,,,,,null,,,,,,,,,,,,,,,,,,,,,,,,,,,,,,
2921.7999999523163,,directmemory_phase,1447961,../static/images/US_Cities_List/nat_peoria.png,,,,,50,,,0,0.4166666666666667,../static/images/US_Cities_List/mm_boulder.png,../static/images/US_Cities_List/mm_hanover.png,../static/images/US_Cities_List/nat_shreveport.png,../static/images/US_Cities_List/mm_boulder.png,../static/images/US_Cities_List/nat_shreveport.png,../static/images/US_Cities_List/mm_hanover.png,0.5,closer,,,,,,,,,,,,,,,,,,
null,,html-keyboard-response,1448971,<p></p>,,,,,null,,,,,,,,,,,,,,,,,,,,,,,,,,,,,,
2781.4000000953674,,directmemory_phase,1451822,../static/images/US_Cities_List/nat_shreveport.png,,,,,51,,,1,0.46153846153846156,../static/images/US_Cities_List/mm_hotsprings.png,../static/images/US_Cities_List/nat_peoria.png,../static/images/US_Cities_List/nat_newhope.png,../static/images/US_Cities_List/nat_newhope.png,../static/images/US_Cities_List/nat_peoria.png,../static/images/US_Cities_List/mm_hotsprings.png,1,,,,,,,,,,,,,,,,,,,
null,,html-keyboard-response,1452828,<p></p>,,,,,null,,,,,,,,,,,,,,,,,,,,,,,,,,,,,,
2591.5999999046326,,directmemory_phase,1455512,../static/images/US_Cities_List/mm_racine.png,,,,,49,,,0,0.42857142857142855,../static/images/US_Cities_List/nat_newhope.png,../static/images/US_Cities_List/nat_peoria.png,../static/images/US_Cities_List/mm_hotsprings.png,../static/images/US_Cities_List/mm_hotsprings.png,../static/images/US_Cities_List/nat_peoria.png,../static/images/US_Cities_List/nat_newhope.png,0.5,closer,,,,,,,,,,,,,,,,,,
null,,html-keyboard-response,1456518,<p></p>,,,,,null,,,,,,,,,,,,,,,,,,,,,,,,,,,,,,
2649.9000000953674,,directmemory_phase,1459259,../static/images/US_Cities_List/mm_cornwall.png,,,,,50,,,0,0.4,../static/images/US_Cities_List/mm_westpalmbeach.png,../static/images/US_Cities_List/mm_boulder.png,../static/images/US_Cities_List/nat_shreveport.png,../static/images/US_Cities_List/nat_shreveport.png,../static/images/US_Cities_List/mm_boulder.png,../static/images/US_Cities_List/mm_westpalmbeach.png,0.5,closer,,,,,,,,,,,,,,,,,,
null,,html-keyboard-response,1460266,<p></p>,,,,,null,,,,,,,,,,,,,,,,,,,,,,,,,,,,,,
2132.600000143051,,directmemory_phase,1462468,../static/images/US_Cities_List/nat_leesburg.png,,,,,51,,,0,0.375,../static/images/US_Cities_List/mm_westpalmbeach.png,../static/images/US_Cities_List/mm_huntsville.png,../static/images/US_Cities_List/nat_shreveport.png,../static/images/US_Cities_List/mm_huntsville.png,../static/images/US_Cities_List/mm_westpalmbeach.png,../static/images/US_Cities_List/nat_shreveport.png,0.5,closer,,,,,,,,,,,,,,,,,,
null,,html-keyboard-response,1463475,<p></p>,,,,,null,,,,,,,,,,,,,,,,,,,,,,,,,,,,,,
2248.2000000476837,,directmemory_phase,1465800,../static/images/US_Cities_List/nat_newhope.png,,,,,49,,,1,0.4117647058823529,../static/images/US_Cities_List/nat_shreveport.png,../static/images/US_Cities_List/nat_gatlinburg.png,../static/images/US_Cities_List/mm_boulder.png,../static/images/US_Cities_List/nat_shreveport.png,../static/images/US_Cities_List/mm_boulder.png,../static/images/US_Cities_List/nat_gatlinburg.png,1,,,,,,,,,,,,,,,,,,,
null,,html-keyboard-response,1466806,<p></p>,,,,,null,,,,,,,,,,,,,,,,,,,,,,,,,,,,,,
3291.5999999046326,,directmemory_phase,1470151,../static/images/US_Cities_List/mm_huntsville.png,,,,,50,,,1,0.4444444444444444,../static/images/US_Cities_List/mm_hanover.png,../static/images/US_Cities_List/nat_leesburg.png,../static/images/US_Cities_List/nat_peoria.png,../static/images/US_Cities_List/nat_leesburg.png,../static/images/US_Cities_List/mm_hanover.png,../static/images/US_Cities_List/nat_peoria.png,1,,,,,,,,,,,,,,,,,,,
null,,html-keyboard-response,1471158,<p></p>,,,,,null,,,,,,,,,,,,,,,,,,,,,,,,,,,,,,
3026.7000000476837,,directmemory_phase,1474248,../static/images/US_Cities_List/nat_gatlinburg.png,,,,,49,,,0,0.42105263157894735,../static/images/US_Cities_List/nat_shreveport.png,../static/images/US_Cities_List/mm_racine.png,../static/images/US_Cities_List/mm_hanover.png,../static/images/US_Cities_List/mm_hanover.png,../static/images/US_Cities_List/mm_racine.png,../static/images/US_Cities_List/nat_shreveport.png,0.5,closer,,,,,,,,,,,,,,,,,,
null,,html-keyboard-response,1475253,<p></p>,,,,,null,,,,,,,,,,,,,,,,,,,,,,,,,,,,,,
2356.300000190735,,directmemory_phase,1477686,../static/images/US_Cities_List/mm_huntsville.png,,,,,51,,,1,0.45,../static/images/US_Cities_List/nat_peoria.png,../static/images/US_Cities_List/mm_hanover.png,../static/images/US_Cities_List/mm_hotsprings.png,../static/images/US_Cities_List/mm_hotsprings.png,../static/images/US_Cities_List/mm_hanover.png,../static/images/US_Cities_List/nat_peoria.png,1,,,,,,,,,,,,,,,,,,,
null,,html-keyboard-response,1478693,<p></p>,,,,,null,,,,,,,,,,,,,,,,,,,,,,,,,,,,,,
3451.5,,directmemory_phase,1482209,../static/images/US_Cities_List/mm_boulder.png,,,,,49,,,0,0.42857142857142855,../static/images/US_Cities_List/nat_newhope.png,../static/images/US_Cities_List/nat_shreveport.png,../static/images/US_Cities_List/mm_huntsville.png,../static/images/US_Cities_List/nat_shreveport.png,../static/images/US_Cities_List/nat_newhope.png,../static/images/US_Cities_List/mm_huntsville.png,0.5,closer,,,,,,,,,,,,,,,,,,
null,,html-keyboard-response,1483215,<p></p>,,,,,null,,,,,,,,,,,,,,,,,,,,,,,,,,,,,,
2813.800000190735,,directmemory_phase,1486096,../static/images/US_Cities_List/mm_huntsville.png,,,,,51,,,1,0.45454545454545453,../static/images/US_Cities_List/mm_cornwall.png,../static/images/US_Cities_List/nat_carmel.png,../static/images/US_Cities_List/nat_gatlinburg.png,../static/images/US_Cities_List/nat_gatlinburg.png,../static/images/US_Cities_List/nat_carmel.png,../static/images/US_Cities_List/mm_cornwall.png,1,,,,,,,,,,,,,,,,,,,
null,,html-keyboard-response,1487101,<p></p>,,,,,null,,,,,,,,,,,,,,,,,,,,,,,,,,,,,,
3151.4000000953674,,directmemory_phase,1490346,../static/images/US_Cities_List/nat_shreveport.png,,,,,50,,,0,0.43478260869565216,../static/images/US_Cities_List/mm_boulder.png,../static/images/US_Cities_List/nat_leesburg.png,../static/images/US_Cities_List/mm_hanover.png,../static/images/US_Cities_List/mm_boulder.png,../static/images/US_Cities_List/mm_hanover.png,../static/images/US_Cities_List/nat_leesburg.png,0.5,closer,,,,,,,,,,,,,,,,,,
null,,html-keyboard-response,1491353,<p></p>,,,,,null,,,,,,,,,,,,,,,,,,,,,,,,,,,,,,
2009.0999999046326,,directmemory_phase,1493433,../static/images/US_Cities_List/mm_hotsprings.png,,,,,49,,,0,0.4166666666666667,../static/images/US_Cities_List/nat_peoria.png,../static/images/US_Cities_List/nat_leesburg.png,../static/images/US_Cities_List/mm_huntsville.png,../static/images/US_Cities_List/mm_huntsville.png,../static/images/US_Cities_List/nat_leesburg.png,../static/images/US_Cities_List/nat_peoria.png,0.5,closer,,,,,,,,,,,,,,,,,,
