rt,responses,trial_type,time_elapsed,stimulus,cities,city_images,button_pressed,response,key_press,stimulus_left,stimulus_right,accuracy,cumulative_accuracy,stimulus_down_left,stimulus_down_mid,stimulus_down_right,stimulus_correct,stimulus_short,stimulus_far,weighted_accuracy,missedtrial,condition,specific_pairs,imgL_ID,imgR_ID,linedress,linedressed,image_position,unknowncity,testedstates,currentstate,otherstate,problems,smooth,distraction,strategies,easier,similar,comments
52976.5,{worker_id:6691d6b19b0ed6a3cbb68e5e},id_enter,52982,intro,Racine; Gatlinburg; New Hope; Boulder; Carmel; Hot Springs; Cornwall; West Palm Beach; Huntsville; Leesburg; Hanover; Peoria; Shreveport,US_Cities_List/mm_racine.png; US_Cities_List/mm_gatlinburg.png; US_Cities_List/nat_newhope.png; US_Cities_List/mm_boulder.png; US_Cities_List/nat_carmel.png; US_Cities_List/nat_hotsprings.png; US_Cities_List/nat_cornwall.png; US_Cities_List/nat_westpalmbeach.png; US_Cities_List/nat_huntsville.png; US_Cities_List/nat_leesburg.png; US_Cities_List/nat_hanover.png; US_Cities_List/mm_peoria.png; US_Cities_List/nat_shreveport.png,,,,,,,,,,,,,,,,,,,,,,,,,,,,,,,,,
118081,,fullscreen,171072,make_fullscreen,,,0,,,,,,,,,,,,,,,,,,,,,,,,,,,,,,,,
31784.5,,intro_1,202864,instruct,,,0,,,,,,,,,,,,,,,,,,,,,,,,,,,,,,,,
22101.80000001192,,intro_2,224969,instruct,,,1,Next,,,,,,,,,,,,,,,,,,,,,,,,,,,,,,,
17811.80000001192,,intro_3,242784,instruct,,,1,Next,,,,,,,,,,,,,,,,,,,,,,,,,,,,,,,
21158.79999998212,,intro_4,263944,instruct,,,1,Next,,,,,,,,,,,,,,,,,,,,,,,,,,,,,,,
9387.699999988079,,intro_5,273334,instruct,,,1,Next,,,,,,,,,,,,,,,,,,,,,,,,,,,,,,,
39678.69999998808,,intro_6,313016,instruct,,,1,Next,,,,,,,,,,,,,,,,,,,,,,,,,,,,,,,
null,,prac_atten_color_black,313780,black_plus_sign,,,,,null,,,,,,,,,,,,,,,,,,,,,,,,,,,,,,
null,,prac_atten_color,314428,prac_stop_color,,,,,null,,,,,,,,,,,,,,,,,,,,,,,,,,,,,,
null,,prac_atten_color_black,316445,black_plus_sign,,,,,null,,,,,,,,,,,,,,,,,,,,,,,,,,,,,,
4963.800000011921,,attentioncheck_help,321412,instruct,,,,,32,,,,,,,,,,,,,,,,,,,,,,,,,,,,,,
null,,prac_atten_color_black,322181,black_plus_sign,,,,,null,,,,,,,,,,,,,,,,,,,,,,,,,,,,,,
616.5,,prac_atten_color,323076,prac_stop_color,,,,,50,,,,,,,,,,,,,,,,,,,,,,,,,,,,,,
null,,prac_atten_color_black,325087,black_plus_sign,,,,,null,,,,,,,,,,,,,,,,,,,,,,,,,,,,,,
null,,prac_atten_color_black,325599,black_plus_sign,,,,,null,,,,,,,,,,,,,,,,,,,,,,,,,,,,,,
460.10000002384186,,prac_atten_color,326427,prac_stop_color,,,,,50,,,,,,,,,,,,,,,,,,,,,,,,,,,,,,
null,,prac_atten_color_black,328441,black_plus_sign,,,,,null,,,,,,,,,,,,,,,,,,,,,,,,,,,,,,
null,,prac_atten_color_black,329035,black_plus_sign,,,,,null,,,,,,,,,,,,,,,,,,,,,,,,,,,,,,
null,,prac_atten_color,329490,prac_stop_color,,,,,null,,,,,,,,,,,,,,,,,,,,,,,,,,,,,,
140.59999999403954,,prac_atten_color_black,331501,black_plus_sign,,,,,49,,,,,,,,,,,,,,,,,,,,,,,,,,,,,,
null,,prac_atten_color_black,332462,black_plus_sign,,,,,null,,,,,,,,,,,,,,,,,,,,,,,,,,,,,,
706.0999999940395,,prac_atten_color,333579,prac_stop_color,,,,,50,,,,,,,,,,,,,,,,,,,,,,,,,,,,,,
null,,prac_atten_color_black,335587,black_plus_sign,,,,,null,,,,,,,,,,,,,,,,,,,,,,,,,,,,,,
null,,prac_atten_color_black,335891,black_plus_sign,,,,,null,,,,,,,,,,,,,,,,,,,,,,,,,,,,,,
546.1000000238419,,prac_atten_color,336698,prac_stop_color,,,,,50,,,,,,,,,,,,,,,,,,,,,,,,,,,,,,
null,,prac_atten_color_black,338709,black_plus_sign,,,,,null,,,,,,,,,,,,,,,,,,,,,,,,,,,,,,
null,,prac_atten_color_black,339333,black_plus_sign,,,,,null,,,,,,,,,,,,,,,,,,,,,,,,,,,,,,
null,,prac_atten_color,339761,prac_stop_color,,,,,null,,,,,,,,,,,,,,,,,,,,,,,,,,,,,,
141.5,,prac_atten_color_black,341771,black_plus_sign,,,,,49,,,,,,,,,,,,,,,,,,,,,,,,,,,,,,
null,,prac_atten_color_black,342759,black_plus_sign,,,,,null,,,,,,,,,,,,,,,,,,,,,,,,,,,,,,
417,,prac_atten_color,343633,prac_stop_color,,,,,50,,,,,,,,,,,,,,,,,,,,,,,,,,,,,,
null,,prac_atten_color_black,345647,black_plus_sign,,,,,null,,,,,,,,,,,,,,,,,,,,,,,,,,,,,,
null,,prac_atten_color_black,346195,black_plus_sign,,,,,null,,,,,,,,,,,,,,,,,,,,,,,,,,,,,,
461.2000000178814,,prac_atten_color,346958,prac_stop_color,,,,,49,,,,,,,,,,,,,,,,,,,,,,,,,,,,,,
null,,prac_atten_color_black,348965,black_plus_sign,,,,,null,,,,,,,,,,,,,,,,,,,,,,,,,,,,,,
null,,prac_atten_color_black,349628,black_plus_sign,,,,,null,,,,,,,,,,,,,,,,,,,,,,,,,,,,,,
495.80000001192093,,prac_atten_color,350608,prac_stop_color,,,,,49,,,,,,,,,,,,,,,,,,,,,,,,,,,,,,
null,,prac_atten_color_black,352612,black_plus_sign,,,,,null,,,,,,,,,,,,,,,,,,,,,,,,,,,,,,
12347.699999988079,,attentioncheck_feedback,364962,cross_check_feedback,,,0,,,,,,,,,,,,,,,,,,,,,,,,,,,,,,,,
21931.19999998808,,last_instruct,386895,instruct,,,,,32,,,,,,,,,,,,,,,,,,,,,,,,,,,,,,
null,,learn_phase(without_color),388921,black_plus_sign,,,,,null,US_Cities_List/nat_cornwall.png,US_Cities_List/nat_shreveport.png,,,,,,,,,,,,,,,,,,,,,,,,,,,,
null,,black_cross(without_color),389566,blue,,,,,null,US_Cities_List/nat_cornwall.png,US_Cities_List/nat_shreveport.png,,,,,,,,,,,,,,,,,,,,,,,,,,,,
null,,rt_plussign_withcolor,390068,blue,,,,,null,US_Cities_List/nat_cornwall.png,US_Cities_List/nat_shreveport.png,,,,,,,,,,,,,,,,,,,,,,,,,,,,
812.5,,rt_thecrossant_black,391441,black_plus_sign,,,,,49,,,1,1,,,,,,,,,,,,,,,,,,,,,,,,,,
null,,color_black,391550,black_plus_sign,,,,,null,,,,,,,,,,,,,,,,,,,,,,,,,,,,,,
null,,learn_phase(without_color),394097,black_plus_sign,,,,,null,US_Cities_List/nat_westpalmbeach.png,US_Cities_List/nat_leesburg.png,,,,,,,,,,,,,,,,,,,,,,,,,,,,
null,,black_cross(without_color),395176,green,,,,,null,US_Cities_List/nat_westpalmbeach.png,US_Cities_List/nat_leesburg.png,,,,,,,,,,,,,,,,,,,,,,,,,,,,
null,,rt_plussign_withcolor,395683,green,,,,,null,US_Cities_List/nat_westpalmbeach.png,US_Cities_List/nat_leesburg.png,,,,,,,,,,,,,,,,,,,,,,,,,,,,
720.0999999940395,,rt_thecrossant_black,396622,black_plus_sign,,,,,50,,,1,1,,,,,,,,,,,,,,,,,,,,,,,,,,
null,,color_black,396732,black_plus_sign,,,,,null,,,,,,,,,,,,,,,,,,,,,,,,,,,,,,
null,,learn_phase(without_color),399295,black_plus_sign,,,,,null,US_Cities_List/nat_cornwall.png,US_Cities_List/nat_huntsville.png,,,,,,,,,,,,,,,,,,,,,,,,,,,,
null,,black_cross(without_color),400201,green,,,,,null,US_Cities_List/nat_cornwall.png,US_Cities_List/nat_huntsville.png,,,,,,,,,,,,,,,,,,,,,,,,,,,,
null,,rt_plussign_withcolor,400704,green,,,,,null,US_Cities_List/nat_cornwall.png,US_Cities_List/nat_huntsville.png,,,,,,,,,,,,,,,,,,,,,,,,,,,,
1525.300000011921,,rt_thecrossant_black,401812,black_plus_sign,,,,,50,,,1,1,,,,,,,,,,,,,,,,,,,,,,,,,,
null,,color_black,401920,black_plus_sign,,,,,null,,,,,,,,,,,,,,,,,,,,,,,,,,,,,,
null,,learn_phase(without_color),404469,black_plus_sign,,,,,null,US_Cities_List/mm_gatlinburg.png,US_Cities_List/mm_boulder.png,,,,,,,,,,,,,,,,,,,,,,,,,,,,
null,,black_cross(without_color),404919,green,,,,,null,US_Cities_List/mm_gatlinburg.png,US_Cities_List/mm_boulder.png,,,,,,,,,,,,,,,,,,,,,,,,,,,,
null,,rt_plussign_withcolor,405430,green,,,,,null,US_Cities_List/mm_gatlinburg.png,US_Cities_List/mm_boulder.png,,,,,,,,,,,,,,,,,,,,,,,,,,,,
1103.300000011921,,rt_thecrossant_black,407004,black_plus_sign,,,,,50,,,1,1,,,,,,,,,,,,,,,,,,,,,,,,,,
null,,color_black,407109,black_plus_sign,,,,,null,,,,,,,,,,,,,,,,,,,,,,,,,,,,,,
null,,learn_phase(without_color),409663,black_plus_sign,,,,,null,US_Cities_List/nat_cornwall.png,US_Cities_List/nat_westpalmbeach.png,,,,,,,,,,,,,,,,,,,,,,,,,,,,
null,,black_cross(without_color),410743,green,,,,,null,US_Cities_List/nat_cornwall.png,US_Cities_List/nat_westpalmbeach.png,,,,,,,,,,,,,,,,,,,,,,,,,,,,
436,,rt_plussign_withcolor,411246,green,,,,,50,US_Cities_List/nat_cornwall.png,US_Cities_List/nat_westpalmbeach.png,,,,,,,,,,,,,,,,,,,,,,,,,,,,
null,,rt_thecrossant_black,412190,black_plus_sign,,,,,null,,,1,1,,,,,,,,,,,,,,,,,,,,,,,,,,
null,,color_black,412300,black_plus_sign,,,,,null,,,,,,,,,,,,,,,,,,,,,,,,,,,,,,
null,,learn_phase(without_color),414850,black_plus_sign,,,,,null,US_Cities_List/nat_hanover.png,US_Cities_List/mm_peoria.png,,,,,,,,,,,,,,,,,,,,,,,,,,,,
null,,black_cross(without_color),415412,green,,,,,null,US_Cities_List/nat_hanover.png,US_Cities_List/mm_peoria.png,,,,,,,,,,,,,,,,,,,,,,,,,,,,
347.69999998807907,,rt_plussign_withcolor,415915,green,,,,,50,US_Cities_List/nat_hanover.png,US_Cities_List/mm_peoria.png,,,,,,,,,,,,,,,,,,,,,,,,,,,,
null,,rt_thecrossant_black,417367,black_plus_sign,,,,,null,,,1,1,,,,,,,,,,,,,,,,,,,,,,,,,,
null,,color_black,417480,black_plus_sign,,,,,null,,,,,,,,,,,,,,,,,,,,,,,,,,,,,,
null,,learn_phase(without_color),420005,black_plus_sign,,,,,null,US_Cities_List/nat_hotsprings.png,US_Cities_List/nat_cornwall.png,,,,,,,,,,,,,,,,,,,,,,,,,,,,
null,,black_cross(without_color),420510,green,,,,,null,US_Cities_List/nat_hotsprings.png,US_Cities_List/nat_cornwall.png,,,,,,,,,,,,,,,,,,,,,,,,,,,,
428,,rt_plussign_withcolor,421022,green,,,,,50,US_Cities_List/nat_hotsprings.png,US_Cities_List/nat_cornwall.png,,,,,,,,,,,,,,,,,,,,,,,,,,,,
null,,rt_thecrossant_black,422530,black_plus_sign,,,,,null,,,1,1,,,,,,,,,,,,,,,,,,,,,,,,,,
null,,color_black,422644,black_plus_sign,,,,,null,,,,,,,,,,,,,,,,,,,,,,,,,,,,,,
null,,learn_phase(without_color),425176,black_plus_sign,,,,,null,US_Cities_List/nat_hotsprings.png,US_Cities_List/nat_huntsville.png,,,,,,,,,,,,,,,,,,,,,,,,,,,,
null,,black_cross(without_color),425611,blue,,,,,null,US_Cities_List/nat_hotsprings.png,US_Cities_List/nat_huntsville.png,,,,,,,,,,,,,,,,,,,,,,,,,,,,
null,,rt_plussign_withcolor,426114,blue,,,,,null,US_Cities_List/nat_hotsprings.png,US_Cities_List/nat_huntsville.png,,,,,,,,,,,,,,,,,,,,,,,,,,,,
602.5,,rt_thecrossant_black,427689,black_plus_sign,,,,,50,,,0,0.875,,,,,,,,,,,,,,,,,,,,,,,,,,
null,,color_black,427797,black_plus_sign,,,,,null,,,,,,,,,,,,,,,,,,,,,,,,,,,,,,
null,,learn_phase(without_color),430361,black_plus_sign,,,,,null,US_Cities_List/nat_huntsville.png,US_Cities_List/nat_hanover.png,,,,,,,,,,,,,,,,,,,,,,,,,,,,
null,,black_cross(without_color),430987,blue,,,,,null,US_Cities_List/nat_huntsville.png,US_Cities_List/nat_hanover.png,,,,,,,,,,,,,,,,,,,,,,,,,,,,
447,,rt_plussign_withcolor,431491,blue,,,,,50,US_Cities_List/nat_huntsville.png,US_Cities_List/nat_hanover.png,,,,,,,,,,,,,,,,,,,,,,,,,,,,
null,,rt_thecrossant_black,432879,black_plus_sign,,,,,null,,,0,0.7777777777777778,,,,,,,,,,,,,,,,,,,,,,,,,,
null,,warning_page,435887,warning,,,,,null,,,,,,,,,,,,,,,,,,,,,,,,,,,,,,
null,,color_black,436000,black_plus_sign,,,,,null,,,,,,,,,,,,,,,,,,,,,,,,,,,,,,
null,,learn_phase(without_color),438543,black_plus_sign,,,,,null,US_Cities_List/nat_hotsprings.png,US_Cities_List/nat_huntsville.png,,,,,,,,,,,,,,,,,,,,,,,,,,,,
null,,black_cross(without_color),439365,green,,,,,null,US_Cities_List/nat_hotsprings.png,US_Cities_List/nat_huntsville.png,,,,,,,,,,,,,,,,,,,,,,,,,,,,
479.2000000178814,,rt_plussign_withcolor,439868,green,,,,,50,US_Cities_List/nat_hotsprings.png,US_Cities_List/nat_huntsville.png,,,,,,,,,,,,,,,,,,,,,,,,,,,,
null,,rt_thecrossant_black,441067,black_plus_sign,,,,,null,,,1,0.8,,,,,,,,,,,,,,,,,,,,,,,,,,
null,,color_black,441179,black_plus_sign,,,,,null,,,,,,,,,,,,,,,,,,,,,,,,,,,,,,
null,,learn_phase(without_color),443733,black_plus_sign,,,,,null,US_Cities_List/nat_hotsprings.png,US_Cities_List/nat_cornwall.png,,,,,,,,,,,,,,,,,,,,,,,,,,,,
null,,black_cross(without_color),444419,blue,,,,,null,US_Cities_List/nat_hotsprings.png,US_Cities_List/nat_cornwall.png,,,,,,,,,,,,,,,,,,,,,,,,,,,,
491.19999998807907,,rt_plussign_withcolor,444925,blue,,,,,49,US_Cities_List/nat_hotsprings.png,US_Cities_List/nat_cornwall.png,,,,,,,,,,,,,,,,,,,,,,,,,,,,
null,,rt_thecrossant_black,446258,black_plus_sign,,,,,null,,,1,0.8181818181818182,,,,,,,,,,,,,,,,,,,,,,,,,,
null,,color_black,446366,black_plus_sign,,,,,null,,,,,,,,,,,,,,,,,,,,,,,,,,,,,,
null,,learn_phase(without_color),448930,black_plus_sign,,,,,null,US_Cities_List/nat_huntsville.png,US_Cities_List/nat_hanover.png,,,,,,,,,,,,,,,,,,,,,,,,,,,,
null,,black_cross(without_color),449414,green,,,,,null,US_Cities_List/nat_huntsville.png,US_Cities_List/nat_hanover.png,,,,,,,,,,,,,,,,,,,,,,,,,,,,
394.5,,rt_plussign_withcolor,449925,green,,,,,50,US_Cities_List/nat_huntsville.png,US_Cities_List/nat_hanover.png,,,,,,,,,,,,,,,,,,,,,,,,,,,,
null,,rt_thecrossant_black,451461,black_plus_sign,,,,,null,,,1,0.8333333333333334,,,,,,,,,,,,,,,,,,,,,,,,,,
null,,color_black,451569,black_plus_sign,,,,,null,,,,,,,,,,,,,,,,,,,,,,,,,,,,,,
null,,learn_phase(without_color),454105,black_plus_sign,,,,,null,US_Cities_List/nat_hotsprings.png,US_Cities_List/nat_huntsville.png,,,,,,,,,,,,,,,,,,,,,,,,,,,,
null,,black_cross(without_color),454805,green,,,,,null,US_Cities_List/nat_hotsprings.png,US_Cities_List/nat_huntsville.png,,,,,,,,,,,,,,,,,,,,,,,,,,,,
404.30000001192093,,rt_plussign_withcolor,455314,green,,,,,49,US_Cities_List/nat_hotsprings.png,US_Cities_List/nat_huntsville.png,,,,,,,,,,,,,,,,,,,,,,,,,,,,
null,,rt_thecrossant_black,456640,black_plus_sign,,,,,50,,,0,0.7692307692307693,,,,,,,,,,,,,,,,,,,,,,,,,,
null,,color_black,456746,black_plus_sign,,,,,null,,,,,,,,,,,,,,,,,,,,,,,,,,,,,,
null,,learn_phase(without_color),459280,black_plus_sign,,,,,null,US_Cities_List/nat_newhope.png,US_Cities_List/nat_hanover.png,,,,,,,,,,,,,,,,,,,,,,,,,,,,
null,,black_cross(without_color),460096,green,,,,,null,US_Cities_List/nat_newhope.png,US_Cities_List/nat_hanover.png,,,,,,,,,,,,,,,,,,,,,,,,,,,,
null,,rt_plussign_withcolor,460606,green,,,,,null,US_Cities_List/nat_newhope.png,US_Cities_List/nat_hanover.png,,,,,,,,,,,,,,,,,,,,,,,,,,,,
972.3000000119209,,rt_thecrossant_black,461817,black_plus_sign,,,,,50,,,1,0.7857142857142857,,,,,,,,,,,,,,,,,,,,,,,,,,
null,,color_black,461923,black_plus_sign,,,,,null,,,,,,,,,,,,,,,,,,,,,,,,,,,,,,
null,,learn_phase(without_color),464485,black_plus_sign,,,,,null,US_Cities_List/nat_cornwall.png,US_Cities_List/nat_shreveport.png,,,,,,,,,,,,,,,,,,,,,,,,,,,,
null,,black_cross(without_color),465431,blue,,,,,null,US_Cities_List/nat_cornwall.png,US_Cities_List/nat_shreveport.png,,,,,,,,,,,,,,,,,,,,,,,,,,,,
429.30000001192093,,rt_plussign_withcolor,465945,blue,,,,,49,US_Cities_List/nat_cornwall.png,US_Cities_List/nat_shreveport.png,,,,,,,,,,,,,,,,,,,,,,,,,,,,
null,,rt_thecrossant_black,467013,black_plus_sign,,,,,null,,,1,0.8,,,,,,,,,,,,,,,,,,,,,,,,,,
null,,color_black,467128,black_plus_sign,,,,,null,,,,,,,,,,,,,,,,,,,,,,,,,,,,,,
null,,learn_phase(without_color),469676,black_plus_sign,,,,,null,US_Cities_List/mm_gatlinburg.png,US_Cities_List/nat_newhope.png,,,,,,,,,,,,,,,,,,,,,,,,,,,,
null,,black_cross(without_color),470634,green,,,,,null,US_Cities_List/mm_gatlinburg.png,US_Cities_List/nat_newhope.png,,,,,,,,,,,,,,,,,,,,,,,,,,,,
null,,rt_plussign_withcolor,471147,green,,,,,null,US_Cities_List/mm_gatlinburg.png,US_Cities_List/nat_newhope.png,,,,,,,,,,,,,,,,,,,,,,,,,,,,
1063.699999988079,,rt_thecrossant_black,472199,black_plus_sign,,,,,50,,,1,0.8125,,,,,,,,,,,,,,,,,,,,,,,,,,
null,,color_black,472304,black_plus_sign,,,,,null,,,,,,,,,,,,,,,,,,,,,,,,,,,,,,
null,,learn_phase(without_color),474850,black_plus_sign,,,,,null,US_Cities_List/mm_boulder.png,US_Cities_List/mm_peoria.png,,,,,,,,,,,,,,,,,,,,,,,,,,,,
null,,black_cross(without_color),475626,green,,,,,null,US_Cities_List/mm_boulder.png,US_Cities_List/mm_peoria.png,,,,,,,,,,,,,,,,,,,,,,,,,,,,
395.09999999403954,,rt_plussign_withcolor,476130,green,,,,,50,US_Cities_List/mm_boulder.png,US_Cities_List/mm_peoria.png,,,,,,,,,,,,,,,,,,,,,,,,,,,,
null,,rt_thecrossant_black,477368,black_plus_sign,,,,,null,,,1,0.8235294117647058,,,,,,,,,,,,,,,,,,,,,,,,,,
null,,color_black,477474,black_plus_sign,,,,,null,,,,,,,,,,,,,,,,,,,,,,,,,,,,,,
null,,learn_phase(without_color),480024,black_plus_sign,,,,,null,US_Cities_List/mm_racine.png,US_Cities_List/mm_gatlinburg.png,,,,,,,,,,,,,,,,,,,,,,,,,,,,
null,,black_cross(without_color),480506,green,,,,,null,US_Cities_List/mm_racine.png,US_Cities_List/mm_gatlinburg.png,,,,,,,,,,,,,,,,,,,,,,,,,,,,
407.5,,rt_plussign_withcolor,481009,green,,,,,50,US_Cities_List/mm_racine.png,US_Cities_List/mm_gatlinburg.png,,,,,,,,,,,,,,,,,,,,,,,,,,,,
null,,rt_thecrossant_black,482545,black_plus_sign,,,,,null,,,1,0.8333333333333334,,,,,,,,,,,,,,,,,,,,,,,,,,
null,,color_black,482653,black_plus_sign,,,,,null,,,,,,,,,,,,,,,,,,,,,,,,,,,,,,
null,,learn_phase(without_color),485187,black_plus_sign,,,,,null,US_Cities_List/mm_gatlinburg.png,US_Cities_List/nat_newhope.png,,,,,,,,,,,,,,,,,,,,,,,,,,,,
null,,black_cross(without_color),485675,blue,,,,,null,US_Cities_List/mm_gatlinburg.png,US_Cities_List/nat_newhope.png,,,,,,,,,,,,,,,,,,,,,,,,,,,,
499.40000000596046,,rt_plussign_withcolor,486177,blue,,,,,49,US_Cities_List/mm_gatlinburg.png,US_Cities_List/nat_newhope.png,,,,,,,,,,,,,,,,,,,,,,,,,,,,
null,,rt_thecrossant_black,487703,black_plus_sign,,,,,null,,,1,0.8421052631578947,,,,,,,,,,,,,,,,,,,,,,,,,,
null,,color_black,487807,black_plus_sign,,,,,null,,,,,,,,,,,,,,,,,,,,,,,,,,,,,,
null,,learn_phase(without_color),490365,black_plus_sign,,,,,null,US_Cities_List/mm_racine.png,US_Cities_List/mm_gatlinburg.png,,,,,,,,,,,,,,,,,,,,,,,,,,,,
null,,black_cross(without_color),491054,blue,,,,,null,US_Cities_List/mm_racine.png,US_Cities_List/mm_gatlinburg.png,,,,,,,,,,,,,,,,,,,,,,,,,,,,
null,,rt_plussign_withcolor,491556,blue,,,,,null,US_Cities_List/mm_racine.png,US_Cities_List/mm_gatlinburg.png,,,,,,,,,,,,,,,,,,,,,,,,,,,,
783.3000000119209,,rt_thecrossant_black,492881,black_plus_sign,,,,,49,,,1,0.85,,,,,,,,,,,,,,,,,,,,,,,,,,
null,,color_black,492995,black_plus_sign,,,,,null,,,,,,,,,,,,,,,,,,,,,,,,,,,,,,
null,,learn_phase(without_color),495534,black_plus_sign,,,,,null,US_Cities_List/nat_cornwall.png,US_Cities_List/nat_huntsville.png,,,,,,,,,,,,,,,,,,,,,,,,,,,,
null,,black_cross(without_color),495982,green,,,,,null,US_Cities_List/nat_cornwall.png,US_Cities_List/nat_huntsville.png,,,,,,,,,,,,,,,,,,,,,,,,,,,,
415.40000000596046,,rt_plussign_withcolor,496494,green,,,,,50,US_Cities_List/nat_cornwall.png,US_Cities_List/nat_huntsville.png,,,,,,,,,,,,,,,,,,,,,,,,,,,,
null,,rt_thecrossant_black,498068,black_plus_sign,,,,,null,,,1,0.8571428571428571,,,,,,,,,,,,,,,,,,,,,,,,,,
null,,color_black,498178,black_plus_sign,,,,,null,,,,,,,,,,,,,,,,,,,,,,,,,,,,,,
null,,learn_phase(without_color),500743,black_plus_sign,,,,,null,US_Cities_List/mm_boulder.png,US_Cities_List/nat_carmel.png,,,,,,,,,,,,,,,,,,,,,,,,,,,,
null,,black_cross(without_color),501417,blue,,,,,null,US_Cities_List/mm_boulder.png,US_Cities_List/nat_carmel.png,,,,,,,,,,,,,,,,,,,,,,,,,,,,
482.69999998807907,,rt_plussign_withcolor,501921,blue,,,,,49,US_Cities_List/mm_boulder.png,US_Cities_List/nat_carmel.png,,,,,,,,,,,,,,,,,,,,,,,,,,,,
null,,rt_thecrossant_black,503261,black_plus_sign,,,,,null,,,1,0.8636363636363636,,,,,,,,,,,,,,,,,,,,,,,,,,
null,,color_black,503366,black_plus_sign,,,,,null,,,,,,,,,,,,,,,,,,,,,,,,,,,,,,
null,,learn_phase(without_color),505911,black_plus_sign,,,,,null,US_Cities_List/mm_racine.png,US_Cities_List/mm_gatlinburg.png,,,,,,,,,,,,,,,,,,,,,,,,,,,,
null,,black_cross(without_color),506672,green,,,,,null,US_Cities_List/mm_racine.png,US_Cities_List/mm_gatlinburg.png,,,,,,,,,,,,,,,,,,,,,,,,,,,,
401.7999999821186,,rt_plussign_withcolor,507175,green,,,,,50,US_Cities_List/mm_racine.png,US_Cities_List/mm_gatlinburg.png,,,,,,,,,,,,,,,,,,,,,,,,,,,,
null,,rt_thecrossant_black,508440,black_plus_sign,,,,,null,,,1,0.8695652173913043,,,,,,,,,,,,,,,,,,,,,,,,,,
null,,color_black,508550,black_plus_sign,,,,,null,,,,,,,,,,,,,,,,,,,,,,,,,,,,,,
null,,learn_phase(without_color),511105,black_plus_sign,,,,,null,US_Cities_List/nat_cornwall.png,US_Cities_List/nat_westpalmbeach.png,,,,,,,,,,,,,,,,,,,,,,,,,,,,
null,,black_cross(without_color),512149,blue,,,,,null,US_Cities_List/nat_cornwall.png,US_Cities_List/nat_westpalmbeach.png,,,,,,,,,,,,,,,,,,,,,,,,,,,,
473.19999998807907,,rt_plussign_withcolor,512651,blue,,,,,49,US_Cities_List/nat_cornwall.png,US_Cities_List/nat_westpalmbeach.png,,,,,,,,,,,,,,,,,,,,,,,,,,,,
null,,rt_thecrossant_black,513628,black_plus_sign,,,,,null,,,1,0.875,,,,,,,,,,,,,,,,,,,,,,,,,,
null,,color_black,513734,black_plus_sign,,,,,null,,,,,,,,,,,,,,,,,,,,,,,,,,,,,,
null,,learn_phase(without_color),516313,black_plus_sign,,,,,null,US_Cities_List/mm_boulder.png,US_Cities_List/nat_carmel.png,,,,,,,,,,,,,,,,,,,,,,,,,,,,
null,,black_cross(without_color),517276,blue,,,,,null,US_Cities_List/mm_boulder.png,US_Cities_List/nat_carmel.png,,,,,,,,,,,,,,,,,,,,,,,,,,,,
455.30000001192093,,rt_plussign_withcolor,517780,blue,,,,,49,US_Cities_List/mm_boulder.png,US_Cities_List/nat_carmel.png,,,,,,,,,,,,,,,,,,,,,,,,,,,,
null,,rt_thecrossant_black,518848,black_plus_sign,,,,,null,,,1,0.88,,,,,,,,,,,,,,,,,,,,,,,,,,
null,,color_black,518965,black_plus_sign,,,,,null,,,,,,,,,,,,,,,,,,,,,,,,,,,,,,
null,,learn_phase(without_color),521516,black_plus_sign,,,,,null,US_Cities_List/mm_gatlinburg.png,US_Cities_List/nat_newhope.png,,,,,,,,,,,,,,,,,,,,,,,,,,,,
null,,black_cross(without_color),522006,green,,,,,null,US_Cities_List/mm_gatlinburg.png,US_Cities_List/nat_newhope.png,,,,,,,,,,,,,,,,,,,,,,,,,,,,
null,,rt_plussign_withcolor,522511,green,,,,,null,US_Cities_List/mm_gatlinburg.png,US_Cities_List/nat_newhope.png,,,,,,,,,,,,,,,,,,,,,,,,,,,,
1315.9000000059605,,rt_thecrossant_black,524047,black_plus_sign,,,,,50,,,1,0.8846153846153846,,,,,,,,,,,,,,,,,,,,,,,,,,
null,,color_black,524152,black_plus_sign,,,,,null,,,,,,,,,,,,,,,,,,,,,,,,,,,,,,
null,,learn_phase(without_color),526707,black_plus_sign,,,,,null,US_Cities_List/nat_newhope.png,US_Cities_List/nat_hanover.png,,,,,,,,,,,,,,,,,,,,,,,,,,,,
null,,black_cross(without_color),527601,blue,,,,,null,US_Cities_List/nat_newhope.png,US_Cities_List/nat_hanover.png,,,,,,,,,,,,,,,,,,,,,,,,,,,,
390.19999998807907,,rt_plussign_withcolor,528106,blue,,,,,49,US_Cities_List/nat_newhope.png,US_Cities_List/nat_hanover.png,,,,,,,,,,,,,,,,,,,,,,,,,,,,
null,,rt_thecrossant_black,529228,black_plus_sign,,,,,null,,,1,0.8888888888888888,,,,,,,,,,,,,,,,,,,,,,,,,,
null,,color_black,529345,black_plus_sign,,,,,null,,,,,,,,,,,,,,,,,,,,,,,,,,,,,,
null,,learn_phase(without_color),531895,black_plus_sign,,,,,null,US_Cities_List/nat_westpalmbeach.png,US_Cities_List/nat_leesburg.png,,,,,,,,,,,,,,,,,,,,,,,,,,,,
null,,black_cross(without_color),532900,green,,,,,null,US_Cities_List/nat_westpalmbeach.png,US_Cities_List/nat_leesburg.png,,,,,,,,,,,,,,,,,,,,,,,,,,,,
397.30000001192093,,rt_plussign_withcolor,533404,green,,,,,50,US_Cities_List/nat_westpalmbeach.png,US_Cities_List/nat_leesburg.png,,,,,,,,,,,,,,,,,,,,,,,,,,,,
null,,rt_thecrossant_black,534414,black_plus_sign,,,,,null,,,1,0.8928571428571429,,,,,,,,,,,,,,,,,,,,,,,,,,
null,,color_black,534520,black_plus_sign,,,,,null,,,,,,,,,,,,,,,,,,,,,,,,,,,,,,
null,,learn_phase(without_color),537076,black_plus_sign,,,,,null,US_Cities_List/nat_cornwall.png,US_Cities_List/nat_huntsville.png,,,,,,,,,,,,,,,,,,,,,,,,,,,,
null,,black_cross(without_color),537987,green,,,,,null,US_Cities_List/nat_cornwall.png,US_Cities_List/nat_huntsville.png,,,,,,,,,,,,,,,,,,,,,,,,,,,,
474.59999999403954,,rt_plussign_withcolor,538490,green,,,,,50,US_Cities_List/nat_cornwall.png,US_Cities_List/nat_huntsville.png,,,,,,,,,,,,,,,,,,,,,,,,,,,,
null,,rt_thecrossant_black,539601,black_plus_sign,,,,,null,,,1,0.896551724137931,,,,,,,,,,,,,,,,,,,,,,,,,,
null,,color_black,539714,black_plus_sign,,,,,null,,,,,,,,,,,,,,,,,,,,,,,,,,,,,,
null,,learn_phase(without_color),542251,black_plus_sign,,,,,null,US_Cities_List/nat_westpalmbeach.png,US_Cities_List/nat_huntsville.png,,,,,,,,,,,,,,,,,,,,,,,,,,,,
null,,black_cross(without_color),543000,blue,,,,,null,US_Cities_List/nat_westpalmbeach.png,US_Cities_List/nat_huntsville.png,,,,,,,,,,,,,,,,,,,,,,,,,,,,
null,,rt_plussign_withcolor,543503,blue,,,,,null,US_Cities_List/nat_westpalmbeach.png,US_Cities_List/nat_huntsville.png,,,,,,,,,,,,,,,,,,,,,,,,,,,,
1109.7000000178814,,rt_thecrossant_black,544778,black_plus_sign,,,,,49,,,1,0.9,,,,,,,,,,,,,,,,,,,,,,,,,,
null,,color_black,544882,black_plus_sign,,,,,null,,,,,,,,,,,,,,,,,,,,,,,,,,,,,,
null,,learn_phase(without_color),547441,black_plus_sign,,,,,null,US_Cities_List/nat_westpalmbeach.png,US_Cities_List/nat_leesburg.png,,,,,,,,,,,,,,,,,,,,,,,,,,,,
null,,black_cross(without_color),548367,blue,,,,,null,US_Cities_List/nat_westpalmbeach.png,US_Cities_List/nat_leesburg.png,,,,,,,,,,,,,,,,,,,,,,,,,,,,
null,,rt_plussign_withcolor,548872,blue,,,,,null,US_Cities_List/nat_westpalmbeach.png,US_Cities_List/nat_leesburg.png,,,,,,,,,,,,,,,,,,,,,,,,,,,,
840.3000000119209,,rt_thecrossant_black,549959,black_plus_sign,,,,,49,,,1,0.9032258064516129,,,,,,,,,,,,,,,,,,,,,,,,,,
null,,color_black,550070,black_plus_sign,,,,,null,,,,,,,,,,,,,,,,,,,,,,,,,,,,,,
null,,learn_phase(without_color),552623,black_plus_sign,,,,,null,US_Cities_List/mm_boulder.png,US_Cities_List/nat_carmel.png,,,,,,,,,,,,,,,,,,,,,,,,,,,,
null,,black_cross(without_color),553601,green,,,,,null,US_Cities_List/mm_boulder.png,US_Cities_List/nat_carmel.png,,,,,,,,,,,,,,,,,,,,,,,,,,,,
483.09999999403954,,rt_plussign_withcolor,554107,green,,,,,50,US_Cities_List/mm_boulder.png,US_Cities_List/nat_carmel.png,,,,,,,,,,,,,,,,,,,,,,,,,,,,
null,,rt_thecrossant_black,555147,black_plus_sign,,,,,null,,,1,0.90625,,,,,,,,,,,,,,,,,,,,,,,,,,
null,,color_black,555259,black_plus_sign,,,,,null,,,,,,,,,,,,,,,,,,,,,,,,,,,,,,
null,,learn_phase(without_color),557809,black_plus_sign,,,,,null,US_Cities_List/nat_westpalmbeach.png,US_Cities_List/nat_leesburg.png,,,,,,,,,,,,,,,,,,,,,,,,,,,,
null,,black_cross(without_color),558337,green,,,,,null,US_Cities_List/nat_westpalmbeach.png,US_Cities_List/nat_leesburg.png,,,,,,,,,,,,,,,,,,,,,,,,,,,,
null,,rt_plussign_withcolor,558852,green,,,,,null,US_Cities_List/nat_westpalmbeach.png,US_Cities_List/nat_leesburg.png,,,,,,,,,,,,,,,,,,,,,,,,,,,,
1156.5999999940395,,rt_thecrossant_black,560341,black_plus_sign,,,,,50,,,1,0.9090909090909091,,,,,,,,,,,,,,,,,,,,,,,,,,
null,,color_black,560449,black_plus_sign,,,,,null,,,,,,,,,,,,,,,,,,,,,,,,,,,,,,
null,,learn_phase(without_color),562980,black_plus_sign,,,,,null,US_Cities_List/mm_boulder.png,US_Cities_List/mm_peoria.png,,,,,,,,,,,,,,,,,,,,,,,,,,,,
null,,black_cross(without_color),563770,green,,,,,null,US_Cities_List/mm_boulder.png,US_Cities_List/mm_peoria.png,,,,,,,,,,,,,,,,,,,,,,,,,,,,
294.19999998807907,,rt_plussign_withcolor,564273,green,,,,,50,US_Cities_List/mm_boulder.png,US_Cities_List/mm_peoria.png,,,,,,,,,,,,,,,,,,,,,,,,,,,,
null,,rt_thecrossant_black,565495,black_plus_sign,,,,,null,,,1,0.9117647058823529,,,,,,,,,,,,,,,,,,,,,,,,,,
null,,color_black,565601,black_plus_sign,,,,,null,,,,,,,,,,,,,,,,,,,,,,,,,,,,,,
null,,learn_phase(without_color),568158,black_plus_sign,,,,,null,US_Cities_List/nat_westpalmbeach.png,US_Cities_List/nat_huntsville.png,,,,,,,,,,,,,,,,,,,,,,,,,,,,
null,,black_cross(without_color),569015,green,,,,,null,US_Cities_List/nat_westpalmbeach.png,US_Cities_List/nat_huntsville.png,,,,,,,,,,,,,,,,,,,,,,,,,,,,
315.90000000596046,,rt_plussign_withcolor,569520,green,,,,,50,US_Cities_List/nat_westpalmbeach.png,US_Cities_List/nat_huntsville.png,,,,,,,,,,,,,,,,,,,,,,,,,,,,
null,,rt_thecrossant_black,570684,black_plus_sign,,,,,null,,,1,0.9142857142857143,,,,,,,,,,,,,,,,,,,,,,,,,,
null,,color_black,570786,black_plus_sign,,,,,null,,,,,,,,,,,,,,,,,,,,,,,,,,,,,,
null,,learn_phase(without_color),573313,black_plus_sign,,,,,null,US_Cities_List/mm_gatlinburg.png,US_Cities_List/mm_boulder.png,,,,,,,,,,,,,,,,,,,,,,,,,,,,
null,,black_cross(without_color),573773,green,,,,,null,US_Cities_List/mm_gatlinburg.png,US_Cities_List/mm_boulder.png,,,,,,,,,,,,,,,,,,,,,,,,,,,,
438.19999998807907,,rt_plussign_withcolor,574276,green,,,,,50,US_Cities_List/mm_gatlinburg.png,US_Cities_List/mm_boulder.png,,,,,,,,,,,,,,,,,,,,,,,,,,,,
null,,rt_thecrossant_black,575827,black_plus_sign,,,,,null,,,1,0.9166666666666666,,,,,,,,,,,,,,,,,,,,,,,,,,
null,,color_black,575931,black_plus_sign,,,,,null,,,,,,,,,,,,,,,,,,,,,,,,,,,,,,
null,,learn_phase(without_color),578490,black_plus_sign,,,,,null,US_Cities_List/nat_cornwall.png,US_Cities_List/nat_westpalmbeach.png,,,,,,,,,,,,,,,,,,,,,,,,,,,,
null,,black_cross(without_color),579535,green,,,,,null,US_Cities_List/nat_cornwall.png,US_Cities_List/nat_westpalmbeach.png,,,,,,,,,,,,,,,,,,,,,,,,,,,,
409.30000001192093,,rt_plussign_withcolor,580055,green,,,,,50,US_Cities_List/nat_cornwall.png,US_Cities_List/nat_westpalmbeach.png,,,,,,,,,,,,,,,,,,,,,,,,,,,,
null,,rt_thecrossant_black,581033,black_plus_sign,,,,,null,,,1,0.918918918918919,,,,,,,,,,,,,,,,,,,,,,,,,,
null,,color_black,581144,black_plus_sign,,,,,null,,,,,,,,,,,,,,,,,,,,,,,,,,,,,,
null,,learn_phase(without_color),583677,black_plus_sign,,,,,null,US_Cities_List/mm_boulder.png,US_Cities_List/nat_carmel.png,,,,,,,,,,,,,,,,,,,,,,,,,,,,
null,,black_cross(without_color),584386,green,,,,,null,US_Cities_List/mm_boulder.png,US_Cities_List/nat_carmel.png,,,,,,,,,,,,,,,,,,,,,,,,,,,,
null,,rt_plussign_withcolor,584893,green,,,,,null,US_Cities_List/mm_boulder.png,US_Cities_List/nat_carmel.png,,,,,,,,,,,,,,,,,,,,,,,,,,,,
1146,,rt_thecrossant_black,586210,black_plus_sign,,,,,50,,,1,0.9210526315789473,,,,,,,,,,,,,,,,,,,,,,,,,,
null,,color_black,586322,black_plus_sign,,,,,null,,,,,,,,,,,,,,,,,,,,,,,,,,,,,,
null,,learn_phase(without_color),588875,black_plus_sign,,,,,null,US_Cities_List/nat_cornwall.png,US_Cities_List/nat_westpalmbeach.png,,,,,,,,,,,,,,,,,,,,,,,,,,,,
null,,black_cross(without_color),589712,green,,,,,null,US_Cities_List/nat_cornwall.png,US_Cities_List/nat_westpalmbeach.png,,,,,,,,,,,,,,,,,,,,,,,,,,,,
432.90000000596046,,rt_plussign_withcolor,590224,green,,,,,50,US_Cities_List/nat_cornwall.png,US_Cities_List/nat_westpalmbeach.png,,,,,,,,,,,,,,,,,,,,,,,,,,,,
null,,rt_thecrossant_black,591401,black_plus_sign,,,,,null,,,1,0.9230769230769231,,,,,,,,,,,,,,,,,,,,,,,,,,
null,,color_black,591513,black_plus_sign,,,,,null,,,,,,,,,,,,,,,,,,,,,,,,,,,,,,
null,,learn_phase(without_color),594061,black_plus_sign,,,,,null,US_Cities_List/mm_gatlinburg.png,US_Cities_List/mm_boulder.png,,,,,,,,,,,,,,,,,,,,,,,,,,,,
null,,black_cross(without_color),594486,green,,,,,null,US_Cities_List/mm_gatlinburg.png,US_Cities_List/mm_boulder.png,,,,,,,,,,,,,,,,,,,,,,,,,,,,
369.89999997615814,,rt_plussign_withcolor,594990,green,,,,,50,US_Cities_List/mm_gatlinburg.png,US_Cities_List/mm_boulder.png,,,,,,,,,,,,,,,,,,,,,,,,,,,,
null,,rt_thecrossant_black,596589,black_plus_sign,,,,,null,,,1,0.925,,,,,,,,,,,,,,,,,,,,,,,,,,
null,,color_black,596707,black_plus_sign,,,,,null,,,,,,,,,,,,,,,,,,,,,,,,,,,,,,
null,,learn_phase(without_color),599262,black_plus_sign,,,,,null,US_Cities_List/nat_huntsville.png,US_Cities_List/nat_hanover.png,,,,,,,,,,,,,,,,,,,,,,,,,,,,
null,,black_cross(without_color),599677,green,,,,,null,US_Cities_List/nat_huntsville.png,US_Cities_List/nat_hanover.png,,,,,,,,,,,,,,,,,,,,,,,,,,,,
371.2999999821186,,rt_plussign_withcolor,600180,green,,,,,50,US_Cities_List/nat_huntsville.png,US_Cities_List/nat_hanover.png,,,,,,,,,,,,,,,,,,,,,,,,,,,,
null,,rt_thecrossant_black,601788,black_plus_sign,,,,,null,,,1,0.926829268292683,,,,,,,,,,,,,,,,,,,,,,,,,,
null,,color_black,601899,black_plus_sign,,,,,null,,,,,,,,,,,,,,,,,,,,,,,,,,,,,,
null,,learn_phase(without_color),604433,black_plus_sign,,,,,null,US_Cities_List/mm_boulder.png,US_Cities_List/nat_carmel.png,,,,,,,,,,,,,,,,,,,,,,,,,,,,
null,,black_cross(without_color),605167,blue,,,,,null,US_Cities_List/mm_boulder.png,US_Cities_List/nat_carmel.png,,,,,,,,,,,,,,,,,,,,,,,,,,,,
494.90000000596046,,rt_plussign_withcolor,605676,blue,,,,,49,US_Cities_List/mm_boulder.png,US_Cities_List/nat_carmel.png,,,,,,,,,,,,,,,,,,,,,,,,,,,,
null,,rt_thecrossant_black,606957,black_plus_sign,,,,,null,,,1,0.9285714285714286,,,,,,,,,,,,,,,,,,,,,,,,,,
null,,color_black,607071,black_plus_sign,,,,,null,,,,,,,,,,,,,,,,,,,,,,,,,,,,,,
null,,learn_phase(without_color),609640,black_plus_sign,,,,,null,US_Cities_List/nat_hotsprings.png,US_Cities_List/nat_huntsville.png,,,,,,,,,,,,,,,,,,,,,,,,,,,,
null,,black_cross(without_color),610443,green,,,,,null,US_Cities_List/nat_hotsprings.png,US_Cities_List/nat_huntsville.png,,,,,,,,,,,,,,,,,,,,,,,,,,,,
null,,rt_plussign_withcolor,610954,green,,,,,null,US_Cities_List/nat_hotsprings.png,US_Cities_List/nat_huntsville.png,,,,,,,,,,,,,,,,,,,,,,,,,,,,
836.6999999880791,,rt_thecrossant_black,612168,black_plus_sign,,,,,50,,,1,0.9302325581395349,,,,,,,,,,,,,,,,,,,,,,,,,,
null,,color_black,612273,black_plus_sign,,,,,null,,,,,,,,,,,,,,,,,,,,,,,,,,,,,,
null,,learn_phase(without_color),614803,black_plus_sign,,,,,null,US_Cities_List/mm_boulder.png,US_Cities_List/nat_carmel.png,,,,,,,,,,,,,,,,,,,,,,,,,,,,
null,,black_cross(without_color),615553,blue,,,,,null,US_Cities_List/mm_boulder.png,US_Cities_List/nat_carmel.png,,,,,,,,,,,,,,,,,,,,,,,,,,,,
null,,rt_plussign_withcolor,616062,blue,,,,,null,US_Cities_List/mm_boulder.png,US_Cities_List/nat_carmel.png,,,,,,,,,,,,,,,,,,,,,,,,,,,,
1024.7000000178814,,rt_thecrossant_black,617330,black_plus_sign,,,,,49,,,1,0.9318181818181818,,,,,,,,,,,,,,,,,,,,,,,,,,
null,,color_black,617435,black_plus_sign,,,,,null,,,,,,,,,,,,,,,,,,,,,,,,,,,,,,
null,,learn_phase(without_color),619984,black_plus_sign,,,,,null,US_Cities_List/nat_cornwall.png,US_Cities_List/nat_huntsville.png,,,,,,,,,,,,,,,,,,,,,,,,,,,,
null,,black_cross(without_color),620766,blue,,,,,null,US_Cities_List/nat_cornwall.png,US_Cities_List/nat_huntsville.png,,,,,,,,,,,,,,,,,,,,,,,,,,,,
434.30000001192093,,rt_plussign_withcolor,621269,blue,,,,,49,US_Cities_List/nat_cornwall.png,US_Cities_List/nat_huntsville.png,,,,,,,,,,,,,,,,,,,,,,,,,,,,
null,,rt_thecrossant_black,622497,black_plus_sign,,,,,null,,,1,0.9333333333333333,,,,,,,,,,,,,,,,,,,,,,,,,,
null,,color_black,622609,black_plus_sign,,,,,null,,,,,,,,,,,,,,,,,,,,,,,,,,,,,,
null,,learn_phase(without_color),625134,black_plus_sign,,,,,null,US_Cities_List/mm_racine.png,US_Cities_List/mm_gatlinburg.png,,,,,,,,,,,,,,,,,,,,,,,,,,,,
null,,black_cross(without_color),625741,green,,,,,null,US_Cities_List/mm_racine.png,US_Cities_List/mm_gatlinburg.png,,,,,,,,,,,,,,,,,,,,,,,,,,,,
414.90000000596046,,rt_plussign_withcolor,626253,green,,,,,50,US_Cities_List/mm_racine.png,US_Cities_List/mm_gatlinburg.png,,,,,,,,,,,,,,,,,,,,,,,,,,,,
null,,rt_thecrossant_black,627670,black_plus_sign,,,,,null,,,1,0.9347826086956522,,,,,,,,,,,,,,,,,,,,,,,,,,
null,,color_black,627776,black_plus_sign,,,,,null,,,,,,,,,,,,,,,,,,,,,,,,,,,,,,
null,,learn_phase(without_color),630314,black_plus_sign,,,,,null,US_Cities_List/nat_hotsprings.png,US_Cities_List/nat_cornwall.png,,,,,,,,,,,,,,,,,,,,,,,,,,,,
null,,black_cross(without_color),631350,green,,,,,null,US_Cities_List/nat_hotsprings.png,US_Cities_List/nat_cornwall.png,,,,,,,,,,,,,,,,,,,,,,,,,,,,
387.2000000178814,,rt_plussign_withcolor,631867,green,,,,,50,US_Cities_List/nat_hotsprings.png,US_Cities_List/nat_cornwall.png,,,,,,,,,,,,,,,,,,,,,,,,,,,,
null,,rt_thecrossant_black,632860,black_plus_sign,,,,,null,,,1,0.9361702127659575,,,,,,,,,,,,,,,,,,,,,,,,,,
null,,color_black,632969,black_plus_sign,,,,,null,,,,,,,,,,,,,,,,,,,,,,,,,,,,,,
null,,learn_phase(without_color),635499,black_plus_sign,,,,,null,US_Cities_List/nat_newhope.png,US_Cities_List/nat_hotsprings.png,,,,,,,,,,,,,,,,,,,,,,,,,,,,
null,,black_cross(without_color),636161,blue,,,,,null,US_Cities_List/nat_newhope.png,US_Cities_List/nat_hotsprings.png,,,,,,,,,,,,,,,,,,,,,,,,,,,,
447.69999998807907,,rt_plussign_withcolor,636668,blue,,,,,49,US_Cities_List/nat_newhope.png,US_Cities_List/nat_hotsprings.png,,,,,,,,,,,,,,,,,,,,,,,,,,,,
null,,rt_thecrossant_black,638015,black_plus_sign,,,,,null,,,1,0.9375,,,,,,,,,,,,,,,,,,,,,,,,,,
null,,color_black,638130,black_plus_sign,,,,,null,,,,,,,,,,,,,,,,,,,,,,,,,,,,,,
null,,learn_phase(without_color),640654,black_plus_sign,,,,,null,US_Cities_List/nat_huntsville.png,US_Cities_List/nat_hanover.png,,,,,,,,,,,,,,,,,,,,,,,,,,,,
null,,black_cross(without_color),641509,green,,,,,null,US_Cities_List/nat_huntsville.png,US_Cities_List/nat_hanover.png,,,,,,,,,,,,,,,,,,,,,,,,,,,,
null,,rt_plussign_withcolor,642019,green,,,,,null,US_Cities_List/nat_huntsville.png,US_Cities_List/nat_hanover.png,,,,,,,,,,,,,,,,,,,,,,,,,,,,
777.0999999940395,,rt_thecrossant_black,643175,black_plus_sign,,,,,50,,,1,0.9387755102040817,,,,,,,,,,,,,,,,,,,,,,,,,,
null,,color_black,643288,black_plus_sign,,,,,null,,,,,,,,,,,,,,,,,,,,,,,,,,,,,,
null,,learn_phase(without_color),645815,black_plus_sign,,,,,null,US_Cities_List/nat_newhope.png,US_Cities_List/nat_hotsprings.png,,,,,,,,,,,,,,,,,,,,,,,,,,,,
null,,black_cross(without_color),646900,green,,,,,null,US_Cities_List/nat_newhope.png,US_Cities_List/nat_hotsprings.png,,,,,,,,,,,,,,,,,,,,,,,,,,,,
419.60000002384186,,rt_plussign_withcolor,647414,green,,,,,50,US_Cities_List/nat_newhope.png,US_Cities_List/nat_hotsprings.png,,,,,,,,,,,,,,,,,,,,,,,,,,,,
null,,rt_thecrossant_black,648354,black_plus_sign,,,,,null,,,1,0.94,,,,,,,,,,,,,,,,,,,,,,,,,,
null,,color_black,648463,black_plus_sign,,,,,null,,,,,,,,,,,,,,,,,,,,,,,,,,,,,,
null,,learn_phase(without_color),651012,black_plus_sign,,,,,null,US_Cities_List/mm_boulder.png,US_Cities_List/mm_peoria.png,,,,,,,,,,,,,,,,,,,,,,,,,,,,
null,,black_cross(without_color),651662,green,,,,,null,US_Cities_List/mm_boulder.png,US_Cities_List/mm_peoria.png,,,,,,,,,,,,,,,,,,,,,,,,,,,,
359.69999998807907,,rt_plussign_withcolor,652170,green,,,,,50,US_Cities_List/mm_boulder.png,US_Cities_List/mm_peoria.png,,,,,,,,,,,,,,,,,,,,,,,,,,,,
null,,rt_thecrossant_black,653531,black_plus_sign,,,,,null,,,1,0.9411764705882353,,,,,,,,,,,,,,,,,,,,,,,,,,
null,,color_black,653637,black_plus_sign,,,,,null,,,,,,,,,,,,,,,,,,,,,,,,,,,,,,
null,,learn_phase(without_color),656210,black_plus_sign,,,,,null,US_Cities_List/nat_newhope.png,US_Cities_List/nat_hotsprings.png,,,,,,,,,,,,,,,,,,,,,,,,,,,,
null,,black_cross(without_color),657260,green,,,,,null,US_Cities_List/nat_newhope.png,US_Cities_List/nat_hotsprings.png,,,,,,,,,,,,,,,,,,,,,,,,,,,,
388.90000000596046,,rt_plussign_withcolor,657775,green,,,,,50,US_Cities_List/nat_newhope.png,US_Cities_List/nat_hotsprings.png,,,,,,,,,,,,,,,,,,,,,,,,,,,,
null,,rt_thecrossant_black,658748,black_plus_sign,,,,,null,,,1,0.9423076923076923,,,,,,,,,,,,,,,,,,,,,,,,,,
null,,color_black,658860,black_plus_sign,,,,,null,,,,,,,,,,,,,,,,,,,,,,,,,,,,,,
null,,learn_phase(without_color),661407,black_plus_sign,,,,,null,US_Cities_List/mm_racine.png,US_Cities_List/mm_gatlinburg.png,,,,,,,,,,,,,,,,,,,,,,,,,,,,
null,,black_cross(without_color),662412,blue,,,,,null,US_Cities_List/mm_racine.png,US_Cities_List/mm_gatlinburg.png,,,,,,,,,,,,,,,,,,,,,,,,,,,,
null,,rt_plussign_withcolor,662921,blue,,,,,null,US_Cities_List/mm_racine.png,US_Cities_List/mm_gatlinburg.png,,,,,,,,,,,,,,,,,,,,,,,,,,,,
1164.5,,rt_thecrossant_black,663927,black_plus_sign,,,,,49,,,1,0.9433962264150944,,,,,,,,,,,,,,,,,,,,,,,,,,
null,,color_black,664038,black_plus_sign,,,,,null,,,,,,,,,,,,,,,,,,,,,,,,,,,,,,
null,,learn_phase(without_color),666597,black_plus_sign,,,,,null,US_Cities_List/nat_cornwall.png,US_Cities_List/nat_shreveport.png,,,,,,,,,,,,,,,,,,,,,,,,,,,,
null,,black_cross(without_color),667170,blue,,,,,null,US_Cities_List/nat_cornwall.png,US_Cities_List/nat_shreveport.png,,,,,,,,,,,,,,,,,,,,,,,,,,,,
null,,rt_plussign_withcolor,667674,blue,,,,,null,US_Cities_List/nat_cornwall.png,US_Cities_List/nat_shreveport.png,,,,,,,,,,,,,,,,,,,,,,,,,,,,
1118.2000000178814,,rt_thecrossant_black,669110,black_plus_sign,,,,,49,,,1,0.9444444444444444,,,,,,,,,,,,,,,,,,,,,,,,,,
null,,color_black,669220,black_plus_sign,,,,,null,,,,,,,,,,,,,,,,,,,,,,,,,,,,,,
null,,learn_phase(without_color),671786,black_plus_sign,,,,,null,US_Cities_List/mm_gatlinburg.png,US_Cities_List/nat_newhope.png,,,,,,,,,,,,,,,,,,,,,,,,,,,,
null,,black_cross(without_color),672717,green,,,,,null,US_Cities_List/mm_gatlinburg.png,US_Cities_List/nat_newhope.png,,,,,,,,,,,,,,,,,,,,,,,,,,,,
342.30000001192093,,rt_plussign_withcolor,673221,green,,,,,50,US_Cities_List/mm_gatlinburg.png,US_Cities_List/nat_newhope.png,,,,,,,,,,,,,,,,,,,,,,,,,,,,
null,,rt_thecrossant_black,674307,black_plus_sign,,,,,null,,,1,0.9454545454545454,,,,,,,,,,,,,,,,,,,,,,,,,,
null,,color_black,674421,black_plus_sign,,,,,null,,,,,,,,,,,,,,,,,,,,,,,,,,,,,,
null,,learn_phase(without_color),676959,black_plus_sign,,,,,null,US_Cities_List/nat_hotsprings.png,US_Cities_List/nat_cornwall.png,,,,,,,,,,,,,,,,,,,,,,,,,,,,
null,,black_cross(without_color),677950,green,,,,,null,US_Cities_List/nat_hotsprings.png,US_Cities_List/nat_cornwall.png,,,,,,,,,,,,,,,,,,,,,,,,,,,,
474.80000001192093,,rt_plussign_withcolor,678460,green,,,,,50,US_Cities_List/nat_hotsprings.png,US_Cities_List/nat_cornwall.png,,,,,,,,,,,,,,,,,,,,,,,,,,,,
null,,rt_thecrossant_black,679491,black_plus_sign,,,,,null,,,1,0.9464285714285714,,,,,,,,,,,,,,,,,,,,,,,,,,
null,,color_black,679603,black_plus_sign,,,,,null,,,,,,,,,,,,,,,,,,,,,,,,,,,,,,
null,,learn_phase(without_color),682131,black_plus_sign,,,,,null,US_Cities_List/nat_hanover.png,US_Cities_List/mm_peoria.png,,,,,,,,,,,,,,,,,,,,,,,,,,,,
null,,black_cross(without_color),683035,green,,,,,null,US_Cities_List/nat_hanover.png,US_Cities_List/mm_peoria.png,,,,,,,,,,,,,,,,,,,,,,,,,,,,
425.59999999403954,,rt_plussign_withcolor,683541,green,,,,,50,US_Cities_List/nat_hanover.png,US_Cities_List/mm_peoria.png,,,,,,,,,,,,,,,,,,,,,,,,,,,,
null,,rt_thecrossant_black,684647,black_plus_sign,,,,,null,,,1,0.9473684210526315,,,,,,,,,,,,,,,,,,,,,,,,,,
null,,color_black,684755,black_plus_sign,,,,,null,,,,,,,,,,,,,,,,,,,,,,,,,,,,,,
null,,learn_phase(without_color),687293,black_plus_sign,,,,,null,US_Cities_List/nat_newhope.png,US_Cities_List/nat_hotsprings.png,,,,,,,,,,,,,,,,,,,,,,,,,,,,
null,,black_cross(without_color),687925,blue,,,,,null,US_Cities_List/nat_newhope.png,US_Cities_List/nat_hotsprings.png,,,,,,,,,,,,,,,,,,,,,,,,,,,,
447,,rt_plussign_withcolor,688428,blue,,,,,49,US_Cities_List/nat_newhope.png,US_Cities_List/nat_hotsprings.png,,,,,,,,,,,,,,,,,,,,,,,,,,,,
null,,rt_thecrossant_black,689820,black_plus_sign,,,,,null,,,1,0.9482758620689655,,,,,,,,,,,,,,,,,,,,,,,,,,
null,,color_black,689934,black_plus_sign,,,,,null,,,,,,,,,,,,,,,,,,,,,,,,,,,,,,
null,,learn_phase(without_color),692472,black_plus_sign,,,,,null,US_Cities_List/nat_hotsprings.png,US_Cities_List/nat_huntsville.png,,,,,,,,,,,,,,,,,,,,,,,,,,,,
null,,black_cross(without_color),693362,green,,,,,null,US_Cities_List/nat_hotsprings.png,US_Cities_List/nat_huntsville.png,,,,,,,,,,,,,,,,,,,,,,,,,,,,
471.2000000178814,,rt_plussign_withcolor,693869,green,,,,,50,US_Cities_List/nat_hotsprings.png,US_Cities_List/nat_huntsville.png,,,,,,,,,,,,,,,,,,,,,,,,,,,,
null,,rt_thecrossant_black,694988,black_plus_sign,,,,,null,,,1,0.9491525423728814,,,,,,,,,,,,,,,,,,,,,,,,,,
null,,color_black,695094,black_plus_sign,,,,,null,,,,,,,,,,,,,,,,,,,,,,,,,,,,,,
null,,learn_phase(without_color),697633,black_plus_sign,,,,,null,US_Cities_List/nat_cornwall.png,US_Cities_List/nat_huntsville.png,,,,,,,,,,,,,,,,,,,,,,,,,,,,
null,,black_cross(without_color),698578,blue,,,,,null,US_Cities_List/nat_cornwall.png,US_Cities_List/nat_huntsville.png,,,,,,,,,,,,,,,,,,,,,,,,,,,,
487.5,,rt_plussign_withcolor,699085,blue,,,,,49,US_Cities_List/nat_cornwall.png,US_Cities_List/nat_huntsville.png,,,,,,,,,,,,,,,,,,,,,,,,,,,,
null,,rt_thecrossant_black,700151,black_plus_sign,,,,,null,,,1,0.95,,,,,,,,,,,,,,,,,,,,,,,,,,
null,,color_black,700267,black_plus_sign,,,,,null,,,,,,,,,,,,,,,,,,,,,,,,,,,,,,
null,,learn_phase(without_color),702798,black_plus_sign,,,,,null,US_Cities_List/nat_hanover.png,US_Cities_List/mm_peoria.png,,,,,,,,,,,,,,,,,,,,,,,,,,,,
null,,black_cross(without_color),703264,green,,,,,null,US_Cities_List/nat_hanover.png,US_Cities_List/mm_peoria.png,,,,,,,,,,,,,,,,,,,,,,,,,,,,
450.7999999821186,,rt_plussign_withcolor,703772,green,,,,,50,US_Cities_List/nat_hanover.png,US_Cities_List/mm_peoria.png,,,,,,,,,,,,,,,,,,,,,,,,,,,,
null,,rt_thecrossant_black,705334,black_plus_sign,,,,,null,,,1,0.9508196721311475,,,,,,,,,,,,,,,,,,,,,,,,,,
null,,color_black,705439,black_plus_sign,,,,,null,,,,,,,,,,,,,,,,,,,,,,,,,,,,,,
null,,learn_phase(without_color),707973,black_plus_sign,,,,,null,US_Cities_List/nat_westpalmbeach.png,US_Cities_List/nat_huntsville.png,,,,,,,,,,,,,,,,,,,,,,,,,,,,
null,,black_cross(without_color),708857,blue,,,,,null,US_Cities_List/nat_westpalmbeach.png,US_Cities_List/nat_huntsville.png,,,,,,,,,,,,,,,,,,,,,,,,,,,,
360.2999999821186,,rt_plussign_withcolor,709362,blue,,,,,49,US_Cities_List/nat_westpalmbeach.png,US_Cities_List/nat_huntsville.png,,,,,,,,,,,,,,,,,,,,,,,,,,,,
null,,rt_thecrossant_black,710494,black_plus_sign,,,,,null,,,1,0.9516129032258065,,,,,,,,,,,,,,,,,,,,,,,,,,
null,,color_black,710610,black_plus_sign,,,,,null,,,,,,,,,,,,,,,,,,,,,,,,,,,,,,
null,,learn_phase(without_color),713184,black_plus_sign,,,,,null,US_Cities_List/nat_newhope.png,US_Cities_List/nat_hanover.png,,,,,,,,,,,,,,,,,,,,,,,,,,,,
null,,black_cross(without_color),714112,green,,,,,null,US_Cities_List/nat_newhope.png,US_Cities_List/nat_hanover.png,,,,,,,,,,,,,,,,,,,,,,,,,,,,
451.59999999403954,,rt_plussign_withcolor,714617,green,,,,,50,US_Cities_List/nat_newhope.png,US_Cities_List/nat_hanover.png,,,,,,,,,,,,,,,,,,,,,,,,,,,,
null,,rt_thecrossant_black,715710,black_plus_sign,,,,,null,,,1,0.9523809523809523,,,,,,,,,,,,,,,,,,,,,,,,,,
null,,color_black,715823,black_plus_sign,,,,,null,,,,,,,,,,,,,,,,,,,,,,,,,,,,,,
null,,learn_phase(without_color),718373,black_plus_sign,,,,,null,US_Cities_List/mm_boulder.png,US_Cities_List/mm_peoria.png,,,,,,,,,,,,,,,,,,,,,,,,,,,,
null,,black_cross(without_color),719286,green,,,,,null,US_Cities_List/mm_boulder.png,US_Cities_List/mm_peoria.png,,,,,,,,,,,,,,,,,,,,,,,,,,,,
424,,rt_plussign_withcolor,719795,green,,,,,50,US_Cities_List/mm_boulder.png,US_Cities_List/mm_peoria.png,,,,,,,,,,,,,,,,,,,,,,,,,,,,
null,,rt_thecrossant_black,720903,black_plus_sign,,,,,null,,,1,0.953125,,,,,,,,,,,,,,,,,,,,,,,,,,
null,,color_black,721008,black_plus_sign,,,,,null,,,,,,,,,,,,,,,,,,,,,,,,,,,,,,
null,,learn_phase(without_color),723574,black_plus_sign,,,,,null,US_Cities_List/nat_hanover.png,US_Cities_List/mm_peoria.png,,,,,,,,,,,,,,,,,,,,,,,,,,,,
null,,black_cross(without_color),724391,blue,,,,,null,US_Cities_List/nat_hanover.png,US_Cities_List/mm_peoria.png,,,,,,,,,,,,,,,,,,,,,,,,,,,,
405.09999999403954,,rt_plussign_withcolor,724902,blue,,,,,49,US_Cities_List/nat_hanover.png,US_Cities_List/mm_peoria.png,,,,,,,,,,,,,,,,,,,,,,,,,,,,
null,,rt_thecrossant_black,726103,black_plus_sign,,,,,null,,,1,0.9538461538461539,,,,,,,,,,,,,,,,,,,,,,,,,,
null,,color_black,726213,black_plus_sign,,,,,null,,,,,,,,,,,,,,,,,,,,,,,,,,,,,,
null,,learn_phase(without_color),728773,black_plus_sign,,,,,null,US_Cities_List/nat_cornwall.png,US_Cities_List/nat_shreveport.png,,,,,,,,,,,,,,,,,,,,,,,,,,,,
null,,black_cross(without_color),729577,blue,,,,,null,US_Cities_List/nat_cornwall.png,US_Cities_List/nat_shreveport.png,,,,,,,,,,,,,,,,,,,,,,,,,,,,
501.69999998807907,,rt_plussign_withcolor,730081,blue,,,,,49,US_Cities_List/nat_cornwall.png,US_Cities_List/nat_shreveport.png,,,,,,,,,,,,,,,,,,,,,,,,,,,,
null,,rt_thecrossant_black,731299,black_plus_sign,,,,,null,,,1,0.9545454545454546,,,,,,,,,,,,,,,,,,,,,,,,,,
null,,color_black,731404,black_plus_sign,,,,,null,,,,,,,,,,,,,,,,,,,,,,,,,,,,,,
null,,learn_phase(without_color),733969,black_plus_sign,,,,,null,US_Cities_List/nat_hotsprings.png,US_Cities_List/nat_cornwall.png,,,,,,,,,,,,,,,,,,,,,,,,,,,,
null,,black_cross(without_color),734504,green,,,,,null,US_Cities_List/nat_hotsprings.png,US_Cities_List/nat_cornwall.png,,,,,,,,,,,,,,,,,,,,,,,,,,,,
458.7000000178814,,rt_plussign_withcolor,735015,green,,,,,50,US_Cities_List/nat_hotsprings.png,US_Cities_List/nat_cornwall.png,,,,,,,,,,,,,,,,,,,,,,,,,,,,
null,,rt_thecrossant_black,736494,black_plus_sign,,,,,null,,,1,0.9552238805970149,,,,,,,,,,,,,,,,,,,,,,,,,,
null,,color_black,736598,black_plus_sign,,,,,null,,,,,,,,,,,,,,,,,,,,,,,,,,,,,,
null,,learn_phase(without_color),739141,black_plus_sign,,,,,null,US_Cities_List/nat_huntsville.png,US_Cities_List/nat_hanover.png,,,,,,,,,,,,,,,,,,,,,,,,,,,,
null,,black_cross(without_color),739694,blue,,,,,null,US_Cities_List/nat_huntsville.png,US_Cities_List/nat_hanover.png,,,,,,,,,,,,,,,,,,,,,,,,,,,,
null,,rt_plussign_withcolor,740213,blue,,,,,null,US_Cities_List/nat_huntsville.png,US_Cities_List/nat_hanover.png,,,,,,,,,,,,,,,,,,,,,,,,,,,,
628.7000000178814,,rt_thecrossant_black,741684,black_plus_sign,,,,,49,,,1,0.9558823529411765,,,,,,,,,,,,,,,,,,,,,,,,,,
null,,color_black,741794,black_plus_sign,,,,,null,,,,,,,,,,,,,,,,,,,,,,,,,,,,,,
null,,learn_phase(without_color),744332,black_plus_sign,,,,,null,US_Cities_List/nat_cornwall.png,US_Cities_List/nat_huntsville.png,,,,,,,,,,,,,,,,,,,,,,,,,,,,
null,,black_cross(without_color),744834,blue,,,,,null,US_Cities_List/nat_cornwall.png,US_Cities_List/nat_huntsville.png,,,,,,,,,,,,,,,,,,,,,,,,,,,,
null,,rt_plussign_withcolor,745343,blue,,,,,null,US_Cities_List/nat_cornwall.png,US_Cities_List/nat_huntsville.png,,,,,,,,,,,,,,,,,,,,,,,,,,,,
765.9000000059605,,rt_thecrossant_black,746858,black_plus_sign,,,,,49,,,1,0.9565217391304348,,,,,,,,,,,,,,,,,,,,,,,,,,
null,,color_black,746971,black_plus_sign,,,,,null,,,,,,,,,,,,,,,,,,,,,,,,,,,,,,
null,,learn_phase(without_color),749498,black_plus_sign,,,,,null,US_Cities_List/nat_cornwall.png,US_Cities_List/nat_westpalmbeach.png,,,,,,,,,,,,,,,,,,,,,,,,,,,,
null,,black_cross(without_color),750390,blue,,,,,null,US_Cities_List/nat_cornwall.png,US_Cities_List/nat_westpalmbeach.png,,,,,,,,,,,,,,,,,,,,,,,,,,,,
470.90000000596046,,rt_plussign_withcolor,750893,blue,,,,,49,US_Cities_List/nat_cornwall.png,US_Cities_List/nat_westpalmbeach.png,,,,,,,,,,,,,,,,,,,,,,,,,,,,
null,,rt_thecrossant_black,752010,black_plus_sign,,,,,null,,,1,0.9571428571428572,,,,,,,,,,,,,,,,,,,,,,,,,,
null,,color_black,752118,black_plus_sign,,,,,null,,,,,,,,,,,,,,,,,,,,,,,,,,,,,,
null,,learn_phase(without_color),754652,black_plus_sign,,,,,null,US_Cities_List/mm_boulder.png,US_Cities_List/nat_carmel.png,,,,,,,,,,,,,,,,,,,,,,,,,,,,
null,,black_cross(without_color),755456,green,,,,,null,US_Cities_List/mm_boulder.png,US_Cities_List/nat_carmel.png,,,,,,,,,,,,,,,,,,,,,,,,,,,,
387,,rt_plussign_withcolor,755961,green,,,,,50,US_Cities_List/mm_boulder.png,US_Cities_List/nat_carmel.png,,,,,,,,,,,,,,,,,,,,,,,,,,,,
null,,rt_thecrossant_black,757170,black_plus_sign,,,,,null,,,1,0.9577464788732394,,,,,,,,,,,,,,,,,,,,,,,,,,
null,,color_black,757274,black_plus_sign,,,,,null,,,,,,,,,,,,,,,,,,,,,,,,,,,,,,
null,,learn_phase(without_color),759828,black_plus_sign,,,,,null,US_Cities_List/nat_cornwall.png,US_Cities_List/nat_huntsville.png,,,,,,,,,,,,,,,,,,,,,,,,,,,,
null,,black_cross(without_color),760837,blue,,,,,null,US_Cities_List/nat_cornwall.png,US_Cities_List/nat_huntsville.png,,,,,,,,,,,,,,,,,,,,,,,,,,,,
441.09999999403954,,rt_plussign_withcolor,761342,blue,,,,,49,US_Cities_List/nat_cornwall.png,US_Cities_List/nat_huntsville.png,,,,,,,,,,,,,,,,,,,,,,,,,,,,
null,,rt_thecrossant_black,762355,black_plus_sign,,,,,null,,,1,0.9583333333333334,,,,,,,,,,,,,,,,,,,,,,,,,,
null,,color_black,762458,black_plus_sign,,,,,null,,,,,,,,,,,,,,,,,,,,,,,,,,,,,,
null,,learn_phase(without_color),764986,black_plus_sign,,,,,null,US_Cities_List/nat_hanover.png,US_Cities_List/mm_peoria.png,,,,,,,,,,,,,,,,,,,,,,,,,,,,
null,,black_cross(without_color),765774,green,,,,,null,US_Cities_List/nat_hanover.png,US_Cities_List/mm_peoria.png,,,,,,,,,,,,,,,,,,,,,,,,,,,,
487.09999999403954,,rt_plussign_withcolor,766281,green,,,,,50,US_Cities_List/nat_hanover.png,US_Cities_List/mm_peoria.png,,,,,,,,,,,,,,,,,,,,,,,,,,,,
null,,rt_thecrossant_black,767509,black_plus_sign,,,,,null,,,1,0.958904109589041,,,,,,,,,,,,,,,,,,,,,,,,,,
null,,color_black,767612,black_plus_sign,,,,,null,,,,,,,,,,,,,,,,,,,,,,,,,,,,,,
null,,learn_phase(without_color),770143,black_plus_sign,,,,,null,US_Cities_List/nat_newhope.png,US_Cities_List/nat_hotsprings.png,,,,,,,,,,,,,,,,,,,,,,,,,,,,
null,,black_cross(without_color),771084,blue,,,,,null,US_Cities_List/nat_newhope.png,US_Cities_List/nat_hotsprings.png,,,,,,,,,,,,,,,,,,,,,,,,,,,,
433.30000001192093,,rt_plussign_withcolor,771587,blue,,,,,49,US_Cities_List/nat_newhope.png,US_Cities_List/nat_hotsprings.png,,,,,,,,,,,,,,,,,,,,,,,,,,,,
null,,rt_thecrossant_black,772662,black_plus_sign,,,,,null,,,1,0.9594594594594594,,,,,,,,,,,,,,,,,,,,,,,,,,
null,,color_black,772780,black_plus_sign,,,,,null,,,,,,,,,,,,,,,,,,,,,,,,,,,,,,
null,,learn_phase(without_color),775306,black_plus_sign,,,,,null,US_Cities_List/nat_cornwall.png,US_Cities_List/nat_westpalmbeach.png,,,,,,,,,,,,,,,,,,,,,,,,,,,,
null,,black_cross(without_color),776262,green,,,,,null,US_Cities_List/nat_cornwall.png,US_Cities_List/nat_westpalmbeach.png,,,,,,,,,,,,,,,,,,,,,,,,,,,,
436.5,,rt_plussign_withcolor,776776,green,,,,,49,US_Cities_List/nat_cornwall.png,US_Cities_List/nat_westpalmbeach.png,,,,,,,,,,,,,,,,,,,,,,,,,,,,
null,,rt_thecrossant_black,777836,black_plus_sign,,,,,null,,,0,0.9466666666666667,,,,,,,,,,,,,,,,,,,,,,,,,,
null,,color_black,777941,black_plus_sign,,,,,null,,,,,,,,,,,,,,,,,,,,,,,,,,,,,,
null,,learn_phase(without_color),780482,black_plus_sign,,,,,null,US_Cities_List/mm_boulder.png,US_Cities_List/mm_peoria.png,,,,,,,,,,,,,,,,,,,,,,,,,,,,
null,,black_cross(without_color),781060,blue,,,,,null,US_Cities_List/mm_boulder.png,US_Cities_List/mm_peoria.png,,,,,,,,,,,,,,,,,,,,,,,,,,,,
null,,rt_plussign_withcolor,781577,blue,,,,,null,US_Cities_List/mm_boulder.png,US_Cities_List/mm_peoria.png,,,,,,,,,,,,,,,,,,,,,,,,,,,,
1045.199999988079,,rt_thecrossant_black,783016,black_plus_sign,,,,,49,,,1,0.9473684210526315,,,,,,,,,,,,,,,,,,,,,,,,,,
null,,color_black,783134,black_plus_sign,,,,,null,,,,,,,,,,,,,,,,,,,,,,,,,,,,,,
null,,learn_phase(without_color),785665,black_plus_sign,,,,,null,US_Cities_List/nat_cornwall.png,US_Cities_List/nat_huntsville.png,,,,,,,,,,,,,,,,,,,,,,,,,,,,
null,,black_cross(without_color),786638,green,,,,,null,US_Cities_List/nat_cornwall.png,US_Cities_List/nat_huntsville.png,,,,,,,,,,,,,,,,,,,,,,,,,,,,
null,,rt_plussign_withcolor,787141,green,,,,,null,US_Cities_List/nat_cornwall.png,US_Cities_List/nat_huntsville.png,,,,,,,,,,,,,,,,,,,,,,,,,,,,
674.3000000119209,,rt_thecrossant_black,788188,black_plus_sign,,,,,50,,,1,0.948051948051948,,,,,,,,,,,,,,,,,,,,,,,,,,
null,,color_black,788294,black_plus_sign,,,,,null,,,,,,,,,,,,,,,,,,,,,,,,,,,,,,
null,,learn_phase(without_color),790823,black_plus_sign,,,,,null,US_Cities_List/mm_racine.png,US_Cities_List/mm_gatlinburg.png,,,,,,,,,,,,,,,,,,,,,,,,,,,,
null,,black_cross(without_color),791845,blue,,,,,null,US_Cities_List/mm_racine.png,US_Cities_List/mm_gatlinburg.png,,,,,,,,,,,,,,,,,,,,,,,,,,,,
null,,rt_plussign_withcolor,792355,blue,,,,,null,US_Cities_List/mm_racine.png,US_Cities_List/mm_gatlinburg.png,,,,,,,,,,,,,,,,,,,,,,,,,,,,
1249,,rt_thecrossant_black,793349,black_plus_sign,,,,,49,,,1,0.9487179487179487,,,,,,,,,,,,,,,,,,,,,,,,,,
null,,color_black,793461,black_plus_sign,,,,,null,,,,,,,,,,,,,,,,,,,,,,,,,,,,,,
null,,learn_phase(without_color),796002,black_plus_sign,,,,,null,US_Cities_List/mm_boulder.png,US_Cities_List/mm_peoria.png,,,,,,,,,,,,,,,,,,,,,,,,,,,,
null,,black_cross(without_color),796524,blue,,,,,null,US_Cities_List/mm_boulder.png,US_Cities_List/mm_peoria.png,,,,,,,,,,,,,,,,,,,,,,,,,,,,
null,,rt_plussign_withcolor,797031,blue,,,,,null,US_Cities_List/mm_boulder.png,US_Cities_List/mm_peoria.png,,,,,,,,,,,,,,,,,,,,,,,,,,,,
1342.2000000178814,,rt_thecrossant_black,798525,black_plus_sign,,,,,49,,,1,0.9493670886075949,,,,,,,,,,,,,,,,,,,,,,,,,,
null,,color_black,798639,black_plus_sign,,,,,null,,,,,,,,,,,,,,,,,,,,,,,,,,,,,,
null,,learn_phase(without_color),801175,black_plus_sign,,,,,null,US_Cities_List/nat_hanover.png,US_Cities_List/mm_peoria.png,,,,,,,,,,,,,,,,,,,,,,,,,,,,
null,,black_cross(without_color),802154,green,,,,,null,US_Cities_List/nat_hanover.png,US_Cities_List/mm_peoria.png,,,,,,,,,,,,,,,,,,,,,,,,,,,,
366.09999999403954,,rt_plussign_withcolor,802658,green,,,,,50,US_Cities_List/nat_hanover.png,US_Cities_List/mm_peoria.png,,,,,,,,,,,,,,,,,,,,,,,,,,,,
null,,rt_thecrossant_black,803693,black_plus_sign,,,,,null,,,1,0.95,,,,,,,,,,,,,,,,,,,,,,,,,,
null,,color_black,803800,black_plus_sign,,,,,null,,,,,,,,,,,,,,,,,,,,,,,,,,,,,,
null,,learn_phase(without_color),806334,black_plus_sign,,,,,null,US_Cities_List/nat_newhope.png,US_Cities_List/nat_hanover.png,,,,,,,,,,,,,,,,,,,,,,,,,,,,
null,,black_cross(without_color),807162,green,,,,,null,US_Cities_List/nat_newhope.png,US_Cities_List/nat_hanover.png,,,,,,,,,,,,,,,,,,,,,,,,,,,,
458.7999999821186,,rt_plussign_withcolor,807670,green,,,,,50,US_Cities_List/nat_newhope.png,US_Cities_List/nat_hanover.png,,,,,,,,,,,,,,,,,,,,,,,,,,,,
null,,rt_thecrossant_black,808870,black_plus_sign,,,,,null,,,1,0.9506172839506173,,,,,,,,,,,,,,,,,,,,,,,,,,
null,,color_black,808985,black_plus_sign,,,,,null,,,,,,,,,,,,,,,,,,,,,,,,,,,,,,
null,,learn_phase(without_color),811525,black_plus_sign,,,,,null,US_Cities_List/nat_westpalmbeach.png,US_Cities_List/nat_huntsville.png,,,,,,,,,,,,,,,,,,,,,,,,,,,,
null,,black_cross(without_color),812221,blue,,,,,null,US_Cities_List/nat_westpalmbeach.png,US_Cities_List/nat_huntsville.png,,,,,,,,,,,,,,,,,,,,,,,,,,,,
470.5,,rt_plussign_withcolor,812726,blue,,,,,49,US_Cities_List/nat_westpalmbeach.png,US_Cities_List/nat_huntsville.png,,,,,,,,,,,,,,,,,,,,,,,,,,,,
null,,rt_thecrossant_black,814052,black_plus_sign,,,,,null,,,1,0.9512195121951219,,,,,,,,,,,,,,,,,,,,,,,,,,
null,,color_black,814155,black_plus_sign,,,,,null,,,,,,,,,,,,,,,,,,,,,,,,,,,,,,
null,,learn_phase(without_color),816683,black_plus_sign,,,,,null,US_Cities_List/nat_cornwall.png,US_Cities_List/nat_westpalmbeach.png,,,,,,,,,,,,,,,,,,,,,,,,,,,,
null,,black_cross(without_color),817548,green,,,,,null,US_Cities_List/nat_cornwall.png,US_Cities_List/nat_westpalmbeach.png,,,,,,,,,,,,,,,,,,,,,,,,,,,,
394.5,,rt_plussign_withcolor,818053,green,,,,,50,US_Cities_List/nat_cornwall.png,US_Cities_List/nat_westpalmbeach.png,,,,,,,,,,,,,,,,,,,,,,,,,,,,
null,,rt_thecrossant_black,819204,black_plus_sign,,,,,null,,,1,0.9518072289156626,,,,,,,,,,,,,,,,,,,,,,,,,,
null,,color_black,819316,black_plus_sign,,,,,null,,,,,,,,,,,,,,,,,,,,,,,,,,,,,,
null,,learn_phase(without_color),821850,black_plus_sign,,,,,null,US_Cities_List/mm_boulder.png,US_Cities_List/nat_carmel.png,,,,,,,,,,,,,,,,,,,,,,,,,,,,
null,,black_cross(without_color),822338,blue,,,,,null,US_Cities_List/mm_boulder.png,US_Cities_List/nat_carmel.png,,,,,,,,,,,,,,,,,,,,,,,,,,,,
null,,rt_plussign_withcolor,822857,blue,,,,,null,US_Cities_List/mm_boulder.png,US_Cities_List/nat_carmel.png,,,,,,,,,,,,,,,,,,,,,,,,,,,,
1091.300000011921,,rt_thecrossant_black,824383,black_plus_sign,,,,,49,,,1,0.9523809523809523,,,,,,,,,,,,,,,,,,,,,,,,,,
null,,color_black,824493,black_plus_sign,,,,,null,,,,,,,,,,,,,,,,,,,,,,,,,,,,,,
null,,learn_phase(without_color),827052,black_plus_sign,,,,,null,US_Cities_List/nat_westpalmbeach.png,US_Cities_List/nat_huntsville.png,,,,,,,,,,,,,,,,,,,,,,,,,,,,
null,,black_cross(without_color),827594,green,,,,,null,US_Cities_List/nat_westpalmbeach.png,US_Cities_List/nat_huntsville.png,,,,,,,,,,,,,,,,,,,,,,,,,,,,
461.2999999821186,,rt_plussign_withcolor,828099,green,,,,,50,US_Cities_List/nat_westpalmbeach.png,US_Cities_List/nat_huntsville.png,,,,,,,,,,,,,,,,,,,,,,,,,,,,
null,,rt_thecrossant_black,829583,black_plus_sign,,,,,null,,,1,0.9529411764705882,,,,,,,,,,,,,,,,,,,,,,,,,,
null,,color_black,829697,black_plus_sign,,,,,null,,,,,,,,,,,,,,,,,,,,,,,,,,,,,,
null,,learn_phase(without_color),832254,black_plus_sign,,,,,null,US_Cities_List/mm_gatlinburg.png,US_Cities_List/nat_newhope.png,,,,,,,,,,,,,,,,,,,,,,,,,,,,
null,,black_cross(without_color),832741,blue,,,,,null,US_Cities_List/mm_gatlinburg.png,US_Cities_List/nat_newhope.png,,,,,,,,,,,,,,,,,,,,,,,,,,,,
495.7999999821186,,rt_plussign_withcolor,833250,blue,,,,,49,US_Cities_List/mm_gatlinburg.png,US_Cities_List/nat_newhope.png,,,,,,,,,,,,,,,,,,,,,,,,,,,,
null,,rt_thecrossant_black,834784,black_plus_sign,,,,,null,,,1,0.9534883720930233,,,,,,,,,,,,,,,,,,,,,,,,,,
null,,color_black,834895,black_plus_sign,,,,,null,,,,,,,,,,,,,,,,,,,,,,,,,,,,,,
null,,learn_phase(without_color),837426,black_plus_sign,,,,,null,US_Cities_List/nat_cornwall.png,US_Cities_List/nat_westpalmbeach.png,,,,,,,,,,,,,,,,,,,,,,,,,,,,
null,,black_cross(without_color),838322,green,,,,,null,US_Cities_List/nat_cornwall.png,US_Cities_List/nat_westpalmbeach.png,,,,,,,,,,,,,,,,,,,,,,,,,,,,
320,,rt_plussign_withcolor,838835,green,,,,,50,US_Cities_List/nat_cornwall.png,US_Cities_List/nat_westpalmbeach.png,,,,,,,,,,,,,,,,,,,,,,,,,,,,
null,,rt_thecrossant_black,839950,black_plus_sign,,,,,null,,,1,0.9540229885057471,,,,,,,,,,,,,,,,,,,,,,,,,,
null,,color_black,840057,black_plus_sign,,,,,null,,,,,,,,,,,,,,,,,,,,,,,,,,,,,,
null,,learn_phase(without_color),842594,black_plus_sign,,,,,null,US_Cities_List/nat_westpalmbeach.png,US_Cities_List/nat_huntsville.png,,,,,,,,,,,,,,,,,,,,,,,,,,,,
null,,black_cross(without_color),843268,blue,,,,,null,US_Cities_List/nat_westpalmbeach.png,US_Cities_List/nat_huntsville.png,,,,,,,,,,,,,,,,,,,,,,,,,,,,
486.80000001192093,,rt_plussign_withcolor,843775,blue,,,,,50,US_Cities_List/nat_westpalmbeach.png,US_Cities_List/nat_huntsville.png,,,,,,,,,,,,,,,,,,,,,,,,,,,,
null,,rt_thecrossant_black,845111,black_plus_sign,,,,,49,,,0,0.9431818181818182,,,,,,,,,,,,,,,,,,,,,,,,,,
null,,color_black,845224,black_plus_sign,,,,,null,,,,,,,,,,,,,,,,,,,,,,,,,,,,,,
null,,learn_phase(without_color),847761,black_plus_sign,,,,,null,US_Cities_List/nat_newhope.png,US_Cities_List/nat_hotsprings.png,,,,,,,,,,,,,,,,,,,,,,,,,,,,
null,,black_cross(without_color),848433,blue,,,,,null,US_Cities_List/nat_newhope.png,US_Cities_List/nat_hotsprings.png,,,,,,,,,,,,,,,,,,,,,,,,,,,,
466.09999999403954,,rt_plussign_withcolor,848936,blue,,,,,49,US_Cities_List/nat_newhope.png,US_Cities_List/nat_hotsprings.png,,,,,,,,,,,,,,,,,,,,,,,,,,,,
null,,rt_thecrossant_black,850274,black_plus_sign,,,,,null,,,1,0.9438202247191011,,,,,,,,,,,,,,,,,,,,,,,,,,
null,,color_black,850392,black_plus_sign,,,,,null,,,,,,,,,,,,,,,,,,,,,,,,,,,,,,
null,,learn_phase(without_color),852946,black_plus_sign,,,,,null,US_Cities_List/nat_hotsprings.png,US_Cities_List/nat_huntsville.png,,,,,,,,,,,,,,,,,,,,,,,,,,,,
null,,black_cross(without_color),853472,blue,,,,,null,US_Cities_List/nat_hotsprings.png,US_Cities_List/nat_huntsville.png,,,,,,,,,,,,,,,,,,,,,,,,,,,,
null,,rt_plussign_withcolor,853981,blue,,,,,null,US_Cities_List/nat_hotsprings.png,US_Cities_List/nat_huntsville.png,,,,,,,,,,,,,,,,,,,,,,,,,,,,
980.1999999880791,,rt_thecrossant_black,855467,black_plus_sign,,,,,49,,,1,0.9444444444444444,,,,,,,,,,,,,,,,,,,,,,,,,,
null,,color_black,855582,black_plus_sign,,,,,null,,,,,,,,,,,,,,,,,,,,,,,,,,,,,,
null,,learn_phase(without_color),858124,black_plus_sign,,,,,null,US_Cities_List/nat_newhope.png,US_Cities_List/nat_hotsprings.png,,,,,,,,,,,,,,,,,,,,,,,,,,,,
null,,black_cross(without_color),859075,blue,,,,,null,US_Cities_List/nat_newhope.png,US_Cities_List/nat_hotsprings.png,,,,,,,,,,,,,,,,,,,,,,,,,,,,
483.19999998807907,,rt_plussign_withcolor,859582,blue,,,,,49,US_Cities_List/nat_newhope.png,US_Cities_List/nat_hotsprings.png,,,,,,,,,,,,,,,,,,,,,,,,,,,,
null,,rt_thecrossant_black,860652,black_plus_sign,,,,,null,,,1,0.945054945054945,,,,,,,,,,,,,,,,,,,,,,,,,,
null,,color_black,860760,black_plus_sign,,,,,null,,,,,,,,,,,,,,,,,,,,,,,,,,,,,,
null,,learn_phase(without_color),863313,black_plus_sign,,,,,null,US_Cities_List/nat_hotsprings.png,US_Cities_List/nat_huntsville.png,,,,,,,,,,,,,,,,,,,,,,,,,,,,
null,,black_cross(without_color),864064,green,,,,,null,US_Cities_List/nat_hotsprings.png,US_Cities_List/nat_huntsville.png,,,,,,,,,,,,,,,,,,,,,,,,,,,,
457.59999999403954,,rt_plussign_withcolor,864580,green,,,,,49,US_Cities_List/nat_hotsprings.png,US_Cities_List/nat_huntsville.png,,,,,,,,,,,,,,,,,,,,,,,,,,,,
null,,rt_thecrossant_black,865837,black_plus_sign,,,,,null,,,0,0.9347826086956522,,,,,,,,,,,,,,,,,,,,,,,,,,
null,,color_black,865944,black_plus_sign,,,,,null,,,,,,,,,,,,,,,,,,,,,,,,,,,,,,
null,,learn_phase(without_color),868473,black_plus_sign,,,,,null,US_Cities_List/mm_racine.png,US_Cities_List/mm_gatlinburg.png,,,,,,,,,,,,,,,,,,,,,,,,,,,,
null,,black_cross(without_color),869005,blue,,,,,null,US_Cities_List/mm_racine.png,US_Cities_List/mm_gatlinburg.png,,,,,,,,,,,,,,,,,,,,,,,,,,,,
454.5,,rt_plussign_withcolor,869509,blue,,,,,49,US_Cities_List/mm_racine.png,US_Cities_List/mm_gatlinburg.png,,,,,,,,,,,,,,,,,,,,,,,,,,,,
null,,rt_thecrossant_black,870988,black_plus_sign,,,,,null,,,1,0.9354838709677419,,,,,,,,,,,,,,,,,,,,,,,,,,
null,,color_black,871093,black_plus_sign,,,,,null,,,,,,,,,,,,,,,,,,,,,,,,,,,,,,
null,,learn_phase(without_color),873630,black_plus_sign,,,,,null,US_Cities_List/nat_newhope.png,US_Cities_List/nat_hanover.png,,,,,,,,,,,,,,,,,,,,,,,,,,,,
null,,black_cross(without_color),874474,green,,,,,null,US_Cities_List/nat_newhope.png,US_Cities_List/nat_hanover.png,,,,,,,,,,,,,,,,,,,,,,,,,,,,
null,,rt_plussign_withcolor,874977,green,,,,,null,US_Cities_List/nat_newhope.png,US_Cities_List/nat_hanover.png,,,,,,,,,,,,,,,,,,,,,,,,,,,,
646.4000000059605,,rt_thecrossant_black,876146,black_plus_sign,,,,,50,,,1,0.9361702127659575,,,,,,,,,,,,,,,,,,,,,,,,,,
null,,color_black,876259,black_plus_sign,,,,,null,,,,,,,,,,,,,,,,,,,,,,,,,,,,,,
null,,learn_phase(without_color),878810,black_plus_sign,,,,,null,US_Cities_List/nat_hanover.png,US_Cities_List/mm_peoria.png,,,,,,,,,,,,,,,,,,,,,,,,,,,,
null,,black_cross(without_color),879501,green,,,,,null,US_Cities_List/nat_hanover.png,US_Cities_List/mm_peoria.png,,,,,,,,,,,,,,,,,,,,,,,,,,,,
null,,rt_plussign_withcolor,880023,green,,,,,null,US_Cities_List/nat_hanover.png,US_Cities_List/mm_peoria.png,,,,,,,,,,,,,,,,,,,,,,,,,,,,
1304.699999988079,,rt_thecrossant_black,881341,black_plus_sign,,,,,50,,,1,0.9368421052631579,,,,,,,,,,,,,,,,,,,,,,,,,,
null,,color_black,881452,black_plus_sign,,,,,null,,,,,,,,,,,,,,,,,,,,,,,,,,,,,,
null,,learn_phase(without_color),883997,black_plus_sign,,,,,null,US_Cities_List/nat_newhope.png,US_Cities_List/nat_hanover.png,,,,,,,,,,,,,,,,,,,,,,,,,,,,
null,,black_cross(without_color),884740,blue,,,,,null,US_Cities_List/nat_newhope.png,US_Cities_List/nat_hanover.png,,,,,,,,,,,,,,,,,,,,,,,,,,,,
null,,rt_plussign_withcolor,885250,blue,,,,,null,US_Cities_List/nat_newhope.png,US_Cities_List/nat_hanover.png,,,,,,,,,,,,,,,,,,,,,,,,,,,,
786.4000000059605,,rt_thecrossant_black,886538,black_plus_sign,,,,,49,,,1,0.9375,,,,,,,,,,,,,,,,,,,,,,,,,,
null,,color_black,886651,black_plus_sign,,,,,null,,,,,,,,,,,,,,,,,,,,,,,,,,,,,,
null,,learn_phase(without_color),889184,black_plus_sign,,,,,null,US_Cities_List/mm_gatlinburg.png,US_Cities_List/nat_newhope.png,,,,,,,,,,,,,,,,,,,,,,,,,,,,
null,,black_cross(without_color),889702,blue,,,,,null,US_Cities_List/mm_gatlinburg.png,US_Cities_List/nat_newhope.png,,,,,,,,,,,,,,,,,,,,,,,,,,,,
458.40000000596046,,rt_plussign_withcolor,890213,blue,,,,,49,US_Cities_List/mm_gatlinburg.png,US_Cities_List/nat_newhope.png,,,,,,,,,,,,,,,,,,,,,,,,,,,,
null,,rt_thecrossant_black,891710,black_plus_sign,,,,,null,,,1,0.9381443298969072,,,,,,,,,,,,,,,,,,,,,,,,,,
null,,color_black,891819,black_plus_sign,,,,,null,,,,,,,,,,,,,,,,,,,,,,,,,,,,,,
null,,learn_phase(without_color),894360,black_plus_sign,,,,,null,US_Cities_List/nat_westpalmbeach.png,US_Cities_List/nat_leesburg.png,,,,,,,,,,,,,,,,,,,,,,,,,,,,
null,,black_cross(without_color),895179,blue,,,,,null,US_Cities_List/nat_westpalmbeach.png,US_Cities_List/nat_leesburg.png,,,,,,,,,,,,,,,,,,,,,,,,,,,,
393.5,,rt_plussign_withcolor,895684,blue,,,,,49,US_Cities_List/nat_westpalmbeach.png,US_Cities_List/nat_leesburg.png,,,,,,,,,,,,,,,,,,,,,,,,,,,,
null,,rt_thecrossant_black,896881,black_plus_sign,,,,,null,,,1,0.9387755102040817,,,,,,,,,,,,,,,,,,,,,,,,,,
null,,color_black,896990,black_plus_sign,,,,,null,,,,,,,,,,,,,,,,,,,,,,,,,,,,,,
null,,learn_phase(without_color),899547,black_plus_sign,,,,,null,US_Cities_List/nat_hotsprings.png,US_Cities_List/nat_cornwall.png,,,,,,,,,,,,,,,,,,,,,,,,,,,,
null,,black_cross(without_color),900532,green,,,,,null,US_Cities_List/nat_hotsprings.png,US_Cities_List/nat_cornwall.png,,,,,,,,,,,,,,,,,,,,,,,,,,,,
500.19999998807907,,rt_plussign_withcolor,901035,green,,,,,50,US_Cities_List/nat_hotsprings.png,US_Cities_List/nat_cornwall.png,,,,,,,,,,,,,,,,,,,,,,,,,,,,
null,,rt_thecrossant_black,902074,black_plus_sign,,,,,null,,,1,0.9393939393939394,,,,,,,,,,,,,,,,,,,,,,,,,,
null,,color_black,902193,black_plus_sign,,,,,null,,,,,,,,,,,,,,,,,,,,,,,,,,,,,,
null,,learn_phase(without_color),904762,black_plus_sign,,,,,null,US_Cities_List/nat_cornwall.png,US_Cities_List/nat_shreveport.png,,,,,,,,,,,,,,,,,,,,,,,,,,,,
null,,black_cross(without_color),905665,blue,,,,,null,US_Cities_List/nat_cornwall.png,US_Cities_List/nat_shreveport.png,,,,,,,,,,,,,,,,,,,,,,,,,,,,
500.2000000178814,,rt_plussign_withcolor,906169,blue,,,,,49,US_Cities_List/nat_cornwall.png,US_Cities_List/nat_shreveport.png,,,,,,,,,,,,,,,,,,,,,,,,,,,,
null,,rt_thecrossant_black,907298,black_plus_sign,,,,,null,,,1,0.94,,,,,,,,,,,,,,,,,,,,,,,,,,
null,,color_black,907411,black_plus_sign,,,,,null,,,,,,,,,,,,,,,,,,,,,,,,,,,,,,
null,,learn_phase(without_color),909971,black_plus_sign,,,,,null,US_Cities_List/nat_westpalmbeach.png,US_Cities_List/nat_leesburg.png,,,,,,,,,,,,,,,,,,,,,,,,,,,,
null,,black_cross(without_color),910840,green,,,,,null,US_Cities_List/nat_westpalmbeach.png,US_Cities_List/nat_leesburg.png,,,,,,,,,,,,,,,,,,,,,,,,,,,,
409.69999998807907,,rt_plussign_withcolor,911347,green,,,,,50,US_Cities_List/nat_westpalmbeach.png,US_Cities_List/nat_leesburg.png,,,,,,,,,,,,,,,,,,,,,,,,,,,,
null,,rt_thecrossant_black,912494,black_plus_sign,,,,,null,,,1,0.9405940594059405,,,,,,,,,,,,,,,,,,,,,,,,,,
null,,color_black,912609,black_plus_sign,,,,,null,,,,,,,,,,,,,,,,,,,,,,,,,,,,,,
null,,learn_phase(without_color),915159,black_plus_sign,,,,,null,US_Cities_List/mm_gatlinburg.png,US_Cities_List/nat_newhope.png,,,,,,,,,,,,,,,,,,,,,,,,,,,,
null,,black_cross(without_color),915847,green,,,,,null,US_Cities_List/mm_gatlinburg.png,US_Cities_List/nat_newhope.png,,,,,,,,,,,,,,,,,,,,,,,,,,,,
422.40000000596046,,rt_plussign_withcolor,916354,green,,,,,50,US_Cities_List/mm_gatlinburg.png,US_Cities_List/nat_newhope.png,,,,,,,,,,,,,,,,,,,,,,,,,,,,
null,,rt_thecrossant_black,917681,black_plus_sign,,,,,null,,,1,0.9411764705882353,,,,,,,,,,,,,,,,,,,,,,,,,,
null,,color_black,917788,black_plus_sign,,,,,null,,,,,,,,,,,,,,,,,,,,,,,,,,,,,,
null,,learn_phase(without_color),920339,black_plus_sign,,,,,null,US_Cities_List/mm_racine.png,US_Cities_List/mm_gatlinburg.png,,,,,,,,,,,,,,,,,,,,,,,,,,,,
null,,black_cross(without_color),921439,blue,,,,,null,US_Cities_List/mm_racine.png,US_Cities_List/mm_gatlinburg.png,,,,,,,,,,,,,,,,,,,,,,,,,,,,
447.7000000178814,,rt_plussign_withcolor,921954,blue,,,,,49,US_Cities_List/mm_racine.png,US_Cities_List/mm_gatlinburg.png,,,,,,,,,,,,,,,,,,,,,,,,,,,,
null,,rt_thecrossant_black,922877,black_plus_sign,,,,,null,,,1,0.941747572815534,,,,,,,,,,,,,,,,,,,,,,,,,,
null,,color_black,922983,black_plus_sign,,,,,null,,,,,,,,,,,,,,,,,,,,,,,,,,,,,,
null,,learn_phase(without_color),925525,black_plus_sign,,,,,null,US_Cities_List/nat_westpalmbeach.png,US_Cities_List/nat_leesburg.png,,,,,,,,,,,,,,,,,,,,,,,,,,,,
null,,black_cross(without_color),926122,green,,,,,null,US_Cities_List/nat_westpalmbeach.png,US_Cities_List/nat_leesburg.png,,,,,,,,,,,,,,,,,,,,,,,,,,,,
null,,rt_plussign_withcolor,926639,green,,,,,null,US_Cities_List/nat_westpalmbeach.png,US_Cities_List/nat_leesburg.png,,,,,,,,,,,,,,,,,,,,,,,,,,,,
1201.5,,rt_thecrossant_black,928056,black_plus_sign,,,,,50,,,1,0.9423076923076923,,,,,,,,,,,,,,,,,,,,,,,,,,
null,,color_black,928166,black_plus_sign,,,,,null,,,,,,,,,,,,,,,,,,,,,,,,,,,,,,
null,,learn_phase(without_color),930710,black_plus_sign,,,,,null,US_Cities_List/mm_gatlinburg.png,US_Cities_List/nat_newhope.png,,,,,,,,,,,,,,,,,,,,,,,,,,,,
null,,black_cross(without_color),931809,green,,,,,null,US_Cities_List/mm_gatlinburg.png,US_Cities_List/nat_newhope.png,,,,,,,,,,,,,,,,,,,,,,,,,,,,
473.30000001192093,,rt_plussign_withcolor,932314,green,,,,,50,US_Cities_List/mm_gatlinburg.png,US_Cities_List/nat_newhope.png,,,,,,,,,,,,,,,,,,,,,,,,,,,,
null,,rt_thecrossant_black,933240,black_plus_sign,,,,,null,,,1,0.9428571428571428,,,,,,,,,,,,,,,,,,,,,,,,,,
null,,color_black,933344,black_plus_sign,,,,,null,,,,,,,,,,,,,,,,,,,,,,,,,,,,,,
null,,learn_phase(without_color),935899,black_plus_sign,,,,,null,US_Cities_List/nat_huntsville.png,US_Cities_List/nat_hanover.png,,,,,,,,,,,,,,,,,,,,,,,,,,,,
null,,black_cross(without_color),936309,green,,,,,null,US_Cities_List/nat_huntsville.png,US_Cities_List/nat_hanover.png,,,,,,,,,,,,,,,,,,,,,,,,,,,,
438.60000002384186,,rt_plussign_withcolor,936812,green,,,,,50,US_Cities_List/nat_huntsville.png,US_Cities_List/nat_hanover.png,,,,,,,,,,,,,,,,,,,,,,,,,,,,
null,,rt_thecrossant_black,938413,black_plus_sign,,,,,null,,,1,0.9433962264150944,,,,,,,,,,,,,,,,,,,,,,,,,,
null,,color_black,938534,black_plus_sign,,,,,null,,,,,,,,,,,,,,,,,,,,,,,,,,,,,,
null,,learn_phase(without_color),941094,black_plus_sign,,,,,null,US_Cities_List/mm_gatlinburg.png,US_Cities_List/mm_boulder.png,,,,,,,,,,,,,,,,,,,,,,,,,,,,
null,,black_cross(without_color),941593,blue,,,,,null,US_Cities_List/mm_gatlinburg.png,US_Cities_List/mm_boulder.png,,,,,,,,,,,,,,,,,,,,,,,,,,,,
503.89999997615814,,rt_plussign_withcolor,942100,blue,,,,,49,US_Cities_List/mm_gatlinburg.png,US_Cities_List/mm_boulder.png,,,,,,,,,,,,,,,,,,,,,,,,,,,,
null,,rt_thecrossant_black,943612,black_plus_sign,,,,,null,,,1,0.9439252336448598,,,,,,,,,,,,,,,,,,,,,,,,,,
null,,color_black,943721,black_plus_sign,,,,,null,,,,,,,,,,,,,,,,,,,,,,,,,,,,,,
null,,learn_phase(without_color),946258,black_plus_sign,,,,,null,US_Cities_List/nat_westpalmbeach.png,US_Cities_List/nat_leesburg.png,,,,,,,,,,,,,,,,,,,,,,,,,,,,
null,,black_cross(without_color),947252,green,,,,,null,US_Cities_List/nat_westpalmbeach.png,US_Cities_List/nat_leesburg.png,,,,,,,,,,,,,,,,,,,,,,,,,,,,
491.09999999403954,,rt_plussign_withcolor,947758,green,,,,,50,US_Cities_List/nat_westpalmbeach.png,US_Cities_List/nat_leesburg.png,,,,,,,,,,,,,,,,,,,,,,,,,,,,
null,,rt_thecrossant_black,948802,black_plus_sign,,,,,null,,,1,0.9444444444444444,,,,,,,,,,,,,,,,,,,,,,,,,,
null,,color_black,948911,black_plus_sign,,,,,null,,,,,,,,,,,,,,,,,,,,,,,,,,,,,,
null,,learn_phase(without_color),951480,black_plus_sign,,,,,null,US_Cities_List/nat_cornwall.png,US_Cities_List/nat_shreveport.png,,,,,,,,,,,,,,,,,,,,,,,,,,,,
null,,black_cross(without_color),952251,blue,,,,,null,US_Cities_List/nat_cornwall.png,US_Cities_List/nat_shreveport.png,,,,,,,,,,,,,,,,,,,,,,,,,,,,
null,,rt_plussign_withcolor,952761,blue,,,,,null,US_Cities_List/nat_cornwall.png,US_Cities_List/nat_shreveport.png,,,,,,,,,,,,,,,,,,,,,,,,,,,,
1174.8999999761581,,rt_thecrossant_black,954015,black_plus_sign,,,,,49,,,1,0.944954128440367,,,,,,,,,,,,,,,,,,,,,,,,,,
null,,color_black,954132,black_plus_sign,,,,,null,,,,,,,,,,,,,,,,,,,,,,,,,,,,,,
null,,learn_phase(without_color),956666,black_plus_sign,,,,,null,US_Cities_List/mm_gatlinburg.png,US_Cities_List/mm_boulder.png,,,,,,,,,,,,,,,,,,,,,,,,,,,,
null,,black_cross(without_color),957300,blue,,,,,null,US_Cities_List/mm_gatlinburg.png,US_Cities_List/mm_boulder.png,,,,,,,,,,,,,,,,,,,,,,,,,,,,
481.30000001192093,,rt_plussign_withcolor,957806,blue,,,,,49,US_Cities_List/mm_gatlinburg.png,US_Cities_List/mm_boulder.png,,,,,,,,,,,,,,,,,,,,,,,,,,,,
null,,rt_thecrossant_black,959202,black_plus_sign,,,,,null,,,1,0.9454545454545454,,,,,,,,,,,,,,,,,,,,,,,,,,
null,,color_black,959312,black_plus_sign,,,,,null,,,,,,,,,,,,,,,,,,,,,,,,,,,,,,
null,,learn_phase(without_color),961862,black_plus_sign,,,,,null,US_Cities_List/nat_newhope.png,US_Cities_List/nat_hanover.png,,,,,,,,,,,,,,,,,,,,,,,,,,,,
null,,black_cross(without_color),962408,blue,,,,,null,US_Cities_List/nat_newhope.png,US_Cities_List/nat_hanover.png,,,,,,,,,,,,,,,,,,,,,,,,,,,,
null,,rt_plussign_withcolor,962922,blue,,,,,null,US_Cities_List/nat_newhope.png,US_Cities_List/nat_hanover.png,,,,,,,,,,,,,,,,,,,,,,,,,,,,
1072.699999988079,,rt_thecrossant_black,964388,black_plus_sign,,,,,49,,,1,0.9459459459459459,,,,,,,,,,,,,,,,,,,,,,,,,,
null,,color_black,964505,black_plus_sign,,,,,null,,,,,,,,,,,,,,,,,,,,,,,,,,,,,,
null,,learn_phase(without_color),967055,black_plus_sign,,,,,null,US_Cities_List/nat_cornwall.png,US_Cities_List/nat_shreveport.png,,,,,,,,,,,,,,,,,,,,,,,,,,,,
null,,black_cross(without_color),967515,green,,,,,null,US_Cities_List/nat_cornwall.png,US_Cities_List/nat_shreveport.png,,,,,,,,,,,,,,,,,,,,,,,,,,,,
481.2000000178814,,rt_plussign_withcolor,968024,green,,,,,50,US_Cities_List/nat_cornwall.png,US_Cities_List/nat_shreveport.png,,,,,,,,,,,,,,,,,,,,,,,,,,,,
null,,rt_thecrossant_black,969583,black_plus_sign,,,,,null,,,1,0.9464285714285714,,,,,,,,,,,,,,,,,,,,,,,,,,
null,,color_black,969692,black_plus_sign,,,,,null,,,,,,,,,,,,,,,,,,,,,,,,,,,,,,
null,,learn_phase(without_color),972227,black_plus_sign,,,,,null,US_Cities_List/nat_newhope.png,US_Cities_List/nat_hotsprings.png,,,,,,,,,,,,,,,,,,,,,,,,,,,,
null,,black_cross(without_color),973134,green,,,,,null,US_Cities_List/nat_newhope.png,US_Cities_List/nat_hotsprings.png,,,,,,,,,,,,,,,,,,,,,,,,,,,,
399.90000000596046,,rt_plussign_withcolor,973645,green,,,,,50,US_Cities_List/nat_newhope.png,US_Cities_List/nat_hotsprings.png,,,,,,,,,,,,,,,,,,,,,,,,,,,,
null,,rt_thecrossant_black,974752,black_plus_sign,,,,,null,,,1,0.9469026548672567,,,,,,,,,,,,,,,,,,,,,,,,,,
null,,color_black,974864,black_plus_sign,,,,,null,,,,,,,,,,,,,,,,,,,,,,,,,,,,,,
null,,learn_phase(without_color),977390,black_plus_sign,,,,,null,US_Cities_List/nat_cornwall.png,US_Cities_List/nat_shreveport.png,,,,,,,,,,,,,,,,,,,,,,,,,,,,
null,,black_cross(without_color),978159,blue,,,,,null,US_Cities_List/nat_cornwall.png,US_Cities_List/nat_shreveport.png,,,,,,,,,,,,,,,,,,,,,,,,,,,,
459.09999999403954,,rt_plussign_withcolor,978662,blue,,,,,49,US_Cities_List/nat_cornwall.png,US_Cities_List/nat_shreveport.png,,,,,,,,,,,,,,,,,,,,,,,,,,,,
null,,rt_thecrossant_black,979908,black_plus_sign,,,,,null,,,1,0.9473684210526315,,,,,,,,,,,,,,,,,,,,,,,,,,
null,,color_black,980020,black_plus_sign,,,,,null,,,,,,,,,,,,,,,,,,,,,,,,,,,,,,
null,,learn_phase(without_color),982554,black_plus_sign,,,,,null,US_Cities_List/mm_gatlinburg.png,US_Cities_List/mm_boulder.png,,,,,,,,,,,,,,,,,,,,,,,,,,,,
null,,black_cross(without_color),983324,green,,,,,null,US_Cities_List/mm_gatlinburg.png,US_Cities_List/mm_boulder.png,,,,,,,,,,,,,,,,,,,,,,,,,,,,
null,,rt_plussign_withcolor,983842,green,,,,,null,US_Cities_List/mm_gatlinburg.png,US_Cities_List/mm_boulder.png,,,,,,,,,,,,,,,,,,,,,,,,,,,,
869.4000000059605,,rt_thecrossant_black,985092,black_plus_sign,,,,,50,,,1,0.9478260869565217,,,,,,,,,,,,,,,,,,,,,,,,,,
null,,color_black,985201,black_plus_sign,,,,,null,,,,,,,,,,,,,,,,,,,,,,,,,,,,,,
null,,learn_phase(without_color),987760,black_plus_sign,,,,,null,US_Cities_List/nat_hotsprings.png,US_Cities_List/nat_cornwall.png,,,,,,,,,,,,,,,,,,,,,,,,,,,,
null,,black_cross(without_color),988856,green,,,,,null,US_Cities_List/nat_hotsprings.png,US_Cities_List/nat_cornwall.png,,,,,,,,,,,,,,,,,,,,,,,,,,,,
466.40000000596046,,rt_plussign_withcolor,989367,green,,,,,50,US_Cities_List/nat_hotsprings.png,US_Cities_List/nat_cornwall.png,,,,,,,,,,,,,,,,,,,,,,,,,,,,
null,,rt_thecrossant_black,990291,black_plus_sign,,,,,null,,,1,0.9482758620689655,,,,,,,,,,,,,,,,,,,,,,,,,,
null,,color_black,990395,black_plus_sign,,,,,null,,,,,,,,,,,,,,,,,,,,,,,,,,,,,,
null,,learn_phase(without_color),992946,black_plus_sign,,,,,null,US_Cities_List/nat_hanover.png,US_Cities_List/mm_peoria.png,,,,,,,,,,,,,,,,,,,,,,,,,,,,
null,,black_cross(without_color),993568,blue,,,,,null,US_Cities_List/nat_hanover.png,US_Cities_List/mm_peoria.png,,,,,,,,,,,,,,,,,,,,,,,,,,,,
446.19999998807907,,rt_plussign_withcolor,994072,blue,,,,,49,US_Cities_List/nat_hanover.png,US_Cities_List/mm_peoria.png,,,,,,,,,,,,,,,,,,,,,,,,,,,,
null,,rt_thecrossant_black,995477,black_plus_sign,,,,,null,,,1,0.9487179487179487,,,,,,,,,,,,,,,,,,,,,,,,,,
null,,color_black,995588,black_plus_sign,,,,,null,,,,,,,,,,,,,,,,,,,,,,,,,,,,,,
null,,learn_phase(without_color),998120,black_plus_sign,,,,,null,US_Cities_List/mm_gatlinburg.png,US_Cities_List/mm_boulder.png,,,,,,,,,,,,,,,,,,,,,,,,,,,,
null,,black_cross(without_color),998623,green,,,,,null,US_Cities_List/mm_gatlinburg.png,US_Cities_List/mm_boulder.png,,,,,,,,,,,,,,,,,,,,,,,,,,,,
null,,rt_plussign_withcolor,999129,green,,,,,null,US_Cities_List/mm_gatlinburg.png,US_Cities_List/mm_boulder.png,,,,,,,,,,,,,,,,,,,,,,,,,,,,
733.6000000238419,,rt_thecrossant_black,1000642,black_plus_sign,,,,,50,,,1,0.9491525423728814,,,,,,,,,,,,,,,,,,,,,,,,,,
null,,color_black,1000754,black_plus_sign,,,,,null,,,,,,,,,,,,,,,,,,,,,,,,,,,,,,
null,,learn_phase(without_color),1003311,black_plus_sign,,,,,null,US_Cities_List/nat_hotsprings.png,US_Cities_List/nat_cornwall.png,,,,,,,,,,,,,,,,,,,,,,,,,,,,
null,,black_cross(without_color),1004154,blue,,,,,null,US_Cities_List/nat_hotsprings.png,US_Cities_List/nat_cornwall.png,,,,,,,,,,,,,,,,,,,,,,,,,,,,
361.40000000596046,,rt_plussign_withcolor,1004659,blue,,,,,49,US_Cities_List/nat_hotsprings.png,US_Cities_List/nat_cornwall.png,,,,,,,,,,,,,,,,,,,,,,,,,,,,
null,,rt_thecrossant_black,1005837,black_plus_sign,,,,,null,,,1,0.9495798319327731,,,,,,,,,,,,,,,,,,,,,,,,,,
null,,color_black,1005948,black_plus_sign,,,,,null,,,,,,,,,,,,,,,,,,,,,,,,,,,,,,
null,,learn_phase(without_color),1008512,black_plus_sign,,,,,null,US_Cities_List/nat_huntsville.png,US_Cities_List/nat_hanover.png,,,,,,,,,,,,,,,,,,,,,,,,,,,,
null,,black_cross(without_color),1009210,green,,,,,null,US_Cities_List/nat_huntsville.png,US_Cities_List/nat_hanover.png,,,,,,,,,,,,,,,,,,,,,,,,,,,,
442.80000001192093,,rt_plussign_withcolor,1009718,green,,,,,50,US_Cities_List/nat_huntsville.png,US_Cities_List/nat_hanover.png,,,,,,,,,,,,,,,,,,,,,,,,,,,,
null,,rt_thecrossant_black,1011043,black_plus_sign,,,,,null,,,1,0.95,,,,,,,,,,,,,,,,,,,,,,,,,,
null,,color_black,1011150,black_plus_sign,,,,,null,,,,,,,,,,,,,,,,,,,,,,,,,,,,,,
null,,learn_phase(without_color),1013714,black_plus_sign,,,,,null,US_Cities_List/mm_gatlinburg.png,US_Cities_List/mm_boulder.png,,,,,,,,,,,,,,,,,,,,,,,,,,,,
null,,black_cross(without_color),1014278,blue,,,,,null,US_Cities_List/mm_gatlinburg.png,US_Cities_List/mm_boulder.png,,,,,,,,,,,,,,,,,,,,,,,,,,,,
null,,rt_plussign_withcolor,1014784,blue,,,,,null,US_Cities_List/mm_gatlinburg.png,US_Cities_List/mm_boulder.png,,,,,,,,,,,,,,,,,,,,,,,,,,,,
798.5,,rt_thecrossant_black,1016234,black_plus_sign,,,,,49,,,1,0.9504132231404959,,,,,,,,,,,,,,,,,,,,,,,,,,
null,,color_black,1016350,black_plus_sign,,,,,null,,,,,,,,,,,,,,,,,,,,,,,,,,,,,,
null,,learn_phase(without_color),1018886,black_plus_sign,,,,,null,US_Cities_List/nat_newhope.png,US_Cities_List/nat_hanover.png,,,,,,,,,,,,,,,,,,,,,,,,,,,,
null,,black_cross(without_color),1019721,blue,,,,,null,US_Cities_List/nat_newhope.png,US_Cities_List/nat_hanover.png,,,,,,,,,,,,,,,,,,,,,,,,,,,,
null,,rt_plussign_withcolor,1020224,blue,,,,,null,US_Cities_List/nat_newhope.png,US_Cities_List/nat_hanover.png,,,,,,,,,,,,,,,,,,,,,,,,,,,,
819.5,,rt_thecrossant_black,1021401,black_plus_sign,,,,,49,,,1,0.9508196721311475,,,,,,,,,,,,,,,,,,,,,,,,,,
null,,color_black,1021516,black_plus_sign,,,,,null,,,,,,,,,,,,,,,,,,,,,,,,,,,,,,
null,,learn_phase(without_color),1024084,black_plus_sign,,,,,null,US_Cities_List/nat_huntsville.png,US_Cities_List/nat_hanover.png,,,,,,,,,,,,,,,,,,,,,,,,,,,,
null,,black_cross(without_color),1024787,green,,,,,null,US_Cities_List/nat_huntsville.png,US_Cities_List/nat_hanover.png,,,,,,,,,,,,,,,,,,,,,,,,,,,,
371.2000000178814,,rt_plussign_withcolor,1025296,green,,,,,50,US_Cities_List/nat_huntsville.png,US_Cities_List/nat_hanover.png,,,,,,,,,,,,,,,,,,,,,,,,,,,,
null,,rt_thecrossant_black,1026601,black_plus_sign,,,,,null,,,1,0.9512195121951219,,,,,,,,,,,,,,,,,,,,,,,,,,
null,,color_black,1026712,black_plus_sign,,,,,null,,,,,,,,,,,,,,,,,,,,,,,,,,,,,,
null,,learn_phase(without_color),1029267,black_plus_sign,,,,,null,US_Cities_List/mm_boulder.png,US_Cities_List/mm_peoria.png,,,,,,,,,,,,,,,,,,,,,,,,,,,,
null,,black_cross(without_color),1030197,blue,,,,,null,US_Cities_List/mm_boulder.png,US_Cities_List/mm_peoria.png,,,,,,,,,,,,,,,,,,,,,,,,,,,,
464.30000001192093,,rt_plussign_withcolor,1030702,blue,,,,,49,US_Cities_List/mm_boulder.png,US_Cities_List/mm_peoria.png,,,,,,,,,,,,,,,,,,,,,,,,,,,,
null,,rt_thecrossant_black,1031795,black_plus_sign,,,,,null,,,1,0.9516129032258065,,,,,,,,,,,,,,,,,,,,,,,,,,
null,,color_black,1031900,black_plus_sign,,,,,null,,,,,,,,,,,,,,,,,,,,,,,,,,,,,,
null,,learn_phase(without_color),1034432,black_plus_sign,,,,,null,US_Cities_List/nat_westpalmbeach.png,US_Cities_List/nat_huntsville.png,,,,,,,,,,,,,,,,,,,,,,,,,,,,
null,,black_cross(without_color),1035214,blue,,,,,null,US_Cities_List/nat_westpalmbeach.png,US_Cities_List/nat_huntsville.png,,,,,,,,,,,,,,,,,,,,,,,,,,,,
429.5,,rt_plussign_withcolor,1035724,blue,,,,,49,US_Cities_List/nat_westpalmbeach.png,US_Cities_List/nat_huntsville.png,,,,,,,,,,,,,,,,,,,,,,,,,,,,
null,,rt_thecrossant_black,1036972,black_plus_sign,,,,,null,,,1,0.952,,,,,,,,,,,,,,,,,,,,,,,,,,
null,,color_black,1037082,black_plus_sign,,,,,null,,,,,,,,,,,,,,,,,,,,,,,,,,,,,,
null,,learn_phase(without_color),1039615,black_plus_sign,,,,,null,US_Cities_List/mm_boulder.png,US_Cities_List/mm_peoria.png,,,,,,,,,,,,,,,,,,,,,,,,,,,,
null,,black_cross(without_color),1040395,blue,,,,,null,US_Cities_List/mm_boulder.png,US_Cities_List/mm_peoria.png,,,,,,,,,,,,,,,,,,,,,,,,,,,,
447,,rt_plussign_withcolor,1040900,blue,,,,,49,US_Cities_List/mm_boulder.png,US_Cities_List/mm_peoria.png,,,,,,,,,,,,,,,,,,,,,,,,,,,,
null,,rt_thecrossant_black,1042136,black_plus_sign,,,,,null,,,1,0.9523809523809523,,,,,,,,,,,,,,,,,,,,,,,,,,
null,,color_black,1042247,black_plus_sign,,,,,null,,,,,,,,,,,,,,,,,,,,,,,,,,,,,,
null,,learn_phase(without_color),1044784,black_plus_sign,,,,,null,US_Cities_List/nat_westpalmbeach.png,US_Cities_List/nat_huntsville.png,,,,,,,,,,,,,,,,,,,,,,,,,,,,
null,,black_cross(without_color),1045455,green,,,,,null,US_Cities_List/nat_westpalmbeach.png,US_Cities_List/nat_huntsville.png,,,,,,,,,,,,,,,,,,,,,,,,,,,,
399.30000001192093,,rt_plussign_withcolor,1045957,green,,,,,50,US_Cities_List/nat_westpalmbeach.png,US_Cities_List/nat_huntsville.png,,,,,,,,,,,,,,,,,,,,,,,,,,,,
null,,rt_thecrossant_black,1047312,black_plus_sign,,,,,null,,,1,0.952755905511811,,,,,,,,,,,,,,,,,,,,,,,,,,
null,,color_black,1047426,black_plus_sign,,,,,null,,,,,,,,,,,,,,,,,,,,,,,,,,,,,,
null,,learn_phase(without_color),1049970,black_plus_sign,,,,,null,US_Cities_List/nat_hotsprings.png,US_Cities_List/nat_huntsville.png,,,,,,,,,,,,,,,,,,,,,,,,,,,,
null,,black_cross(without_color),1050433,green,,,,,null,US_Cities_List/nat_hotsprings.png,US_Cities_List/nat_huntsville.png,,,,,,,,,,,,,,,,,,,,,,,,,,,,
487.40000000596046,,rt_plussign_withcolor,1050945,green,,,,,50,US_Cities_List/nat_hotsprings.png,US_Cities_List/nat_huntsville.png,,,,,,,,,,,,,,,,,,,,,,,,,,,,
null,,rt_thecrossant_black,1052497,black_plus_sign,,,,,null,,,1,0.953125,,,,,,,,,,,,,,,,,,,,,,,,,,
null,,color_black,1052601,black_plus_sign,,,,,null,,,,,,,,,,,,,,,,,,,,,,,,,,,,,,
189924,,intro_1,1242529,instruct,,,0,,,,,,,,,,,,,,,,,,,,,,,,,,,,,,,,
76257.69999998808,,intro_2,1318790,instruct,,,1,Next,,,,,,,,,,,,,,,,,,,,,,,,,,,,,,,
null,,directmemory_phase,1325342,../static/images/US_Cities_List/mm_gatlinburg.png,,,,,null,,,0,0,../static/images/US_Cities_List/nat_huntsville.png,../static/images/US_Cities_List/nat_carmel.png,../static/images/US_Cities_List/mm_boulder.png,../static/images/US_Cities_List/mm_boulder.png,../static/images/US_Cities_List/nat_carmel.png,../static/images/US_Cities_List/nat_huntsville.png,0,,,,,,,,,,,,,,,,,,,
null,,html-keyboard-response,1326361,<p></p>,,,,,null,,,,,,,,,,,,,,,,,,,,,,,,,,,,,,
null,,directmemory_phase,1332919,../static/images/US_Cities_List/nat_newhope.png,,,,,null,,,0,0,../static/images/US_Cities_List/nat_hanover.png,../static/images/US_Cities_List/nat_leesburg.png,../static/images/US_Cities_List/mm_racine.png,../static/images/US_Cities_List/nat_hanover.png,../static/images/US_Cities_List/mm_racine.png,../static/images/US_Cities_List/nat_leesburg.png,0,,,,,,,,,,,,,,,,,,,
null,,html-keyboard-response,1333927,<p></p>,,,,,null,,,,,,,,,,,,,,,,,,,,,,,,,,,,,,
null,,directmemory_phase,1340490,../static/images/US_Cities_List/nat_cornwall.png,,,,,null,,,0,0,../static/images/US_Cities_List/mm_peoria.png,../static/images/US_Cities_List/nat_newhope.png,../static/images/US_Cities_List/nat_shreveport.png,../static/images/US_Cities_List/nat_shreveport.png,../static/images/US_Cities_List/nat_newhope.png,../static/images/US_Cities_List/mm_peoria.png,0,,,,,,,,,,,,,,,,,,,
null,,html-keyboard-response,1341501,<p></p>,,,,,null,,,,,,,,,,,,,,,,,,,,,,,,,,,,,,
null,,directmemory_phase,1348082,../static/images/US_Cities_List/mm_boulder.png,,,,,null,,,0,0,../static/images/US_Cities_List/nat_westpalmbeach.png,../static/images/US_Cities_List/nat_newhope.png,../static/images/US_Cities_List/mm_peoria.png,../static/images/US_Cities_List/mm_peoria.png,../static/images/US_Cities_List/nat_newhope.png,../static/images/US_Cities_List/nat_westpalmbeach.png,0,,,,,,,,,,,,,,,,,,,
null,,html-keyboard-response,1349102,<p></p>,,,,,null,,,,,,,,,,,,,,,,,,,,,,,,,,,,,,
null,,directmemory_phase,1355679,../static/images/US_Cities_List/nat_hotsprings.png,,,,,null,,,0,0,../static/images/US_Cities_List/mm_racine.png,../static/images/US_Cities_List/nat_shreveport.png,../static/images/US_Cities_List/nat_huntsville.png,../static/images/US_Cities_List/nat_huntsville.png,../static/images/US_Cities_List/nat_shreveport.png,../static/images/US_Cities_List/mm_racine.png,0,,,,,,,,,,,,,,,,,,,
null,,html-keyboard-response,1356690,<p></p>,,,,,null,,,,,,,,,,,,,,,,,,,,,,,,,,,,,,
null,,directmemory_phase,1363272,../static/images/US_Cities_List/nat_carmel.png,,,,,null,,,0,0,../static/images/US_Cities_List/mm_boulder.png,../static/images/US_Cities_List/nat_hanover.png,../static/images/US_Cities_List/mm_gatlinburg.png,../static/images/US_Cities_List/mm_boulder.png,../static/images/US_Cities_List/mm_gatlinburg.png,../static/images/US_Cities_List/nat_hanover.png,0,,,,,,,,,,,,,,,,,,,
null,,html-keyboard-response,1364282,<p></p>,,,,,null,,,,,,,,,,,,,,,,,,,,,,,,,,,,,,
null,,directmemory_phase,1370872,../static/images/US_Cities_List/nat_cornwall.png,,,,,null,,,0,0,../static/images/US_Cities_List/nat_westpalmbeach.png,../static/images/US_Cities_List/mm_boulder.png,../static/images/US_Cities_List/nat_newhope.png,../static/images/US_Cities_List/nat_westpalmbeach.png,../static/images/US_Cities_List/nat_newhope.png,../static/images/US_Cities_List/mm_boulder.png,0,,,,,,,,,,,,,,,,,,,
null,,html-keyboard-response,1371879,<p></p>,,,,,null,,,,,,,,,,,,,,,,,,,,,,,,,,,,,,
null,,directmemory_phase,1378457,../static/images/US_Cities_List/mm_racine.png,,,,,null,,,0,0,../static/images/US_Cities_List/nat_hanover.png,../static/images/US_Cities_List/mm_boulder.png,../static/images/US_Cities_List/mm_gatlinburg.png,../static/images/US_Cities_List/mm_gatlinburg.png,../static/images/US_Cities_List/mm_boulder.png,../static/images/US_Cities_List/nat_hanover.png,0,,,,,,,,,,,,,,,,,,,
null,,html-keyboard-response,1379467,<p></p>,,,,,null,,,,,,,,,,,,,,,,,,,,,,,,,,,,,,
null,,directmemory_phase,1386032,../static/images/US_Cities_List/nat_cornwall.png,,,,,null,,,0,0,../static/images/US_Cities_List/nat_hotsprings.png,../static/images/US_Cities_List/mm_peoria.png,../static/images/US_Cities_List/nat_hanover.png,../static/images/US_Cities_List/nat_hotsprings.png,../static/images/US_Cities_List/nat_hanover.png,../static/images/US_Cities_List/mm_peoria.png,0,,,,,,,,,,,,,,,,,,,
null,,html-keyboard-response,1387049,<p></p>,,,,,null,,,,,,,,,,,,,,,,,,,,,,,,,,,,,,
null,,directmemory_phase,1393632,../static/images/US_Cities_List/mm_gatlinburg.png,,,,,null,,,0,0,../static/images/US_Cities_List/nat_newhope.png,../static/images/US_Cities_List/nat_westpalmbeach.png,../static/images/US_Cities_List/nat_hotsprings.png,../static/images/US_Cities_List/nat_newhope.png,../static/images/US_Cities_List/nat_hotsprings.png,../static/images/US_Cities_List/nat_westpalmbeach.png,0,,,,,,,,,,,,,,,,,,,
null,,html-keyboard-response,1394643,<p></p>,,,,,null,,,,,,,,,,,,,,,,,,,,,,,,,,,,,,
null,,directmemory_phase,1401198,../static/images/US_Cities_List/nat_westpalmbeach.png,,,,,null,,,0,0,../static/images/US_Cities_List/nat_cornwall.png,../static/images/US_Cities_List/nat_newhope.png,../static/images/US_Cities_List/nat_hanover.png,../static/images/US_Cities_List/nat_cornwall.png,../static/images/US_Cities_List/nat_hanover.png,../static/images/US_Cities_List/nat_newhope.png,0,,,,,,,,,,,,,,,,,,,
null,,html-keyboard-response,1402213,<p></p>,,,,,null,,,,,,,,,,,,,,,,,,,,,,,,,,,,,,
null,,directmemory_phase,1408794,../static/images/US_Cities_List/nat_newhope.png,,,,,null,,,0,0,../static/images/US_Cities_List/nat_hotsprings.png,../static/images/US_Cities_List/nat_westpalmbeach.png,../static/images/US_Cities_List/mm_racine.png,../static/images/US_Cities_List/nat_hotsprings.png,../static/images/US_Cities_List/mm_racine.png,../static/images/US_Cities_List/nat_westpalmbeach.png,0,,,,,,,,,,,,,,,,,,,
null,,html-keyboard-response,1409812,<p></p>,,,,,null,,,,,,,,,,,,,,,,,,,,,,,,,,,,,,
null,,directmemory_phase,1416381,../static/images/US_Cities_List/nat_westpalmbeach.png,,,,,null,,,0,0,../static/images/US_Cities_List/nat_huntsville.png,../static/images/US_Cities_List/nat_newhope.png,../static/images/US_Cities_List/nat_hotsprings.png,../static/images/US_Cities_List/nat_huntsville.png,../static/images/US_Cities_List/nat_hotsprings.png,../static/images/US_Cities_List/nat_newhope.png,0,,,,,,,,,,,,,,,,,,,
null,,html-keyboard-response,1417395,<p></p>,,,,,null,,,,,,,,,,,,,,,,,,,,,,,,,,,,,,
null,,directmemory_phase,1423968,../static/images/US_Cities_List/nat_hotsprings.png,,,,,null,,,0,0,../static/images/US_Cities_List/nat_leesburg.png,../static/images/US_Cities_List/nat_westpalmbeach.png,../static/images/US_Cities_List/nat_cornwall.png,../static/images/US_Cities_List/nat_cornwall.png,../static/images/US_Cities_List/nat_westpalmbeach.png,../static/images/US_Cities_List/nat_leesburg.png,0,,,,,,,,,,,,,,,,,,,
null,,html-keyboard-response,1424978,<p></p>,,,,,null,,,,,,,,,,,,,,,,,,,,,,,,,,,,,,
null,,directmemory_phase,1431523,../static/images/US_Cities_List/mm_boulder.png,,,,,null,,,0,0,../static/images/US_Cities_List/nat_carmel.png,../static/images/US_Cities_List/nat_westpalmbeach.png,../static/images/US_Cities_List/mm_racine.png,../static/images/US_Cities_List/nat_carmel.png,../static/images/US_Cities_List/mm_racine.png,../static/images/US_Cities_List/nat_westpalmbeach.png,0,,,,,,,,,,,,,,,,,,,
null,,html-keyboard-response,1432542,<p></p>,,,,,null,,,,,,,,,,,,,,,,,,,,,,,,,,,,,,
null,,directmemory_phase,1439120,../static/images/US_Cities_List/nat_huntsville.png,,,,,null,,,0,0,../static/images/US_Cities_List/mm_peoria.png,../static/images/US_Cities_List/nat_cornwall.png,../static/images/US_Cities_List/mm_racine.png,../static/images/US_Cities_List/nat_cornwall.png,../static/images/US_Cities_List/mm_peoria.png,../static/images/US_Cities_List/mm_racine.png,0,,,,,,,,,,,,,,,,,,,
null,,html-keyboard-response,1440140,<p></p>,,,,,null,,,,,,,,,,,,,,,,,,,,,,,,,,,,,,
5835.5999999940395,,directmemory_phase,1446046,../static/images/US_Cities_List/nat_hanover.png,,,,,49,,,1,0.058823529411764705,../static/images/US_Cities_List/mm_peoria.png,../static/images/US_Cities_List/nat_carmel.png,../static/images/US_Cities_List/nat_hotsprings.png,../static/images/US_Cities_List/mm_peoria.png,../static/images/US_Cities_List/nat_hotsprings.png,../static/images/US_Cities_List/nat_carmel.png,1,,,,,,,,,,,,,,,,,,,
null,,html-keyboard-response,1447058,<p></p>,,,,,null,,,,,,,,,,,,,,,,,,,,,,,,,,,,,,
1552.0999999940395,,directmemory_phase,1448676,../static/images/US_Cities_List/nat_shreveport.png,,,,,50,,,0,0.05555555555555555,../static/images/US_Cities_List/nat_cornwall.png,../static/images/US_Cities_List/mm_peoria.png,../static/images/US_Cities_List/nat_hotsprings.png,../static/images/US_Cities_List/nat_cornwall.png,../static/images/US_Cities_List/nat_hotsprings.png,../static/images/US_Cities_List/mm_peoria.png,0.5,closer,,,,,,,,,,,,,,,,,,
null,,html-keyboard-response,1449691,<p></p>,,,,,null,,,,,,,,,,,,,,,,,,,,,,,,,,,,,,
3014.2000000178814,,directmemory_phase,1452751,../static/images/US_Cities_List/nat_hanover.png,,,,,50,,,0,0.05263157894736842,../static/images/US_Cities_List/nat_leesburg.png,../static/images/US_Cities_List/nat_cornwall.png,../static/images/US_Cities_List/nat_huntsville.png,../static/images/US_Cities_List/nat_huntsville.png,../static/images/US_Cities_List/nat_cornwall.png,../static/images/US_Cities_List/nat_leesburg.png,0.5,closer,,,,,,,,,,,,,,,,,,
null,,html-keyboard-response,1453763,<p></p>,,,,,null,,,,,,,,,,,,,,,,,,,,,,,,,,,,,,
3013,,directmemory_phase,1456832,../static/images/US_Cities_List/mm_boulder.png,,,,,49,,,0,0.05,../static/images/US_Cities_List/nat_westpalmbeach.png,../static/images/US_Cities_List/mm_racine.png,../static/images/US_Cities_List/mm_gatlinburg.png,../static/images/US_Cities_List/mm_gatlinburg.png,../static/images/US_Cities_List/mm_racine.png,../static/images/US_Cities_List/nat_westpalmbeach.png,0.5,closer,,,,,,,,,,,,,,,,,,
null,,html-keyboard-response,1457840,<p></p>,,,,,null,,,,,,,,,,,,,,,,,,,,,,,,,,,,,,
1225,,directmemory_phase,1459151,../static/images/US_Cities_List/nat_huntsville.png,,,,,50,,,0,0.047619047619047616,../static/images/US_Cities_List/nat_hanover.png,../static/images/US_Cities_List/mm_racine.png,../static/images/US_Cities_List/mm_peoria.png,../static/images/US_Cities_List/nat_hanover.png,../static/images/US_Cities_List/mm_peoria.png,../static/images/US_Cities_List/mm_racine.png,0.5,closer,,,,,,,,,,,,,,,,,,
null,,html-keyboard-response,1460170,<p></p>,,,,,null,,,,,,,,,,,,,,,,,,,,,,,,,,,,,,
1362.9000000059605,,directmemory_phase,1461598,../static/images/US_Cities_List/mm_gatlinburg.png,,,,,51,,,0,0.045454545454545456,../static/images/US_Cities_List/mm_racine.png,../static/images/US_Cities_List/nat_shreveport.png,../static/images/US_Cities_List/nat_hanover.png,../static/images/US_Cities_List/mm_racine.png,../static/images/US_Cities_List/nat_hanover.png,../static/images/US_Cities_List/nat_shreveport.png,0.5,closer,,,,,,,,,,,,,,,,,,
null,,html-keyboard-response,1462611,<p></p>,,,,,null,,,,,,,,,,,,,,,,,,,,,,,,,,,,,,
2657.7000000178814,,directmemory_phase,1465334,../static/images/US_Cities_List/mm_peoria.png,,,,,49,,,1,0.08695652173913043,../static/images/US_Cities_List/nat_hanover.png,../static/images/US_Cities_List/nat_leesburg.png,../static/images/US_Cities_List/mm_gatlinburg.png,../static/images/US_Cities_List/nat_hanover.png,../static/images/US_Cities_List/mm_gatlinburg.png,../static/images/US_Cities_List/nat_leesburg.png,1,,,,,,,,,,,,,,,,,,,
null,,html-keyboard-response,1466342,<p></p>,,,,,null,,,,,,,,,,,,,,,,,,,,,,,,,,,,,,
3791.7000000178814,,directmemory_phase,1470199,../static/images/US_Cities_List/nat_newhope.png,,,,,51,,,1,0.125,../static/images/US_Cities_List/nat_westpalmbeach.png,../static/images/US_Cities_List/mm_peoria.png,../static/images/US_Cities_List/mm_gatlinburg.png,../static/images/US_Cities_List/mm_gatlinburg.png,../static/images/US_Cities_List/mm_peoria.png,../static/images/US_Cities_List/nat_westpalmbeach.png,1,,,,,,,,,,,,,,,,,,,
null,,html-keyboard-response,1471210,<p></p>,,,,,null,,,,,,,,,,,,,,,,,,,,,,,,,,,,,,
