rt,responses,trial_type,time_elapsed,stimulus,cities,city_images,button_pressed,response,key_press,stimulus_left,stimulus_right,cumulative_accuracy,accuracy,stimulus_down_left,stimulus_down_mid,stimulus_down_right,stimulus_correct,stimulus_short,stimulus_far,weighted_accuracy,missedtrial,condition,specific_pairs,imgL_ID,imgR_ID,linedress,linedressed,image_position,unknowncity,testedstates,currentstate,otherstate,problems,smooth,distraction,strategies,easier,similar,comments
23287.399999976158,{worker_id:67eec1cf02e625e0d469f1ed},id_enter,23296,intro,Shreveport; Peoria; West Palm Beach; Huntsville; Racine; Cornwall; Leesburg; Gatlinburg; Hot Springs; Hanover; Carmel; New Hope; Boulder,US_Cities_List/nat_shreveport.png; US_Cities_List/mm_peoria.png; US_Cities_List/nat_westpalmbeach.png; US_Cities_List/mm_huntsville.png; US_Cities_List/nat_racine.png; US_Cities_List/nat_cornwall.png; US_Cities_List/mm_leesburg.png; US_Cities_List/mm_gatlinburg.png; US_Cities_List/mm_hotsprings.png; US_Cities_List/mm_hanover.png; US_Cities_List/nat_carmel.png; US_Cities_List/nat_newhope.png; US_Cities_List/mm_boulder.png,,,,,,,,,,,,,,,,,,,,,,,,,,,,,,,,,
24389.200000047684,,fullscreen,47693,make_fullscreen,,,0,,,,,,,,,,,,,,,,,,,,,,,,,,,,,,,,
37749.60000002384,,intro_1,85574,instruct,,,0,,,,,,,,,,,,,,,,,,,,,,,,,,,,,,,,
18827,,intro_2,104404,instruct,,,1,Next,,,,,,,,,,,,,,,,,,,,,,,,,,,,,,,
15732.399999976158,,intro_3,120139,instruct,,,1,Next,,,,,,,,,,,,,,,,,,,,,,,,,,,,,,,
30295.69999998808,,intro_4,150438,instruct,,,1,Next,,,,,,,,,,,,,,,,,,,,,,,,,,,,,,,
11716.899999976158,,intro_5,162157,instruct,,,1,Next,,,,,,,,,,,,,,,,,,,,,,,,,,,,,,,
39109.80000001192,,intro_6,201269,instruct,,,1,Next,,,,,,,,,,,,,,,,,,,,,,,,,,,,,,,
null,,prac_atten_color_black,201644,black_plus_sign,,,,,null,,,,,,,,,,,,,,,,,,,,,,,,,,,,,,
588.6999999880791,,prac_atten_color,202695,prac_stop_color,,,,,49,,,,,,,,,,,,,,,,,,,,,,,,,,,,,,
null,,prac_atten_color_black,204702,black_plus_sign,,,,,null,,,,,,,,,,,,,,,,,,,,,,,,,,,,,,
null,,prac_atten_color_black,205068,black_plus_sign,,,,,null,,,,,,,,,,,,,,,,,,,,,,,,,,,,,,
824.5999999642372,,prac_atten_color,206065,prac_stop_color,,,,,50,,,,,,,,,,,,,,,,,,,,,,,,,,,,,,
null,,prac_atten_color_black,208076,black_plus_sign,,,,,null,,,,,,,,,,,,,,,,,,,,,,,,,,,,,,
null,,prac_atten_color_black,208502,black_plus_sign,,,,,null,,,,,,,,,,,,,,,,,,,,,,,,,,,,,,
547.4000000357628,,prac_atten_color,209460,prac_stop_color,,,,,50,,,,,,,,,,,,,,,,,,,,,,,,,,,,,,
null,,prac_atten_color_black,211466,black_plus_sign,,,,,null,,,,,,,,,,,,,,,,,,,,,,,,,,,,,,
null,,prac_atten_color_black,211923,black_plus_sign,,,,,null,,,,,,,,,,,,,,,,,,,,,,,,,,,,,,
381.5,,prac_atten_color,212562,prac_stop_color,,,,,49,,,,,,,,,,,,,,,,,,,,,,,,,,,,,,
null,,prac_atten_color_black,214569,black_plus_sign,,,,,null,,,,,,,,,,,,,,,,,,,,,,,,,,,,,,
null,,prac_atten_color_black,215348,black_plus_sign,,,,,null,,,,,,,,,,,,,,,,,,,,,,,,,,,,,,
350.39999997615814,,prac_atten_color,216408,prac_stop_color,,,,,50,,,,,,,,,,,,,,,,,,,,,,,,,,,,,,
null,,prac_atten_color_black,218421,black_plus_sign,,,,,null,,,,,,,,,,,,,,,,,,,,,,,,,,,,,,
null,,prac_atten_color_black,218780,black_plus_sign,,,,,null,,,,,,,,,,,,,,,,,,,,,,,,,,,,,,
674,,prac_atten_color,219727,prac_stop_color,,,,,50,,,,,,,,,,,,,,,,,,,,,,,,,,,,,,
null,,prac_atten_color_black,221731,black_plus_sign,,,,,null,,,,,,,,,,,,,,,,,,,,,,,,,,,,,,
null,,prac_atten_color_black,222197,black_plus_sign,,,,,null,,,,,,,,,,,,,,,,,,,,,,,,,,,,,,
null,,prac_atten_color,222878,prac_stop_color,,,,,null,,,,,,,,,,,,,,,,,,,,,,,,,,,,,,
152.0999999642372,,prac_atten_color_black,224886,black_plus_sign,,,,,49,,,,,,,,,,,,,,,,,,,,,,,,,,,,,,
null,,prac_atten_color_black,225615,black_plus_sign,,,,,null,,,,,,,,,,,,,,,,,,,,,,,,,,,,,,
364.89999997615814,,prac_atten_color,226062,prac_stop_color,,,,,50,,,,,,,,,,,,,,,,,,,,,,,,,,,,,,
null,,prac_atten_color_black,228079,black_plus_sign,,,,,null,,,,,,,,,,,,,,,,,,,,,,,,,,,,,,
null,,prac_atten_color_black,229046,black_plus_sign,,,,,null,,,,,,,,,,,,,,,,,,,,,,,,,,,,,,
571.3000000119209,,prac_atten_color,229887,prac_stop_color,,,,,49,,,,,,,,,,,,,,,,,,,,,,,,,,,,,,
null,,prac_atten_color_black,231898,black_plus_sign,,,,,null,,,,,,,,,,,,,,,,,,,,,,,,,,,,,,
null,,prac_atten_color_black,232474,black_plus_sign,,,,,null,,,,,,,,,,,,,,,,,,,,,,,,,,,,,,
583.3000000119209,,prac_atten_color,233360,prac_stop_color,,,,,50,,,,,,,,,,,,,,,,,,,,,,,,,,,,,,
null,,prac_atten_color_black,235369,black_plus_sign,,,,,null,,,,,,,,,,,,,,,,,,,,,,,,,,,,,,
12238.400000035763,,attentioncheck_feedback,247612,cross_check_feedback,,,0,,,,,,,,,,,,,,,,,,,,,,,,,,,,,,,,
27544.80000001192,,last_instruct,275159,instruct,,,,,32,,,,,,,,,,,,,,,,,,,,,,,,,,,,,,
null,,learn_phase(without_color),277219,black_plus_sign,,,,,null,US_Cities_List/mm_gatlinburg.png,US_Cities_List/mm_hotsprings.png,,,,,,,,,,,,,,,,,,,,,,,,,,,,
null,,black_cross(without_color),278267,blue,,,,,null,US_Cities_List/mm_gatlinburg.png,US_Cities_List/mm_hotsprings.png,,,,,,,,,,,,,,,,,,,,,,,,,,,,
null,,rt_plussign_withcolor,278777,blue,,,,,null,US_Cities_List/mm_gatlinburg.png,US_Cities_List/mm_hotsprings.png,,,,,,,,,,,,,,,,,,,,,,,,,,,,
null,,rt_thecrossant_black,279742,black_plus_sign,,,,,null,,,NaN,,,,,,,,,,,,,,,,,,,,,,,,,,,
null,,color_black,279853,black_plus_sign,,,,,null,,,,,,,,,,,,,,,,,,,,,,,,,,,,,,
null,,learn_phase(without_color),282418,black_plus_sign,,,,,null,US_Cities_List/nat_shreveport.png,US_Cities_List/mm_peoria.png,,,,,,,,,,,,,,,,,,,,,,,,,,,,
null,,black_cross(without_color),283018,green,,,,,null,US_Cities_List/nat_shreveport.png,US_Cities_List/mm_peoria.png,,,,,,,,,,,,,,,,,,,,,,,,,,,,
null,,rt_plussign_withcolor,283522,green,,,,,null,US_Cities_List/nat_shreveport.png,US_Cities_List/mm_peoria.png,,,,,,,,,,,,,,,,,,,,,,,,,,,,
833.5,,rt_thecrossant_black,284939,black_plus_sign,,,,,50,,,1,1,,,,,,,,,,,,,,,,,,,,,,,,,,
null,,color_black,285044,black_plus_sign,,,,,null,,,,,,,,,,,,,,,,,,,,,,,,,,,,,,
null,,learn_phase(without_color),287611,black_plus_sign,,,,,null,US_Cities_List/mm_leesburg.png,US_Cities_List/mm_boulder.png,,,,,,,,,,,,,,,,,,,,,,,,,,,,
null,,black_cross(without_color),288450,green,,,,,null,US_Cities_List/mm_leesburg.png,US_Cities_List/mm_boulder.png,,,,,,,,,,,,,,,,,,,,,,,,,,,,
null,,rt_plussign_withcolor,288961,green,,,,,null,US_Cities_List/mm_leesburg.png,US_Cities_List/mm_boulder.png,,,,,,,,,,,,,,,,,,,,,,,,,,,,
858.9000000357628,,rt_thecrossant_black,290143,black_plus_sign,,,,,50,,,1,1,,,,,,,,,,,,,,,,,,,,,,,,,,
null,,color_black,290252,black_plus_sign,,,,,null,,,,,,,,,,,,,,,,,,,,,,,,,,,,,,
null,,learn_phase(without_color),292804,black_plus_sign,,,,,null,US_Cities_List/mm_gatlinburg.png,US_Cities_List/mm_hanover.png,,,,,,,,,,,,,,,,,,,,,,,,,,,,
null,,black_cross(without_color),293800,blue,,,,,null,US_Cities_List/mm_gatlinburg.png,US_Cities_List/mm_hanover.png,,,,,,,,,,,,,,,,,,,,,,,,,,,,
null,,rt_plussign_withcolor,294305,blue,,,,,null,US_Cities_List/mm_gatlinburg.png,US_Cities_List/mm_hanover.png,,,,,,,,,,,,,,,,,,,,,,,,,,,,
1211.4000000357628,,rt_thecrossant_black,295326,black_plus_sign,,,,,49,,,1,1,,,,,,,,,,,,,,,,,,,,,,,,,,
null,,color_black,295435,black_plus_sign,,,,,null,,,,,,,,,,,,,,,,,,,,,,,,,,,,,,
null,,learn_phase(without_color),298005,black_plus_sign,,,,,null,US_Cities_List/mm_gatlinburg.png,US_Cities_List/mm_hotsprings.png,,,,,,,,,,,,,,,,,,,,,,,,,,,,
null,,black_cross(without_color),298528,blue,,,,,null,US_Cities_List/mm_gatlinburg.png,US_Cities_List/mm_hotsprings.png,,,,,,,,,,,,,,,,,,,,,,,,,,,,
null,,rt_plussign_withcolor,299032,blue,,,,,null,US_Cities_List/mm_gatlinburg.png,US_Cities_List/mm_hotsprings.png,,,,,,,,,,,,,,,,,,,,,,,,,,,,
1222.199999988079,,rt_thecrossant_black,300525,black_plus_sign,,,,,49,,,1,1,,,,,,,,,,,,,,,,,,,,,,,,,,
null,,color_black,300635,black_plus_sign,,,,,null,,,,,,,,,,,,,,,,,,,,,,,,,,,,,,
null,,learn_phase(without_color),303208,black_plus_sign,,,,,null,US_Cities_List/mm_leesburg.png,US_Cities_List/mm_gatlinburg.png,,,,,,,,,,,,,,,,,,,,,,,,,,,,
null,,black_cross(without_color),303932,green,,,,,null,US_Cities_List/mm_leesburg.png,US_Cities_List/mm_gatlinburg.png,,,,,,,,,,,,,,,,,,,,,,,,,,,,
485,,rt_plussign_withcolor,304434,green,,,,,50,US_Cities_List/mm_leesburg.png,US_Cities_List/mm_gatlinburg.png,,,,,,,,,,,,,,,,,,,,,,,,,,,,
null,,rt_thecrossant_black,305722,black_plus_sign,,,,,null,,,1,1,,,,,,,,,,,,,,,,,,,,,,,,,,
null,,color_black,305826,black_plus_sign,,,,,null,,,,,,,,,,,,,,,,,,,,,,,,,,,,,,
null,,learn_phase(without_color),308385,black_plus_sign,,,,,null,US_Cities_List/mm_huntsville.png,US_Cities_List/nat_newhope.png,,,,,,,,,,,,,,,,,,,,,,,,,,,,
null,,black_cross(without_color),309456,blue,,,,,null,US_Cities_List/mm_huntsville.png,US_Cities_List/nat_newhope.png,,,,,,,,,,,,,,,,,,,,,,,,,,,,
392.30000001192093,,rt_plussign_withcolor,309973,blue,,,,,49,US_Cities_List/mm_huntsville.png,US_Cities_List/nat_newhope.png,,,,,,,,,,,,,,,,,,,,,,,,,,,,
null,,rt_thecrossant_black,310925,black_plus_sign,,,,,null,,,1,1,,,,,,,,,,,,,,,,,,,,,,,,,,
null,,color_black,311034,black_plus_sign,,,,,null,,,,,,,,,,,,,,,,,,,,,,,,,,,,,,
null,,learn_phase(without_color),313604,black_plus_sign,,,,,null,US_Cities_List/mm_gatlinburg.png,US_Cities_List/mm_hotsprings.png,,,,,,,,,,,,,,,,,,,,,,,,,,,,
null,,black_cross(without_color),314703,green,,,,,null,US_Cities_List/mm_gatlinburg.png,US_Cities_List/mm_hotsprings.png,,,,,,,,,,,,,,,,,,,,,,,,,,,,
null,,rt_plussign_withcolor,315211,green,,,,,null,US_Cities_List/mm_gatlinburg.png,US_Cities_List/mm_hotsprings.png,,,,,,,,,,,,,,,,,,,,,,,,,,,,
1305.8999999761581,,rt_thecrossant_black,316127,black_plus_sign,,,,,50,,,1,1,,,,,,,,,,,,,,,,,,,,,,,,,,
null,,color_black,316231,black_plus_sign,,,,,null,,,,,,,,,,,,,,,,,,,,,,,,,,,,,,
null,,learn_phase(without_color),318789,black_plus_sign,,,,,null,US_Cities_List/mm_gatlinburg.png,US_Cities_List/mm_hanover.png,,,,,,,,,,,,,,,,,,,,,,,,,,,,
null,,black_cross(without_color),319628,green,,,,,null,US_Cities_List/mm_gatlinburg.png,US_Cities_List/mm_hanover.png,,,,,,,,,,,,,,,,,,,,,,,,,,,,
null,,rt_plussign_withcolor,320132,green,,,,,null,US_Cities_List/mm_gatlinburg.png,US_Cities_List/mm_hanover.png,,,,,,,,,,,,,,,,,,,,,,,,,,,,
1211.2000000476837,,rt_thecrossant_black,321310,black_plus_sign,,,,,49,,,0.875,0,,,,,,,,,,,,,,,,,,,,,,,,,,
null,,color_black,321417,black_plus_sign,,,,,null,,,,,,,,,,,,,,,,,,,,,,,,,,,,,,
null,,learn_phase(without_color),323997,black_plus_sign,,,,,null,US_Cities_List/mm_leesburg.png,US_Cities_List/mm_boulder.png,,,,,,,,,,,,,,,,,,,,,,,,,,,,
null,,black_cross(without_color),325103,blue,,,,,null,US_Cities_List/mm_leesburg.png,US_Cities_List/mm_boulder.png,,,,,,,,,,,,,,,,,,,,,,,,,,,,
null,,rt_plussign_withcolor,325611,blue,,,,,null,US_Cities_List/mm_leesburg.png,US_Cities_List/mm_boulder.png,,,,,,,,,,,,,,,,,,,,,,,,,,,,
1236,,rt_thecrossant_black,326527,black_plus_sign,,,,,49,,,0.8888888888888888,1,,,,,,,,,,,,,,,,,,,,,,,,,,
null,,color_black,326635,black_plus_sign,,,,,null,,,,,,,,,,,,,,,,,,,,,,,,,,,,,,
null,,learn_phase(without_color),329228,black_plus_sign,,,,,null,US_Cities_List/mm_peoria.png,US_Cities_List/nat_westpalmbeach.png,,,,,,,,,,,,,,,,,,,,,,,,,,,,
null,,black_cross(without_color),329676,green,,,,,null,US_Cities_List/mm_peoria.png,US_Cities_List/nat_westpalmbeach.png,,,,,,,,,,,,,,,,,,,,,,,,,,,,
null,,rt_plussign_withcolor,330186,green,,,,,null,US_Cities_List/mm_peoria.png,US_Cities_List/nat_westpalmbeach.png,,,,,,,,,,,,,,,,,,,,,,,,,,,,
1350.2000000476837,,rt_thecrossant_black,331746,black_plus_sign,,,,,50,,,0.9,1,,,,,,,,,,,,,,,,,,,,,,,,,,
null,,color_black,331853,black_plus_sign,,,,,null,,,,,,,,,,,,,,,,,,,,,,,,,,,,,,
null,,learn_phase(without_color),334434,black_plus_sign,,,,,null,US_Cities_List/nat_cornwall.png,US_Cities_List/mm_leesburg.png,,,,,,,,,,,,,,,,,,,,,,,,,,,,
null,,black_cross(without_color),335121,blue,,,,,null,US_Cities_List/nat_cornwall.png,US_Cities_List/mm_leesburg.png,,,,,,,,,,,,,,,,,,,,,,,,,,,,
null,,rt_plussign_withcolor,335629,blue,,,,,null,US_Cities_List/nat_cornwall.png,US_Cities_List/mm_leesburg.png,,,,,,,,,,,,,,,,,,,,,,,,,,,,
592,,rt_thecrossant_black,336959,black_plus_sign,,,,,49,,,0.9090909090909091,1,,,,,,,,,,,,,,,,,,,,,,,,,,
null,,color_black,337065,black_plus_sign,,,,,null,,,,,,,,,,,,,,,,,,,,,,,,,,,,,,
null,,learn_phase(without_color),339624,black_plus_sign,,,,,null,US_Cities_List/mm_leesburg.png,US_Cities_List/mm_boulder.png,,,,,,,,,,,,,,,,,,,,,,,,,,,,
null,,black_cross(without_color),340339,green,,,,,null,US_Cities_List/mm_leesburg.png,US_Cities_List/mm_boulder.png,,,,,,,,,,,,,,,,,,,,,,,,,,,,
null,,rt_plussign_withcolor,340848,green,,,,,null,US_Cities_List/mm_leesburg.png,US_Cities_List/mm_boulder.png,,,,,,,,,,,,,,,,,,,,,,,,,,,,
800.0999999642372,,rt_thecrossant_black,342146,black_plus_sign,,,,,50,,,0.9166666666666666,1,,,,,,,,,,,,,,,,,,,,,,,,,,
null,,color_black,342255,black_plus_sign,,,,,null,,,,,,,,,,,,,,,,,,,,,,,,,,,,,,
null,,learn_phase(without_color),344809,black_plus_sign,,,,,null,US_Cities_List/nat_shreveport.png,US_Cities_List/mm_peoria.png,,,,,,,,,,,,,,,,,,,,,,,,,,,,
null,,black_cross(without_color),345841,green,,,,,null,US_Cities_List/nat_shreveport.png,US_Cities_List/mm_peoria.png,,,,,,,,,,,,,,,,,,,,,,,,,,,,
null,,rt_plussign_withcolor,346352,green,,,,,null,US_Cities_List/nat_shreveport.png,US_Cities_List/mm_peoria.png,,,,,,,,,,,,,,,,,,,,,,,,,,,,
871.0999999642372,,rt_thecrossant_black,347339,black_plus_sign,,,,,50,,,0.9230769230769231,1,,,,,,,,,,,,,,,,,,,,,,,,,,
null,,color_black,347450,black_plus_sign,,,,,null,,,,,,,,,,,,,,,,,,,,,,,,,,,,,,
null,,learn_phase(without_color),350018,black_plus_sign,,,,,null,US_Cities_List/nat_westpalmbeach.png,US_Cities_List/nat_carmel.png,,,,,,,,,,,,,,,,,,,,,,,,,,,,
null,,black_cross(without_color),350955,blue,,,,,null,US_Cities_List/nat_westpalmbeach.png,US_Cities_List/nat_carmel.png,,,,,,,,,,,,,,,,,,,,,,,,,,,,
null,,rt_plussign_withcolor,351458,blue,,,,,null,US_Cities_List/nat_westpalmbeach.png,US_Cities_List/nat_carmel.png,,,,,,,,,,,,,,,,,,,,,,,,,,,,
1278,,rt_thecrossant_black,352533,black_plus_sign,,,,,49,,,0.9285714285714286,1,,,,,,,,,,,,,,,,,,,,,,,,,,
null,,color_black,352642,black_plus_sign,,,,,null,,,,,,,,,,,,,,,,,,,,,,,,,,,,,,
null,,learn_phase(without_color),355208,black_plus_sign,,,,,null,US_Cities_List/mm_hotsprings.png,US_Cities_List/nat_carmel.png,,,,,,,,,,,,,,,,,,,,,,,,,,,,
null,,black_cross(without_color),356215,green,,,,,null,US_Cities_List/mm_hotsprings.png,US_Cities_List/nat_carmel.png,,,,,,,,,,,,,,,,,,,,,,,,,,,,
500.5,,rt_plussign_withcolor,356720,green,,,,,50,US_Cities_List/mm_hotsprings.png,US_Cities_List/nat_carmel.png,,,,,,,,,,,,,,,,,,,,,,,,,,,,
null,,rt_thecrossant_black,357737,black_plus_sign,,,,,null,,,0.9333333333333333,1,,,,,,,,,,,,,,,,,,,,,,,,,,
null,,color_black,357847,black_plus_sign,,,,,null,,,,,,,,,,,,,,,,,,,,,,,,,,,,,,
null,,learn_phase(without_color),360407,black_plus_sign,,,,,null,US_Cities_List/mm_huntsville.png,US_Cities_List/nat_newhope.png,,,,,,,,,,,,,,,,,,,,,,,,,,,,
null,,black_cross(without_color),361386,green,,,,,null,US_Cities_List/mm_huntsville.png,US_Cities_List/nat_newhope.png,,,,,,,,,,,,,,,,,,,,,,,,,,,,
null,,rt_plussign_withcolor,361889,green,,,,,null,US_Cities_List/mm_huntsville.png,US_Cities_List/nat_newhope.png,,,,,,,,,,,,,,,,,,,,,,,,,,,,
1229.699999988079,,rt_thecrossant_black,362929,black_plus_sign,,,,,49,,,0.875,0,,,,,,,,,,,,,,,,,,,,,,,,,,
null,,color_black,363035,black_plus_sign,,,,,null,,,,,,,,,,,,,,,,,,,,,,,,,,,,,,
null,,learn_phase(without_color),365598,black_plus_sign,,,,,null,US_Cities_List/nat_carmel.png,US_Cities_List/nat_newhope.png,,,,,,,,,,,,,,,,,,,,,,,,,,,,
null,,black_cross(without_color),366262,blue,,,,,null,US_Cities_List/nat_carmel.png,US_Cities_List/nat_newhope.png,,,,,,,,,,,,,,,,,,,,,,,,,,,,
null,,rt_plussign_withcolor,366774,blue,,,,,null,US_Cities_List/nat_carmel.png,US_Cities_List/nat_newhope.png,,,,,,,,,,,,,,,,,,,,,,,,,,,,
1251.6000000238419,,rt_thecrossant_black,368125,black_plus_sign,,,,,49,,,0.8823529411764706,1,,,,,,,,,,,,,,,,,,,,,,,,,,
null,,color_black,368230,black_plus_sign,,,,,null,,,,,,,,,,,,,,,,,,,,,,,,,,,,,,
null,,learn_phase(without_color),370812,black_plus_sign,,,,,null,US_Cities_List/mm_huntsville.png,US_Cities_List/nat_racine.png,,,,,,,,,,,,,,,,,,,,,,,,,,,,
null,,black_cross(without_color),371496,blue,,,,,null,US_Cities_List/mm_huntsville.png,US_Cities_List/nat_racine.png,,,,,,,,,,,,,,,,,,,,,,,,,,,,
394.69999998807907,,rt_plussign_withcolor,372007,blue,,,,,50,US_Cities_List/mm_huntsville.png,US_Cities_List/nat_racine.png,,,,,,,,,,,,,,,,,,,,,,,,,,,,
null,,rt_thecrossant_black,373334,black_plus_sign,,,,,null,,,0.8333333333333334,0,,,,,,,,,,,,,,,,,,,,,,,,,,
null,,color_black,373444,black_plus_sign,,,,,null,,,,,,,,,,,,,,,,,,,,,,,,,,,,,,
null,,learn_phase(without_color),376015,black_plus_sign,,,,,null,US_Cities_List/nat_westpalmbeach.png,US_Cities_List/nat_carmel.png,,,,,,,,,,,,,,,,,,,,,,,,,,,,
null,,black_cross(without_color),376580,green,,,,,null,US_Cities_List/nat_westpalmbeach.png,US_Cities_List/nat_carmel.png,,,,,,,,,,,,,,,,,,,,,,,,,,,,
null,,rt_plussign_withcolor,377088,green,,,,,null,US_Cities_List/nat_westpalmbeach.png,US_Cities_List/nat_carmel.png,,,,,,,,,,,,,,,,,,,,,,,,,,,,
1218.3999999761581,,rt_thecrossant_black,378542,black_plus_sign,,,,,49,,,0.7894736842105263,0,,,,,,,,,,,,,,,,,,,,,,,,,,
null,,warning_page,381550,warning,,,,,null,,,,,,,,,,,,,,,,,,,,,,,,,,,,,,
null,,color_black,381656,black_plus_sign,,,,,null,,,,,,,,,,,,,,,,,,,,,,,,,,,,,,
null,,learn_phase(without_color),384239,black_plus_sign,,,,,null,US_Cities_List/nat_shreveport.png,US_Cities_List/mm_peoria.png,,,,,,,,,,,,,,,,,,,,,,,,,,,,
null,,black_cross(without_color),384994,green,,,,,null,US_Cities_List/nat_shreveport.png,US_Cities_List/mm_peoria.png,,,,,,,,,,,,,,,,,,,,,,,,,,,,
null,,rt_plussign_withcolor,385510,green,,,,,null,US_Cities_List/nat_shreveport.png,US_Cities_List/mm_peoria.png,,,,,,,,,,,,,,,,,,,,,,,,,,,,
756.3999999761581,,rt_thecrossant_black,386773,black_plus_sign,,,,,49,,,0.75,0,,,,,,,,,,,,,,,,,,,,,,,,,,
null,,warning_page,389785,warning,,,,,null,,,,,,,,,,,,,,,,,,,,,,,,,,,,,,
null,,color_black,389893,black_plus_sign,,,,,null,,,,,,,,,,,,,,,,,,,,,,,,,,,,,,
null,,learn_phase(without_color),392462,black_plus_sign,,,,,null,US_Cities_List/mm_hotsprings.png,US_Cities_List/nat_carmel.png,,,,,,,,,,,,,,,,,,,,,,,,,,,,
null,,black_cross(without_color),393303,green,,,,,null,US_Cities_List/mm_hotsprings.png,US_Cities_List/nat_carmel.png,,,,,,,,,,,,,,,,,,,,,,,,,,,,
459.0999999642372,,rt_plussign_withcolor,393814,green,,,,,50,US_Cities_List/mm_hotsprings.png,US_Cities_List/nat_carmel.png,,,,,,,,,,,,,,,,,,,,,,,,,,,,
null,,rt_thecrossant_black,394991,black_plus_sign,,,,,null,,,0.7619047619047619,1,,,,,,,,,,,,,,,,,,,,,,,,,,
null,,color_black,395102,black_plus_sign,,,,,null,,,,,,,,,,,,,,,,,,,,,,,,,,,,,,
null,,learn_phase(without_color),397679,black_plus_sign,,,,,null,US_Cities_List/mm_gatlinburg.png,US_Cities_List/mm_hanover.png,,,,,,,,,,,,,,,,,,,,,,,,,,,,
null,,black_cross(without_color),398720,blue,,,,,null,US_Cities_List/mm_gatlinburg.png,US_Cities_List/mm_hanover.png,,,,,,,,,,,,,,,,,,,,,,,,,,,,
null,,rt_plussign_withcolor,399230,blue,,,,,null,US_Cities_List/mm_gatlinburg.png,US_Cities_List/mm_hanover.png,,,,,,,,,,,,,,,,,,,,,,,,,,,,
null,,rt_thecrossant_black,400203,black_plus_sign,,,,,null,,,0.7619047619047619,,,,,,,,,,,,,,,,,,,,,,,,,,,
null,,color_black,400315,black_plus_sign,,,,,null,,,,,,,,,,,,,,,,,,,,,,,,,,,,,,
null,,learn_phase(without_color),402896,black_plus_sign,,,,,null,US_Cities_List/nat_carmel.png,US_Cities_List/nat_newhope.png,,,,,,,,,,,,,,,,,,,,,,,,,,,,
null,,black_cross(without_color),403789,green,,,,,null,US_Cities_List/nat_carmel.png,US_Cities_List/nat_newhope.png,,,,,,,,,,,,,,,,,,,,,,,,,,,,
null,,rt_plussign_withcolor,404297,green,,,,,null,US_Cities_List/nat_carmel.png,US_Cities_List/nat_newhope.png,,,,,,,,,,,,,,,,,,,,,,,,,,,,
1142,,rt_thecrossant_black,405427,black_plus_sign,,,,,50,,,0.7727272727272727,1,,,,,,,,,,,,,,,,,,,,,,,,,,
null,,color_black,405531,black_plus_sign,,,,,null,,,,,,,,,,,,,,,,,,,,,,,,,,,,,,
null,,learn_phase(without_color),408083,black_plus_sign,,,,,null,US_Cities_List/nat_westpalmbeach.png,US_Cities_List/nat_carmel.png,,,,,,,,,,,,,,,,,,,,,,,,,,,,
null,,black_cross(without_color),408849,green,,,,,null,US_Cities_List/nat_westpalmbeach.png,US_Cities_List/nat_carmel.png,,,,,,,,,,,,,,,,,,,,,,,,,,,,
null,,rt_plussign_withcolor,409361,green,,,,,null,US_Cities_List/nat_westpalmbeach.png,US_Cities_List/nat_carmel.png,,,,,,,,,,,,,,,,,,,,,,,,,,,,
1146.300000011921,,rt_thecrossant_black,410627,black_plus_sign,,,,,49,,,0.7391304347826086,0,,,,,,,,,,,,,,,,,,,,,,,,,,
null,,color_black,410737,black_plus_sign,,,,,null,,,,,,,,,,,,,,,,,,,,,,,,,,,,,,
null,,learn_phase(without_color),413323,black_plus_sign,,,,,null,US_Cities_List/mm_leesburg.png,US_Cities_List/mm_hotsprings.png,,,,,,,,,,,,,,,,,,,,,,,,,,,,
null,,black_cross(without_color),414193,green,,,,,null,US_Cities_List/mm_leesburg.png,US_Cities_List/mm_hotsprings.png,,,,,,,,,,,,,,,,,,,,,,,,,,,,
null,,rt_plussign_withcolor,414697,green,,,,,null,US_Cities_List/mm_leesburg.png,US_Cities_List/mm_hotsprings.png,,,,,,,,,,,,,,,,,,,,,,,,,,,,
1038.3999999761581,,rt_thecrossant_black,415853,black_plus_sign,,,,,50,,,0.75,1,,,,,,,,,,,,,,,,,,,,,,,,,,
null,,color_black,415958,black_plus_sign,,,,,null,,,,,,,,,,,,,,,,,,,,,,,,,,,,,,
null,,learn_phase(without_color),418516,black_plus_sign,,,,,null,US_Cities_List/mm_huntsville.png,US_Cities_List/nat_newhope.png,,,,,,,,,,,,,,,,,,,,,,,,,,,,
null,,black_cross(without_color),418945,blue,,,,,null,US_Cities_List/mm_huntsville.png,US_Cities_List/nat_newhope.png,,,,,,,,,,,,,,,,,,,,,,,,,,,,
null,,rt_plussign_withcolor,419450,blue,,,,,null,US_Cities_List/mm_huntsville.png,US_Cities_List/nat_newhope.png,,,,,,,,,,,,,,,,,,,,,,,,,,,,
1266.7000000476837,,rt_thecrossant_black,421036,black_plus_sign,,,,,49,,,0.76,1,,,,,,,,,,,,,,,,,,,,,,,,,,
null,,color_black,421146,black_plus_sign,,,,,null,,,,,,,,,,,,,,,,,,,,,,,,,,,,,,
null,,learn_phase(without_color),423715,black_plus_sign,,,,,null,US_Cities_List/nat_westpalmbeach.png,US_Cities_List/nat_cornwall.png,,,,,,,,,,,,,,,,,,,,,,,,,,,,
null,,black_cross(without_color),424458,blue,,,,,null,US_Cities_List/nat_westpalmbeach.png,US_Cities_List/nat_cornwall.png,,,,,,,,,,,,,,,,,,,,,,,,,,,,
null,,rt_plussign_withcolor,424964,blue,,,,,null,US_Cities_List/nat_westpalmbeach.png,US_Cities_List/nat_cornwall.png,,,,,,,,,,,,,,,,,,,,,,,,,,,,
1215.6000000238419,,rt_thecrossant_black,426241,black_plus_sign,,,,,49,,,0.7692307692307693,1,,,,,,,,,,,,,,,,,,,,,,,,,,
null,,color_black,426360,black_plus_sign,,,,,null,,,,,,,,,,,,,,,,,,,,,,,,,,,,,,
null,,learn_phase(without_color),428928,black_plus_sign,,,,,null,US_Cities_List/mm_gatlinburg.png,US_Cities_List/mm_hanover.png,,,,,,,,,,,,,,,,,,,,,,,,,,,,
null,,black_cross(without_color),429721,blue,,,,,null,US_Cities_List/mm_gatlinburg.png,US_Cities_List/mm_hanover.png,,,,,,,,,,,,,,,,,,,,,,,,,,,,
null,,rt_plussign_withcolor,430230,blue,,,,,null,US_Cities_List/mm_gatlinburg.png,US_Cities_List/mm_hanover.png,,,,,,,,,,,,,,,,,,,,,,,,,,,,
1214.5,,rt_thecrossant_black,431453,black_plus_sign,,,,,49,,,0.7777777777777778,1,,,,,,,,,,,,,,,,,,,,,,,,,,
null,,color_black,431560,black_plus_sign,,,,,null,,,,,,,,,,,,,,,,,,,,,,,,,,,,,,
null,,learn_phase(without_color),434140,black_plus_sign,,,,,null,US_Cities_List/nat_cornwall.png,US_Cities_List/mm_hotsprings.png,,,,,,,,,,,,,,,,,,,,,,,,,,,,
null,,black_cross(without_color),435213,green,,,,,null,US_Cities_List/nat_cornwall.png,US_Cities_List/mm_hotsprings.png,,,,,,,,,,,,,,,,,,,,,,,,,,,,
null,,rt_plussign_withcolor,435726,green,,,,,null,US_Cities_List/nat_cornwall.png,US_Cities_List/mm_hotsprings.png,,,,,,,,,,,,,,,,,,,,,,,,,,,,
983.5,,rt_thecrossant_black,436672,black_plus_sign,,,,,50,,,0.7857142857142857,1,,,,,,,,,,,,,,,,,,,,,,,,,,
null,,color_black,436777,black_plus_sign,,,,,null,,,,,,,,,,,,,,,,,,,,,,,,,,,,,,
null,,learn_phase(without_color),439347,black_plus_sign,,,,,null,US_Cities_List/mm_peoria.png,US_Cities_List/mm_huntsville.png,,,,,,,,,,,,,,,,,,,,,,,,,,,,
null,,black_cross(without_color),440337,green,,,,,null,US_Cities_List/mm_peoria.png,US_Cities_List/mm_huntsville.png,,,,,,,,,,,,,,,,,,,,,,,,,,,,
null,,rt_plussign_withcolor,440843,green,,,,,null,US_Cities_List/mm_peoria.png,US_Cities_List/mm_huntsville.png,,,,,,,,,,,,,,,,,,,,,,,,,,,,
1816.6000000238419,,rt_thecrossant_black,441876,black_plus_sign,,,,,50,,,0.7931034482758621,1,,,,,,,,,,,,,,,,,,,,,,,,,,
null,,color_black,441984,black_plus_sign,,,,,null,,,,,,,,,,,,,,,,,,,,,,,,,,,,,,
null,,learn_phase(without_color),444543,black_plus_sign,,,,,null,US_Cities_List/nat_cornwall.png,US_Cities_List/mm_leesburg.png,,,,,,,,,,,,,,,,,,,,,,,,,,,,
null,,black_cross(without_color),445337,blue,,,,,null,US_Cities_List/nat_cornwall.png,US_Cities_List/mm_leesburg.png,,,,,,,,,,,,,,,,,,,,,,,,,,,,
null,,rt_plussign_withcolor,445843,blue,,,,,null,US_Cities_List/nat_cornwall.png,US_Cities_List/mm_leesburg.png,,,,,,,,,,,,,,,,,,,,,,,,,,,,
1333,,rt_thecrossant_black,447071,black_plus_sign,,,,,49,,,0.8,1,,,,,,,,,,,,,,,,,,,,,,,,,,
null,,color_black,447181,black_plus_sign,,,,,null,,,,,,,,,,,,,,,,,,,,,,,,,,,,,,
null,,learn_phase(without_color),449753,black_plus_sign,,,,,null,US_Cities_List/mm_leesburg.png,US_Cities_List/mm_boulder.png,,,,,,,,,,,,,,,,,,,,,,,,,,,,
null,,black_cross(without_color),450656,green,,,,,null,US_Cities_List/mm_leesburg.png,US_Cities_List/mm_boulder.png,,,,,,,,,,,,,,,,,,,,,,,,,,,,
null,,rt_plussign_withcolor,451160,green,,,,,null,US_Cities_List/mm_leesburg.png,US_Cities_List/mm_boulder.png,,,,,,,,,,,,,,,,,,,,,,,,,,,,
1126.7999999523163,,rt_thecrossant_black,452279,black_plus_sign,,,,,50,,,0.8064516129032258,1,,,,,,,,,,,,,,,,,,,,,,,,,,
null,,color_black,452391,black_plus_sign,,,,,null,,,,,,,,,,,,,,,,,,,,,,,,,,,,,,
null,,learn_phase(without_color),454925,black_plus_sign,,,,,null,US_Cities_List/nat_westpalmbeach.png,US_Cities_List/nat_cornwall.png,,,,,,,,,,,,,,,,,,,,,,,,,,,,
null,,black_cross(without_color),456004,blue,,,,,null,US_Cities_List/nat_westpalmbeach.png,US_Cities_List/nat_cornwall.png,,,,,,,,,,,,,,,,,,,,,,,,,,,,
null,,rt_plussign_withcolor,456513,blue,,,,,null,US_Cities_List/nat_westpalmbeach.png,US_Cities_List/nat_cornwall.png,,,,,,,,,,,,,,,,,,,,,,,,,,,,
1221.5999999642372,,rt_thecrossant_black,457456,black_plus_sign,,,,,49,,,0.8125,1,,,,,,,,,,,,,,,,,,,,,,,,,,
null,,color_black,457562,black_plus_sign,,,,,null,,,,,,,,,,,,,,,,,,,,,,,,,,,,,,
null,,learn_phase(without_color),460138,black_plus_sign,,,,,null,US_Cities_List/mm_huntsville.png,US_Cities_List/nat_racine.png,,,,,,,,,,,,,,,,,,,,,,,,,,,,
null,,black_cross(without_color),460611,blue,,,,,null,US_Cities_List/mm_huntsville.png,US_Cities_List/nat_racine.png,,,,,,,,,,,,,,,,,,,,,,,,,,,,
null,,rt_plussign_withcolor,461118,blue,,,,,null,US_Cities_List/mm_huntsville.png,US_Cities_List/nat_racine.png,,,,,,,,,,,,,,,,,,,,,,,,,,,,
1807.5,,rt_thecrossant_black,462661,black_plus_sign,,,,,49,,,0.8181818181818182,1,,,,,,,,,,,,,,,,,,,,,,,,,,
null,,color_black,462768,black_plus_sign,,,,,null,,,,,,,,,,,,,,,,,,,,,,,,,,,,,,
null,,learn_phase(without_color),465333,black_plus_sign,,,,,null,US_Cities_List/mm_peoria.png,US_Cities_List/nat_westpalmbeach.png,,,,,,,,,,,,,,,,,,,,,,,,,,,,
null,,black_cross(without_color),466321,green,,,,,null,US_Cities_List/mm_peoria.png,US_Cities_List/nat_westpalmbeach.png,,,,,,,,,,,,,,,,,,,,,,,,,,,,
null,,rt_plussign_withcolor,466834,green,,,,,null,US_Cities_List/mm_peoria.png,US_Cities_List/nat_westpalmbeach.png,,,,,,,,,,,,,,,,,,,,,,,,,,,,
789.0999999642372,,rt_thecrossant_black,467866,black_plus_sign,,,,,50,,,0.8235294117647058,1,,,,,,,,,,,,,,,,,,,,,,,,,,
null,,color_black,467973,black_plus_sign,,,,,null,,,,,,,,,,,,,,,,,,,,,,,,,,,,,,
null,,learn_phase(without_color),470534,black_plus_sign,,,,,null,US_Cities_List/mm_peoria.png,US_Cities_List/mm_huntsville.png,,,,,,,,,,,,,,,,,,,,,,,,,,,,
null,,black_cross(without_color),471387,green,,,,,null,US_Cities_List/mm_peoria.png,US_Cities_List/mm_huntsville.png,,,,,,,,,,,,,,,,,,,,,,,,,,,,
null,,rt_plussign_withcolor,471899,green,,,,,null,US_Cities_List/mm_peoria.png,US_Cities_List/mm_huntsville.png,,,,,,,,,,,,,,,,,,,,,,,,,,,,
1478.1000000238419,,rt_thecrossant_black,473065,black_plus_sign,,,,,50,,,0.8285714285714286,1,,,,,,,,,,,,,,,,,,,,,,,,,,
null,,color_black,473176,black_plus_sign,,,,,null,,,,,,,,,,,,,,,,,,,,,,,,,,,,,,
null,,learn_phase(without_color),475758,black_plus_sign,,,,,null,US_Cities_List/mm_gatlinburg.png,US_Cities_List/mm_hanover.png,,,,,,,,,,,,,,,,,,,,,,,,,,,,
null,,black_cross(without_color),476854,blue,,,,,null,US_Cities_List/mm_gatlinburg.png,US_Cities_List/mm_hanover.png,,,,,,,,,,,,,,,,,,,,,,,,,,,,
null,,rt_plussign_withcolor,477366,blue,,,,,null,US_Cities_List/mm_gatlinburg.png,US_Cities_List/mm_hanover.png,,,,,,,,,,,,,,,,,,,,,,,,,,,,
1333.199999988079,,rt_thecrossant_black,478285,black_plus_sign,,,,,49,,,0.8333333333333334,1,,,,,,,,,,,,,,,,,,,,,,,,,,
null,,color_black,478391,black_plus_sign,,,,,null,,,,,,,,,,,,,,,,,,,,,,,,,,,,,,
null,,learn_phase(without_color),480967,black_plus_sign,,,,,null,US_Cities_List/nat_cornwall.png,US_Cities_List/mm_leesburg.png,,,,,,,,,,,,,,,,,,,,,,,,,,,,
null,,black_cross(without_color),481803,green,,,,,null,US_Cities_List/nat_cornwall.png,US_Cities_List/mm_leesburg.png,,,,,,,,,,,,,,,,,,,,,,,,,,,,
null,,rt_plussign_withcolor,482308,green,,,,,null,US_Cities_List/nat_cornwall.png,US_Cities_List/mm_leesburg.png,,,,,,,,,,,,,,,,,,,,,,,,,,,,
2246,,rt_thecrossant_black,483490,black_plus_sign,,,,,50,,,0.8378378378378378,1,,,,,,,,,,,,,,,,,,,,,,,,,,
null,,color_black,483596,black_plus_sign,,,,,null,,,,,,,,,,,,,,,,,,,,,,,,,,,,,,
null,,learn_phase(without_color),486133,black_plus_sign,,,,,null,US_Cities_List/mm_peoria.png,US_Cities_List/mm_huntsville.png,,,,,,,,,,,,,,,,,,,,,,,,,,,,
null,,black_cross(without_color),486585,green,,,,,null,US_Cities_List/mm_peoria.png,US_Cities_List/mm_huntsville.png,,,,,,,,,,,,,,,,,,,,,,,,,,,,
null,,rt_plussign_withcolor,487094,green,,,,,null,US_Cities_List/mm_peoria.png,US_Cities_List/mm_huntsville.png,,,,,,,,,,,,,,,,,,,,,,,,,,,,
1563.5,,rt_thecrossant_black,488666,black_plus_sign,,,,,50,,,0.8421052631578947,1,,,,,,,,,,,,,,,,,,,,,,,,,,
null,,color_black,488772,black_plus_sign,,,,,null,,,,,,,,,,,,,,,,,,,,,,,,,,,,,,
null,,learn_phase(without_color),491313,black_plus_sign,,,,,null,US_Cities_List/mm_leesburg.png,US_Cities_List/mm_boulder.png,,,,,,,,,,,,,,,,,,,,,,,,,,,,
null,,black_cross(without_color),491978,blue,,,,,null,US_Cities_List/mm_leesburg.png,US_Cities_List/mm_boulder.png,,,,,,,,,,,,,,,,,,,,,,,,,,,,
null,,rt_plussign_withcolor,492481,blue,,,,,null,US_Cities_List/mm_leesburg.png,US_Cities_List/mm_boulder.png,,,,,,,,,,,,,,,,,,,,,,,,,,,,
835.5,,rt_thecrossant_black,493848,black_plus_sign,,,,,49,,,0.8461538461538461,1,,,,,,,,,,,,,,,,,,,,,,,,,,
null,,color_black,493954,black_plus_sign,,,,,null,,,,,,,,,,,,,,,,,,,,,,,,,,,,,,
null,,learn_phase(without_color),496522,black_plus_sign,,,,,null,US_Cities_List/mm_huntsville.png,US_Cities_List/nat_newhope.png,,,,,,,,,,,,,,,,,,,,,,,,,,,,
null,,black_cross(without_color),497581,green,,,,,null,US_Cities_List/mm_huntsville.png,US_Cities_List/nat_newhope.png,,,,,,,,,,,,,,,,,,,,,,,,,,,,
null,,rt_plussign_withcolor,498093,green,,,,,null,US_Cities_List/mm_huntsville.png,US_Cities_List/nat_newhope.png,,,,,,,,,,,,,,,,,,,,,,,,,,,,
934.6000000238419,,rt_thecrossant_black,499048,black_plus_sign,,,,,50,,,0.85,1,,,,,,,,,,,,,,,,,,,,,,,,,,
null,,color_black,499154,black_plus_sign,,,,,null,,,,,,,,,,,,,,,,,,,,,,,,,,,,,,
null,,learn_phase(without_color),501765,black_plus_sign,,,,,null,US_Cities_List/mm_peoria.png,US_Cities_List/mm_huntsville.png,,,,,,,,,,,,,,,,,,,,,,,,,,,,
null,,black_cross(without_color),502771,green,,,,,null,US_Cities_List/mm_peoria.png,US_Cities_List/mm_huntsville.png,,,,,,,,,,,,,,,,,,,,,,,,,,,,
null,,rt_plussign_withcolor,503277,green,,,,,null,US_Cities_List/mm_peoria.png,US_Cities_List/mm_huntsville.png,,,,,,,,,,,,,,,,,,,,,,,,,,,,
1425.2999999523163,,rt_thecrossant_black,504286,black_plus_sign,,,,,50,,,0.8536585365853658,1,,,,,,,,,,,,,,,,,,,,,,,,,,
null,,color_black,504393,black_plus_sign,,,,,null,,,,,,,,,,,,,,,,,,,,,,,,,,,,,,
null,,learn_phase(without_color),506963,black_plus_sign,,,,,null,US_Cities_List/nat_westpalmbeach.png,US_Cities_List/nat_carmel.png,,,,,,,,,,,,,,,,,,,,,,,,,,,,
null,,black_cross(without_color),507947,blue,,,,,null,US_Cities_List/nat_westpalmbeach.png,US_Cities_List/nat_carmel.png,,,,,,,,,,,,,,,,,,,,,,,,,,,,
null,,rt_plussign_withcolor,508455,blue,,,,,null,US_Cities_List/nat_westpalmbeach.png,US_Cities_List/nat_carmel.png,,,,,,,,,,,,,,,,,,,,,,,,,,,,
1499.699999988079,,rt_thecrossant_black,509481,black_plus_sign,,,,,49,,,0.8571428571428571,1,,,,,,,,,,,,,,,,,,,,,,,,,,
null,,color_black,509586,black_plus_sign,,,,,null,,,,,,,,,,,,,,,,,,,,,,,,,,,,,,
null,,learn_phase(without_color),512166,black_plus_sign,,,,,null,US_Cities_List/mm_leesburg.png,US_Cities_List/mm_boulder.png,,,,,,,,,,,,,,,,,,,,,,,,,,,,
null,,black_cross(without_color),512884,green,,,,,null,US_Cities_List/mm_leesburg.png,US_Cities_List/mm_boulder.png,,,,,,,,,,,,,,,,,,,,,,,,,,,,
null,,rt_plussign_withcolor,513387,green,,,,,null,US_Cities_List/mm_leesburg.png,US_Cities_List/mm_boulder.png,,,,,,,,,,,,,,,,,,,,,,,,,,,,
1395.199999988079,,rt_thecrossant_black,514684,black_plus_sign,,,,,50,,,0.8604651162790697,1,,,,,,,,,,,,,,,,,,,,,,,,,,
null,,color_black,514796,black_plus_sign,,,,,null,,,,,,,,,,,,,,,,,,,,,,,,,,,,,,
null,,learn_phase(without_color),517367,black_plus_sign,,,,,null,US_Cities_List/mm_leesburg.png,US_Cities_List/mm_gatlinburg.png,,,,,,,,,,,,,,,,,,,,,,,,,,,,
null,,black_cross(without_color),518438,blue,,,,,null,US_Cities_List/mm_leesburg.png,US_Cities_List/mm_gatlinburg.png,,,,,,,,,,,,,,,,,,,,,,,,,,,,
null,,rt_plussign_withcolor,518944,blue,,,,,null,US_Cities_List/mm_leesburg.png,US_Cities_List/mm_gatlinburg.png,,,,,,,,,,,,,,,,,,,,,,,,,,,,
903.1000000238419,,rt_thecrossant_black,519884,black_plus_sign,,,,,49,,,0.8636363636363636,1,,,,,,,,,,,,,,,,,,,,,,,,,,
null,,color_black,519993,black_plus_sign,,,,,null,,,,,,,,,,,,,,,,,,,,,,,,,,,,,,
null,,learn_phase(without_color),522567,black_plus_sign,,,,,null,US_Cities_List/mm_gatlinburg.png,US_Cities_List/mm_hanover.png,,,,,,,,,,,,,,,,,,,,,,,,,,,,
null,,black_cross(without_color),523106,green,,,,,null,US_Cities_List/mm_gatlinburg.png,US_Cities_List/mm_hanover.png,,,,,,,,,,,,,,,,,,,,,,,,,,,,
496.10000002384186,,rt_plussign_withcolor,523613,green,,,,,50,US_Cities_List/mm_gatlinburg.png,US_Cities_List/mm_hanover.png,,,,,,,,,,,,,,,,,,,,,,,,,,,,
null,,rt_thecrossant_black,525100,black_plus_sign,,,,,null,,,0.8666666666666667,1,,,,,,,,,,,,,,,,,,,,,,,,,,
null,,color_black,525208,black_plus_sign,,,,,null,,,,,,,,,,,,,,,,,,,,,,,,,,,,,,
null,,learn_phase(without_color),527768,black_plus_sign,,,,,null,US_Cities_List/mm_leesburg.png,US_Cities_List/mm_gatlinburg.png,,,,,,,,,,,,,,,,,,,,,,,,,,,,
null,,black_cross(without_color),528522,green,,,,,null,US_Cities_List/mm_leesburg.png,US_Cities_List/mm_gatlinburg.png,,,,,,,,,,,,,,,,,,,,,,,,,,,,
null,,rt_plussign_withcolor,529033,green,,,,,null,US_Cities_List/mm_leesburg.png,US_Cities_List/mm_gatlinburg.png,,,,,,,,,,,,,,,,,,,,,,,,,,,,
849.3000000119209,,rt_thecrossant_black,530291,black_plus_sign,,,,,50,,,0.8695652173913043,1,,,,,,,,,,,,,,,,,,,,,,,,,,
null,,color_black,530404,black_plus_sign,,,,,null,,,,,,,,,,,,,,,,,,,,,,,,,,,,,,
null,,learn_phase(without_color),533004,black_plus_sign,,,,,null,US_Cities_List/nat_cornwall.png,US_Cities_List/mm_leesburg.png,,,,,,,,,,,,,,,,,,,,,,,,,,,,
null,,black_cross(without_color),533731,blue,,,,,null,US_Cities_List/nat_cornwall.png,US_Cities_List/mm_leesburg.png,,,,,,,,,,,,,,,,,,,,,,,,,,,,
null,,rt_plussign_withcolor,534240,blue,,,,,null,US_Cities_List/nat_cornwall.png,US_Cities_List/mm_leesburg.png,,,,,,,,,,,,,,,,,,,,,,,,,,,,
1131,,rt_thecrossant_black,535531,black_plus_sign,,,,,50,,,0.851063829787234,0,,,,,,,,,,,,,,,,,,,,,,,,,,
null,,color_black,535636,black_plus_sign,,,,,null,,,,,,,,,,,,,,,,,,,,,,,,,,,,,,
null,,learn_phase(without_color),538168,black_plus_sign,,,,,null,US_Cities_List/nat_cornwall.png,US_Cities_List/mm_hotsprings.png,,,,,,,,,,,,,,,,,,,,,,,,,,,,
null,,black_cross(without_color),538758,green,,,,,null,US_Cities_List/nat_cornwall.png,US_Cities_List/mm_hotsprings.png,,,,,,,,,,,,,,,,,,,,,,,,,,,,
null,,rt_plussign_withcolor,539268,green,,,,,null,US_Cities_List/nat_cornwall.png,US_Cities_List/mm_hotsprings.png,,,,,,,,,,,,,,,,,,,,,,,,,,,,
1066.300000011921,,rt_thecrossant_black,540697,black_plus_sign,,,,,50,,,0.8541666666666666,1,,,,,,,,,,,,,,,,,,,,,,,,,,
null,,color_black,540805,black_plus_sign,,,,,null,,,,,,,,,,,,,,,,,,,,,,,,,,,,,,
null,,learn_phase(without_color),543380,black_plus_sign,,,,,null,US_Cities_List/nat_westpalmbeach.png,US_Cities_List/nat_cornwall.png,,,,,,,,,,,,,,,,,,,,,,,,,,,,
null,,black_cross(without_color),544037,blue,,,,,null,US_Cities_List/nat_westpalmbeach.png,US_Cities_List/nat_cornwall.png,,,,,,,,,,,,,,,,,,,,,,,,,,,,
null,,rt_plussign_withcolor,544545,blue,,,,,null,US_Cities_List/nat_westpalmbeach.png,US_Cities_List/nat_cornwall.png,,,,,,,,,,,,,,,,,,,,,,,,,,,,
1190.5999999642372,,rt_thecrossant_black,545901,black_plus_sign,,,,,49,,,0.8571428571428571,1,,,,,,,,,,,,,,,,,,,,,,,,,,
null,,color_black,546013,black_plus_sign,,,,,null,,,,,,,,,,,,,,,,,,,,,,,,,,,,,,
null,,learn_phase(without_color),548555,black_plus_sign,,,,,null,US_Cities_List/nat_carmel.png,US_Cities_List/nat_newhope.png,,,,,,,,,,,,,,,,,,,,,,,,,,,,
null,,black_cross(without_color),549068,blue,,,,,null,US_Cities_List/nat_carmel.png,US_Cities_List/nat_newhope.png,,,,,,,,,,,,,,,,,,,,,,,,,,,,
null,,rt_plussign_withcolor,549584,blue,,,,,null,US_Cities_List/nat_carmel.png,US_Cities_List/nat_newhope.png,,,,,,,,,,,,,,,,,,,,,,,,,,,,
1141.800000011921,,rt_thecrossant_black,551088,black_plus_sign,,,,,49,,,0.86,1,,,,,,,,,,,,,,,,,,,,,,,,,,
null,,color_black,551195,black_plus_sign,,,,,null,,,,,,,,,,,,,,,,,,,,,,,,,,,,,,
null,,learn_phase(without_color),553780,black_plus_sign,,,,,null,US_Cities_List/mm_peoria.png,US_Cities_List/nat_westpalmbeach.png,,,,,,,,,,,,,,,,,,,,,,,,,,,,
null,,black_cross(without_color),554405,green,,,,,null,US_Cities_List/mm_peoria.png,US_Cities_List/nat_westpalmbeach.png,,,,,,,,,,,,,,,,,,,,,,,,,,,,
null,,rt_plussign_withcolor,554915,green,,,,,null,US_Cities_List/mm_peoria.png,US_Cities_List/nat_westpalmbeach.png,,,,,,,,,,,,,,,,,,,,,,,,,,,,
751.1999999880791,,rt_thecrossant_black,556311,black_plus_sign,,,,,50,,,0.8627450980392157,1,,,,,,,,,,,,,,,,,,,,,,,,,,
null,,color_black,556418,black_plus_sign,,,,,null,,,,,,,,,,,,,,,,,,,,,,,,,,,,,,
null,,learn_phase(without_color),559004,black_plus_sign,,,,,null,US_Cities_List/mm_leesburg.png,US_Cities_List/mm_hotsprings.png,,,,,,,,,,,,,,,,,,,,,,,,,,,,
null,,black_cross(without_color),559951,blue,,,,,null,US_Cities_List/mm_leesburg.png,US_Cities_List/mm_hotsprings.png,,,,,,,,,,,,,,,,,,,,,,,,,,,,
null,,rt_plussign_withcolor,560466,blue,,,,,null,US_Cities_List/mm_leesburg.png,US_Cities_List/mm_hotsprings.png,,,,,,,,,,,,,,,,,,,,,,,,,,,,
850.5999999642372,,rt_thecrossant_black,561531,black_plus_sign,,,,,49,,,0.8653846153846154,1,,,,,,,,,,,,,,,,,,,,,,,,,,
null,,color_black,561641,black_plus_sign,,,,,null,,,,,,,,,,,,,,,,,,,,,,,,,,,,,,
null,,learn_phase(without_color),564217,black_plus_sign,,,,,null,US_Cities_List/mm_gatlinburg.png,US_Cities_List/mm_hanover.png,,,,,,,,,,,,,,,,,,,,,,,,,,,,
null,,black_cross(without_color),564758,green,,,,,null,US_Cities_List/mm_gatlinburg.png,US_Cities_List/mm_hanover.png,,,,,,,,,,,,,,,,,,,,,,,,,,,,
null,,rt_plussign_withcolor,565265,green,,,,,null,US_Cities_List/mm_gatlinburg.png,US_Cities_List/mm_hanover.png,,,,,,,,,,,,,,,,,,,,,,,,,,,,
1266.3999999761581,,rt_thecrossant_black,566747,black_plus_sign,,,,,50,,,0.8679245283018868,1,,,,,,,,,,,,,,,,,,,,,,,,,,
null,,color_black,566852,black_plus_sign,,,,,null,,,,,,,,,,,,,,,,,,,,,,,,,,,,,,
null,,learn_phase(without_color),569409,black_plus_sign,,,,,null,US_Cities_List/mm_huntsville.png,US_Cities_List/nat_newhope.png,,,,,,,,,,,,,,,,,,,,,,,,,,,,
null,,black_cross(without_color),570496,blue,,,,,null,US_Cities_List/mm_huntsville.png,US_Cities_List/nat_newhope.png,,,,,,,,,,,,,,,,,,,,,,,,,,,,
null,,rt_plussign_withcolor,571008,blue,,,,,null,US_Cities_List/mm_huntsville.png,US_Cities_List/nat_newhope.png,,,,,,,,,,,,,,,,,,,,,,,,,,,,
744.6999999880791,,rt_thecrossant_black,571935,black_plus_sign,,,,,49,,,0.8703703703703703,1,,,,,,,,,,,,,,,,,,,,,,,,,,
null,,color_black,572040,black_plus_sign,,,,,null,,,,,,,,,,,,,,,,,,,,,,,,,,,,,,
null,,learn_phase(without_color),574614,black_plus_sign,,,,,null,US_Cities_List/mm_gatlinburg.png,US_Cities_List/mm_hotsprings.png,,,,,,,,,,,,,,,,,,,,,,,,,,,,
null,,black_cross(without_color),575579,blue,,,,,null,US_Cities_List/mm_gatlinburg.png,US_Cities_List/mm_hotsprings.png,,,,,,,,,,,,,,,,,,,,,,,,,,,,
null,,rt_plussign_withcolor,576083,blue,,,,,null,US_Cities_List/mm_gatlinburg.png,US_Cities_List/mm_hotsprings.png,,,,,,,,,,,,,,,,,,,,,,,,,,,,
1343.3999999761581,,rt_thecrossant_black,577146,black_plus_sign,,,,,49,,,0.8727272727272727,1,,,,,,,,,,,,,,,,,,,,,,,,,,
null,,color_black,577255,black_plus_sign,,,,,null,,,,,,,,,,,,,,,,,,,,,,,,,,,,,,
null,,learn_phase(without_color),579833,black_plus_sign,,,,,null,US_Cities_List/nat_cornwall.png,US_Cities_List/mm_hotsprings.png,,,,,,,,,,,,,,,,,,,,,,,,,,,,
null,,black_cross(without_color),580667,green,,,,,null,US_Cities_List/nat_cornwall.png,US_Cities_List/mm_hotsprings.png,,,,,,,,,,,,,,,,,,,,,,,,,,,,
null,,rt_plussign_withcolor,581179,green,,,,,null,US_Cities_List/nat_cornwall.png,US_Cities_List/mm_hotsprings.png,,,,,,,,,,,,,,,,,,,,,,,,,,,,
1155.7999999523163,,rt_thecrossant_black,582361,black_plus_sign,,,,,50,,,0.875,1,,,,,,,,,,,,,,,,,,,,,,,,,,
null,,color_black,582465,black_plus_sign,,,,,null,,,,,,,,,,,,,,,,,,,,,,,,,,,,,,
null,,learn_phase(without_color),585029,black_plus_sign,,,,,null,US_Cities_List/mm_huntsville.png,US_Cities_List/nat_newhope.png,,,,,,,,,,,,,,,,,,,,,,,,,,,,
null,,black_cross(without_color),585878,blue,,,,,null,US_Cities_List/mm_huntsville.png,US_Cities_List/nat_newhope.png,,,,,,,,,,,,,,,,,,,,,,,,,,,,
null,,rt_plussign_withcolor,586388,blue,,,,,null,US_Cities_List/mm_huntsville.png,US_Cities_List/nat_newhope.png,,,,,,,,,,,,,,,,,,,,,,,,,,,,
1024.1000000238419,,rt_thecrossant_black,587554,black_plus_sign,,,,,49,,,0.8771929824561403,1,,,,,,,,,,,,,,,,,,,,,,,,,,
null,,color_black,587666,black_plus_sign,,,,,null,,,,,,,,,,,,,,,,,,,,,,,,,,,,,,
null,,learn_phase(without_color),590233,black_plus_sign,,,,,null,US_Cities_List/mm_peoria.png,US_Cities_List/nat_westpalmbeach.png,,,,,,,,,,,,,,,,,,,,,,,,,,,,
null,,black_cross(without_color),590762,blue,,,,,null,US_Cities_List/mm_peoria.png,US_Cities_List/nat_westpalmbeach.png,,,,,,,,,,,,,,,,,,,,,,,,,,,,
null,,rt_plussign_withcolor,591271,blue,,,,,null,US_Cities_List/mm_peoria.png,US_Cities_List/nat_westpalmbeach.png,,,,,,,,,,,,,,,,,,,,,,,,,,,,
null,,rt_thecrossant_black,592759,black_plus_sign,,,,,null,,,0.8771929824561403,,,,,,,,,,,,,,,,,,,,,,,,,,,
null,,color_black,592866,black_plus_sign,,,,,null,,,,,,,,,,,,,,,,,,,,,,,,,,,,,,
null,,learn_phase(without_color),595437,black_plus_sign,,,,,null,US_Cities_List/mm_leesburg.png,US_Cities_List/mm_hotsprings.png,,,,,,,,,,,,,,,,,,,,,,,,,,,,
null,,black_cross(without_color),596376,blue,,,,,null,US_Cities_List/mm_leesburg.png,US_Cities_List/mm_hotsprings.png,,,,,,,,,,,,,,,,,,,,,,,,,,,,
null,,rt_plussign_withcolor,596880,blue,,,,,null,US_Cities_List/mm_leesburg.png,US_Cities_List/mm_hotsprings.png,,,,,,,,,,,,,,,,,,,,,,,,,,,,
723.7999999523163,,rt_thecrossant_black,597955,black_plus_sign,,,,,49,,,0.8793103448275862,1,,,,,,,,,,,,,,,,,,,,,,,,,,
null,,color_black,598059,black_plus_sign,,,,,null,,,,,,,,,,,,,,,,,,,,,,,,,,,,,,
null,,learn_phase(without_color),600623,black_plus_sign,,,,,null,US_Cities_List/mm_huntsville.png,US_Cities_List/nat_racine.png,,,,,,,,,,,,,,,,,,,,,,,,,,,,
null,,black_cross(without_color),601574,green,,,,,null,US_Cities_List/mm_huntsville.png,US_Cities_List/nat_racine.png,,,,,,,,,,,,,,,,,,,,,,,,,,,,
null,,rt_plussign_withcolor,602078,green,,,,,null,US_Cities_List/mm_huntsville.png,US_Cities_List/nat_racine.png,,,,,,,,,,,,,,,,,,,,,,,,,,,,
1154.2000000476837,,rt_thecrossant_black,603139,black_plus_sign,,,,,50,,,0.8813559322033898,1,,,,,,,,,,,,,,,,,,,,,,,,,,
null,,color_black,603244,black_plus_sign,,,,,null,,,,,,,,,,,,,,,,,,,,,,,,,,,,,,
null,,learn_phase(without_color),605783,black_plus_sign,,,,,null,US_Cities_List/nat_cornwall.png,US_Cities_List/mm_leesburg.png,,,,,,,,,,,,,,,,,,,,,,,,,,,,
null,,black_cross(without_color),606557,blue,,,,,null,US_Cities_List/nat_cornwall.png,US_Cities_List/mm_leesburg.png,,,,,,,,,,,,,,,,,,,,,,,,,,,,
null,,rt_plussign_withcolor,607067,blue,,,,,null,US_Cities_List/nat_cornwall.png,US_Cities_List/mm_leesburg.png,,,,,,,,,,,,,,,,,,,,,,,,,,,,
1220.699999988079,,rt_thecrossant_black,608312,black_plus_sign,,,,,49,,,0.8833333333333333,1,,,,,,,,,,,,,,,,,,,,,,,,,,
null,,color_black,608417,black_plus_sign,,,,,null,,,,,,,,,,,,,,,,,,,,,,,,,,,,,,
null,,learn_phase(without_color),610963,black_plus_sign,,,,,null,US_Cities_List/mm_leesburg.png,US_Cities_List/mm_hotsprings.png,,,,,,,,,,,,,,,,,,,,,,,,,,,,
null,,black_cross(without_color),612001,blue,,,,,null,US_Cities_List/mm_leesburg.png,US_Cities_List/mm_hotsprings.png,,,,,,,,,,,,,,,,,,,,,,,,,,,,
null,,rt_plussign_withcolor,612506,blue,,,,,null,US_Cities_List/mm_leesburg.png,US_Cities_List/mm_hotsprings.png,,,,,,,,,,,,,,,,,,,,,,,,,,,,
943.3000000119209,,rt_thecrossant_black,613482,black_plus_sign,,,,,49,,,0.8852459016393442,1,,,,,,,,,,,,,,,,,,,,,,,,,,
null,,color_black,613593,black_plus_sign,,,,,null,,,,,,,,,,,,,,,,,,,,,,,,,,,,,,
null,,learn_phase(without_color),616167,black_plus_sign,,,,,null,US_Cities_List/mm_huntsville.png,US_Cities_List/nat_racine.png,,,,,,,,,,,,,,,,,,,,,,,,,,,,
null,,black_cross(without_color),616850,blue,,,,,null,US_Cities_List/mm_huntsville.png,US_Cities_List/nat_racine.png,,,,,,,,,,,,,,,,,,,,,,,,,,,,
null,,rt_plussign_withcolor,617354,blue,,,,,null,US_Cities_List/mm_huntsville.png,US_Cities_List/nat_racine.png,,,,,,,,,,,,,,,,,,,,,,,,,,,,
1194.300000011921,,rt_thecrossant_black,618688,black_plus_sign,,,,,49,,,0.8870967741935484,1,,,,,,,,,,,,,,,,,,,,,,,,,,
null,,color_black,618794,black_plus_sign,,,,,null,,,,,,,,,,,,,,,,,,,,,,,,,,,,,,
null,,learn_phase(without_color),621365,black_plus_sign,,,,,null,US_Cities_List/nat_westpalmbeach.png,US_Cities_List/nat_cornwall.png,,,,,,,,,,,,,,,,,,,,,,,,,,,,
null,,black_cross(without_color),621834,green,,,,,null,US_Cities_List/nat_westpalmbeach.png,US_Cities_List/nat_cornwall.png,,,,,,,,,,,,,,,,,,,,,,,,,,,,
null,,rt_plussign_withcolor,622343,green,,,,,null,US_Cities_List/nat_westpalmbeach.png,US_Cities_List/nat_cornwall.png,,,,,,,,,,,,,,,,,,,,,,,,,,,,
904.6000000238419,,rt_thecrossant_black,623894,black_plus_sign,,,,,50,,,0.8888888888888888,1,,,,,,,,,,,,,,,,,,,,,,,,,,
null,,color_black,624010,black_plus_sign,,,,,null,,,,,,,,,,,,,,,,,,,,,,,,,,,,,,
null,,learn_phase(without_color),626573,black_plus_sign,,,,,null,US_Cities_List/mm_huntsville.png,US_Cities_List/nat_racine.png,,,,,,,,,,,,,,,,,,,,,,,,,,,,
null,,black_cross(without_color),627119,green,,,,,null,US_Cities_List/mm_huntsville.png,US_Cities_List/nat_racine.png,,,,,,,,,,,,,,,,,,,,,,,,,,,,
null,,rt_plussign_withcolor,627625,green,,,,,null,US_Cities_List/mm_huntsville.png,US_Cities_List/nat_racine.png,,,,,,,,,,,,,,,,,,,,,,,,,,,,
662.9000000357628,,rt_thecrossant_black,629092,black_plus_sign,,,,,50,,,0.890625,1,,,,,,,,,,,,,,,,,,,,,,,,,,
null,,color_black,629196,black_plus_sign,,,,,null,,,,,,,,,,,,,,,,,,,,,,,,,,,,,,
null,,learn_phase(without_color),631763,black_plus_sign,,,,,null,US_Cities_List/nat_westpalmbeach.png,US_Cities_List/nat_cornwall.png,,,,,,,,,,,,,,,,,,,,,,,,,,,,
null,,black_cross(without_color),632668,blue,,,,,null,US_Cities_List/nat_westpalmbeach.png,US_Cities_List/nat_cornwall.png,,,,,,,,,,,,,,,,,,,,,,,,,,,,
null,,rt_plussign_withcolor,633172,blue,,,,,null,US_Cities_List/nat_westpalmbeach.png,US_Cities_List/nat_cornwall.png,,,,,,,,,,,,,,,,,,,,,,,,,,,,
725.6000000238419,,rt_thecrossant_black,634285,black_plus_sign,,,,,49,,,0.8923076923076924,1,,,,,,,,,,,,,,,,,,,,,,,,,,
null,,color_black,634395,black_plus_sign,,,,,null,,,,,,,,,,,,,,,,,,,,,,,,,,,,,,
null,,learn_phase(without_color),636955,black_plus_sign,,,,,null,US_Cities_List/mm_huntsville.png,US_Cities_List/nat_newhope.png,,,,,,,,,,,,,,,,,,,,,,,,,,,,
null,,black_cross(without_color),637430,green,,,,,null,US_Cities_List/mm_huntsville.png,US_Cities_List/nat_newhope.png,,,,,,,,,,,,,,,,,,,,,,,,,,,,
null,,rt_plussign_withcolor,637938,green,,,,,null,US_Cities_List/mm_huntsville.png,US_Cities_List/nat_newhope.png,,,,,,,,,,,,,,,,,,,,,,,,,,,,
1039.8999999761581,,rt_thecrossant_black,639487,black_plus_sign,,,,,49,,,0.8787878787878788,0,,,,,,,,,,,,,,,,,,,,,,,,,,
null,,color_black,639599,black_plus_sign,,,,,null,,,,,,,,,,,,,,,,,,,,,,,,,,,,,,
null,,learn_phase(without_color),642145,black_plus_sign,,,,,null,US_Cities_List/nat_shreveport.png,US_Cities_List/mm_peoria.png,,,,,,,,,,,,,,,,,,,,,,,,,,,,
null,,black_cross(without_color),642836,blue,,,,,null,US_Cities_List/nat_shreveport.png,US_Cities_List/mm_peoria.png,,,,,,,,,,,,,,,,,,,,,,,,,,,,
null,,rt_plussign_withcolor,643340,blue,,,,,null,US_Cities_List/nat_shreveport.png,US_Cities_List/mm_peoria.png,,,,,,,,,,,,,,,,,,,,,,,,,,,,
884.9000000357628,,rt_thecrossant_black,644670,black_plus_sign,,,,,49,,,0.8805970149253731,1,,,,,,,,,,,,,,,,,,,,,,,,,,
null,,color_black,644776,black_plus_sign,,,,,null,,,,,,,,,,,,,,,,,,,,,,,,,,,,,,
null,,learn_phase(without_color),647350,black_plus_sign,,,,,null,US_Cities_List/mm_huntsville.png,US_Cities_List/nat_newhope.png,,,,,,,,,,,,,,,,,,,,,,,,,,,,
null,,black_cross(without_color),648361,green,,,,,null,US_Cities_List/mm_huntsville.png,US_Cities_List/nat_newhope.png,,,,,,,,,,,,,,,,,,,,,,,,,,,,
472.30000001192093,,rt_plussign_withcolor,648865,green,,,,,50,US_Cities_List/mm_huntsville.png,US_Cities_List/nat_newhope.png,,,,,,,,,,,,,,,,,,,,,,,,,,,,
null,,rt_thecrossant_black,649882,black_plus_sign,,,,,null,,,0.8823529411764706,1,,,,,,,,,,,,,,,,,,,,,,,,,,
null,,color_black,649989,black_plus_sign,,,,,null,,,,,,,,,,,,,,,,,,,,,,,,,,,,,,
null,,learn_phase(without_color),652536,black_plus_sign,,,,,null,US_Cities_List/nat_carmel.png,US_Cities_List/nat_newhope.png,,,,,,,,,,,,,,,,,,,,,,,,,,,,
null,,black_cross(without_color),653419,blue,,,,,null,US_Cities_List/nat_carmel.png,US_Cities_List/nat_newhope.png,,,,,,,,,,,,,,,,,,,,,,,,,,,,
null,,rt_plussign_withcolor,653925,blue,,,,,null,US_Cities_List/nat_carmel.png,US_Cities_List/nat_newhope.png,,,,,,,,,,,,,,,,,,,,,,,,,,,,
1464.2000000476837,,rt_thecrossant_black,655058,black_plus_sign,,,,,49,,,0.8840579710144928,1,,,,,,,,,,,,,,,,,,,,,,,,,,
null,,color_black,655164,black_plus_sign,,,,,null,,,,,,,,,,,,,,,,,,,,,,,,,,,,,,
null,,learn_phase(without_color),657763,black_plus_sign,,,,,null,US_Cities_List/mm_gatlinburg.png,US_Cities_List/mm_hotsprings.png,,,,,,,,,,,,,,,,,,,,,,,,,,,,
null,,black_cross(without_color),658689,green,,,,,null,US_Cities_List/mm_gatlinburg.png,US_Cities_List/mm_hotsprings.png,,,,,,,,,,,,,,,,,,,,,,,,,,,,
454.39999997615814,,rt_plussign_withcolor,659198,green,,,,,50,US_Cities_List/mm_gatlinburg.png,US_Cities_List/mm_hotsprings.png,,,,,,,,,,,,,,,,,,,,,,,,,,,,
null,,rt_thecrossant_black,660294,black_plus_sign,,,,,null,,,0.8857142857142857,1,,,,,,,,,,,,,,,,,,,,,,,,,,
null,,color_black,660401,black_plus_sign,,,,,null,,,,,,,,,,,,,,,,,,,,,,,,,,,,,,
null,,learn_phase(without_color),662964,black_plus_sign,,,,,null,US_Cities_List/nat_westpalmbeach.png,US_Cities_List/nat_cornwall.png,,,,,,,,,,,,,,,,,,,,,,,,,,,,
null,,black_cross(without_color),663711,green,,,,,null,US_Cities_List/nat_westpalmbeach.png,US_Cities_List/nat_cornwall.png,,,,,,,,,,,,,,,,,,,,,,,,,,,,
494.69999998807907,,rt_plussign_withcolor,664219,green,,,,,50,US_Cities_List/nat_westpalmbeach.png,US_Cities_List/nat_cornwall.png,,,,,,,,,,,,,,,,,,,,,,,,,,,,
null,,rt_thecrossant_black,665483,black_plus_sign,,,,,null,,,0.8873239436619719,1,,,,,,,,,,,,,,,,,,,,,,,,,,
null,,color_black,665589,black_plus_sign,,,,,null,,,,,,,,,,,,,,,,,,,,,,,,,,,,,,
null,,learn_phase(without_color),668162,black_plus_sign,,,,,null,US_Cities_List/mm_gatlinburg.png,US_Cities_List/mm_hotsprings.png,,,,,,,,,,,,,,,,,,,,,,,,,,,,
null,,black_cross(without_color),668629,green,,,,,null,US_Cities_List/mm_gatlinburg.png,US_Cities_List/mm_hotsprings.png,,,,,,,,,,,,,,,,,,,,,,,,,,,,
null,,rt_plussign_withcolor,669138,green,,,,,null,US_Cities_List/mm_gatlinburg.png,US_Cities_List/mm_hotsprings.png,,,,,,,,,,,,,,,,,,,,,,,,,,,,
1059.199999988079,,rt_thecrossant_black,670688,black_plus_sign,,,,,50,,,0.8888888888888888,1,,,,,,,,,,,,,,,,,,,,,,,,,,
null,,color_black,670798,black_plus_sign,,,,,null,,,,,,,,,,,,,,,,,,,,,,,,,,,,,,
null,,learn_phase(without_color),673365,black_plus_sign,,,,,null,US_Cities_List/nat_shreveport.png,US_Cities_List/mm_peoria.png,,,,,,,,,,,,,,,,,,,,,,,,,,,,
null,,black_cross(without_color),674405,blue,,,,,null,US_Cities_List/nat_shreveport.png,US_Cities_List/mm_peoria.png,,,,,,,,,,,,,,,,,,,,,,,,,,,,
null,,rt_plussign_withcolor,674911,blue,,,,,null,US_Cities_List/nat_shreveport.png,US_Cities_List/mm_peoria.png,,,,,,,,,,,,,,,,,,,,,,,,,,,,
721.3000000119209,,rt_thecrossant_black,675904,black_plus_sign,,,,,50,,,0.8767123287671232,0,,,,,,,,,,,,,,,,,,,,,,,,,,
null,,color_black,676009,black_plus_sign,,,,,null,,,,,,,,,,,,,,,,,,,,,,,,,,,,,,
null,,learn_phase(without_color),678563,black_plus_sign,,,,,null,US_Cities_List/mm_peoria.png,US_Cities_List/mm_huntsville.png,,,,,,,,,,,,,,,,,,,,,,,,,,,,
null,,black_cross(without_color),679095,blue,,,,,null,US_Cities_List/mm_peoria.png,US_Cities_List/mm_huntsville.png,,,,,,,,,,,,,,,,,,,,,,,,,,,,
null,,rt_plussign_withcolor,679608,blue,,,,,null,US_Cities_List/mm_peoria.png,US_Cities_List/mm_huntsville.png,,,,,,,,,,,,,,,,,,,,,,,,,,,,
1239.300000011921,,rt_thecrossant_black,681093,black_plus_sign,,,,,49,,,0.8783783783783784,1,,,,,,,,,,,,,,,,,,,,,,,,,,
null,,color_black,681200,black_plus_sign,,,,,null,,,,,,,,,,,,,,,,,,,,,,,,,,,,,,
null,,learn_phase(without_color),683736,black_plus_sign,,,,,null,US_Cities_List/mm_hotsprings.png,US_Cities_List/nat_carmel.png,,,,,,,,,,,,,,,,,,,,,,,,,,,,
null,,black_cross(without_color),684735,blue,,,,,null,US_Cities_List/mm_hotsprings.png,US_Cities_List/nat_carmel.png,,,,,,,,,,,,,,,,,,,,,,,,,,,,
null,,rt_plussign_withcolor,685238,blue,,,,,null,US_Cities_List/mm_hotsprings.png,US_Cities_List/nat_carmel.png,,,,,,,,,,,,,,,,,,,,,,,,,,,,
862,,rt_thecrossant_black,686255,black_plus_sign,,,,,49,,,0.88,1,,,,,,,,,,,,,,,,,,,,,,,,,,
null,,color_black,686367,black_plus_sign,,,,,null,,,,,,,,,,,,,,,,,,,,,,,,,,,,,,
null,,learn_phase(without_color),688917,black_plus_sign,,,,,null,US_Cities_List/nat_westpalmbeach.png,US_Cities_List/nat_carmel.png,,,,,,,,,,,,,,,,,,,,,,,,,,,,
null,,black_cross(without_color),689628,blue,,,,,null,US_Cities_List/nat_westpalmbeach.png,US_Cities_List/nat_carmel.png,,,,,,,,,,,,,,,,,,,,,,,,,,,,
null,,rt_plussign_withcolor,690142,blue,,,,,null,US_Cities_List/nat_westpalmbeach.png,US_Cities_List/nat_carmel.png,,,,,,,,,,,,,,,,,,,,,,,,,,,,
1216.5,,rt_thecrossant_black,691445,black_plus_sign,,,,,49,,,0.881578947368421,1,,,,,,,,,,,,,,,,,,,,,,,,,,
null,,color_black,691554,black_plus_sign,,,,,null,,,,,,,,,,,,,,,,,,,,,,,,,,,,,,
null,,learn_phase(without_color),694128,black_plus_sign,,,,,null,US_Cities_List/nat_shreveport.png,US_Cities_List/mm_peoria.png,,,,,,,,,,,,,,,,,,,,,,,,,,,,
null,,black_cross(without_color),695146,green,,,,,null,US_Cities_List/nat_shreveport.png,US_Cities_List/mm_peoria.png,,,,,,,,,,,,,,,,,,,,,,,,,,,,
null,,rt_plussign_withcolor,695656,green,,,,,null,US_Cities_List/nat_shreveport.png,US_Cities_List/mm_peoria.png,,,,,,,,,,,,,,,,,,,,,,,,,,,,
990.8999999761581,,rt_thecrossant_black,696656,black_plus_sign,,,,,50,,,0.8831168831168831,1,,,,,,,,,,,,,,,,,,,,,,,,,,
null,,color_black,696768,black_plus_sign,,,,,null,,,,,,,,,,,,,,,,,,,,,,,,,,,,,,
null,,learn_phase(without_color),699311,black_plus_sign,,,,,null,US_Cities_List/nat_cornwall.png,US_Cities_List/mm_hotsprings.png,,,,,,,,,,,,,,,,,,,,,,,,,,,,
null,,black_cross(without_color),700317,green,,,,,null,US_Cities_List/nat_cornwall.png,US_Cities_List/mm_hotsprings.png,,,,,,,,,,,,,,,,,,,,,,,,,,,,
null,,rt_plussign_withcolor,700825,green,,,,,null,US_Cities_List/nat_cornwall.png,US_Cities_List/mm_hotsprings.png,,,,,,,,,,,,,,,,,,,,,,,,,,,,
1254.800000011921,,rt_thecrossant_black,701842,black_plus_sign,,,,,50,,,0.8846153846153846,1,,,,,,,,,,,,,,,,,,,,,,,,,,
null,,color_black,701949,black_plus_sign,,,,,null,,,,,,,,,,,,,,,,,,,,,,,,,,,,,,
null,,learn_phase(without_color),704515,black_plus_sign,,,,,null,US_Cities_List/mm_peoria.png,US_Cities_List/mm_huntsville.png,,,,,,,,,,,,,,,,,,,,,,,,,,,,
null,,black_cross(without_color),705195,blue,,,,,null,US_Cities_List/mm_peoria.png,US_Cities_List/mm_huntsville.png,,,,,,,,,,,,,,,,,,,,,,,,,,,,
null,,rt_plussign_withcolor,705705,blue,,,,,null,US_Cities_List/mm_peoria.png,US_Cities_List/mm_huntsville.png,,,,,,,,,,,,,,,,,,,,,,,,,,,,
1427.800000011921,,rt_thecrossant_black,707034,black_plus_sign,,,,,49,,,0.8860759493670886,1,,,,,,,,,,,,,,,,,,,,,,,,,,
null,,color_black,707139,black_plus_sign,,,,,null,,,,,,,,,,,,,,,,,,,,,,,,,,,,,,
null,,learn_phase(without_color),709678,black_plus_sign,,,,,null,US_Cities_List/nat_westpalmbeach.png,US_Cities_List/nat_carmel.png,,,,,,,,,,,,,,,,,,,,,,,,,,,,
null,,black_cross(without_color),710103,blue,,,,,null,US_Cities_List/nat_westpalmbeach.png,US_Cities_List/nat_carmel.png,,,,,,,,,,,,,,,,,,,,,,,,,,,,
null,,rt_plussign_withcolor,710608,blue,,,,,null,US_Cities_List/nat_westpalmbeach.png,US_Cities_List/nat_carmel.png,,,,,,,,,,,,,,,,,,,,,,,,,,,,
1169,,rt_thecrossant_black,712190,black_plus_sign,,,,,49,,,0.8875,1,,,,,,,,,,,,,,,,,,,,,,,,,,
null,,color_black,712296,black_plus_sign,,,,,null,,,,,,,,,,,,,,,,,,,,,,,,,,,,,,
null,,learn_phase(without_color),714887,black_plus_sign,,,,,null,US_Cities_List/nat_cornwall.png,US_Cities_List/mm_hotsprings.png,,,,,,,,,,,,,,,,,,,,,,,,,,,,
null,,black_cross(without_color),715629,blue,,,,,null,US_Cities_List/nat_cornwall.png,US_Cities_List/mm_hotsprings.png,,,,,,,,,,,,,,,,,,,,,,,,,,,,
null,,rt_plussign_withcolor,716139,blue,,,,,null,US_Cities_List/nat_cornwall.png,US_Cities_List/mm_hotsprings.png,,,,,,,,,,,,,,,,,,,,,,,,,,,,
577.3000000119209,,rt_thecrossant_black,717415,black_plus_sign,,,,,49,,,0.8888888888888888,1,,,,,,,,,,,,,,,,,,,,,,,,,,
null,,color_black,717525,black_plus_sign,,,,,null,,,,,,,,,,,,,,,,,,,,,,,,,,,,,,
null,,learn_phase(without_color),720103,black_plus_sign,,,,,null,US_Cities_List/nat_shreveport.png,US_Cities_List/mm_peoria.png,,,,,,,,,,,,,,,,,,,,,,,,,,,,
null,,black_cross(without_color),721003,blue,,,,,null,US_Cities_List/nat_shreveport.png,US_Cities_List/mm_peoria.png,,,,,,,,,,,,,,,,,,,,,,,,,,,,
null,,rt_plussign_withcolor,721513,blue,,,,,null,US_Cities_List/nat_shreveport.png,US_Cities_List/mm_peoria.png,,,,,,,,,,,,,,,,,,,,,,,,,,,,
937.7000000476837,,rt_thecrossant_black,722634,black_plus_sign,,,,,49,,,0.8902439024390244,1,,,,,,,,,,,,,,,,,,,,,,,,,,
null,,color_black,722744,black_plus_sign,,,,,null,,,,,,,,,,,,,,,,,,,,,,,,,,,,,,
null,,learn_phase(without_color),725283,black_plus_sign,,,,,null,US_Cities_List/mm_peoria.png,US_Cities_List/nat_westpalmbeach.png,,,,,,,,,,,,,,,,,,,,,,,,,,,,
null,,black_cross(without_color),725787,green,,,,,null,US_Cities_List/mm_peoria.png,US_Cities_List/nat_westpalmbeach.png,,,,,,,,,,,,,,,,,,,,,,,,,,,,
null,,rt_plussign_withcolor,726293,green,,,,,null,US_Cities_List/mm_peoria.png,US_Cities_List/nat_westpalmbeach.png,,,,,,,,,,,,,,,,,,,,,,,,,,,,
1206.5,,rt_thecrossant_black,727808,black_plus_sign,,,,,50,,,0.891566265060241,1,,,,,,,,,,,,,,,,,,,,,,,,,,
null,,color_black,727915,black_plus_sign,,,,,null,,,,,,,,,,,,,,,,,,,,,,,,,,,,,,
null,,learn_phase(without_color),730454,black_plus_sign,,,,,null,US_Cities_List/mm_leesburg.png,US_Cities_List/mm_gatlinburg.png,,,,,,,,,,,,,,,,,,,,,,,,,,,,
null,,black_cross(without_color),730969,blue,,,,,null,US_Cities_List/mm_leesburg.png,US_Cities_List/mm_gatlinburg.png,,,,,,,,,,,,,,,,,,,,,,,,,,,,
null,,rt_plussign_withcolor,731477,blue,,,,,null,US_Cities_List/mm_leesburg.png,US_Cities_List/mm_gatlinburg.png,,,,,,,,,,,,,,,,,,,,,,,,,,,,
667.4000000357628,,rt_thecrossant_black,732977,black_plus_sign,,,,,50,,,0.8809523809523809,0,,,,,,,,,,,,,,,,,,,,,,,,,,
null,,color_black,733088,black_plus_sign,,,,,null,,,,,,,,,,,,,,,,,,,,,,,,,,,,,,
null,,learn_phase(without_color),735652,black_plus_sign,,,,,null,US_Cities_List/mm_hotsprings.png,US_Cities_List/nat_carmel.png,,,,,,,,,,,,,,,,,,,,,,,,,,,,
null,,black_cross(without_color),736609,green,,,,,null,US_Cities_List/mm_hotsprings.png,US_Cities_List/nat_carmel.png,,,,,,,,,,,,,,,,,,,,,,,,,,,,
null,,rt_plussign_withcolor,737113,green,,,,,null,US_Cities_List/mm_hotsprings.png,US_Cities_List/nat_carmel.png,,,,,,,,,,,,,,,,,,,,,,,,,,,,
797.9000000357628,,rt_thecrossant_black,738182,black_plus_sign,,,,,50,,,0.8823529411764706,1,,,,,,,,,,,,,,,,,,,,,,,,,,
null,,color_black,738287,black_plus_sign,,,,,null,,,,,,,,,,,,,,,,,,,,,,,,,,,,,,
null,,learn_phase(without_color),740874,black_plus_sign,,,,,null,US_Cities_List/mm_leesburg.png,US_Cities_List/mm_gatlinburg.png,,,,,,,,,,,,,,,,,,,,,,,,,,,,
null,,black_cross(without_color),741683,blue,,,,,null,US_Cities_List/mm_leesburg.png,US_Cities_List/mm_gatlinburg.png,,,,,,,,,,,,,,,,,,,,,,,,,,,,
null,,rt_plussign_withcolor,742194,blue,,,,,null,US_Cities_List/mm_leesburg.png,US_Cities_List/mm_gatlinburg.png,,,,,,,,,,,,,,,,,,,,,,,,,,,,
1257.1000000238419,,rt_thecrossant_black,743398,black_plus_sign,,,,,50,,,0.872093023255814,0,,,,,,,,,,,,,,,,,,,,,,,,,,
null,,color_black,743508,black_plus_sign,,,,,null,,,,,,,,,,,,,,,,,,,,,,,,,,,,,,
null,,learn_phase(without_color),746085,black_plus_sign,,,,,null,US_Cities_List/nat_westpalmbeach.png,US_Cities_List/nat_cornwall.png,,,,,,,,,,,,,,,,,,,,,,,,,,,,
null,,black_cross(without_color),747147,green,,,,,null,US_Cities_List/nat_westpalmbeach.png,US_Cities_List/nat_cornwall.png,,,,,,,,,,,,,,,,,,,,,,,,,,,,
477.69999998807907,,rt_plussign_withcolor,747665,green,,,,,49,US_Cities_List/nat_westpalmbeach.png,US_Cities_List/nat_cornwall.png,,,,,,,,,,,,,,,,,,,,,,,,,,,,
null,,rt_thecrossant_black,748629,black_plus_sign,,,,,null,,,0.8620689655172413,0,,,,,,,,,,,,,,,,,,,,,,,,,,
null,,warning_page,751635,warning,,,,,null,,,,,,,,,,,,,,,,,,,,,,,,,,,,,,
null,,color_black,751740,black_plus_sign,,,,,null,,,,,,,,,,,,,,,,,,,,,,,,,,,,,,
null,,learn_phase(without_color),754296,black_plus_sign,,,,,null,US_Cities_List/nat_cornwall.png,US_Cities_List/mm_hotsprings.png,,,,,,,,,,,,,,,,,,,,,,,,,,,,
null,,black_cross(without_color),754782,blue,,,,,null,US_Cities_List/nat_cornwall.png,US_Cities_List/mm_hotsprings.png,,,,,,,,,,,,,,,,,,,,,,,,,,,,
null,,rt_plussign_withcolor,755285,blue,,,,,null,US_Cities_List/nat_cornwall.png,US_Cities_List/mm_hotsprings.png,,,,,,,,,,,,,,,,,,,,,,,,,,,,
1327.1000000238419,,rt_thecrossant_black,756815,black_plus_sign,,,,,49,,,0.8636363636363636,1,,,,,,,,,,,,,,,,,,,,,,,,,,
null,,color_black,756922,black_plus_sign,,,,,null,,,,,,,,,,,,,,,,,,,,,,,,,,,,,,
null,,learn_phase(without_color),759489,black_plus_sign,,,,,null,US_Cities_List/mm_leesburg.png,US_Cities_List/mm_hotsprings.png,,,,,,,,,,,,,,,,,,,,,,,,,,,,
null,,black_cross(without_color),760265,blue,,,,,null,US_Cities_List/mm_leesburg.png,US_Cities_List/mm_hotsprings.png,,,,,,,,,,,,,,,,,,,,,,,,,,,,
null,,rt_plussign_withcolor,760777,blue,,,,,null,US_Cities_List/mm_leesburg.png,US_Cities_List/mm_hotsprings.png,,,,,,,,,,,,,,,,,,,,,,,,,,,,
694.2000000476837,,rt_thecrossant_black,762021,black_plus_sign,,,,,49,,,0.8651685393258427,1,,,,,,,,,,,,,,,,,,,,,,,,,,
null,,color_black,762133,black_plus_sign,,,,,null,,,,,,,,,,,,,,,,,,,,,,,,,,,,,,
null,,learn_phase(without_color),764731,black_plus_sign,,,,,null,US_Cities_List/nat_cornwall.png,US_Cities_List/mm_hotsprings.png,,,,,,,,,,,,,,,,,,,,,,,,,,,,
null,,black_cross(without_color),765780,blue,,,,,null,US_Cities_List/nat_cornwall.png,US_Cities_List/mm_hotsprings.png,,,,,,,,,,,,,,,,,,,,,,,,,,,,
null,,rt_plussign_withcolor,766284,blue,,,,,null,US_Cities_List/nat_cornwall.png,US_Cities_List/mm_hotsprings.png,,,,,,,,,,,,,,,,,,,,,,,,,,,,
959.1999999880791,,rt_thecrossant_black,767255,black_plus_sign,,,,,49,,,0.8666666666666667,1,,,,,,,,,,,,,,,,,,,,,,,,,,
null,,color_black,767361,black_plus_sign,,,,,null,,,,,,,,,,,,,,,,,,,,,,,,,,,,,,
null,,learn_phase(without_color),769953,black_plus_sign,,,,,null,US_Cities_List/nat_westpalmbeach.png,US_Cities_List/nat_cornwall.png,,,,,,,,,,,,,,,,,,,,,,,,,,,,
null,,black_cross(without_color),770703,green,,,,,null,US_Cities_List/nat_westpalmbeach.png,US_Cities_List/nat_cornwall.png,,,,,,,,,,,,,,,,,,,,,,,,,,,,
null,,rt_plussign_withcolor,771210,green,,,,,null,US_Cities_List/nat_westpalmbeach.png,US_Cities_List/nat_cornwall.png,,,,,,,,,,,,,,,,,,,,,,,,,,,,
1156.1000000238419,,rt_thecrossant_black,772485,black_plus_sign,,,,,50,,,0.8681318681318682,1,,,,,,,,,,,,,,,,,,,,,,,,,,
null,,color_black,772595,black_plus_sign,,,,,null,,,,,,,,,,,,,,,,,,,,,,,,,,,,,,
null,,learn_phase(without_color),775175,black_plus_sign,,,,,null,US_Cities_List/mm_leesburg.png,US_Cities_List/mm_boulder.png,,,,,,,,,,,,,,,,,,,,,,,,,,,,
null,,black_cross(without_color),776153,green,,,,,null,US_Cities_List/mm_leesburg.png,US_Cities_List/mm_boulder.png,,,,,,,,,,,,,,,,,,,,,,,,,,,,
null,,rt_plussign_withcolor,776662,green,,,,,null,US_Cities_List/mm_leesburg.png,US_Cities_List/mm_boulder.png,,,,,,,,,,,,,,,,,,,,,,,,,,,,
932,,rt_thecrossant_black,777705,black_plus_sign,,,,,50,,,0.8695652173913043,1,,,,,,,,,,,,,,,,,,,,,,,,,,
null,,color_black,777810,black_plus_sign,,,,,null,,,,,,,,,,,,,,,,,,,,,,,,,,,,,,
null,,learn_phase(without_color),780375,black_plus_sign,,,,,null,US_Cities_List/mm_hotsprings.png,US_Cities_List/nat_carmel.png,,,,,,,,,,,,,,,,,,,,,,,,,,,,
null,,black_cross(without_color),781201,green,,,,,null,US_Cities_List/mm_hotsprings.png,US_Cities_List/nat_carmel.png,,,,,,,,,,,,,,,,,,,,,,,,,,,,
null,,rt_plussign_withcolor,781712,green,,,,,null,US_Cities_List/mm_hotsprings.png,US_Cities_List/nat_carmel.png,,,,,,,,,,,,,,,,,,,,,,,,,,,,
1149.1000000238419,,rt_thecrossant_black,782901,black_plus_sign,,,,,50,,,0.8709677419354839,1,,,,,,,,,,,,,,,,,,,,,,,,,,
null,,color_black,783010,black_plus_sign,,,,,null,,,,,,,,,,,,,,,,,,,,,,,,,,,,,,
null,,learn_phase(without_color),785546,black_plus_sign,,,,,null,US_Cities_List/mm_peoria.png,US_Cities_List/nat_westpalmbeach.png,,,,,,,,,,,,,,,,,,,,,,,,,,,,
null,,black_cross(without_color),786276,blue,,,,,null,US_Cities_List/mm_peoria.png,US_Cities_List/nat_westpalmbeach.png,,,,,,,,,,,,,,,,,,,,,,,,,,,,
null,,rt_plussign_withcolor,786780,blue,,,,,null,US_Cities_List/mm_peoria.png,US_Cities_List/nat_westpalmbeach.png,,,,,,,,,,,,,,,,,,,,,,,,,,,,
949.5,,rt_thecrossant_black,788074,black_plus_sign,,,,,49,,,0.8723404255319149,1,,,,,,,,,,,,,,,,,,,,,,,,,,
null,,color_black,788182,black_plus_sign,,,,,null,,,,,,,,,,,,,,,,,,,,,,,,,,,,,,
null,,learn_phase(without_color),790742,black_plus_sign,,,,,null,US_Cities_List/mm_gatlinburg.png,US_Cities_List/mm_hotsprings.png,,,,,,,,,,,,,,,,,,,,,,,,,,,,
null,,black_cross(without_color),791475,green,,,,,null,US_Cities_List/mm_gatlinburg.png,US_Cities_List/mm_hotsprings.png,,,,,,,,,,,,,,,,,,,,,,,,,,,,
null,,rt_plussign_withcolor,791982,green,,,,,null,US_Cities_List/mm_gatlinburg.png,US_Cities_List/mm_hotsprings.png,,,,,,,,,,,,,,,,,,,,,,,,,,,,
990,,rt_thecrossant_black,793265,black_plus_sign,,,,,50,,,0.8736842105263158,1,,,,,,,,,,,,,,,,,,,,,,,,,,
null,,color_black,793375,black_plus_sign,,,,,null,,,,,,,,,,,,,,,,,,,,,,,,,,,,,,
null,,learn_phase(without_color),795954,black_plus_sign,,,,,null,US_Cities_List/mm_leesburg.png,US_Cities_List/mm_gatlinburg.png,,,,,,,,,,,,,,,,,,,,,,,,,,,,
null,,black_cross(without_color),796825,blue,,,,,null,US_Cities_List/mm_leesburg.png,US_Cities_List/mm_gatlinburg.png,,,,,,,,,,,,,,,,,,,,,,,,,,,,
null,,rt_plussign_withcolor,797332,blue,,,,,null,US_Cities_List/mm_leesburg.png,US_Cities_List/mm_gatlinburg.png,,,,,,,,,,,,,,,,,,,,,,,,,,,,
1018,,rt_thecrossant_black,798475,black_plus_sign,,,,,50,,,0.8645833333333334,0,,,,,,,,,,,,,,,,,,,,,,,,,,
null,,color_black,798581,black_plus_sign,,,,,null,,,,,,,,,,,,,,,,,,,,,,,,,,,,,,
null,,learn_phase(without_color),801161,black_plus_sign,,,,,null,US_Cities_List/mm_hotsprings.png,US_Cities_List/nat_carmel.png,,,,,,,,,,,,,,,,,,,,,,,,,,,,
null,,black_cross(without_color),802004,blue,,,,,null,US_Cities_List/mm_hotsprings.png,US_Cities_List/nat_carmel.png,,,,,,,,,,,,,,,,,,,,,,,,,,,,
455.5999999642372,,rt_plussign_withcolor,802512,blue,,,,,49,US_Cities_List/mm_hotsprings.png,US_Cities_List/nat_carmel.png,,,,,,,,,,,,,,,,,,,,,,,,,,,,
null,,rt_thecrossant_black,803679,black_plus_sign,,,,,null,,,0.865979381443299,1,,,,,,,,,,,,,,,,,,,,,,,,,,
null,,color_black,803789,black_plus_sign,,,,,null,,,,,,,,,,,,,,,,,,,,,,,,,,,,,,
null,,learn_phase(without_color),806358,black_plus_sign,,,,,null,US_Cities_List/mm_peoria.png,US_Cities_List/nat_westpalmbeach.png,,,,,,,,,,,,,,,,,,,,,,,,,,,,
null,,black_cross(without_color),807159,blue,,,,,null,US_Cities_List/mm_peoria.png,US_Cities_List/nat_westpalmbeach.png,,,,,,,,,,,,,,,,,,,,,,,,,,,,
495,,rt_plussign_withcolor,807672,blue,,,,,49,US_Cities_List/mm_peoria.png,US_Cities_List/nat_westpalmbeach.png,,,,,,,,,,,,,,,,,,,,,,,,,,,,
null,,rt_thecrossant_black,808895,black_plus_sign,,,,,null,,,0.8673469387755102,1,,,,,,,,,,,,,,,,,,,,,,,,,,
null,,color_black,809005,black_plus_sign,,,,,null,,,,,,,,,,,,,,,,,,,,,,,,,,,,,,
null,,learn_phase(without_color),811593,black_plus_sign,,,,,null,US_Cities_List/nat_cornwall.png,US_Cities_List/mm_hotsprings.png,,,,,,,,,,,,,,,,,,,,,,,,,,,,
null,,black_cross(without_color),812105,green,,,,,null,US_Cities_List/nat_cornwall.png,US_Cities_List/mm_hotsprings.png,,,,,,,,,,,,,,,,,,,,,,,,,,,,
null,,rt_plussign_withcolor,812618,green,,,,,null,US_Cities_List/nat_cornwall.png,US_Cities_List/mm_hotsprings.png,,,,,,,,,,,,,,,,,,,,,,,,,,,,
1073.9000000357628,,rt_thecrossant_black,814128,black_plus_sign,,,,,50,,,0.8686868686868687,1,,,,,,,,,,,,,,,,,,,,,,,,,,
null,,color_black,814239,black_plus_sign,,,,,null,,,,,,,,,,,,,,,,,,,,,,,,,,,,,,
null,,learn_phase(without_color),816792,black_plus_sign,,,,,null,US_Cities_List/mm_peoria.png,US_Cities_List/mm_huntsville.png,,,,,,,,,,,,,,,,,,,,,,,,,,,,
null,,black_cross(without_color),817393,green,,,,,null,US_Cities_List/mm_peoria.png,US_Cities_List/mm_huntsville.png,,,,,,,,,,,,,,,,,,,,,,,,,,,,
null,,rt_plussign_withcolor,817901,green,,,,,null,US_Cities_List/mm_peoria.png,US_Cities_List/mm_huntsville.png,,,,,,,,,,,,,,,,,,,,,,,,,,,,
718.1999999880791,,rt_thecrossant_black,819321,black_plus_sign,,,,,50,,,0.87,1,,,,,,,,,,,,,,,,,,,,,,,,,,
null,,color_black,819433,black_plus_sign,,,,,null,,,,,,,,,,,,,,,,,,,,,,,,,,,,,,
null,,learn_phase(without_color),821984,black_plus_sign,,,,,null,US_Cities_List/nat_carmel.png,US_Cities_List/nat_newhope.png,,,,,,,,,,,,,,,,,,,,,,,,,,,,
null,,black_cross(without_color),822616,blue,,,,,null,US_Cities_List/nat_carmel.png,US_Cities_List/nat_newhope.png,,,,,,,,,,,,,,,,,,,,,,,,,,,,
null,,rt_plussign_withcolor,823120,blue,,,,,null,US_Cities_List/nat_carmel.png,US_Cities_List/nat_newhope.png,,,,,,,,,,,,,,,,,,,,,,,,,,,,
868.6999999880791,,rt_thecrossant_black,824508,black_plus_sign,,,,,50,,,0.8613861386138614,0,,,,,,,,,,,,,,,,,,,,,,,,,,
null,,color_black,824613,black_plus_sign,,,,,null,,,,,,,,,,,,,,,,,,,,,,,,,,,,,,
null,,learn_phase(without_color),827193,black_plus_sign,,,,,null,US_Cities_List/mm_leesburg.png,US_Cities_List/mm_hotsprings.png,,,,,,,,,,,,,,,,,,,,,,,,,,,,
null,,black_cross(without_color),827865,blue,,,,,null,US_Cities_List/mm_leesburg.png,US_Cities_List/mm_hotsprings.png,,,,,,,,,,,,,,,,,,,,,,,,,,,,
null,,rt_plussign_withcolor,828376,blue,,,,,null,US_Cities_List/mm_leesburg.png,US_Cities_List/mm_hotsprings.png,,,,,,,,,,,,,,,,,,,,,,,,,,,,
942.8000000119209,,rt_thecrossant_black,829718,black_plus_sign,,,,,49,,,0.8627450980392157,1,,,,,,,,,,,,,,,,,,,,,,,,,,
null,,color_black,829828,black_plus_sign,,,,,null,,,,,,,,,,,,,,,,,,,,,,,,,,,,,,
null,,learn_phase(without_color),832431,black_plus_sign,,,,,null,US_Cities_List/nat_carmel.png,US_Cities_List/nat_newhope.png,,,,,,,,,,,,,,,,,,,,,,,,,,,,
null,,black_cross(without_color),833290,blue,,,,,null,US_Cities_List/nat_carmel.png,US_Cities_List/nat_newhope.png,,,,,,,,,,,,,,,,,,,,,,,,,,,,
487.4000000357628,,rt_plussign_withcolor,833798,blue,,,,,49,US_Cities_List/nat_carmel.png,US_Cities_List/nat_newhope.png,,,,,,,,,,,,,,,,,,,,,,,,,,,,
null,,rt_thecrossant_black,834959,black_plus_sign,,,,,null,,,0.8640776699029126,1,,,,,,,,,,,,,,,,,,,,,,,,,,
null,,color_black,835067,black_plus_sign,,,,,null,,,,,,,,,,,,,,,,,,,,,,,,,,,,,,
null,,learn_phase(without_color),837608,black_plus_sign,,,,,null,US_Cities_List/mm_gatlinburg.png,US_Cities_List/mm_hotsprings.png,,,,,,,,,,,,,,,,,,,,,,,,,,,,
null,,black_cross(without_color),838083,green,,,,,null,US_Cities_List/mm_gatlinburg.png,US_Cities_List/mm_hotsprings.png,,,,,,,,,,,,,,,,,,,,,,,,,,,,
null,,rt_plussign_withcolor,838600,green,,,,,null,US_Cities_List/mm_gatlinburg.png,US_Cities_List/mm_hotsprings.png,,,,,,,,,,,,,,,,,,,,,,,,,,,,
1001.7000000476837,,rt_thecrossant_black,840140,black_plus_sign,,,,,50,,,0.8653846153846154,1,,,,,,,,,,,,,,,,,,,,,,,,,,
null,,color_black,840250,black_plus_sign,,,,,null,,,,,,,,,,,,,,,,,,,,,,,,,,,,,,
null,,learn_phase(without_color),842833,black_plus_sign,,,,,null,US_Cities_List/nat_carmel.png,US_Cities_List/nat_newhope.png,,,,,,,,,,,,,,,,,,,,,,,,,,,,
null,,black_cross(without_color),843837,green,,,,,null,US_Cities_List/nat_carmel.png,US_Cities_List/nat_newhope.png,,,,,,,,,,,,,,,,,,,,,,,,,,,,
null,,rt_plussign_withcolor,844339,green,,,,,null,US_Cities_List/nat_carmel.png,US_Cities_List/nat_newhope.png,,,,,,,,,,,,,,,,,,,,,,,,,,,,
1129.300000011921,,rt_thecrossant_black,845362,black_plus_sign,,,,,50,,,0.8666666666666667,1,,,,,,,,,,,,,,,,,,,,,,,,,,
null,,color_black,845473,black_plus_sign,,,,,null,,,,,,,,,,,,,,,,,,,,,,,,,,,,,,
null,,learn_phase(without_color),848015,black_plus_sign,,,,,null,US_Cities_List/nat_westpalmbeach.png,US_Cities_List/nat_carmel.png,,,,,,,,,,,,,,,,,,,,,,,,,,,,
null,,black_cross(without_color),848994,blue,,,,,null,US_Cities_List/nat_westpalmbeach.png,US_Cities_List/nat_carmel.png,,,,,,,,,,,,,,,,,,,,,,,,,,,,
null,,rt_plussign_withcolor,849505,blue,,,,,null,US_Cities_List/nat_westpalmbeach.png,US_Cities_List/nat_carmel.png,,,,,,,,,,,,,,,,,,,,,,,,,,,,
1216.9000000357628,,rt_thecrossant_black,850544,black_plus_sign,,,,,49,,,0.8679245283018868,1,,,,,,,,,,,,,,,,,,,,,,,,,,
null,,color_black,850656,black_plus_sign,,,,,null,,,,,,,,,,,,,,,,,,,,,,,,,,,,,,
null,,learn_phase(without_color),853228,black_plus_sign,,,,,null,US_Cities_List/mm_huntsville.png,US_Cities_List/nat_racine.png,,,,,,,,,,,,,,,,,,,,,,,,,,,,
null,,black_cross(without_color),853861,blue,,,,,null,US_Cities_List/mm_huntsville.png,US_Cities_List/nat_racine.png,,,,,,,,,,,,,,,,,,,,,,,,,,,,
null,,rt_plussign_withcolor,854374,blue,,,,,null,US_Cities_List/mm_huntsville.png,US_Cities_List/nat_racine.png,,,,,,,,,,,,,,,,,,,,,,,,,,,,
1066.4000000357628,,rt_thecrossant_black,855771,black_plus_sign,,,,,49,,,0.8691588785046729,1,,,,,,,,,,,,,,,,,,,,,,,,,,
null,,color_black,855877,black_plus_sign,,,,,null,,,,,,,,,,,,,,,,,,,,,,,,,,,,,,
null,,learn_phase(without_color),858446,black_plus_sign,,,,,null,US_Cities_List/mm_hotsprings.png,US_Cities_List/nat_carmel.png,,,,,,,,,,,,,,,,,,,,,,,,,,,,
null,,black_cross(without_color),859198,green,,,,,null,US_Cities_List/mm_hotsprings.png,US_Cities_List/nat_carmel.png,,,,,,,,,,,,,,,,,,,,,,,,,,,,
null,,rt_plussign_withcolor,859709,green,,,,,null,US_Cities_List/mm_hotsprings.png,US_Cities_List/nat_carmel.png,,,,,,,,,,,,,,,,,,,,,,,,,,,,
739.1000000238419,,rt_thecrossant_black,860975,black_plus_sign,,,,,50,,,0.8703703703703703,1,,,,,,,,,,,,,,,,,,,,,,,,,,
null,,color_black,861086,black_plus_sign,,,,,null,,,,,,,,,,,,,,,,,,,,,,,,,,,,,,
null,,learn_phase(without_color),863685,black_plus_sign,,,,,null,US_Cities_List/nat_carmel.png,US_Cities_List/nat_newhope.png,,,,,,,,,,,,,,,,,,,,,,,,,,,,
null,,black_cross(without_color),864491,blue,,,,,null,US_Cities_List/nat_carmel.png,US_Cities_List/nat_newhope.png,,,,,,,,,,,,,,,,,,,,,,,,,,,,
null,,rt_plussign_withcolor,864997,blue,,,,,null,US_Cities_List/nat_carmel.png,US_Cities_List/nat_newhope.png,,,,,,,,,,,,,,,,,,,,,,,,,,,,
1063.199999988079,,rt_thecrossant_black,866211,black_plus_sign,,,,,49,,,0.8715596330275229,1,,,,,,,,,,,,,,,,,,,,,,,,,,
null,,color_black,866320,black_plus_sign,,,,,null,,,,,,,,,,,,,,,,,,,,,,,,,,,,,,
null,,learn_phase(without_color),868905,black_plus_sign,,,,,null,US_Cities_List/mm_huntsville.png,US_Cities_List/nat_racine.png,,,,,,,,,,,,,,,,,,,,,,,,,,,,
null,,black_cross(without_color),869782,green,,,,,null,US_Cities_List/mm_huntsville.png,US_Cities_List/nat_racine.png,,,,,,,,,,,,,,,,,,,,,,,,,,,,
null,,rt_plussign_withcolor,870287,green,,,,,null,US_Cities_List/mm_huntsville.png,US_Cities_List/nat_racine.png,,,,,,,,,,,,,,,,,,,,,,,,,,,,
964.5,,rt_thecrossant_black,871429,black_plus_sign,,,,,50,,,0.8727272727272727,1,,,,,,,,,,,,,,,,,,,,,,,,,,
null,,color_black,871536,black_plus_sign,,,,,null,,,,,,,,,,,,,,,,,,,,,,,,,,,,,,
null,,learn_phase(without_color),874085,black_plus_sign,,,,,null,US_Cities_List/mm_peoria.png,US_Cities_List/mm_huntsville.png,,,,,,,,,,,,,,,,,,,,,,,,,,,,
null,,black_cross(without_color),874534,green,,,,,null,US_Cities_List/mm_peoria.png,US_Cities_List/mm_huntsville.png,,,,,,,,,,,,,,,,,,,,,,,,,,,,
null,,rt_plussign_withcolor,875041,green,,,,,null,US_Cities_List/mm_peoria.png,US_Cities_List/mm_huntsville.png,,,,,,,,,,,,,,,,,,,,,,,,,,,,
1251.6000000238419,,rt_thecrossant_black,876618,black_plus_sign,,,,,50,,,0.8738738738738738,1,,,,,,,,,,,,,,,,,,,,,,,,,,
null,,color_black,876726,black_plus_sign,,,,,null,,,,,,,,,,,,,,,,,,,,,,,,,,,,,,
null,,learn_phase(without_color),879304,black_plus_sign,,,,,null,US_Cities_List/nat_cornwall.png,US_Cities_List/mm_leesburg.png,,,,,,,,,,,,,,,,,,,,,,,,,,,,
null,,black_cross(without_color),880367,blue,,,,,null,US_Cities_List/nat_cornwall.png,US_Cities_List/mm_leesburg.png,,,,,,,,,,,,,,,,,,,,,,,,,,,,
null,,rt_plussign_withcolor,880879,blue,,,,,null,US_Cities_List/nat_cornwall.png,US_Cities_List/mm_leesburg.png,,,,,,,,,,,,,,,,,,,,,,,,,,,,
624.1999999880791,,rt_thecrossant_black,881833,black_plus_sign,,,,,49,,,0.875,1,,,,,,,,,,,,,,,,,,,,,,,,,,
null,,color_black,881942,black_plus_sign,,,,,null,,,,,,,,,,,,,,,,,,,,,,,,,,,,,,
null,,learn_phase(without_color),884521,black_plus_sign,,,,,null,US_Cities_List/mm_leesburg.png,US_Cities_List/mm_hotsprings.png,,,,,,,,,,,,,,,,,,,,,,,,,,,,
null,,black_cross(without_color),885235,green,,,,,null,US_Cities_List/mm_leesburg.png,US_Cities_List/mm_hotsprings.png,,,,,,,,,,,,,,,,,,,,,,,,,,,,
null,,rt_plussign_withcolor,885747,green,,,,,null,US_Cities_List/mm_leesburg.png,US_Cities_List/mm_hotsprings.png,,,,,,,,,,,,,,,,,,,,,,,,,,,,
1321.699999988079,,rt_thecrossant_black,887053,black_plus_sign,,,,,50,,,0.8761061946902655,1,,,,,,,,,,,,,,,,,,,,,,,,,,
null,,color_black,887165,black_plus_sign,,,,,null,,,,,,,,,,,,,,,,,,,,,,,,,,,,,,
null,,learn_phase(without_color),889738,black_plus_sign,,,,,null,US_Cities_List/nat_shreveport.png,US_Cities_List/mm_peoria.png,,,,,,,,,,,,,,,,,,,,,,,,,,,,
null,,black_cross(without_color),890833,green,,,,,null,US_Cities_List/nat_shreveport.png,US_Cities_List/mm_peoria.png,,,,,,,,,,,,,,,,,,,,,,,,,,,,
null,,rt_plussign_withcolor,891337,green,,,,,null,US_Cities_List/nat_shreveport.png,US_Cities_List/mm_peoria.png,,,,,,,,,,,,,,,,,,,,,,,,,,,,
1104.800000011921,,rt_thecrossant_black,892269,black_plus_sign,,,,,50,,,0.8771929824561403,1,,,,,,,,,,,,,,,,,,,,,,,,,,
null,,color_black,892373,black_plus_sign,,,,,null,,,,,,,,,,,,,,,,,,,,,,,,,,,,,,
null,,learn_phase(without_color),894946,black_plus_sign,,,,,null,US_Cities_List/nat_cornwall.png,US_Cities_List/mm_leesburg.png,,,,,,,,,,,,,,,,,,,,,,,,,,,,
null,,black_cross(without_color),895410,blue,,,,,null,US_Cities_List/nat_cornwall.png,US_Cities_List/mm_leesburg.png,,,,,,,,,,,,,,,,,,,,,,,,,,,,
null,,rt_plussign_withcolor,895924,blue,,,,,null,US_Cities_List/nat_cornwall.png,US_Cities_List/mm_leesburg.png,,,,,,,,,,,,,,,,,,,,,,,,,,,,
1276.4000000357628,,rt_thecrossant_black,897485,black_plus_sign,,,,,49,,,0.8782608695652174,1,,,,,,,,,,,,,,,,,,,,,,,,,,
null,,color_black,897594,black_plus_sign,,,,,null,,,,,,,,,,,,,,,,,,,,,,,,,,,,,,
null,,learn_phase(without_color),900185,black_plus_sign,,,,,null,US_Cities_List/mm_leesburg.png,US_Cities_List/mm_hotsprings.png,,,,,,,,,,,,,,,,,,,,,,,,,,,,
null,,black_cross(without_color),900744,blue,,,,,null,US_Cities_List/mm_leesburg.png,US_Cities_List/mm_hotsprings.png,,,,,,,,,,,,,,,,,,,,,,,,,,,,
null,,rt_plussign_withcolor,901258,blue,,,,,null,US_Cities_List/mm_leesburg.png,US_Cities_List/mm_hotsprings.png,,,,,,,,,,,,,,,,,,,,,,,,,,,,
673.5,,rt_thecrossant_black,902720,black_plus_sign,,,,,49,,,0.8793103448275862,1,,,,,,,,,,,,,,,,,,,,,,,,,,
null,,color_black,902825,black_plus_sign,,,,,null,,,,,,,,,,,,,,,,,,,,,,,,,,,,,,
null,,learn_phase(without_color),905365,black_plus_sign,,,,,null,US_Cities_List/mm_gatlinburg.png,US_Cities_List/mm_hanover.png,,,,,,,,,,,,,,,,,,,,,,,,,,,,
null,,black_cross(without_color),905793,green,,,,,null,US_Cities_List/mm_gatlinburg.png,US_Cities_List/mm_hanover.png,,,,,,,,,,,,,,,,,,,,,,,,,,,,
null,,rt_plussign_withcolor,906300,green,,,,,null,US_Cities_List/mm_gatlinburg.png,US_Cities_List/mm_hanover.png,,,,,,,,,,,,,,,,,,,,,,,,,,,,
763.3000000119209,,rt_thecrossant_black,907886,black_plus_sign,,,,,50,,,0.8803418803418803,1,,,,,,,,,,,,,,,,,,,,,,,,,,
null,,color_black,907989,black_plus_sign,,,,,null,,,,,,,,,,,,,,,,,,,,,,,,,,,,,,
null,,learn_phase(without_color),910525,black_plus_sign,,,,,null,US_Cities_List/mm_leesburg.png,US_Cities_List/mm_gatlinburg.png,,,,,,,,,,,,,,,,,,,,,,,,,,,,
null,,black_cross(without_color),911154,blue,,,,,null,US_Cities_List/mm_leesburg.png,US_Cities_List/mm_gatlinburg.png,,,,,,,,,,,,,,,,,,,,,,,,,,,,
null,,rt_plussign_withcolor,911666,blue,,,,,null,US_Cities_List/mm_leesburg.png,US_Cities_List/mm_gatlinburg.png,,,,,,,,,,,,,,,,,,,,,,,,,,,,
607.1999999880791,,rt_thecrossant_black,913046,black_plus_sign,,,,,49,,,0.8813559322033898,1,,,,,,,,,,,,,,,,,,,,,,,,,,
null,,color_black,913159,black_plus_sign,,,,,null,,,,,,,,,,,,,,,,,,,,,,,,,,,,,,
null,,learn_phase(without_color),915749,black_plus_sign,,,,,null,US_Cities_List/nat_cornwall.png,US_Cities_List/mm_leesburg.png,,,,,,,,,,,,,,,,,,,,,,,,,,,,
null,,black_cross(without_color),916781,green,,,,,null,US_Cities_List/nat_cornwall.png,US_Cities_List/mm_leesburg.png,,,,,,,,,,,,,,,,,,,,,,,,,,,,
null,,rt_plussign_withcolor,917285,green,,,,,null,US_Cities_List/nat_cornwall.png,US_Cities_List/mm_leesburg.png,,,,,,,,,,,,,,,,,,,,,,,,,,,,
816.8000000119209,,rt_thecrossant_black,918275,black_plus_sign,,,,,50,,,0.8823529411764706,1,,,,,,,,,,,,,,,,,,,,,,,,,,
null,,color_black,918385,black_plus_sign,,,,,null,,,,,,,,,,,,,,,,,,,,,,,,,,,,,,
null,,learn_phase(without_color),920951,black_plus_sign,,,,,null,US_Cities_List/nat_westpalmbeach.png,US_Cities_List/nat_carmel.png,,,,,,,,,,,,,,,,,,,,,,,,,,,,
null,,black_cross(without_color),921893,blue,,,,,null,US_Cities_List/nat_westpalmbeach.png,US_Cities_List/nat_carmel.png,,,,,,,,,,,,,,,,,,,,,,,,,,,,
null,,rt_plussign_withcolor,922397,blue,,,,,null,US_Cities_List/nat_westpalmbeach.png,US_Cities_List/nat_carmel.png,,,,,,,,,,,,,,,,,,,,,,,,,,,,
1235.3999999761581,,rt_thecrossant_black,923475,black_plus_sign,,,,,49,,,0.8833333333333333,1,,,,,,,,,,,,,,,,,,,,,,,,,,
null,,color_black,923583,black_plus_sign,,,,,null,,,,,,,,,,,,,,,,,,,,,,,,,,,,,,
null,,learn_phase(without_color),926175,black_plus_sign,,,,,null,US_Cities_List/mm_leesburg.png,US_Cities_List/mm_gatlinburg.png,,,,,,,,,,,,,,,,,,,,,,,,,,,,
null,,black_cross(without_color),926840,blue,,,,,null,US_Cities_List/mm_leesburg.png,US_Cities_List/mm_gatlinburg.png,,,,,,,,,,,,,,,,,,,,,,,,,,,,
null,,rt_plussign_withcolor,927347,blue,,,,,null,US_Cities_List/mm_leesburg.png,US_Cities_List/mm_gatlinburg.png,,,,,,,,,,,,,,,,,,,,,,,,,,,,
1195.6000000238419,,rt_thecrossant_black,928705,black_plus_sign,,,,,49,,,0.8842975206611571,1,,,,,,,,,,,,,,,,,,,,,,,,,,
null,,color_black,928813,black_plus_sign,,,,,null,,,,,,,,,,,,,,,,,,,,,,,,,,,,,,
null,,learn_phase(without_color),931362,black_plus_sign,,,,,null,US_Cities_List/mm_peoria.png,US_Cities_List/nat_westpalmbeach.png,,,,,,,,,,,,,,,,,,,,,,,,,,,,
null,,black_cross(without_color),932130,green,,,,,null,US_Cities_List/mm_peoria.png,US_Cities_List/nat_westpalmbeach.png,,,,,,,,,,,,,,,,,,,,,,,,,,,,
null,,rt_plussign_withcolor,932640,green,,,,,null,US_Cities_List/mm_peoria.png,US_Cities_List/nat_westpalmbeach.png,,,,,,,,,,,,,,,,,,,,,,,,,,,,
854.3000000119209,,rt_thecrossant_black,933883,black_plus_sign,,,,,50,,,0.8852459016393442,1,,,,,,,,,,,,,,,,,,,,,,,,,,
null,,color_black,933987,black_plus_sign,,,,,null,,,,,,,,,,,,,,,,,,,,,,,,,,,,,,
null,,learn_phase(without_color),936563,black_plus_sign,,,,,null,US_Cities_List/mm_leesburg.png,US_Cities_List/mm_boulder.png,,,,,,,,,,,,,,,,,,,,,,,,,,,,
null,,black_cross(without_color),936988,blue,,,,,null,US_Cities_List/mm_leesburg.png,US_Cities_List/mm_boulder.png,,,,,,,,,,,,,,,,,,,,,,,,,,,,
null,,rt_plussign_withcolor,937502,blue,,,,,null,US_Cities_List/mm_leesburg.png,US_Cities_List/mm_boulder.png,,,,,,,,,,,,,,,,,,,,,,,,,,,,
1084.800000011921,,rt_thecrossant_black,939094,black_plus_sign,,,,,49,,,0.8861788617886179,1,,,,,,,,,,,,,,,,,,,,,,,,,,
null,,color_black,939204,black_plus_sign,,,,,null,,,,,,,,,,,,,,,,,,,,,,,,,,,,,,
null,,learn_phase(without_color),941779,black_plus_sign,,,,,null,US_Cities_List/mm_huntsville.png,US_Cities_List/nat_racine.png,,,,,,,,,,,,,,,,,,,,,,,,,,,,
null,,black_cross(without_color),942359,blue,,,,,null,US_Cities_List/mm_huntsville.png,US_Cities_List/nat_racine.png,,,,,,,,,,,,,,,,,,,,,,,,,,,,
null,,rt_plussign_withcolor,942870,blue,,,,,null,US_Cities_List/mm_huntsville.png,US_Cities_List/nat_racine.png,,,,,,,,,,,,,,,,,,,,,,,,,,,,
618.1999999880791,,rt_thecrossant_black,944313,black_plus_sign,,,,,49,,,0.8870967741935484,1,,,,,,,,,,,,,,,,,,,,,,,,,,
null,,color_black,944433,black_plus_sign,,,,,null,,,,,,,,,,,,,,,,,,,,,,,,,,,,,,
null,,learn_phase(without_color),946976,black_plus_sign,,,,,null,US_Cities_List/mm_hotsprings.png,US_Cities_List/nat_carmel.png,,,,,,,,,,,,,,,,,,,,,,,,,,,,
null,,black_cross(without_color),947642,blue,,,,,null,US_Cities_List/mm_hotsprings.png,US_Cities_List/nat_carmel.png,,,,,,,,,,,,,,,,,,,,,,,,,,,,
null,,rt_plussign_withcolor,948163,blue,,,,,null,US_Cities_List/mm_hotsprings.png,US_Cities_List/nat_carmel.png,,,,,,,,,,,,,,,,,,,,,,,,,,,,
746.3000000119209,,rt_thecrossant_black,949518,black_plus_sign,,,,,49,,,0.888,1,,,,,,,,,,,,,,,,,,,,,,,,,,
null,,color_black,949633,black_plus_sign,,,,,null,,,,,,,,,,,,,,,,,,,,,,,,,,,,,,
45580.09999996424,,intro_1,995219,instruct,,,0,,,,,,,,,,,,,,,,,,,,,,,,,,,,,,,,
22959.400000035763,,intro_2,1018182,instruct,,,1,Next,,,,,,,,,,,,,,,,,,,,,,,,,,,,,,,
null,,directmemory_phase,1024772,../static/images/US_Cities_List/nat_cornwall.png,,,,,null,,,0,0,../static/images/US_Cities_List/nat_racine.png,../static/images/US_Cities_List/mm_gatlinburg.png,../static/images/US_Cities_List/nat_westpalmbeach.png,../static/images/US_Cities_List/nat_westpalmbeach.png,../static/images/US_Cities_List/mm_gatlinburg.png,../static/images/US_Cities_List/nat_racine.png,0,,,,,,,,,,,,,,,,,,,
null,,html-keyboard-response,1025796,<p></p>,,,,,null,,,,,,,,,,,,,,,,,,,,,,,,,,,,,,
1981.5,,directmemory_phase,1027872,../static/images/US_Cities_List/mm_hotsprings.png,,,,,51,,,0.5,1,../static/images/US_Cities_List/mm_huntsville.png,../static/images/US_Cities_List/nat_newhope.png,../static/images/US_Cities_List/nat_carmel.png,../static/images/US_Cities_List/nat_carmel.png,../static/images/US_Cities_List/nat_newhope.png,../static/images/US_Cities_List/mm_huntsville.png,1,,,,,,,,,,,,,,,,,,,
null,,html-keyboard-response,1028905,<p></p>,,,,,null,,,,,,,,,,,,,,,,,,,,,,,,,,,,,,
1249.4000000357628,,directmemory_phase,1030263,../static/images/US_Cities_List/mm_huntsville.png,,,,,50,,,0.3333333333333333,0,../static/images/US_Cities_List/nat_racine.png,../static/images/US_Cities_List/mm_gatlinburg.png,../static/images/US_Cities_List/nat_westpalmbeach.png,../static/images/US_Cities_List/nat_racine.png,../static/images/US_Cities_List/nat_westpalmbeach.png,../static/images/US_Cities_List/mm_gatlinburg.png,0.5,closer,,,,,,,,,,,,,,,,,,
null,,html-keyboard-response,1031284,<p></p>,,,,,null,,,,,,,,,,,,,,,,,,,,,,,,,,,,,,
2787.899999976158,,directmemory_phase,1034168,../static/images/US_Cities_List/mm_leesburg.png,,,,,51,,,0.5,1,../static/images/US_Cities_List/nat_shreveport.png,../static/images/US_Cities_List/nat_carmel.png,../static/images/US_Cities_List/mm_hotsprings.png,../static/images/US_Cities_List/mm_hotsprings.png,../static/images/US_Cities_List/nat_carmel.png,../static/images/US_Cities_List/nat_shreveport.png,1,,,,,,,,,,,,,,,,,,,
null,,html-keyboard-response,1035175,<p></p>,,,,,null,,,,,,,,,,,,,,,,,,,,,,,,,,,,,,
2060.399999976158,,directmemory_phase,1037325,../static/images/US_Cities_List/mm_peoria.png,,,,,49,,,0.4,0,../static/images/US_Cities_List/mm_gatlinburg.png,../static/images/US_Cities_List/nat_cornwall.png,../static/images/US_Cities_List/mm_huntsville.png,../static/images/US_Cities_List/mm_huntsville.png,../static/images/US_Cities_List/nat_cornwall.png,../static/images/US_Cities_List/mm_gatlinburg.png,0.5,closer,,,,,,,,,,,,,,,,,,
null,,html-keyboard-response,1038345,<p></p>,,,,,null,,,,,,,,,,,,,,,,,,,,,,,,,,,,,,
2535.800000011921,,directmemory_phase,1040976,../static/images/US_Cities_List/mm_gatlinburg.png,,,,,50,,,0.3333333333333333,0,../static/images/US_Cities_List/mm_peoria.png,../static/images/US_Cities_List/nat_carmel.png,../static/images/US_Cities_List/mm_leesburg.png,../static/images/US_Cities_List/mm_leesburg.png,../static/images/US_Cities_List/nat_carmel.png,../static/images/US_Cities_List/mm_peoria.png,0.5,closer,,,,,,,,,,,,,,,,,,
null,,html-keyboard-response,1041993,<p></p>,,,,,null,,,,,,,,,,,,,,,,,,,,,,,,,,,,,,
2744.5,,directmemory_phase,1044836,../static/images/US_Cities_List/mm_hotsprings.png,,,,,51,,,0.2857142857142857,0,../static/images/US_Cities_List/mm_hanover.png,../static/images/US_Cities_List/nat_cornwall.png,../static/images/US_Cities_List/mm_peoria.png,../static/images/US_Cities_List/nat_cornwall.png,../static/images/US_Cities_List/mm_hanover.png,../static/images/US_Cities_List/mm_peoria.png,0.5,closer,,,,,,,,,,,,,,,,,,
null,,html-keyboard-response,1045861,<p></p>,,,,,null,,,,,,,,,,,,,,,,,,,,,,,,,,,,,,
993.1999999880791,,directmemory_phase,1046911,../static/images/US_Cities_List/mm_hanover.png,,,,,50,,,0.375,1,../static/images/US_Cities_List/mm_hotsprings.png,../static/images/US_Cities_List/mm_gatlinburg.png,../static/images/US_Cities_List/nat_cornwall.png,../static/images/US_Cities_List/mm_gatlinburg.png,../static/images/US_Cities_List/mm_hotsprings.png,../static/images/US_Cities_List/nat_cornwall.png,1,,,,,,,,,,,,,,,,,,,
null,,html-keyboard-response,1047928,<p></p>,,,,,null,,,,,,,,,,,,,,,,,,,,,,,,,,,,,,
1722.9000000357628,,directmemory_phase,1049758,../static/images/US_Cities_List/nat_westpalmbeach.png,,,,,49,,,0.4444444444444444,1,../static/images/US_Cities_List/nat_cornwall.png,../static/images/US_Cities_List/mm_hanover.png,../static/images/US_Cities_List/nat_shreveport.png,../static/images/US_Cities_List/nat_cornwall.png,../static/images/US_Cities_List/nat_shreveport.png,../static/images/US_Cities_List/mm_hanover.png,1,,,,,,,,,,,,,,,,,,,
null,,html-keyboard-response,1050784,<p></p>,,,,,null,,,,,,,,,,,,,,,,,,,,,,,,,,,,,,
1793.699999988079,,directmemory_phase,1052665,../static/images/US_Cities_List/mm_huntsville.png,,,,,50,,,0.4,0,../static/images/US_Cities_List/nat_newhope.png,../static/images/US_Cities_List/nat_cornwall.png,../static/images/US_Cities_List/nat_westpalmbeach.png,../static/images/US_Cities_List/nat_newhope.png,../static/images/US_Cities_List/nat_westpalmbeach.png,../static/images/US_Cities_List/nat_cornwall.png,0.5,closer,,,,,,,,,,,,,,,,,,
null,,html-keyboard-response,1053689,<p></p>,,,,,null,,,,,,,,,,,,,,,,,,,,,,,,,,,,,,
1405.800000011921,,directmemory_phase,1055180,../static/images/US_Cities_List/mm_hotsprings.png,,,,,51,,,0.45454545454545453,1,../static/images/US_Cities_List/mm_huntsville.png,../static/images/US_Cities_List/nat_newhope.png,../static/images/US_Cities_List/mm_gatlinburg.png,../static/images/US_Cities_List/mm_gatlinburg.png,../static/images/US_Cities_List/nat_newhope.png,../static/images/US_Cities_List/mm_huntsville.png,1,,,,,,,,,,,,,,,,,,,
null,,html-keyboard-response,1056193,<p></p>,,,,,null,,,,,,,,,,,,,,,,,,,,,,,,,,,,,,
3185.600000023842,,directmemory_phase,1059459,../static/images/US_Cities_List/nat_carmel.png,,,,,51,,,0.4166666666666667,0,../static/images/US_Cities_List/nat_newhope.png,../static/images/US_Cities_List/nat_shreveport.png,../static/images/US_Cities_List/mm_huntsville.png,../static/images/US_Cities_List/nat_newhope.png,../static/images/US_Cities_List/mm_huntsville.png,../static/images/US_Cities_List/nat_shreveport.png,0.5,closer,,,,,,,,,,,,,,,,,,
null,,html-keyboard-response,1060477,<p></p>,,,,,null,,,,,,,,,,,,,,,,,,,,,,,,,,,,,,
1324.199999988079,,directmemory_phase,1061891,../static/images/US_Cities_List/nat_shreveport.png,,,,,50,,,0.46153846153846156,1,../static/images/US_Cities_List/nat_westpalmbeach.png,../static/images/US_Cities_List/mm_peoria.png,../static/images/US_Cities_List/nat_newhope.png,../static/images/US_Cities_List/mm_peoria.png,../static/images/US_Cities_List/nat_westpalmbeach.png,../static/images/US_Cities_List/nat_newhope.png,1,,,,,,,,,,,,,,,,,,,
null,,html-keyboard-response,1062904,<p></p>,,,,,null,,,,,,,,,,,,,,,,,,,,,,,,,,,,,,
1775.6000000238419,,directmemory_phase,1064782,../static/images/US_Cities_List/nat_carmel.png,,,,,49,,,0.42857142857142855,0,../static/images/US_Cities_List/mm_hanover.png,../static/images/US_Cities_List/mm_huntsville.png,../static/images/US_Cities_List/nat_westpalmbeach.png,../static/images/US_Cities_List/nat_westpalmbeach.png,../static/images/US_Cities_List/mm_huntsville.png,../static/images/US_Cities_List/mm_hanover.png,0.5,closer,,,,,,,,,,,,,,,,,,
null,,html-keyboard-response,1065804,<p></p>,,,,,null,,,,,,,,,,,,,,,,,,,,,,,,,,,,,,
2624.2000000476837,,directmemory_phase,1068522,../static/images/US_Cities_List/nat_cornwall.png,,,,,50,,,0.4,0,../static/images/US_Cities_List/nat_newhope.png,../static/images/US_Cities_List/mm_peoria.png,../static/images/US_Cities_List/mm_leesburg.png,../static/images/US_Cities_List/mm_leesburg.png,../static/images/US_Cities_List/mm_peoria.png,../static/images/US_Cities_List/nat_newhope.png,0.5,closer,,,,,,,,,,,,,,,,,,
null,,html-keyboard-response,1069540,<p></p>,,,,,null,,,,,,,,,,,,,,,,,,,,,,,,,,,,,,
1371.8999999761581,,directmemory_phase,1071010,../static/images/US_Cities_List/mm_huntsville.png,,,,,49,,,0.375,0,../static/images/US_Cities_List/mm_gatlinburg.png,../static/images/US_Cities_List/nat_shreveport.png,../static/images/US_Cities_List/mm_peoria.png,../static/images/US_Cities_List/mm_peoria.png,../static/images/US_Cities_List/nat_shreveport.png,../static/images/US_Cities_List/mm_gatlinburg.png,0.5,closer,,,,,,,,,,,,,,,,,,
null,,html-keyboard-response,1072030,<p></p>,,,,,null,,,,,,,,,,,,,,,,,,,,,,,,,,,,,,
1624.6000000238419,,directmemory_phase,1073764,../static/images/US_Cities_List/mm_hotsprings.png,,,,,50,,,0.35294117647058826,0,../static/images/US_Cities_List/mm_leesburg.png,../static/images/US_Cities_List/mm_peoria.png,../static/images/US_Cities_List/nat_newhope.png,../static/images/US_Cities_List/mm_leesburg.png,../static/images/US_Cities_List/nat_newhope.png,../static/images/US_Cities_List/mm_peoria.png,0.5,closer,,,,,,,,,,,,,,,,,,
null,,html-keyboard-response,1074773,<p></p>,,,,,null,,,,,,,,,,,,,,,,,,,,,,,,,,,,,,
2547.699999988079,,directmemory_phase,1077469,../static/images/US_Cities_List/nat_westpalmbeach.png,,,,,51,,,0.3888888888888889,1,../static/images/US_Cities_List/mm_boulder.png,../static/images/US_Cities_List/nat_newhope.png,../static/images/US_Cities_List/mm_peoria.png,../static/images/US_Cities_List/mm_peoria.png,../static/images/US_Cities_List/nat_newhope.png,../static/images/US_Cities_List/mm_boulder.png,1,,,,,,,,,,,,,,,,,,,
null,,html-keyboard-response,1078487,<p></p>,,,,,null,,,,,,,,,,,,,,,,,,,,,,,,,,,,,,
1689.8999999761581,,directmemory_phase,1080223,../static/images/US_Cities_List/nat_newhope.png,,,,,49,,,0.3684210526315789,0,../static/images/US_Cities_List/mm_peoria.png,../static/images/US_Cities_List/mm_huntsville.png,../static/images/US_Cities_List/mm_boulder.png,../static/images/US_Cities_List/mm_huntsville.png,../static/images/US_Cities_List/mm_peoria.png,../static/images/US_Cities_List/mm_boulder.png,0.5,closer,,,,,,,,,,,,,,,,,,
null,,html-keyboard-response,1081241,<p></p>,,,,,null,,,,,,,,,,,,,,,,,,,,,,,,,,,,,,
2226.900000035763,,directmemory_phase,1083574,../static/images/US_Cities_List/mm_peoria.png,,,,,49,,,0.35,0,../static/images/US_Cities_List/mm_boulder.png,../static/images/US_Cities_List/nat_racine.png,../static/images/US_Cities_List/nat_shreveport.png,../static/images/US_Cities_List/nat_shreveport.png,../static/images/US_Cities_List/nat_racine.png,../static/images/US_Cities_List/mm_boulder.png,0.5,closer,,,,,,,,,,,,,,,,,,
null,,html-keyboard-response,1084581,<p></p>,,,,,null,,,,,,,,,,,,,,,,,,,,,,,,,,,,,,
2675.199999988079,,directmemory_phase,1087315,../static/images/US_Cities_List/mm_leesburg.png,,,,,51,,,0.3333333333333333,0,../static/images/US_Cities_List/mm_boulder.png,../static/images/US_Cities_List/mm_huntsville.png,../static/images/US_Cities_List/mm_hanover.png,../static/images/US_Cities_List/mm_boulder.png,../static/images/US_Cities_List/mm_hanover.png,../static/images/US_Cities_List/mm_huntsville.png,0.5,closer,,,,,,,,,,,,,,,,,,
null,,html-keyboard-response,1088323,<p></p>,,,,,null,,,,,,,,,,,,,,,,,,,,,,,,,,,,,,
2396.199999988079,,directmemory_phase,1090769,../static/images/US_Cities_List/mm_gatlinburg.png,,,,,49,,,0.36363636363636365,1,../static/images/US_Cities_List/mm_hotsprings.png,../static/images/US_Cities_List/nat_newhope.png,../static/images/US_Cities_List/nat_carmel.png,../static/images/US_Cities_List/mm_hotsprings.png,../static/images/US_Cities_List/nat_carmel.png,../static/images/US_Cities_List/nat_newhope.png,1,,,,,,,,,,,,,,,,,,,
null,,html-keyboard-response,1091787,<p></p>,,,,,null,,,,,,,,,,,,,,,,,,,,,,,,,,,,,,
1277.6000000238419,,directmemory_phase,1093162,../static/images/US_Cities_List/mm_leesburg.png,,,,,51,,,0.34782608695652173,0,../static/images/US_Cities_List/nat_westpalmbeach.png,../static/images/US_Cities_List/nat_cornwall.png,../static/images/US_Cities_List/mm_peoria.png,../static/images/US_Cities_List/nat_cornwall.png,../static/images/US_Cities_List/nat_westpalmbeach.png,../static/images/US_Cities_List/mm_peoria.png,0.5,closer,,,,,,,,,,,,,,,,,,
null,,html-keyboard-response,1094184,<p></p>,,,,,null,,,,,,,,,,,,,,,,,,,,,,,,,,,,,,
1376.3999999761581,,directmemory_phase,1095682,../static/images/US_Cities_List/mm_gatlinburg.png,,,,,50,,,0.3333333333333333,0,../static/images/US_Cities_List/nat_newhope.png,../static/images/US_Cities_List/nat_cornwall.png,../static/images/US_Cities_List/mm_hanover.png,../static/images/US_Cities_List/mm_hanover.png,../static/images/US_Cities_List/nat_cornwall.png,../static/images/US_Cities_List/nat_newhope.png,0.5,closer,,,,,,,,,,,,,,,,,,
