rt,responses,trial_type,time_elapsed,stimulus,cities,city_images,button_pressed,response,key_press,stimulus_left,stimulus_right,accuracy,cumulative_accuracy,stimulus_down_left,stimulus_down_mid,stimulus_down_right,stimulus_correct,stimulus_short,stimulus_far,weighted_accuracy,missedtrial,condition,specific_pairs,imgL_ID,imgR_ID,linedress,linedressed,image_position,unknowncity,testedstates,currentstate,otherstate,problems,smooth,distraction,strategies,easier,similar,comments
6729.399999976158,{worker_id:6826aa7ffe3641d3eba2c4bd},id_enter,6737,intro,Huntsville; Cornwall; Racine; Leesburg; Gatlinburg; West Palm Beach; Peoria; Shreveport; Carmel; Boulder; Hot Springs; New Hope; Hanover,US_Cities_List/nat_huntsville.png; US_Cities_List/nat_cornwall.png; US_Cities_List/nat_racine.png; US_Cities_List/nat_leesburg.png; US_Cities_List/nat_gatlinburg.png; US_Cities_List/mm_westpalmbeach.png; US_Cities_List/nat_peoria.png; US_Cities_List/mm_shreveport.png; US_Cities_List/mm_carmel.png; US_Cities_List/mm_boulder.png; US_Cities_List/mm_hotsprings.png; US_Cities_List/nat_newhope.png; US_Cities_List/mm_hanover.png,,,,,,,,,,,,,,,,,,,,,,,,,,,,,,,,,
19033.700000047684,,fullscreen,25791,make_fullscreen,,,0,,,,,,,,,,,,,,,,,,,,,,,,,,,,,,,,
25689.199999928474,,intro_1,51488,instruct,,,0,,,,,,,,,,,,,,,,,,,,,,,,,,,,,,,,
19657.100000023842,,intro_2,71152,instruct,,,1,Next,,,,,,,,,,,,,,,,,,,,,,,,,,,,,,,
19445.100000023842,,intro_3,90602,instruct,,,1,Next,,,,,,,,,,,,,,,,,,,,,,,,,,,,,,,
25122.399999976158,,intro_4,115728,instruct,,,1,Next,,,,,,,,,,,,,,,,,,,,,,,,,,,,,,,
10579.5,,intro_5,126310,instruct,,,1,Next,,,,,,,,,,,,,,,,,,,,,,,,,,,,,,,
48304.5,,intro_6,174618,instruct,,,1,Next,,,,,,,,,,,,,,,,,,,,,,,,,,,,,,,
null,,prac_atten_color_black,175072,black_plus_sign,,,,,null,,,,,,,,,,,,,,,,,,,,,,,,,,,,,,
null,,prac_atten_color,176038,prac_stop_color,,,,,null,,,,,,,,,,,,,,,,,,,,,,,,,,,,,,
14.5,,prac_atten_color_black,178049,black_plus_sign,,,,,49,,,,,,,,,,,,,,,,,,,,,,,,,,,,,,
null,,prac_atten_color_black,178516,black_plus_sign,,,,,null,,,,,,,,,,,,,,,,,,,,,,,,,,,,,,
664.3999999761581,,prac_atten_color,179259,prac_stop_color,,,,,50,,,,,,,,,,,,,,,,,,,,,,,,,,,,,,
null,,prac_atten_color_black,181267,black_plus_sign,,,,,null,,,,,,,,,,,,,,,,,,,,,,,,,,,,,,
null,,prac_atten_color_black,181944,black_plus_sign,,,,,null,,,,,,,,,,,,,,,,,,,,,,,,,,,,,,
419.59999990463257,,prac_atten_color,182677,prac_stop_color,,,,,50,,,,,,,,,,,,,,,,,,,,,,,,,,,,,,
null,,prac_atten_color_black,184681,black_plus_sign,,,,,null,,,,,,,,,,,,,,,,,,,,,,,,,,,,,,
null,,prac_atten_color_black,185376,black_plus_sign,,,,,null,,,,,,,,,,,,,,,,,,,,,,,,,,,,,,
524.5,,prac_atten_color,186039,prac_stop_color,,,,,49,,,,,,,,,,,,,,,,,,,,,,,,,,,,,,
null,,prac_atten_color_black,188047,black_plus_sign,,,,,null,,,,,,,,,,,,,,,,,,,,,,,,,,,,,,
null,,prac_atten_color_black,188805,black_plus_sign,,,,,null,,,,,,,,,,,,,,,,,,,,,,,,,,,,,,
437.10000002384186,,prac_atten_color,189247,prac_stop_color,,,,,50,,,,,,,,,,,,,,,,,,,,,,,,,,,,,,
null,,prac_atten_color_black,191250,black_plus_sign,,,,,null,,,,,,,,,,,,,,,,,,,,,,,,,,,,,,
null,,prac_atten_color_black,192229,black_plus_sign,,,,,null,,,,,,,,,,,,,,,,,,,,,,,,,,,,,,
null,,prac_atten_color,192653,prac_stop_color,,,,,null,,,,,,,,,,,,,,,,,,,,,,,,,,,,,,
69.39999997615814,,prac_atten_color_black,194657,black_plus_sign,,,,,50,,,,,,,,,,,,,,,,,,,,,,,,,,,,,,
null,,prac_atten_color_black,195656,black_plus_sign,,,,,null,,,,,,,,,,,,,,,,,,,,,,,,,,,,,,
479.09999990463257,,prac_atten_color,196550,prac_stop_color,,,,,49,,,,,,,,,,,,,,,,,,,,,,,,,,,,,,
null,,prac_atten_color_black,198554,black_plus_sign,,,,,null,,,,,,,,,,,,,,,,,,,,,,,,,,,,,,
null,,prac_atten_color_black,199078,black_plus_sign,,,,,null,,,,,,,,,,,,,,,,,,,,,,,,,,,,,,
522.6000000238419,,prac_atten_color,199730,prac_stop_color,,,,,50,,,,,,,,,,,,,,,,,,,,,,,,,,,,,,
null,,prac_atten_color_black,201740,black_plus_sign,,,,,null,,,,,,,,,,,,,,,,,,,,,,,,,,,,,,
null,,prac_atten_color_black,202509,black_plus_sign,,,,,null,,,,,,,,,,,,,,,,,,,,,,,,,,,,,,
696.1999999284744,,prac_atten_color,203577,prac_stop_color,,,,,49,,,,,,,,,,,,,,,,,,,,,,,,,,,,,,
null,,prac_atten_color_black,205586,black_plus_sign,,,,,null,,,,,,,,,,,,,,,,,,,,,,,,,,,,,,
null,,prac_atten_color_black,205945,black_plus_sign,,,,,null,,,,,,,,,,,,,,,,,,,,,,,,,,,,,,
554.6999999284744,,prac_atten_color,206599,prac_stop_color,,,,,49,,,,,,,,,,,,,,,,,,,,,,,,,,,,,,
null,,prac_atten_color_black,208608,black_plus_sign,,,,,null,,,,,,,,,,,,,,,,,,,,,,,,,,,,,,
9264.100000023842,,attentioncheck_feedback,217878,cross_check_feedback,,,0,,,,,,,,,,,,,,,,,,,,,,,,,,,,,,,,
26922.5,,last_instruct,244802,instruct,,,,,32,,,,,,,,,,,,,,,,,,,,,,,,,,,,,,
null,,learn_phase(without_color),246879,black_plus_sign,,,,,null,US_Cities_List/nat_peoria.png,US_Cities_List/mm_carmel.png,,,,,,,,,,,,,,,,,,,,,,,,,,,,
null,,black_cross(without_color),247843,green,,,,,null,US_Cities_List/nat_peoria.png,US_Cities_List/mm_carmel.png,,,,,,,,,,,,,,,,,,,,,,,,,,,,
null,,rt_plussign_withcolor,248359,green,,,,,null,US_Cities_List/nat_peoria.png,US_Cities_List/mm_carmel.png,,,,,,,,,,,,,,,,,,,,,,,,,,,,
1273.6000000238419,,rt_thecrossant_black,249425,black_plus_sign,,,,,49,,,0,0,,,,,,,,,,,,,,,,,,,,,,,,,,
null,,color_black,249533,black_plus_sign,,,,,null,,,,,,,,,,,,,,,,,,,,,,,,,,,,,,
null,,learn_phase(without_color),252101,black_plus_sign,,,,,null,US_Cities_List/mm_shreveport.png,US_Cities_List/mm_boulder.png,,,,,,,,,,,,,,,,,,,,,,,,,,,,
null,,black_cross(without_color),253032,blue,,,,,null,US_Cities_List/mm_shreveport.png,US_Cities_List/mm_boulder.png,,,,,,,,,,,,,,,,,,,,,,,,,,,,
406.60000002384186,,rt_plussign_withcolor,253539,blue,,,,,50,US_Cities_List/mm_shreveport.png,US_Cities_List/mm_boulder.png,,,,,,,,,,,,,,,,,,,,,,,,,,,,
null,,rt_thecrossant_black,254626,black_plus_sign,,,,,49,,,0,0,,,,,,,,,,,,,,,,,,,,,,,,,,
null,,warning_page,257631,warning,,,,,null,,,,,,,,,,,,,,,,,,,,,,,,,,,,,,
null,,color_black,257748,black_plus_sign,,,,,null,,,,,,,,,,,,,,,,,,,,,,,,,,,,,,
null,,learn_phase(without_color),260346,black_plus_sign,,,,,null,US_Cities_List/nat_leesburg.png,US_Cities_List/nat_newhope.png,,,,,,,,,,,,,,,,,,,,,,,,,,,,
null,,black_cross(without_color),261223,blue,,,,,null,US_Cities_List/nat_leesburg.png,US_Cities_List/nat_newhope.png,,,,,,,,,,,,,,,,,,,,,,,,,,,,
null,,rt_plussign_withcolor,261727,blue,,,,,null,US_Cities_List/nat_leesburg.png,US_Cities_List/nat_newhope.png,,,,,,,,,,,,,,,,,,,,,,,,,,,,
1122.8999999761581,,rt_thecrossant_black,262870,black_plus_sign,,,,,49,,,1,0.3333333333333333,,,,,,,,,,,,,,,,,,,,,,,,,,
null,,color_black,262979,black_plus_sign,,,,,null,,,,,,,,,,,,,,,,,,,,,,,,,,,,,,
null,,learn_phase(without_color),265565,black_plus_sign,,,,,null,US_Cities_List/mm_shreveport.png,US_Cities_List/mm_carmel.png,,,,,,,,,,,,,,,,,,,,,,,,,,,,
null,,black_cross(without_color),266559,green,,,,,null,US_Cities_List/mm_shreveport.png,US_Cities_List/mm_carmel.png,,,,,,,,,,,,,,,,,,,,,,,,,,,,
447,,rt_plussign_withcolor,267074,green,,,,,50,US_Cities_List/mm_shreveport.png,US_Cities_List/mm_carmel.png,,,,,,,,,,,,,,,,,,,,,,,,,,,,
null,,rt_thecrossant_black,268099,black_plus_sign,,,,,null,,,1,0.5,,,,,,,,,,,,,,,,,,,,,,,,,,
null,,color_black,268207,black_plus_sign,,,,,null,,,,,,,,,,,,,,,,,,,,,,,,,,,,,,
null,,learn_phase(without_color),270781,black_plus_sign,,,,,null,US_Cities_List/mm_carmel.png,US_Cities_List/mm_hotsprings.png,,,,,,,,,,,,,,,,,,,,,,,,,,,,
null,,black_cross(without_color),271544,blue,,,,,null,US_Cities_List/mm_carmel.png,US_Cities_List/mm_hotsprings.png,,,,,,,,,,,,,,,,,,,,,,,,,,,,
null,,rt_plussign_withcolor,272059,blue,,,,,null,US_Cities_List/mm_carmel.png,US_Cities_List/mm_hotsprings.png,,,,,,,,,,,,,,,,,,,,,,,,,,,,
1218,,rt_thecrossant_black,273326,black_plus_sign,,,,,49,,,1,0.6,,,,,,,,,,,,,,,,,,,,,,,,,,
null,,color_black,273434,black_plus_sign,,,,,null,,,,,,,,,,,,,,,,,,,,,,,,,,,,,,
null,,learn_phase(without_color),275982,black_plus_sign,,,,,null,US_Cities_List/nat_huntsville.png,US_Cities_List/nat_cornwall.png,,,,,,,,,,,,,,,,,,,,,,,,,,,,
null,,black_cross(without_color),276470,blue,,,,,null,US_Cities_List/nat_huntsville.png,US_Cities_List/nat_cornwall.png,,,,,,,,,,,,,,,,,,,,,,,,,,,,
null,,rt_plussign_withcolor,276973,blue,,,,,null,US_Cities_List/nat_huntsville.png,US_Cities_List/nat_cornwall.png,,,,,,,,,,,,,,,,,,,,,,,,,,,,
905.7000000476837,,rt_thecrossant_black,278498,black_plus_sign,,,,,49,,,1,0.6666666666666666,,,,,,,,,,,,,,,,,,,,,,,,,,
null,,color_black,278605,black_plus_sign,,,,,null,,,,,,,,,,,,,,,,,,,,,,,,,,,,,,
null,,learn_phase(without_color),281184,black_plus_sign,,,,,null,US_Cities_List/mm_shreveport.png,US_Cities_List/mm_boulder.png,,,,,,,,,,,,,,,,,,,,,,,,,,,,
null,,black_cross(without_color),281646,green,,,,,null,US_Cities_List/mm_shreveport.png,US_Cities_List/mm_boulder.png,,,,,,,,,,,,,,,,,,,,,,,,,,,,
null,,rt_plussign_withcolor,282158,green,,,,,null,US_Cities_List/mm_shreveport.png,US_Cities_List/mm_boulder.png,,,,,,,,,,,,,,,,,,,,,,,,,,,,
776.2999999523163,,rt_thecrossant_black,283718,black_plus_sign,,,,,50,,,1,0.7142857142857143,,,,,,,,,,,,,,,,,,,,,,,,,,
null,,color_black,283824,black_plus_sign,,,,,null,,,,,,,,,,,,,,,,,,,,,,,,,,,,,,
null,,learn_phase(without_color),286414,black_plus_sign,,,,,null,US_Cities_List/mm_carmel.png,US_Cities_List/mm_hotsprings.png,,,,,,,,,,,,,,,,,,,,,,,,,,,,
null,,black_cross(without_color),286839,green,,,,,null,US_Cities_List/mm_carmel.png,US_Cities_List/mm_hotsprings.png,,,,,,,,,,,,,,,,,,,,,,,,,,,,
null,,rt_plussign_withcolor,287342,green,,,,,null,US_Cities_List/mm_carmel.png,US_Cities_List/mm_hotsprings.png,,,,,,,,,,,,,,,,,,,,,,,,,,,,
752.7999999523163,,rt_thecrossant_black,288947,black_plus_sign,,,,,50,,,1,0.75,,,,,,,,,,,,,,,,,,,,,,,,,,
null,,color_black,289063,black_plus_sign,,,,,null,,,,,,,,,,,,,,,,,,,,,,,,,,,,,,
null,,learn_phase(without_color),291627,black_plus_sign,,,,,null,US_Cities_List/nat_leesburg.png,US_Cities_List/nat_newhope.png,,,,,,,,,,,,,,,,,,,,,,,,,,,,
null,,black_cross(without_color),292060,green,,,,,null,US_Cities_List/nat_leesburg.png,US_Cities_List/nat_newhope.png,,,,,,,,,,,,,,,,,,,,,,,,,,,,
396.3000000715256,,rt_plussign_withcolor,292568,green,,,,,49,US_Cities_List/nat_leesburg.png,US_Cities_List/nat_newhope.png,,,,,,,,,,,,,,,,,,,,,,,,,,,,
null,,rt_thecrossant_black,294157,black_plus_sign,,,,,null,,,0,0.6666666666666666,,,,,,,,,,,,,,,,,,,,,,,,,,
null,,color_black,294264,black_plus_sign,,,,,null,,,,,,,,,,,,,,,,,,,,,,,,,,,,,,
null,,learn_phase(without_color),296843,black_plus_sign,,,,,null,US_Cities_List/mm_westpalmbeach.png,US_Cities_List/nat_peoria.png,,,,,,,,,,,,,,,,,,,,,,,,,,,,
null,,black_cross(without_color),297806,blue,,,,,null,US_Cities_List/mm_westpalmbeach.png,US_Cities_List/nat_peoria.png,,,,,,,,,,,,,,,,,,,,,,,,,,,,
470.5,,rt_plussign_withcolor,298315,blue,,,,,49,US_Cities_List/mm_westpalmbeach.png,US_Cities_List/nat_peoria.png,,,,,,,,,,,,,,,,,,,,,,,,,,,,
null,,rt_thecrossant_black,299378,black_plus_sign,,,,,null,,,1,0.7,,,,,,,,,,,,,,,,,,,,,,,,,,
null,,color_black,299494,black_plus_sign,,,,,null,,,,,,,,,,,,,,,,,,,,,,,,,,,,,,
null,,learn_phase(without_color),302075,black_plus_sign,,,,,null,US_Cities_List/mm_carmel.png,US_Cities_List/mm_hotsprings.png,,,,,,,,,,,,,,,,,,,,,,,,,,,,
null,,black_cross(without_color),302956,green,,,,,null,US_Cities_List/mm_carmel.png,US_Cities_List/mm_hotsprings.png,,,,,,,,,,,,,,,,,,,,,,,,,,,,
355.6999999284744,,rt_plussign_withcolor,303468,green,,,,,50,US_Cities_List/mm_carmel.png,US_Cities_List/mm_hotsprings.png,,,,,,,,,,,,,,,,,,,,,,,,,,,,
null,,rt_thecrossant_black,304605,black_plus_sign,,,,,null,,,1,0.7272727272727273,,,,,,,,,,,,,,,,,,,,,,,,,,
null,,color_black,304711,black_plus_sign,,,,,null,,,,,,,,,,,,,,,,,,,,,,,,,,,,,,
null,,learn_phase(without_color),307292,black_plus_sign,,,,,null,US_Cities_List/nat_racine.png,US_Cities_List/mm_westpalmbeach.png,,,,,,,,,,,,,,,,,,,,,,,,,,,,
null,,black_cross(without_color),307785,blue,,,,,null,US_Cities_List/nat_racine.png,US_Cities_List/mm_westpalmbeach.png,,,,,,,,,,,,,,,,,,,,,,,,,,,,
null,,rt_plussign_withcolor,308294,blue,,,,,null,US_Cities_List/nat_racine.png,US_Cities_List/mm_westpalmbeach.png,,,,,,,,,,,,,,,,,,,,,,,,,,,,
1133.8000000715256,,rt_thecrossant_black,309810,black_plus_sign,,,,,49,,,1,0.75,,,,,,,,,,,,,,,,,,,,,,,,,,
null,,color_black,309926,black_plus_sign,,,,,null,,,,,,,,,,,,,,,,,,,,,,,,,,,,,,
null,,learn_phase(without_color),312489,black_plus_sign,,,,,null,US_Cities_List/nat_leesburg.png,US_Cities_List/nat_gatlinburg.png,,,,,,,,,,,,,,,,,,,,,,,,,,,,
null,,black_cross(without_color),313323,blue,,,,,null,US_Cities_List/nat_leesburg.png,US_Cities_List/nat_gatlinburg.png,,,,,,,,,,,,,,,,,,,,,,,,,,,,
null,,rt_plussign_withcolor,313830,blue,,,,,null,US_Cities_List/nat_leesburg.png,US_Cities_List/nat_gatlinburg.png,,,,,,,,,,,,,,,,,,,,,,,,,,,,
613.2999999523163,,rt_thecrossant_black,315018,black_plus_sign,,,,,49,,,1,0.7692307692307693,,,,,,,,,,,,,,,,,,,,,,,,,,
null,,color_black,315135,black_plus_sign,,,,,null,,,,,,,,,,,,,,,,,,,,,,,,,,,,,,
null,,learn_phase(without_color),317723,black_plus_sign,,,,,null,US_Cities_List/mm_westpalmbeach.png,US_Cities_List/nat_peoria.png,,,,,,,,,,,,,,,,,,,,,,,,,,,,
null,,black_cross(without_color),318393,blue,,,,,null,US_Cities_List/mm_westpalmbeach.png,US_Cities_List/nat_peoria.png,,,,,,,,,,,,,,,,,,,,,,,,,,,,
null,,rt_plussign_withcolor,318900,blue,,,,,null,US_Cities_List/mm_westpalmbeach.png,US_Cities_List/nat_peoria.png,,,,,,,,,,,,,,,,,,,,,,,,,,,,
962.3999999761581,,rt_thecrossant_black,320251,black_plus_sign,,,,,49,,,1,0.7857142857142857,,,,,,,,,,,,,,,,,,,,,,,,,,
null,,color_black,320359,black_plus_sign,,,,,null,,,,,,,,,,,,,,,,,,,,,,,,,,,,,,
null,,learn_phase(without_color),322931,black_plus_sign,,,,,null,US_Cities_List/nat_cornwall.png,US_Cities_List/nat_racine.png,,,,,,,,,,,,,,,,,,,,,,,,,,,,
null,,black_cross(without_color),323539,green,,,,,null,US_Cities_List/nat_cornwall.png,US_Cities_List/nat_racine.png,,,,,,,,,,,,,,,,,,,,,,,,,,,,
411.5,,rt_plussign_withcolor,324055,green,,,,,50,US_Cities_List/nat_cornwall.png,US_Cities_List/nat_racine.png,,,,,,,,,,,,,,,,,,,,,,,,,,,,
null,,rt_thecrossant_black,325461,black_plus_sign,,,,,null,,,1,0.8,,,,,,,,,,,,,,,,,,,,,,,,,,
null,,color_black,325568,black_plus_sign,,,,,null,,,,,,,,,,,,,,,,,,,,,,,,,,,,,,
null,,learn_phase(without_color),328142,black_plus_sign,,,,,null,US_Cities_List/mm_carmel.png,US_Cities_List/mm_hotsprings.png,,,,,,,,,,,,,,,,,,,,,,,,,,,,
null,,black_cross(without_color),329125,green,,,,,null,US_Cities_List/mm_carmel.png,US_Cities_List/mm_hotsprings.png,,,,,,,,,,,,,,,,,,,,,,,,,,,,
461.89999997615814,,rt_plussign_withcolor,329631,green,,,,,50,US_Cities_List/mm_carmel.png,US_Cities_List/mm_hotsprings.png,,,,,,,,,,,,,,,,,,,,,,,,,,,,
null,,rt_thecrossant_black,330665,black_plus_sign,,,,,null,,,1,0.8125,,,,,,,,,,,,,,,,,,,,,,,,,,
null,,color_black,330772,black_plus_sign,,,,,null,,,,,,,,,,,,,,,,,,,,,,,,,,,,,,
null,,learn_phase(without_color),333371,black_plus_sign,,,,,null,US_Cities_List/nat_racine.png,US_Cities_List/mm_westpalmbeach.png,,,,,,,,,,,,,,,,,,,,,,,,,,,,
null,,black_cross(without_color),333928,green,,,,,null,US_Cities_List/nat_racine.png,US_Cities_List/mm_westpalmbeach.png,,,,,,,,,,,,,,,,,,,,,,,,,,,,
482.8000000715256,,rt_plussign_withcolor,334437,green,,,,,50,US_Cities_List/nat_racine.png,US_Cities_List/mm_westpalmbeach.png,,,,,,,,,,,,,,,,,,,,,,,,,,,,
null,,rt_thecrossant_black,335901,black_plus_sign,,,,,null,,,1,0.8235294117647058,,,,,,,,,,,,,,,,,,,,,,,,,,
null,,color_black,336008,black_plus_sign,,,,,null,,,,,,,,,,,,,,,,,,,,,,,,,,,,,,
null,,learn_phase(without_color),338567,black_plus_sign,,,,,null,US_Cities_List/mm_westpalmbeach.png,US_Cities_List/nat_peoria.png,,,,,,,,,,,,,,,,,,,,,,,,,,,,
null,,black_cross(without_color),338984,green,,,,,null,US_Cities_List/mm_westpalmbeach.png,US_Cities_List/nat_peoria.png,,,,,,,,,,,,,,,,,,,,,,,,,,,,
503.7999999523163,,rt_plussign_withcolor,339492,green,,,,,50,US_Cities_List/mm_westpalmbeach.png,US_Cities_List/nat_peoria.png,,,,,,,,,,,,,,,,,,,,,,,,,,,,
null,,rt_thecrossant_black,341096,black_plus_sign,,,,,null,,,1,0.8333333333333334,,,,,,,,,,,,,,,,,,,,,,,,,,
null,,color_black,341205,black_plus_sign,,,,,null,,,,,,,,,,,,,,,,,,,,,,,,,,,,,,
null,,learn_phase(without_color),343777,black_plus_sign,,,,,null,US_Cities_List/nat_leesburg.png,US_Cities_List/nat_gatlinburg.png,,,,,,,,,,,,,,,,,,,,,,,,,,,,
null,,black_cross(without_color),344794,green,,,,,null,US_Cities_List/nat_leesburg.png,US_Cities_List/nat_gatlinburg.png,,,,,,,,,,,,,,,,,,,,,,,,,,,,
null,,rt_plussign_withcolor,345311,green,,,,,null,US_Cities_List/nat_leesburg.png,US_Cities_List/nat_gatlinburg.png,,,,,,,,,,,,,,,,,,,,,,,,,,,,
586.5,,rt_thecrossant_black,346316,black_plus_sign,,,,,50,,,1,0.8421052631578947,,,,,,,,,,,,,,,,,,,,,,,,,,
null,,color_black,346431,black_plus_sign,,,,,null,,,,,,,,,,,,,,,,,,,,,,,,,,,,,,
null,,learn_phase(without_color),349016,black_plus_sign,,,,,null,US_Cities_List/mm_carmel.png,US_Cities_List/mm_hotsprings.png,,,,,,,,,,,,,,,,,,,,,,,,,,,,
null,,black_cross(without_color),349647,green,,,,,null,US_Cities_List/mm_carmel.png,US_Cities_List/mm_hotsprings.png,,,,,,,,,,,,,,,,,,,,,,,,,,,,
null,,rt_plussign_withcolor,350157,green,,,,,null,US_Cities_List/mm_carmel.png,US_Cities_List/mm_hotsprings.png,,,,,,,,,,,,,,,,,,,,,,,,,,,,
1220.5,,rt_thecrossant_black,351543,black_plus_sign,,,,,50,,,1,0.85,,,,,,,,,,,,,,,,,,,,,,,,,,
null,,color_black,351652,black_plus_sign,,,,,null,,,,,,,,,,,,,,,,,,,,,,,,,,,,,,
null,,learn_phase(without_color),354237,black_plus_sign,,,,,null,US_Cities_List/nat_cornwall.png,US_Cities_List/nat_racine.png,,,,,,,,,,,,,,,,,,,,,,,,,,,,
null,,black_cross(without_color),354797,green,,,,,null,US_Cities_List/nat_cornwall.png,US_Cities_List/nat_racine.png,,,,,,,,,,,,,,,,,,,,,,,,,,,,
328.5,,rt_plussign_withcolor,355308,green,,,,,50,US_Cities_List/nat_cornwall.png,US_Cities_List/nat_racine.png,,,,,,,,,,,,,,,,,,,,,,,,,,,,
null,,rt_thecrossant_black,356774,black_plus_sign,,,,,null,,,1,0.8571428571428571,,,,,,,,,,,,,,,,,,,,,,,,,,
null,,color_black,356880,black_plus_sign,,,,,null,,,,,,,,,,,,,,,,,,,,,,,,,,,,,,
null,,learn_phase(without_color),359491,black_plus_sign,,,,,null,US_Cities_List/nat_peoria.png,US_Cities_List/mm_shreveport.png,,,,,,,,,,,,,,,,,,,,,,,,,,,,
null,,black_cross(without_color),360167,green,,,,,null,US_Cities_List/nat_peoria.png,US_Cities_List/mm_shreveport.png,,,,,,,,,,,,,,,,,,,,,,,,,,,,
381.60000002384186,,rt_plussign_withcolor,360671,green,,,,,50,US_Cities_List/nat_peoria.png,US_Cities_List/mm_shreveport.png,,,,,,,,,,,,,,,,,,,,,,,,,,,,
null,,rt_thecrossant_black,362027,black_plus_sign,,,,,null,,,1,0.8636363636363636,,,,,,,,,,,,,,,,,,,,,,,,,,
null,,color_black,362141,black_plus_sign,,,,,null,,,,,,,,,,,,,,,,,,,,,,,,,,,,,,
null,,learn_phase(without_color),364737,black_plus_sign,,,,,null,US_Cities_List/nat_leesburg.png,US_Cities_List/nat_newhope.png,,,,,,,,,,,,,,,,,,,,,,,,,,,,
null,,black_cross(without_color),365423,green,,,,,null,US_Cities_List/nat_leesburg.png,US_Cities_List/nat_newhope.png,,,,,,,,,,,,,,,,,,,,,,,,,,,,
416.5,,rt_plussign_withcolor,365933,green,,,,,50,US_Cities_List/nat_leesburg.png,US_Cities_List/nat_newhope.png,,,,,,,,,,,,,,,,,,,,,,,,,,,,
null,,rt_thecrossant_black,367263,black_plus_sign,,,,,null,,,1,0.8695652173913043,,,,,,,,,,,,,,,,,,,,,,,,,,
null,,color_black,367371,black_plus_sign,,,,,null,,,,,,,,,,,,,,,,,,,,,,,,,,,,,,
null,,learn_phase(without_color),369952,black_plus_sign,,,,,null,US_Cities_List/nat_cornwall.png,US_Cities_List/nat_racine.png,,,,,,,,,,,,,,,,,,,,,,,,,,,,
null,,black_cross(without_color),370793,green,,,,,null,US_Cities_List/nat_cornwall.png,US_Cities_List/nat_racine.png,,,,,,,,,,,,,,,,,,,,,,,,,,,,
463,,rt_plussign_withcolor,371303,green,,,,,50,US_Cities_List/nat_cornwall.png,US_Cities_List/nat_racine.png,,,,,,,,,,,,,,,,,,,,,,,,,,,,
null,,rt_thecrossant_black,372474,black_plus_sign,,,,,null,,,1,0.875,,,,,,,,,,,,,,,,,,,,,,,,,,
null,,color_black,372583,black_plus_sign,,,,,null,,,,,,,,,,,,,,,,,,,,,,,,,,,,,,
null,,learn_phase(without_color),375220,black_plus_sign,,,,,null,US_Cities_List/mm_hotsprings.png,US_Cities_List/nat_newhope.png,,,,,,,,,,,,,,,,,,,,,,,,,,,,
null,,black_cross(without_color),375963,green,,,,,null,US_Cities_List/mm_hotsprings.png,US_Cities_List/nat_newhope.png,,,,,,,,,,,,,,,,,,,,,,,,,,,,
432.7999999523163,,rt_plussign_withcolor,376478,green,,,,,50,US_Cities_List/mm_hotsprings.png,US_Cities_List/nat_newhope.png,,,,,,,,,,,,,,,,,,,,,,,,,,,,
null,,rt_thecrossant_black,377752,black_plus_sign,,,,,null,,,1,0.88,,,,,,,,,,,,,,,,,,,,,,,,,,
null,,color_black,377860,black_plus_sign,,,,,null,,,,,,,,,,,,,,,,,,,,,,,,,,,,,,
null,,learn_phase(without_color),380477,black_plus_sign,,,,,null,US_Cities_List/mm_shreveport.png,US_Cities_List/mm_boulder.png,,,,,,,,,,,,,,,,,,,,,,,,,,,,
null,,black_cross(without_color),381376,blue,,,,,null,US_Cities_List/mm_shreveport.png,US_Cities_List/mm_boulder.png,,,,,,,,,,,,,,,,,,,,,,,,,,,,
467.40000009536743,,rt_plussign_withcolor,381879,blue,,,,,49,US_Cities_List/mm_shreveport.png,US_Cities_List/mm_boulder.png,,,,,,,,,,,,,,,,,,,,,,,,,,,,
null,,rt_thecrossant_black,382990,black_plus_sign,,,,,null,,,1,0.8846153846153846,,,,,,,,,,,,,,,,,,,,,,,,,,
null,,color_black,383105,black_plus_sign,,,,,null,,,,,,,,,,,,,,,,,,,,,,,,,,,,,,
null,,learn_phase(without_color),385739,black_plus_sign,,,,,null,US_Cities_List/nat_leesburg.png,US_Cities_List/nat_newhope.png,,,,,,,,,,,,,,,,,,,,,,,,,,,,
null,,black_cross(without_color),386569,blue,,,,,null,US_Cities_List/nat_leesburg.png,US_Cities_List/nat_newhope.png,,,,,,,,,,,,,,,,,,,,,,,,,,,,
410.10000002384186,,rt_plussign_withcolor,387076,blue,,,,,49,US_Cities_List/nat_leesburg.png,US_Cities_List/nat_newhope.png,,,,,,,,,,,,,,,,,,,,,,,,,,,,
null,,rt_thecrossant_black,388264,black_plus_sign,,,,,null,,,1,0.8888888888888888,,,,,,,,,,,,,,,,,,,,,,,,,,
null,,color_black,388369,black_plus_sign,,,,,null,,,,,,,,,,,,,,,,,,,,,,,,,,,,,,
null,,learn_phase(without_color),390958,black_plus_sign,,,,,null,US_Cities_List/mm_westpalmbeach.png,US_Cities_List/mm_carmel.png,,,,,,,,,,,,,,,,,,,,,,,,,,,,
null,,black_cross(without_color),392025,green,,,,,null,US_Cities_List/mm_westpalmbeach.png,US_Cities_List/mm_carmel.png,,,,,,,,,,,,,,,,,,,,,,,,,,,,
377.89999997615814,,rt_plussign_withcolor,392531,green,,,,,50,US_Cities_List/mm_westpalmbeach.png,US_Cities_List/mm_carmel.png,,,,,,,,,,,,,,,,,,,,,,,,,,,,
null,,rt_thecrossant_black,393495,black_plus_sign,,,,,null,,,1,0.8928571428571429,,,,,,,,,,,,,,,,,,,,,,,,,,
null,,color_black,393604,black_plus_sign,,,,,null,,,,,,,,,,,,,,,,,,,,,,,,,,,,,,
null,,learn_phase(without_color),396220,black_plus_sign,,,,,null,US_Cities_List/nat_cornwall.png,US_Cities_List/nat_leesburg.png,,,,,,,,,,,,,,,,,,,,,,,,,,,,
null,,black_cross(without_color),396794,green,,,,,null,US_Cities_List/nat_cornwall.png,US_Cities_List/nat_leesburg.png,,,,,,,,,,,,,,,,,,,,,,,,,,,,
391.8000000715256,,rt_plussign_withcolor,397298,green,,,,,49,US_Cities_List/nat_cornwall.png,US_Cities_List/nat_leesburg.png,,,,,,,,,,,,,,,,,,,,,,,,,,,,
null,,rt_thecrossant_black,398743,black_plus_sign,,,,,50,,,0,0.8620689655172413,,,,,,,,,,,,,,,,,,,,,,,,,,
null,,color_black,398853,black_plus_sign,,,,,null,,,,,,,,,,,,,,,,,,,,,,,,,,,,,,
null,,learn_phase(without_color),401434,black_plus_sign,,,,,null,US_Cities_List/nat_leesburg.png,US_Cities_List/nat_gatlinburg.png,,,,,,,,,,,,,,,,,,,,,,,,,,,,
null,,black_cross(without_color),402530,blue,,,,,null,US_Cities_List/nat_leesburg.png,US_Cities_List/nat_gatlinburg.png,,,,,,,,,,,,,,,,,,,,,,,,,,,,
null,,rt_plussign_withcolor,403039,blue,,,,,null,US_Cities_List/nat_leesburg.png,US_Cities_List/nat_gatlinburg.png,,,,,,,,,,,,,,,,,,,,,,,,,,,,
708.5,,rt_thecrossant_black,403961,black_plus_sign,,,,,50,,,0,0.8333333333333334,,,,,,,,,,,,,,,,,,,,,,,,,,
null,,warning_page,406974,warning,,,,,null,,,,,,,,,,,,,,,,,,,,,,,,,,,,,,
null,,color_black,407081,black_plus_sign,,,,,null,,,,,,,,,,,,,,,,,,,,,,,,,,,,,,
null,,learn_phase(without_color),409682,black_plus_sign,,,,,null,US_Cities_List/mm_shreveport.png,US_Cities_List/mm_boulder.png,,,,,,,,,,,,,,,,,,,,,,,,,,,,
null,,black_cross(without_color),410646,green,,,,,null,US_Cities_List/mm_shreveport.png,US_Cities_List/mm_boulder.png,,,,,,,,,,,,,,,,,,,,,,,,,,,,
453.2000000476837,,rt_plussign_withcolor,411156,green,,,,,50,US_Cities_List/mm_shreveport.png,US_Cities_List/mm_boulder.png,,,,,,,,,,,,,,,,,,,,,,,,,,,,
null,,rt_thecrossant_black,412221,black_plus_sign,,,,,null,,,1,0.8387096774193549,,,,,,,,,,,,,,,,,,,,,,,,,,
null,,color_black,412337,black_plus_sign,,,,,null,,,,,,,,,,,,,,,,,,,,,,,,,,,,,,
null,,learn_phase(without_color),414895,black_plus_sign,,,,,null,US_Cities_List/nat_peoria.png,US_Cities_List/mm_carmel.png,,,,,,,,,,,,,,,,,,,,,,,,,,,,
null,,black_cross(without_color),415499,green,,,,,null,US_Cities_List/nat_peoria.png,US_Cities_List/mm_carmel.png,,,,,,,,,,,,,,,,,,,,,,,,,,,,
408.39999997615814,,rt_plussign_withcolor,416011,green,,,,,50,US_Cities_List/nat_peoria.png,US_Cities_List/mm_carmel.png,,,,,,,,,,,,,,,,,,,,,,,,,,,,
null,,rt_thecrossant_black,417430,black_plus_sign,,,,,null,,,1,0.84375,,,,,,,,,,,,,,,,,,,,,,,,,,
null,,color_black,417541,black_plus_sign,,,,,null,,,,,,,,,,,,,,,,,,,,,,,,,,,,,,
null,,learn_phase(without_color),420164,black_plus_sign,,,,,null,US_Cities_List/nat_peoria.png,US_Cities_List/mm_hanover.png,,,,,,,,,,,,,,,,,,,,,,,,,,,,
null,,black_cross(without_color),421154,blue,,,,,null,US_Cities_List/nat_peoria.png,US_Cities_List/mm_hanover.png,,,,,,,,,,,,,,,,,,,,,,,,,,,,
450.7999999523163,,rt_plussign_withcolor,421658,blue,,,,,49,US_Cities_List/nat_peoria.png,US_Cities_List/mm_hanover.png,,,,,,,,,,,,,,,,,,,,,,,,,,,,
null,,rt_thecrossant_black,422683,black_plus_sign,,,,,null,,,1,0.8484848484848485,,,,,,,,,,,,,,,,,,,,,,,,,,
null,,color_black,422792,black_plus_sign,,,,,null,,,,,,,,,,,,,,,,,,,,,,,,,,,,,,
null,,learn_phase(without_color),425390,black_plus_sign,,,,,null,US_Cities_List/nat_peoria.png,US_Cities_List/mm_shreveport.png,,,,,,,,,,,,,,,,,,,,,,,,,,,,
null,,black_cross(without_color),426116,green,,,,,null,US_Cities_List/nat_peoria.png,US_Cities_List/mm_shreveport.png,,,,,,,,,,,,,,,,,,,,,,,,,,,,
392,,rt_plussign_withcolor,426619,green,,,,,50,US_Cities_List/nat_peoria.png,US_Cities_List/mm_shreveport.png,,,,,,,,,,,,,,,,,,,,,,,,,,,,
null,,rt_thecrossant_black,427914,black_plus_sign,,,,,null,,,1,0.8529411764705882,,,,,,,,,,,,,,,,,,,,,,,,,,
null,,color_black,428022,black_plus_sign,,,,,null,,,,,,,,,,,,,,,,,,,,,,,,,,,,,,
null,,learn_phase(without_color),430617,black_plus_sign,,,,,null,US_Cities_List/mm_westpalmbeach.png,US_Cities_List/mm_carmel.png,,,,,,,,,,,,,,,,,,,,,,,,,,,,
null,,black_cross(without_color),431513,blue,,,,,null,US_Cities_List/mm_westpalmbeach.png,US_Cities_List/mm_carmel.png,,,,,,,,,,,,,,,,,,,,,,,,,,,,
452.10000002384186,,rt_plussign_withcolor,432018,blue,,,,,49,US_Cities_List/mm_westpalmbeach.png,US_Cities_List/mm_carmel.png,,,,,,,,,,,,,,,,,,,,,,,,,,,,
null,,rt_thecrossant_black,433134,black_plus_sign,,,,,null,,,1,0.8571428571428571,,,,,,,,,,,,,,,,,,,,,,,,,,
null,,color_black,433241,black_plus_sign,,,,,null,,,,,,,,,,,,,,,,,,,,,,,,,,,,,,
null,,learn_phase(without_color),435855,black_plus_sign,,,,,null,US_Cities_List/nat_peoria.png,US_Cities_List/mm_hanover.png,,,,,,,,,,,,,,,,,,,,,,,,,,,,
null,,black_cross(without_color),436719,blue,,,,,null,US_Cities_List/nat_peoria.png,US_Cities_List/mm_hanover.png,,,,,,,,,,,,,,,,,,,,,,,,,,,,
507.2000000476837,,rt_plussign_withcolor,437231,blue,,,,,49,US_Cities_List/nat_peoria.png,US_Cities_List/mm_hanover.png,,,,,,,,,,,,,,,,,,,,,,,,,,,,
null,,rt_thecrossant_black,438387,black_plus_sign,,,,,null,,,1,0.8611111111111112,,,,,,,,,,,,,,,,,,,,,,,,,,
null,,color_black,438504,black_plus_sign,,,,,null,,,,,,,,,,,,,,,,,,,,,,,,,,,,,,
null,,learn_phase(without_color),441111,black_plus_sign,,,,,null,US_Cities_List/nat_peoria.png,US_Cities_List/mm_carmel.png,,,,,,,,,,,,,,,,,,,,,,,,,,,,
null,,black_cross(without_color),441961,green,,,,,null,US_Cities_List/nat_peoria.png,US_Cities_List/mm_carmel.png,,,,,,,,,,,,,,,,,,,,,,,,,,,,
null,,rt_plussign_withcolor,442465,green,,,,,null,US_Cities_List/nat_peoria.png,US_Cities_List/mm_carmel.png,,,,,,,,,,,,,,,,,,,,,,,,,,,,
1012.7999999523163,,rt_thecrossant_black,443630,black_plus_sign,,,,,50,,,1,0.8648648648648649,,,,,,,,,,,,,,,,,,,,,,,,,,
null,,color_black,443749,black_plus_sign,,,,,null,,,,,,,,,,,,,,,,,,,,,,,,,,,,,,
null,,learn_phase(without_color),446339,black_plus_sign,,,,,null,US_Cities_List/nat_peoria.png,US_Cities_List/mm_hanover.png,,,,,,,,,,,,,,,,,,,,,,,,,,,,
null,,black_cross(without_color),447239,blue,,,,,null,US_Cities_List/nat_peoria.png,US_Cities_List/mm_hanover.png,,,,,,,,,,,,,,,,,,,,,,,,,,,,
null,,rt_plussign_withcolor,447755,blue,,,,,null,US_Cities_List/nat_peoria.png,US_Cities_List/mm_hanover.png,,,,,,,,,,,,,,,,,,,,,,,,,,,,
971,,rt_thecrossant_black,448873,black_plus_sign,,,,,49,,,1,0.868421052631579,,,,,,,,,,,,,,,,,,,,,,,,,,
null,,color_black,448980,black_plus_sign,,,,,null,,,,,,,,,,,,,,,,,,,,,,,,,,,,,,
null,,learn_phase(without_color),451568,black_plus_sign,,,,,null,US_Cities_List/nat_leesburg.png,US_Cities_List/nat_newhope.png,,,,,,,,,,,,,,,,,,,,,,,,,,,,
null,,black_cross(without_color),452168,green,,,,,null,US_Cities_List/nat_leesburg.png,US_Cities_List/nat_newhope.png,,,,,,,,,,,,,,,,,,,,,,,,,,,,
374.09999990463257,,rt_plussign_withcolor,452674,green,,,,,50,US_Cities_List/nat_leesburg.png,US_Cities_List/nat_newhope.png,,,,,,,,,,,,,,,,,,,,,,,,,,,,
null,,rt_thecrossant_black,454090,black_plus_sign,,,,,null,,,1,0.8717948717948718,,,,,,,,,,,,,,,,,,,,,,,,,,
null,,color_black,454198,black_plus_sign,,,,,null,,,,,,,,,,,,,,,,,,,,,,,,,,,,,,
null,,learn_phase(without_color),456829,black_plus_sign,,,,,null,US_Cities_List/mm_shreveport.png,US_Cities_List/mm_carmel.png,,,,,,,,,,,,,,,,,,,,,,,,,,,,
null,,black_cross(without_color),457624,blue,,,,,null,US_Cities_List/mm_shreveport.png,US_Cities_List/mm_carmel.png,,,,,,,,,,,,,,,,,,,,,,,,,,,,
450.89999997615814,,rt_plussign_withcolor,458126,blue,,,,,49,US_Cities_List/mm_shreveport.png,US_Cities_List/mm_carmel.png,,,,,,,,,,,,,,,,,,,,,,,,,,,,
null,,rt_thecrossant_black,459345,black_plus_sign,,,,,null,,,1,0.875,,,,,,,,,,,,,,,,,,,,,,,,,,
null,,color_black,459452,black_plus_sign,,,,,null,,,,,,,,,,,,,,,,,,,,,,,,,,,,,,
null,,learn_phase(without_color),462041,black_plus_sign,,,,,null,US_Cities_List/mm_westpalmbeach.png,US_Cities_List/mm_carmel.png,,,,,,,,,,,,,,,,,,,,,,,,,,,,
null,,black_cross(without_color),462531,blue,,,,,null,US_Cities_List/mm_westpalmbeach.png,US_Cities_List/mm_carmel.png,,,,,,,,,,,,,,,,,,,,,,,,,,,,
475.39999997615814,,rt_plussign_withcolor,463036,blue,,,,,49,US_Cities_List/mm_westpalmbeach.png,US_Cities_List/mm_carmel.png,,,,,,,,,,,,,,,,,,,,,,,,,,,,
null,,rt_thecrossant_black,464570,black_plus_sign,,,,,null,,,1,0.8780487804878049,,,,,,,,,,,,,,,,,,,,,,,,,,
null,,color_black,464687,black_plus_sign,,,,,null,,,,,,,,,,,,,,,,,,,,,,,,,,,,,,
null,,learn_phase(without_color),467293,black_plus_sign,,,,,null,US_Cities_List/nat_peoria.png,US_Cities_List/mm_shreveport.png,,,,,,,,,,,,,,,,,,,,,,,,,,,,
null,,black_cross(without_color),467930,blue,,,,,null,US_Cities_List/nat_peoria.png,US_Cities_List/mm_shreveport.png,,,,,,,,,,,,,,,,,,,,,,,,,,,,
null,,rt_plussign_withcolor,468447,blue,,,,,null,US_Cities_List/nat_peoria.png,US_Cities_List/mm_shreveport.png,,,,,,,,,,,,,,,,,,,,,,,,,,,,
633,,rt_thecrossant_black,469841,black_plus_sign,,,,,49,,,1,0.8809523809523809,,,,,,,,,,,,,,,,,,,,,,,,,,
null,,color_black,469949,black_plus_sign,,,,,null,,,,,,,,,,,,,,,,,,,,,,,,,,,,,,
null,,learn_phase(without_color),472540,black_plus_sign,,,,,null,US_Cities_List/nat_racine.png,US_Cities_List/mm_hotsprings.png,,,,,,,,,,,,,,,,,,,,,,,,,,,,
null,,black_cross(without_color),473613,blue,,,,,null,US_Cities_List/nat_racine.png,US_Cities_List/mm_hotsprings.png,,,,,,,,,,,,,,,,,,,,,,,,,,,,
420,,rt_plussign_withcolor,474124,blue,,,,,49,US_Cities_List/nat_racine.png,US_Cities_List/mm_hotsprings.png,,,,,,,,,,,,,,,,,,,,,,,,,,,,
null,,rt_thecrossant_black,475070,black_plus_sign,,,,,null,,,1,0.8837209302325582,,,,,,,,,,,,,,,,,,,,,,,,,,
null,,color_black,475187,black_plus_sign,,,,,null,,,,,,,,,,,,,,,,,,,,,,,,,,,,,,
null,,learn_phase(without_color),477802,black_plus_sign,,,,,null,US_Cities_List/mm_westpalmbeach.png,US_Cities_List/nat_peoria.png,,,,,,,,,,,,,,,,,,,,,,,,,,,,
null,,black_cross(without_color),478384,green,,,,,null,US_Cities_List/mm_westpalmbeach.png,US_Cities_List/nat_peoria.png,,,,,,,,,,,,,,,,,,,,,,,,,,,,
434.5,,rt_plussign_withcolor,478888,green,,,,,50,US_Cities_List/mm_westpalmbeach.png,US_Cities_List/nat_peoria.png,,,,,,,,,,,,,,,,,,,,,,,,,,,,
null,,rt_thecrossant_black,480338,black_plus_sign,,,,,null,,,1,0.8863636363636364,,,,,,,,,,,,,,,,,,,,,,,,,,
null,,color_black,480446,black_plus_sign,,,,,null,,,,,,,,,,,,,,,,,,,,,,,,,,,,,,
null,,learn_phase(without_color),483072,black_plus_sign,,,,,null,US_Cities_List/nat_peoria.png,US_Cities_List/mm_shreveport.png,,,,,,,,,,,,,,,,,,,,,,,,,,,,
null,,black_cross(without_color),483555,green,,,,,null,US_Cities_List/nat_peoria.png,US_Cities_List/mm_shreveport.png,,,,,,,,,,,,,,,,,,,,,,,,,,,,
374.1999999284744,,rt_plussign_withcolor,484059,green,,,,,50,US_Cities_List/nat_peoria.png,US_Cities_List/mm_shreveport.png,,,,,,,,,,,,,,,,,,,,,,,,,,,,
null,,rt_thecrossant_black,485596,black_plus_sign,,,,,null,,,1,0.8888888888888888,,,,,,,,,,,,,,,,,,,,,,,,,,
null,,color_black,485705,black_plus_sign,,,,,null,,,,,,,,,,,,,,,,,,,,,,,,,,,,,,
null,,learn_phase(without_color),488321,black_plus_sign,,,,,null,US_Cities_List/nat_racine.png,US_Cities_List/mm_hotsprings.png,,,,,,,,,,,,,,,,,,,,,,,,,,,,
null,,black_cross(without_color),488768,blue,,,,,null,US_Cities_List/nat_racine.png,US_Cities_List/mm_hotsprings.png,,,,,,,,,,,,,,,,,,,,,,,,,,,,
412.60000002384186,,rt_plussign_withcolor,489281,blue,,,,,49,US_Cities_List/nat_racine.png,US_Cities_List/mm_hotsprings.png,,,,,,,,,,,,,,,,,,,,,,,,,,,,
null,,rt_thecrossant_black,490856,black_plus_sign,,,,,null,,,1,0.8913043478260869,,,,,,,,,,,,,,,,,,,,,,,,,,
null,,color_black,490964,black_plus_sign,,,,,null,,,,,,,,,,,,,,,,,,,,,,,,,,,,,,
null,,learn_phase(without_color),493550,black_plus_sign,,,,,null,US_Cities_List/nat_huntsville.png,US_Cities_List/nat_cornwall.png,,,,,,,,,,,,,,,,,,,,,,,,,,,,
null,,black_cross(without_color),494140,green,,,,,null,US_Cities_List/nat_huntsville.png,US_Cities_List/nat_cornwall.png,,,,,,,,,,,,,,,,,,,,,,,,,,,,
389.5,,rt_plussign_withcolor,494650,green,,,,,50,US_Cities_List/nat_huntsville.png,US_Cities_List/nat_cornwall.png,,,,,,,,,,,,,,,,,,,,,,,,,,,,
null,,rt_thecrossant_black,496084,black_plus_sign,,,,,null,,,1,0.8936170212765957,,,,,,,,,,,,,,,,,,,,,,,,,,
null,,color_black,496192,black_plus_sign,,,,,null,,,,,,,,,,,,,,,,,,,,,,,,,,,,,,
null,,learn_phase(without_color),498798,black_plus_sign,,,,,null,US_Cities_List/mm_shreveport.png,US_Cities_List/mm_carmel.png,,,,,,,,,,,,,,,,,,,,,,,,,,,,
null,,black_cross(without_color),499654,green,,,,,null,US_Cities_List/mm_shreveport.png,US_Cities_List/mm_carmel.png,,,,,,,,,,,,,,,,,,,,,,,,,,,,
null,,rt_plussign_withcolor,500163,green,,,,,null,US_Cities_List/mm_shreveport.png,US_Cities_List/mm_carmel.png,,,,,,,,,,,,,,,,,,,,,,,,,,,,
684.7000000476837,,rt_thecrossant_black,501330,black_plus_sign,,,,,50,,,1,0.8958333333333334,,,,,,,,,,,,,,,,,,,,,,,,,,
null,,color_black,501438,black_plus_sign,,,,,null,,,,,,,,,,,,,,,,,,,,,,,,,,,,,,
null,,learn_phase(without_color),504042,black_plus_sign,,,,,null,US_Cities_List/nat_huntsville.png,US_Cities_List/nat_cornwall.png,,,,,,,,,,,,,,,,,,,,,,,,,,,,
null,,black_cross(without_color),504576,blue,,,,,null,US_Cities_List/nat_huntsville.png,US_Cities_List/nat_cornwall.png,,,,,,,,,,,,,,,,,,,,,,,,,,,,
479.10000002384186,,rt_plussign_withcolor,505085,blue,,,,,49,US_Cities_List/nat_huntsville.png,US_Cities_List/nat_cornwall.png,,,,,,,,,,,,,,,,,,,,,,,,,,,,
null,,rt_thecrossant_black,506567,black_plus_sign,,,,,null,,,1,0.8979591836734694,,,,,,,,,,,,,,,,,,,,,,,,,,
null,,color_black,506681,black_plus_sign,,,,,null,,,,,,,,,,,,,,,,,,,,,,,,,,,,,,
null,,learn_phase(without_color),509295,black_plus_sign,,,,,null,US_Cities_List/nat_racine.png,US_Cities_List/mm_westpalmbeach.png,,,,,,,,,,,,,,,,,,,,,,,,,,,,
null,,black_cross(without_color),510343,green,,,,,null,US_Cities_List/nat_racine.png,US_Cities_List/mm_westpalmbeach.png,,,,,,,,,,,,,,,,,,,,,,,,,,,,
379.7999999523163,,rt_plussign_withcolor,510859,green,,,,,50,US_Cities_List/nat_racine.png,US_Cities_List/mm_westpalmbeach.png,,,,,,,,,,,,,,,,,,,,,,,,,,,,
null,,rt_thecrossant_black,511834,black_plus_sign,,,,,null,,,1,0.9,,,,,,,,,,,,,,,,,,,,,,,,,,
null,,color_black,511939,black_plus_sign,,,,,null,,,,,,,,,,,,,,,,,,,,,,,,,,,,,,
null,,learn_phase(without_color),514498,black_plus_sign,,,,,null,US_Cities_List/nat_racine.png,US_Cities_List/mm_hotsprings.png,,,,,,,,,,,,,,,,,,,,,,,,,,,,
null,,black_cross(without_color),515266,green,,,,,null,US_Cities_List/nat_racine.png,US_Cities_List/mm_hotsprings.png,,,,,,,,,,,,,,,,,,,,,,,,,,,,
478.6999999284744,,rt_plussign_withcolor,515774,green,,,,,50,US_Cities_List/nat_racine.png,US_Cities_List/mm_hotsprings.png,,,,,,,,,,,,,,,,,,,,,,,,,,,,
null,,rt_thecrossant_black,517023,black_plus_sign,,,,,null,,,1,0.9019607843137255,,,,,,,,,,,,,,,,,,,,,,,,,,
null,,color_black,517129,black_plus_sign,,,,,null,,,,,,,,,,,,,,,,,,,,,,,,,,,,,,
null,,learn_phase(without_color),519758,black_plus_sign,,,,,null,US_Cities_List/nat_huntsville.png,US_Cities_List/nat_cornwall.png,,,,,,,,,,,,,,,,,,,,,,,,,,,,
null,,black_cross(without_color),520190,green,,,,,null,US_Cities_List/nat_huntsville.png,US_Cities_List/nat_cornwall.png,,,,,,,,,,,,,,,,,,,,,,,,,,,,
395.6999999284744,,rt_plussign_withcolor,520695,green,,,,,50,US_Cities_List/nat_huntsville.png,US_Cities_List/nat_cornwall.png,,,,,,,,,,,,,,,,,,,,,,,,,,,,
null,,rt_thecrossant_black,522285,black_plus_sign,,,,,null,,,1,0.9038461538461539,,,,,,,,,,,,,,,,,,,,,,,,,,
null,,color_black,522394,black_plus_sign,,,,,null,,,,,,,,,,,,,,,,,,,,,,,,,,,,,,
null,,learn_phase(without_color),525023,black_plus_sign,,,,,null,US_Cities_List/mm_westpalmbeach.png,US_Cities_List/nat_peoria.png,,,,,,,,,,,,,,,,,,,,,,,,,,,,
null,,black_cross(without_color),525890,green,,,,,null,US_Cities_List/mm_westpalmbeach.png,US_Cities_List/nat_peoria.png,,,,,,,,,,,,,,,,,,,,,,,,,,,,
386.5,,rt_plussign_withcolor,526392,green,,,,,50,US_Cities_List/mm_westpalmbeach.png,US_Cities_List/nat_peoria.png,,,,,,,,,,,,,,,,,,,,,,,,,,,,
null,,rt_thecrossant_black,527548,black_plus_sign,,,,,null,,,1,0.9056603773584906,,,,,,,,,,,,,,,,,,,,,,,,,,
null,,color_black,527656,black_plus_sign,,,,,null,,,,,,,,,,,,,,,,,,,,,,,,,,,,,,
null,,learn_phase(without_color),530254,black_plus_sign,,,,,null,US_Cities_List/nat_peoria.png,US_Cities_List/mm_hanover.png,,,,,,,,,,,,,,,,,,,,,,,,,,,,
null,,black_cross(without_color),531034,blue,,,,,null,US_Cities_List/nat_peoria.png,US_Cities_List/mm_hanover.png,,,,,,,,,,,,,,,,,,,,,,,,,,,,
408.2999999523163,,rt_plussign_withcolor,531544,blue,,,,,49,US_Cities_List/nat_peoria.png,US_Cities_List/mm_hanover.png,,,,,,,,,,,,,,,,,,,,,,,,,,,,
null,,rt_thecrossant_black,532776,black_plus_sign,,,,,null,,,1,0.9074074074074074,,,,,,,,,,,,,,,,,,,,,,,,,,
null,,color_black,532890,black_plus_sign,,,,,null,,,,,,,,,,,,,,,,,,,,,,,,,,,,,,
null,,learn_phase(without_color),535483,black_plus_sign,,,,,null,US_Cities_List/nat_peoria.png,US_Cities_List/mm_carmel.png,,,,,,,,,,,,,,,,,,,,,,,,,,,,
null,,black_cross(without_color),536399,blue,,,,,null,US_Cities_List/nat_peoria.png,US_Cities_List/mm_carmel.png,,,,,,,,,,,,,,,,,,,,,,,,,,,,
476.1999999284744,,rt_plussign_withcolor,536904,blue,,,,,49,US_Cities_List/nat_peoria.png,US_Cities_List/mm_carmel.png,,,,,,,,,,,,,,,,,,,,,,,,,,,,
null,,rt_thecrossant_black,538010,black_plus_sign,,,,,null,,,1,0.9090909090909091,,,,,,,,,,,,,,,,,,,,,,,,,,
null,,color_black,538128,black_plus_sign,,,,,null,,,,,,,,,,,,,,,,,,,,,,,,,,,,,,
null,,learn_phase(without_color),540734,black_plus_sign,,,,,null,US_Cities_List/nat_leesburg.png,US_Cities_List/nat_newhope.png,,,,,,,,,,,,,,,,,,,,,,,,,,,,
null,,black_cross(without_color),541440,blue,,,,,null,US_Cities_List/nat_leesburg.png,US_Cities_List/nat_newhope.png,,,,,,,,,,,,,,,,,,,,,,,,,,,,
479.10000002384186,,rt_plussign_withcolor,541947,blue,,,,,49,US_Cities_List/nat_leesburg.png,US_Cities_List/nat_newhope.png,,,,,,,,,,,,,,,,,,,,,,,,,,,,
null,,rt_thecrossant_black,543266,black_plus_sign,,,,,null,,,1,0.9107142857142857,,,,,,,,,,,,,,,,,,,,,,,,,,
null,,color_black,543373,black_plus_sign,,,,,null,,,,,,,,,,,,,,,,,,,,,,,,,,,,,,
null,,learn_phase(without_color),545970,black_plus_sign,,,,,null,US_Cities_List/nat_cornwall.png,US_Cities_List/nat_racine.png,,,,,,,,,,,,,,,,,,,,,,,,,,,,
null,,black_cross(without_color),546760,green,,,,,null,US_Cities_List/nat_cornwall.png,US_Cities_List/nat_racine.png,,,,,,,,,,,,,,,,,,,,,,,,,,,,
null,,rt_plussign_withcolor,547268,green,,,,,null,US_Cities_List/nat_cornwall.png,US_Cities_List/nat_racine.png,,,,,,,,,,,,,,,,,,,,,,,,,,,,
820.8000000715256,,rt_thecrossant_black,548494,black_plus_sign,,,,,50,,,1,0.9122807017543859,,,,,,,,,,,,,,,,,,,,,,,,,,
null,,color_black,548601,black_plus_sign,,,,,null,,,,,,,,,,,,,,,,,,,,,,,,,,,,,,
null,,learn_phase(without_color),551215,black_plus_sign,,,,,null,US_Cities_List/nat_racine.png,US_Cities_List/mm_hotsprings.png,,,,,,,,,,,,,,,,,,,,,,,,,,,,
null,,black_cross(without_color),552189,blue,,,,,null,US_Cities_List/nat_racine.png,US_Cities_List/mm_hotsprings.png,,,,,,,,,,,,,,,,,,,,,,,,,,,,
null,,rt_plussign_withcolor,552693,blue,,,,,null,US_Cities_List/nat_racine.png,US_Cities_List/mm_hotsprings.png,,,,,,,,,,,,,,,,,,,,,,,,,,,,
881.5,,rt_thecrossant_black,553733,black_plus_sign,,,,,49,,,1,0.9137931034482759,,,,,,,,,,,,,,,,,,,,,,,,,,
null,,color_black,553840,black_plus_sign,,,,,null,,,,,,,,,,,,,,,,,,,,,,,,,,,,,,
null,,learn_phase(without_color),556438,black_plus_sign,,,,,null,US_Cities_List/mm_shreveport.png,US_Cities_List/mm_carmel.png,,,,,,,,,,,,,,,,,,,,,,,,,,,,
null,,black_cross(without_color),556993,blue,,,,,null,US_Cities_List/mm_shreveport.png,US_Cities_List/mm_carmel.png,,,,,,,,,,,,,,,,,,,,,,,,,,,,
461.10000002384186,,rt_plussign_withcolor,557497,blue,,,,,49,US_Cities_List/mm_shreveport.png,US_Cities_List/mm_carmel.png,,,,,,,,,,,,,,,,,,,,,,,,,,,,
null,,rt_thecrossant_black,558956,black_plus_sign,,,,,null,,,1,0.9152542372881356,,,,,,,,,,,,,,,,,,,,,,,,,,
null,,color_black,559069,black_plus_sign,,,,,null,,,,,,,,,,,,,,,,,,,,,,,,,,,,,,
null,,learn_phase(without_color),561654,black_plus_sign,,,,,null,US_Cities_List/nat_cornwall.png,US_Cities_List/nat_leesburg.png,,,,,,,,,,,,,,,,,,,,,,,,,,,,
null,,black_cross(without_color),562589,green,,,,,null,US_Cities_List/nat_cornwall.png,US_Cities_List/nat_leesburg.png,,,,,,,,,,,,,,,,,,,,,,,,,,,,
480.3000000715256,,rt_plussign_withcolor,563096,green,,,,,50,US_Cities_List/nat_cornwall.png,US_Cities_List/nat_leesburg.png,,,,,,,,,,,,,,,,,,,,,,,,,,,,
null,,rt_thecrossant_black,564180,black_plus_sign,,,,,null,,,1,0.9166666666666666,,,,,,,,,,,,,,,,,,,,,,,,,,
null,,color_black,564296,black_plus_sign,,,,,null,,,,,,,,,,,,,,,,,,,,,,,,,,,,,,
null,,learn_phase(without_color),566920,black_plus_sign,,,,,null,US_Cities_List/nat_cornwall.png,US_Cities_List/nat_racine.png,,,,,,,,,,,,,,,,,,,,,,,,,,,,
null,,black_cross(without_color),567700,blue,,,,,null,US_Cities_List/nat_cornwall.png,US_Cities_List/nat_racine.png,,,,,,,,,,,,,,,,,,,,,,,,,,,,
null,,rt_plussign_withcolor,568203,blue,,,,,null,US_Cities_List/nat_cornwall.png,US_Cities_List/nat_racine.png,,,,,,,,,,,,,,,,,,,,,,,,,,,,
1064.1000000238419,,rt_thecrossant_black,569450,black_plus_sign,,,,,50,,,0,0.9016393442622951,,,,,,,,,,,,,,,,,,,,,,,,,,
null,,color_black,569558,black_plus_sign,,,,,null,,,,,,,,,,,,,,,,,,,,,,,,,,,,,,
null,,learn_phase(without_color),572185,black_plus_sign,,,,,null,US_Cities_List/mm_shreveport.png,US_Cities_List/mm_carmel.png,,,,,,,,,,,,,,,,,,,,,,,,,,,,
null,,black_cross(without_color),572853,blue,,,,,null,US_Cities_List/mm_shreveport.png,US_Cities_List/mm_carmel.png,,,,,,,,,,,,,,,,,,,,,,,,,,,,
505.60000002384186,,rt_plussign_withcolor,573363,blue,,,,,49,US_Cities_List/mm_shreveport.png,US_Cities_List/mm_carmel.png,,,,,,,,,,,,,,,,,,,,,,,,,,,,
null,,rt_thecrossant_black,574710,black_plus_sign,,,,,null,,,1,0.9032258064516129,,,,,,,,,,,,,,,,,,,,,,,,,,
null,,color_black,574826,black_plus_sign,,,,,null,,,,,,,,,,,,,,,,,,,,,,,,,,,,,,
null,,learn_phase(without_color),577431,black_plus_sign,,,,,null,US_Cities_List/nat_cornwall.png,US_Cities_List/nat_leesburg.png,,,,,,,,,,,,,,,,,,,,,,,,,,,,
null,,black_cross(without_color),578253,blue,,,,,null,US_Cities_List/nat_cornwall.png,US_Cities_List/nat_leesburg.png,,,,,,,,,,,,,,,,,,,,,,,,,,,,
494.60000002384186,,rt_plussign_withcolor,578760,blue,,,,,49,US_Cities_List/nat_cornwall.png,US_Cities_List/nat_leesburg.png,,,,,,,,,,,,,,,,,,,,,,,,,,,,
null,,rt_thecrossant_black,579963,black_plus_sign,,,,,null,,,1,0.9047619047619048,,,,,,,,,,,,,,,,,,,,,,,,,,
null,,color_black,580075,black_plus_sign,,,,,null,,,,,,,,,,,,,,,,,,,,,,,,,,,,,,
null,,learn_phase(without_color),582650,black_plus_sign,,,,,null,US_Cities_List/nat_peoria.png,US_Cities_List/mm_carmel.png,,,,,,,,,,,,,,,,,,,,,,,,,,,,
null,,black_cross(without_color),583332,green,,,,,null,US_Cities_List/nat_peoria.png,US_Cities_List/mm_carmel.png,,,,,,,,,,,,,,,,,,,,,,,,,,,,
403.7000000476837,,rt_plussign_withcolor,583835,green,,,,,50,US_Cities_List/nat_peoria.png,US_Cities_List/mm_carmel.png,,,,,,,,,,,,,,,,,,,,,,,,,,,,
null,,rt_thecrossant_black,585173,black_plus_sign,,,,,null,,,1,0.90625,,,,,,,,,,,,,,,,,,,,,,,,,,
null,,color_black,585283,black_plus_sign,,,,,null,,,,,,,,,,,,,,,,,,,,,,,,,,,,,,
null,,learn_phase(without_color),587878,black_plus_sign,,,,,null,US_Cities_List/nat_cornwall.png,US_Cities_List/nat_leesburg.png,,,,,,,,,,,,,,,,,,,,,,,,,,,,
null,,black_cross(without_color),588328,blue,,,,,null,US_Cities_List/nat_cornwall.png,US_Cities_List/nat_leesburg.png,,,,,,,,,,,,,,,,,,,,,,,,,,,,
null,,rt_plussign_withcolor,588839,blue,,,,,null,US_Cities_List/nat_cornwall.png,US_Cities_List/nat_leesburg.png,,,,,,,,,,,,,,,,,,,,,,,,,,,,
799.8999999761581,,rt_thecrossant_black,590405,black_plus_sign,,,,,49,,,1,0.9076923076923077,,,,,,,,,,,,,,,,,,,,,,,,,,
null,,color_black,590512,black_plus_sign,,,,,null,,,,,,,,,,,,,,,,,,,,,,,,,,,,,,
null,,learn_phase(without_color),593115,black_plus_sign,,,,,null,US_Cities_List/nat_peoria.png,US_Cities_List/mm_hanover.png,,,,,,,,,,,,,,,,,,,,,,,,,,,,
null,,black_cross(without_color),593610,blue,,,,,null,US_Cities_List/nat_peoria.png,US_Cities_List/mm_hanover.png,,,,,,,,,,,,,,,,,,,,,,,,,,,,
null,,rt_plussign_withcolor,594122,blue,,,,,null,US_Cities_List/nat_peoria.png,US_Cities_List/mm_hanover.png,,,,,,,,,,,,,,,,,,,,,,,,,,,,
557.5,,rt_thecrossant_black,595654,black_plus_sign,,,,,49,,,1,0.9090909090909091,,,,,,,,,,,,,,,,,,,,,,,,,,
null,,color_black,595761,black_plus_sign,,,,,null,,,,,,,,,,,,,,,,,,,,,,,,,,,,,,
null,,learn_phase(without_color),598390,black_plus_sign,,,,,null,US_Cities_List/nat_cornwall.png,US_Cities_List/nat_leesburg.png,,,,,,,,,,,,,,,,,,,,,,,,,,,,
null,,black_cross(without_color),599336,blue,,,,,null,US_Cities_List/nat_cornwall.png,US_Cities_List/nat_leesburg.png,,,,,,,,,,,,,,,,,,,,,,,,,,,,
null,,rt_plussign_withcolor,599841,blue,,,,,null,US_Cities_List/nat_cornwall.png,US_Cities_List/nat_leesburg.png,,,,,,,,,,,,,,,,,,,,,,,,,,,,
637.5,,rt_thecrossant_black,600929,black_plus_sign,,,,,49,,,1,0.9104477611940298,,,,,,,,,,,,,,,,,,,,,,,,,,
null,,color_black,601039,black_plus_sign,,,,,null,,,,,,,,,,,,,,,,,,,,,,,,,,,,,,
null,,learn_phase(without_color),603647,black_plus_sign,,,,,null,US_Cities_List/nat_leesburg.png,US_Cities_List/nat_gatlinburg.png,,,,,,,,,,,,,,,,,,,,,,,,,,,,
null,,black_cross(without_color),604072,green,,,,,null,US_Cities_List/nat_leesburg.png,US_Cities_List/nat_gatlinburg.png,,,,,,,,,,,,,,,,,,,,,,,,,,,,
null,,rt_plussign_withcolor,604588,green,,,,,null,US_Cities_List/nat_leesburg.png,US_Cities_List/nat_gatlinburg.png,,,,,,,,,,,,,,,,,,,,,,,,,,,,
1115.5,,rt_thecrossant_black,606190,black_plus_sign,,,,,50,,,1,0.9117647058823529,,,,,,,,,,,,,,,,,,,,,,,,,,
null,,color_black,606297,black_plus_sign,,,,,null,,,,,,,,,,,,,,,,,,,,,,,,,,,,,,
null,,learn_phase(without_color),608928,black_plus_sign,,,,,null,US_Cities_List/nat_cornwall.png,US_Cities_List/nat_leesburg.png,,,,,,,,,,,,,,,,,,,,,,,,,,,,
null,,black_cross(without_color),609935,blue,,,,,null,US_Cities_List/nat_cornwall.png,US_Cities_List/nat_leesburg.png,,,,,,,,,,,,,,,,,,,,,,,,,,,,
null,,rt_plussign_withcolor,610444,blue,,,,,null,US_Cities_List/nat_cornwall.png,US_Cities_List/nat_leesburg.png,,,,,,,,,,,,,,,,,,,,,,,,,,,,
569.1000000238419,,rt_thecrossant_black,611474,black_plus_sign,,,,,49,,,1,0.9130434782608695,,,,,,,,,,,,,,,,,,,,,,,,,,
null,,color_black,611587,black_plus_sign,,,,,null,,,,,,,,,,,,,,,,,,,,,,,,,,,,,,
null,,learn_phase(without_color),614218,black_plus_sign,,,,,null,US_Cities_List/mm_westpalmbeach.png,US_Cities_List/nat_peoria.png,,,,,,,,,,,,,,,,,,,,,,,,,,,,
null,,black_cross(without_color),614852,blue,,,,,null,US_Cities_List/mm_westpalmbeach.png,US_Cities_List/nat_peoria.png,,,,,,,,,,,,,,,,,,,,,,,,,,,,
null,,rt_plussign_withcolor,615368,blue,,,,,null,US_Cities_List/mm_westpalmbeach.png,US_Cities_List/nat_peoria.png,,,,,,,,,,,,,,,,,,,,,,,,,,,,
1099.5,,rt_thecrossant_black,616755,black_plus_sign,,,,,49,,,1,0.9142857142857143,,,,,,,,,,,,,,,,,,,,,,,,,,
null,,color_black,616862,black_plus_sign,,,,,null,,,,,,,,,,,,,,,,,,,,,,,,,,,,,,
null,,learn_phase(without_color),619477,black_plus_sign,,,,,null,US_Cities_List/mm_hotsprings.png,US_Cities_List/nat_newhope.png,,,,,,,,,,,,,,,,,,,,,,,,,,,,
null,,black_cross(without_color),619935,blue,,,,,null,US_Cities_List/mm_hotsprings.png,US_Cities_List/nat_newhope.png,,,,,,,,,,,,,,,,,,,,,,,,,,,,
null,,rt_plussign_withcolor,620440,blue,,,,,null,US_Cities_List/mm_hotsprings.png,US_Cities_List/nat_newhope.png,,,,,,,,,,,,,,,,,,,,,,,,,,,,
819.6999999284744,,rt_thecrossant_black,622001,black_plus_sign,,,,,49,,,1,0.9154929577464789,,,,,,,,,,,,,,,,,,,,,,,,,,
null,,color_black,622112,black_plus_sign,,,,,null,,,,,,,,,,,,,,,,,,,,,,,,,,,,,,
null,,learn_phase(without_color),624723,black_plus_sign,,,,,null,US_Cities_List/mm_carmel.png,US_Cities_List/mm_hotsprings.png,,,,,,,,,,,,,,,,,,,,,,,,,,,,
null,,black_cross(without_color),625665,blue,,,,,null,US_Cities_List/mm_carmel.png,US_Cities_List/mm_hotsprings.png,,,,,,,,,,,,,,,,,,,,,,,,,,,,
498.7000000476837,,rt_plussign_withcolor,626167,blue,,,,,49,US_Cities_List/mm_carmel.png,US_Cities_List/mm_hotsprings.png,,,,,,,,,,,,,,,,,,,,,,,,,,,,
null,,rt_thecrossant_black,627239,black_plus_sign,,,,,null,,,1,0.9166666666666666,,,,,,,,,,,,,,,,,,,,,,,,,,
null,,color_black,627352,black_plus_sign,,,,,null,,,,,,,,,,,,,,,,,,,,,,,,,,,,,,
null,,learn_phase(without_color),629952,black_plus_sign,,,,,null,US_Cities_List/nat_peoria.png,US_Cities_List/mm_hanover.png,,,,,,,,,,,,,,,,,,,,,,,,,,,,
null,,black_cross(without_color),630521,green,,,,,null,US_Cities_List/nat_peoria.png,US_Cities_List/mm_hanover.png,,,,,,,,,,,,,,,,,,,,,,,,,,,,
null,,rt_plussign_withcolor,631034,green,,,,,null,US_Cities_List/nat_peoria.png,US_Cities_List/mm_hanover.png,,,,,,,,,,,,,,,,,,,,,,,,,,,,
1201.1000000238419,,rt_thecrossant_black,632487,black_plus_sign,,,,,49,,,0,0.9041095890410958,,,,,,,,,,,,,,,,,,,,,,,,,,
null,,color_black,632594,black_plus_sign,,,,,null,,,,,,,,,,,,,,,,,,,,,,,,,,,,,,
null,,learn_phase(without_color),635153,black_plus_sign,,,,,null,US_Cities_List/mm_shreveport.png,US_Cities_List/mm_carmel.png,,,,,,,,,,,,,,,,,,,,,,,,,,,,
null,,black_cross(without_color),635965,blue,,,,,null,US_Cities_List/mm_shreveport.png,US_Cities_List/mm_carmel.png,,,,,,,,,,,,,,,,,,,,,,,,,,,,
492.6999999284744,,rt_plussign_withcolor,636479,blue,,,,,49,US_Cities_List/mm_shreveport.png,US_Cities_List/mm_carmel.png,,,,,,,,,,,,,,,,,,,,,,,,,,,,
null,,rt_thecrossant_black,637683,black_plus_sign,,,,,null,,,1,0.9054054054054054,,,,,,,,,,,,,,,,,,,,,,,,,,
null,,color_black,637789,black_plus_sign,,,,,null,,,,,,,,,,,,,,,,,,,,,,,,,,,,,,
null,,learn_phase(without_color),640369,black_plus_sign,,,,,null,US_Cities_List/nat_peoria.png,US_Cities_List/mm_shreveport.png,,,,,,,,,,,,,,,,,,,,,,,,,,,,
null,,black_cross(without_color),641095,green,,,,,null,US_Cities_List/nat_peoria.png,US_Cities_List/mm_shreveport.png,,,,,,,,,,,,,,,,,,,,,,,,,,,,
371.5,,rt_plussign_withcolor,641606,green,,,,,50,US_Cities_List/nat_peoria.png,US_Cities_List/mm_shreveport.png,,,,,,,,,,,,,,,,,,,,,,,,,,,,
null,,rt_thecrossant_black,642897,black_plus_sign,,,,,null,,,1,0.9066666666666666,,,,,,,,,,,,,,,,,,,,,,,,,,
null,,color_black,643004,black_plus_sign,,,,,null,,,,,,,,,,,,,,,,,,,,,,,,,,,,,,
null,,learn_phase(without_color),645617,black_plus_sign,,,,,null,US_Cities_List/nat_huntsville.png,US_Cities_List/nat_cornwall.png,,,,,,,,,,,,,,,,,,,,,,,,,,,,
null,,black_cross(without_color),646444,blue,,,,,null,US_Cities_List/nat_huntsville.png,US_Cities_List/nat_cornwall.png,,,,,,,,,,,,,,,,,,,,,,,,,,,,
423.89999997615814,,rt_plussign_withcolor,646948,blue,,,,,49,US_Cities_List/nat_huntsville.png,US_Cities_List/nat_cornwall.png,,,,,,,,,,,,,,,,,,,,,,,,,,,,
null,,rt_thecrossant_black,648140,black_plus_sign,,,,,null,,,1,0.9078947368421053,,,,,,,,,,,,,,,,,,,,,,,,,,
null,,color_black,648247,black_plus_sign,,,,,null,,,,,,,,,,,,,,,,,,,,,,,,,,,,,,
null,,learn_phase(without_color),650865,black_plus_sign,,,,,null,US_Cities_List/nat_peoria.png,US_Cities_List/mm_carmel.png,,,,,,,,,,,,,,,,,,,,,,,,,,,,
null,,black_cross(without_color),651284,green,,,,,null,US_Cities_List/nat_peoria.png,US_Cities_List/mm_carmel.png,,,,,,,,,,,,,,,,,,,,,,,,,,,,
null,,rt_plussign_withcolor,651796,green,,,,,null,US_Cities_List/nat_peoria.png,US_Cities_List/mm_carmel.png,,,,,,,,,,,,,,,,,,,,,,,,,,,,
940.1000000238419,,rt_thecrossant_black,653398,black_plus_sign,,,,,50,,,1,0.9090909090909091,,,,,,,,,,,,,,,,,,,,,,,,,,
null,,color_black,653516,black_plus_sign,,,,,null,,,,,,,,,,,,,,,,,,,,,,,,,,,,,,
null,,learn_phase(without_color),656145,black_plus_sign,,,,,null,US_Cities_List/nat_peoria.png,US_Cities_List/mm_shreveport.png,,,,,,,,,,,,,,,,,,,,,,,,,,,,
null,,black_cross(without_color),656824,green,,,,,null,US_Cities_List/nat_peoria.png,US_Cities_List/mm_shreveport.png,,,,,,,,,,,,,,,,,,,,,,,,,,,,
494.6999999284744,,rt_plussign_withcolor,657329,green,,,,,50,US_Cities_List/nat_peoria.png,US_Cities_List/mm_shreveport.png,,,,,,,,,,,,,,,,,,,,,,,,,,,,
null,,rt_thecrossant_black,658668,black_plus_sign,,,,,null,,,1,0.9102564102564102,,,,,,,,,,,,,,,,,,,,,,,,,,
null,,color_black,658787,black_plus_sign,,,,,null,,,,,,,,,,,,,,,,,,,,,,,,,,,,,,
null,,learn_phase(without_color),661420,black_plus_sign,,,,,null,US_Cities_List/mm_westpalmbeach.png,US_Cities_List/nat_peoria.png,,,,,,,,,,,,,,,,,,,,,,,,,,,,
null,,black_cross(without_color),662004,green,,,,,null,US_Cities_List/mm_westpalmbeach.png,US_Cities_List/nat_peoria.png,,,,,,,,,,,,,,,,,,,,,,,,,,,,
null,,rt_plussign_withcolor,662509,green,,,,,null,US_Cities_List/mm_westpalmbeach.png,US_Cities_List/nat_peoria.png,,,,,,,,,,,,,,,,,,,,,,,,,,,,
781.1999999284744,,rt_thecrossant_black,663950,black_plus_sign,,,,,50,,,1,0.9113924050632911,,,,,,,,,,,,,,,,,,,,,,,,,,
null,,color_black,664067,black_plus_sign,,,,,null,,,,,,,,,,,,,,,,,,,,,,,,,,,,,,
null,,learn_phase(without_color),666704,black_plus_sign,,,,,null,US_Cities_List/mm_shreveport.png,US_Cities_List/mm_boulder.png,,,,,,,,,,,,,,,,,,,,,,,,,,,,
null,,black_cross(without_color),667618,green,,,,,null,US_Cities_List/mm_shreveport.png,US_Cities_List/mm_boulder.png,,,,,,,,,,,,,,,,,,,,,,,,,,,,
null,,rt_plussign_withcolor,668130,green,,,,,null,US_Cities_List/mm_shreveport.png,US_Cities_List/mm_boulder.png,,,,,,,,,,,,,,,,,,,,,,,,,,,,
707.3000000715256,,rt_thecrossant_black,669246,black_plus_sign,,,,,50,,,1,0.9125,,,,,,,,,,,,,,,,,,,,,,,,,,
null,,color_black,669363,black_plus_sign,,,,,null,,,,,,,,,,,,,,,,,,,,,,,,,,,,,,
null,,learn_phase(without_color),671954,black_plus_sign,,,,,null,US_Cities_List/nat_cornwall.png,US_Cities_List/nat_leesburg.png,,,,,,,,,,,,,,,,,,,,,,,,,,,,
null,,black_cross(without_color),672590,green,,,,,null,US_Cities_List/nat_cornwall.png,US_Cities_List/nat_leesburg.png,,,,,,,,,,,,,,,,,,,,,,,,,,,,
null,,rt_plussign_withcolor,673097,green,,,,,null,US_Cities_List/nat_cornwall.png,US_Cities_List/nat_leesburg.png,,,,,,,,,,,,,,,,,,,,,,,,,,,,
1051.3999999761581,,rt_thecrossant_black,674491,black_plus_sign,,,,,50,,,1,0.9135802469135802,,,,,,,,,,,,,,,,,,,,,,,,,,
null,,color_black,674597,black_plus_sign,,,,,null,,,,,,,,,,,,,,,,,,,,,,,,,,,,,,
null,,learn_phase(without_color),677188,black_plus_sign,,,,,null,US_Cities_List/nat_racine.png,US_Cities_List/mm_westpalmbeach.png,,,,,,,,,,,,,,,,,,,,,,,,,,,,
null,,black_cross(without_color),677897,blue,,,,,null,US_Cities_List/nat_racine.png,US_Cities_List/mm_westpalmbeach.png,,,,,,,,,,,,,,,,,,,,,,,,,,,,
null,,rt_plussign_withcolor,678409,blue,,,,,null,US_Cities_List/nat_racine.png,US_Cities_List/mm_westpalmbeach.png,,,,,,,,,,,,,,,,,,,,,,,,,,,,
752.3999999761581,,rt_thecrossant_black,679714,black_plus_sign,,,,,49,,,1,0.9146341463414634,,,,,,,,,,,,,,,,,,,,,,,,,,
null,,color_black,679821,black_plus_sign,,,,,null,,,,,,,,,,,,,,,,,,,,,,,,,,,,,,
null,,learn_phase(without_color),682401,black_plus_sign,,,,,null,US_Cities_List/nat_peoria.png,US_Cities_List/mm_hanover.png,,,,,,,,,,,,,,,,,,,,,,,,,,,,
null,,black_cross(without_color),683242,green,,,,,null,US_Cities_List/nat_peoria.png,US_Cities_List/mm_hanover.png,,,,,,,,,,,,,,,,,,,,,,,,,,,,
454.2000000476837,,rt_plussign_withcolor,683745,green,,,,,50,US_Cities_List/nat_peoria.png,US_Cities_List/mm_hanover.png,,,,,,,,,,,,,,,,,,,,,,,,,,,,
null,,rt_thecrossant_black,684927,black_plus_sign,,,,,null,,,1,0.9156626506024096,,,,,,,,,,,,,,,,,,,,,,,,,,
null,,color_black,685036,black_plus_sign,,,,,null,,,,,,,,,,,,,,,,,,,,,,,,,,,,,,
null,,learn_phase(without_color),687643,black_plus_sign,,,,,null,US_Cities_List/nat_leesburg.png,US_Cities_List/nat_newhope.png,,,,,,,,,,,,,,,,,,,,,,,,,,,,
null,,black_cross(without_color),688378,green,,,,,null,US_Cities_List/nat_leesburg.png,US_Cities_List/nat_newhope.png,,,,,,,,,,,,,,,,,,,,,,,,,,,,
445.7000000476837,,rt_plussign_withcolor,688884,green,,,,,50,US_Cities_List/nat_leesburg.png,US_Cities_List/nat_newhope.png,,,,,,,,,,,,,,,,,,,,,,,,,,,,
null,,rt_thecrossant_black,690173,black_plus_sign,,,,,null,,,1,0.9166666666666666,,,,,,,,,,,,,,,,,,,,,,,,,,
null,,color_black,690282,black_plus_sign,,,,,null,,,,,,,,,,,,,,,,,,,,,,,,,,,,,,
null,,learn_phase(without_color),692856,black_plus_sign,,,,,null,US_Cities_List/mm_hotsprings.png,US_Cities_List/nat_newhope.png,,,,,,,,,,,,,,,,,,,,,,,,,,,,
null,,black_cross(without_color),693340,green,,,,,null,US_Cities_List/mm_hotsprings.png,US_Cities_List/nat_newhope.png,,,,,,,,,,,,,,,,,,,,,,,,,,,,
482.2999999523163,,rt_plussign_withcolor,693847,green,,,,,50,US_Cities_List/mm_hotsprings.png,US_Cities_List/nat_newhope.png,,,,,,,,,,,,,,,,,,,,,,,,,,,,
null,,rt_thecrossant_black,695389,black_plus_sign,,,,,null,,,1,0.9176470588235294,,,,,,,,,,,,,,,,,,,,,,,,,,
null,,color_black,695508,black_plus_sign,,,,,null,,,,,,,,,,,,,,,,,,,,,,,,,,,,,,
null,,learn_phase(without_color),698124,black_plus_sign,,,,,null,US_Cities_List/nat_racine.png,US_Cities_List/mm_hotsprings.png,,,,,,,,,,,,,,,,,,,,,,,,,,,,
null,,black_cross(without_color),699130,green,,,,,null,US_Cities_List/nat_racine.png,US_Cities_List/mm_hotsprings.png,,,,,,,,,,,,,,,,,,,,,,,,,,,,
442.7000000476837,,rt_plussign_withcolor,699636,green,,,,,50,US_Cities_List/nat_racine.png,US_Cities_List/mm_hotsprings.png,,,,,,,,,,,,,,,,,,,,,,,,,,,,
null,,rt_thecrossant_black,700657,black_plus_sign,,,,,null,,,1,0.9186046511627907,,,,,,,,,,,,,,,,,,,,,,,,,,
null,,color_black,700763,black_plus_sign,,,,,null,,,,,,,,,,,,,,,,,,,,,,,,,,,,,,
null,,learn_phase(without_color),703305,black_plus_sign,,,,,null,US_Cities_List/nat_leesburg.png,US_Cities_List/nat_gatlinburg.png,,,,,,,,,,,,,,,,,,,,,,,,,,,,
null,,black_cross(without_color),704098,blue,,,,,null,US_Cities_List/nat_leesburg.png,US_Cities_List/nat_gatlinburg.png,,,,,,,,,,,,,,,,,,,,,,,,,,,,
488,,rt_plussign_withcolor,704603,blue,,,,,50,US_Cities_List/nat_leesburg.png,US_Cities_List/nat_gatlinburg.png,,,,,,,,,,,,,,,,,,,,,,,,,,,,
null,,rt_thecrossant_black,705818,black_plus_sign,,,,,49,,,0,0.9080459770114943,,,,,,,,,,,,,,,,,,,,,,,,,,
null,,color_black,705925,black_plus_sign,,,,,null,,,,,,,,,,,,,,,,,,,,,,,,,,,,,,
null,,learn_phase(without_color),708543,black_plus_sign,,,,,null,US_Cities_List/nat_racine.png,US_Cities_List/mm_westpalmbeach.png,,,,,,,,,,,,,,,,,,,,,,,,,,,,
null,,black_cross(without_color),709251,blue,,,,,null,US_Cities_List/nat_racine.png,US_Cities_List/mm_westpalmbeach.png,,,,,,,,,,,,,,,,,,,,,,,,,,,,
429.8000000715256,,rt_plussign_withcolor,709766,blue,,,,,49,US_Cities_List/nat_racine.png,US_Cities_List/mm_westpalmbeach.png,,,,,,,,,,,,,,,,,,,,,,,,,,,,
null,,rt_thecrossant_black,711077,black_plus_sign,,,,,null,,,1,0.9090909090909091,,,,,,,,,,,,,,,,,,,,,,,,,,
null,,color_black,711188,black_plus_sign,,,,,null,,,,,,,,,,,,,,,,,,,,,,,,,,,,,,
null,,learn_phase(without_color),713792,black_plus_sign,,,,,null,US_Cities_List/mm_hotsprings.png,US_Cities_List/nat_newhope.png,,,,,,,,,,,,,,,,,,,,,,,,,,,,
null,,black_cross(without_color),714757,green,,,,,null,US_Cities_List/mm_hotsprings.png,US_Cities_List/nat_newhope.png,,,,,,,,,,,,,,,,,,,,,,,,,,,,
452.8000000715256,,rt_plussign_withcolor,715263,green,,,,,50,US_Cities_List/mm_hotsprings.png,US_Cities_List/nat_newhope.png,,,,,,,,,,,,,,,,,,,,,,,,,,,,
null,,rt_thecrossant_black,716321,black_plus_sign,,,,,null,,,1,0.9101123595505618,,,,,,,,,,,,,,,,,,,,,,,,,,
null,,color_black,716427,black_plus_sign,,,,,null,,,,,,,,,,,,,,,,,,,,,,,,,,,,,,
null,,learn_phase(without_color),719030,black_plus_sign,,,,,null,US_Cities_List/mm_shreveport.png,US_Cities_List/mm_boulder.png,,,,,,,,,,,,,,,,,,,,,,,,,,,,
null,,black_cross(without_color),719470,blue,,,,,null,US_Cities_List/mm_shreveport.png,US_Cities_List/mm_boulder.png,,,,,,,,,,,,,,,,,,,,,,,,,,,,
458.89999997615814,,rt_plussign_withcolor,719977,blue,,,,,49,US_Cities_List/mm_shreveport.png,US_Cities_List/mm_boulder.png,,,,,,,,,,,,,,,,,,,,,,,,,,,,
null,,rt_thecrossant_black,721549,black_plus_sign,,,,,null,,,1,0.9111111111111111,,,,,,,,,,,,,,,,,,,,,,,,,,
null,,color_black,721659,black_plus_sign,,,,,null,,,,,,,,,,,,,,,,,,,,,,,,,,,,,,
null,,learn_phase(without_color),724286,black_plus_sign,,,,,null,US_Cities_List/nat_peoria.png,US_Cities_List/mm_shreveport.png,,,,,,,,,,,,,,,,,,,,,,,,,,,,
null,,black_cross(without_color),725338,green,,,,,null,US_Cities_List/nat_peoria.png,US_Cities_List/mm_shreveport.png,,,,,,,,,,,,,,,,,,,,,,,,,,,,
null,,rt_plussign_withcolor,725847,green,,,,,null,US_Cities_List/nat_peoria.png,US_Cities_List/mm_shreveport.png,,,,,,,,,,,,,,,,,,,,,,,,,,,,
568.3000000715256,,rt_thecrossant_black,726822,black_plus_sign,,,,,50,,,1,0.9120879120879121,,,,,,,,,,,,,,,,,,,,,,,,,,
null,,color_black,726929,black_plus_sign,,,,,null,,,,,,,,,,,,,,,,,,,,,,,,,,,,,,
null,,learn_phase(without_color),729503,black_plus_sign,,,,,null,US_Cities_List/nat_racine.png,US_Cities_List/mm_hotsprings.png,,,,,,,,,,,,,,,,,,,,,,,,,,,,
null,,black_cross(without_color),730397,green,,,,,null,US_Cities_List/nat_racine.png,US_Cities_List/mm_hotsprings.png,,,,,,,,,,,,,,,,,,,,,,,,,,,,
472.39999997615814,,rt_plussign_withcolor,730904,green,,,,,49,US_Cities_List/nat_racine.png,US_Cities_List/mm_hotsprings.png,,,,,,,,,,,,,,,,,,,,,,,,,,,,
null,,rt_thecrossant_black,732029,black_plus_sign,,,,,null,,,0,0.9021739130434783,,,,,,,,,,,,,,,,,,,,,,,,,,
null,,color_black,732146,black_plus_sign,,,,,null,,,,,,,,,,,,,,,,,,,,,,,,,,,,,,
null,,learn_phase(without_color),734736,black_plus_sign,,,,,null,US_Cities_List/mm_carmel.png,US_Cities_List/mm_hotsprings.png,,,,,,,,,,,,,,,,,,,,,,,,,,,,
null,,black_cross(without_color),735618,blue,,,,,null,US_Cities_List/mm_carmel.png,US_Cities_List/mm_hotsprings.png,,,,,,,,,,,,,,,,,,,,,,,,,,,,
501.3000000715256,,rt_plussign_withcolor,736124,blue,,,,,49,US_Cities_List/mm_carmel.png,US_Cities_List/mm_hotsprings.png,,,,,,,,,,,,,,,,,,,,,,,,,,,,
null,,rt_thecrossant_black,737263,black_plus_sign,,,,,null,,,1,0.9032258064516129,,,,,,,,,,,,,,,,,,,,,,,,,,
null,,color_black,737369,black_plus_sign,,,,,null,,,,,,,,,,,,,,,,,,,,,,,,,,,,,,
null,,learn_phase(without_color),739992,black_plus_sign,,,,,null,US_Cities_List/mm_shreveport.png,US_Cities_List/mm_carmel.png,,,,,,,,,,,,,,,,,,,,,,,,,,,,
null,,black_cross(without_color),740515,green,,,,,null,US_Cities_List/mm_shreveport.png,US_Cities_List/mm_carmel.png,,,,,,,,,,,,,,,,,,,,,,,,,,,,
420.7000000476837,,rt_plussign_withcolor,741022,green,,,,,50,US_Cities_List/mm_shreveport.png,US_Cities_List/mm_carmel.png,,,,,,,,,,,,,,,,,,,,,,,,,,,,
null,,rt_thecrossant_black,742535,black_plus_sign,,,,,null,,,1,0.9042553191489362,,,,,,,,,,,,,,,,,,,,,,,,,,
null,,color_black,742642,black_plus_sign,,,,,null,,,,,,,,,,,,,,,,,,,,,,,,,,,,,,
null,,learn_phase(without_color),745273,black_plus_sign,,,,,null,US_Cities_List/mm_hotsprings.png,US_Cities_List/nat_newhope.png,,,,,,,,,,,,,,,,,,,,,,,,,,,,
null,,black_cross(without_color),745826,blue,,,,,null,US_Cities_List/mm_hotsprings.png,US_Cities_List/nat_newhope.png,,,,,,,,,,,,,,,,,,,,,,,,,,,,
null,,rt_plussign_withcolor,746335,blue,,,,,null,US_Cities_List/mm_hotsprings.png,US_Cities_List/nat_newhope.png,,,,,,,,,,,,,,,,,,,,,,,,,,,,
698.8000000715256,,rt_thecrossant_black,747809,black_plus_sign,,,,,49,,,1,0.9052631578947369,,,,,,,,,,,,,,,,,,,,,,,,,,
null,,color_black,747927,black_plus_sign,,,,,null,,,,,,,,,,,,,,,,,,,,,,,,,,,,,,
null,,learn_phase(without_color),750535,black_plus_sign,,,,,null,US_Cities_List/nat_cornwall.png,US_Cities_List/nat_leesburg.png,,,,,,,,,,,,,,,,,,,,,,,,,,,,
null,,black_cross(without_color),750992,green,,,,,null,US_Cities_List/nat_cornwall.png,US_Cities_List/nat_leesburg.png,,,,,,,,,,,,,,,,,,,,,,,,,,,,
395.7000000476837,,rt_plussign_withcolor,751499,green,,,,,50,US_Cities_List/nat_cornwall.png,US_Cities_List/nat_leesburg.png,,,,,,,,,,,,,,,,,,,,,,,,,,,,
null,,rt_thecrossant_black,753057,black_plus_sign,,,,,null,,,1,0.90625,,,,,,,,,,,,,,,,,,,,,,,,,,
null,,color_black,753173,black_plus_sign,,,,,null,,,,,,,,,,,,,,,,,,,,,,,,,,,,,,
null,,learn_phase(without_color),755805,black_plus_sign,,,,,null,US_Cities_List/mm_westpalmbeach.png,US_Cities_List/mm_carmel.png,,,,,,,,,,,,,,,,,,,,,,,,,,,,
null,,black_cross(without_color),756810,green,,,,,null,US_Cities_List/mm_westpalmbeach.png,US_Cities_List/mm_carmel.png,,,,,,,,,,,,,,,,,,,,,,,,,,,,
null,,rt_plussign_withcolor,757316,green,,,,,null,US_Cities_List/mm_westpalmbeach.png,US_Cities_List/mm_carmel.png,,,,,,,,,,,,,,,,,,,,,,,,,,,,
559.6999999284744,,rt_thecrossant_black,758335,black_plus_sign,,,,,50,,,1,0.9072164948453608,,,,,,,,,,,,,,,,,,,,,,,,,,
null,,color_black,758440,black_plus_sign,,,,,null,,,,,,,,,,,,,,,,,,,,,,,,,,,,,,
null,,learn_phase(without_color),761066,black_plus_sign,,,,,null,US_Cities_List/nat_cornwall.png,US_Cities_List/nat_racine.png,,,,,,,,,,,,,,,,,,,,,,,,,,,,
null,,black_cross(without_color),761756,blue,,,,,null,US_Cities_List/nat_cornwall.png,US_Cities_List/nat_racine.png,,,,,,,,,,,,,,,,,,,,,,,,,,,,
null,,rt_plussign_withcolor,762263,blue,,,,,null,US_Cities_List/nat_cornwall.png,US_Cities_List/nat_racine.png,,,,,,,,,,,,,,,,,,,,,,,,,,,,
1173.2000000476837,,rt_thecrossant_black,763593,black_plus_sign,,,,,49,,,1,0.9081632653061225,,,,,,,,,,,,,,,,,,,,,,,,,,
null,,color_black,763699,black_plus_sign,,,,,null,,,,,,,,,,,,,,,,,,,,,,,,,,,,,,
null,,learn_phase(without_color),766346,black_plus_sign,,,,,null,US_Cities_List/nat_racine.png,US_Cities_List/mm_westpalmbeach.png,,,,,,,,,,,,,,,,,,,,,,,,,,,,
null,,black_cross(without_color),767188,blue,,,,,null,US_Cities_List/nat_racine.png,US_Cities_List/mm_westpalmbeach.png,,,,,,,,,,,,,,,,,,,,,,,,,,,,
null,,rt_plussign_withcolor,767704,blue,,,,,null,US_Cities_List/nat_racine.png,US_Cities_List/mm_westpalmbeach.png,,,,,,,,,,,,,,,,,,,,,,,,,,,,
777.2999999523163,,rt_thecrossant_black,768883,black_plus_sign,,,,,49,,,1,0.9090909090909091,,,,,,,,,,,,,,,,,,,,,,,,,,
null,,color_black,768991,black_plus_sign,,,,,null,,,,,,,,,,,,,,,,,,,,,,,,,,,,,,
null,,learn_phase(without_color),771575,black_plus_sign,,,,,null,US_Cities_List/nat_huntsville.png,US_Cities_List/nat_cornwall.png,,,,,,,,,,,,,,,,,,,,,,,,,,,,
null,,black_cross(without_color),772307,green,,,,,null,US_Cities_List/nat_huntsville.png,US_Cities_List/nat_cornwall.png,,,,,,,,,,,,,,,,,,,,,,,,,,,,
null,,rt_plussign_withcolor,772821,green,,,,,null,US_Cities_List/nat_huntsville.png,US_Cities_List/nat_cornwall.png,,,,,,,,,,,,,,,,,,,,,,,,,,,,
999.5,,rt_thecrossant_black,774113,black_plus_sign,,,,,50,,,1,0.91,,,,,,,,,,,,,,,,,,,,,,,,,,
null,,color_black,774229,black_plus_sign,,,,,null,,,,,,,,,,,,,,,,,,,,,,,,,,,,,,
null,,learn_phase(without_color),776813,black_plus_sign,,,,,null,US_Cities_List/mm_hotsprings.png,US_Cities_List/nat_newhope.png,,,,,,,,,,,,,,,,,,,,,,,,,,,,
null,,black_cross(without_color),777804,green,,,,,null,US_Cities_List/mm_hotsprings.png,US_Cities_List/nat_newhope.png,,,,,,,,,,,,,,,,,,,,,,,,,,,,
null,,rt_plussign_withcolor,778324,green,,,,,null,US_Cities_List/mm_hotsprings.png,US_Cities_List/nat_newhope.png,,,,,,,,,,,,,,,,,,,,,,,,,,,,
938.9000000953674,,rt_thecrossant_black,779359,black_plus_sign,,,,,50,,,1,0.9108910891089109,,,,,,,,,,,,,,,,,,,,,,,,,,
null,,color_black,779479,black_plus_sign,,,,,null,,,,,,,,,,,,,,,,,,,,,,,,,,,,,,
null,,learn_phase(without_color),782093,black_plus_sign,,,,,null,US_Cities_List/nat_racine.png,US_Cities_List/mm_westpalmbeach.png,,,,,,,,,,,,,,,,,,,,,,,,,,,,
null,,black_cross(without_color),782943,blue,,,,,null,US_Cities_List/nat_racine.png,US_Cities_List/mm_westpalmbeach.png,,,,,,,,,,,,,,,,,,,,,,,,,,,,
408.89999997615814,,rt_plussign_withcolor,783453,blue,,,,,49,US_Cities_List/nat_racine.png,US_Cities_List/mm_westpalmbeach.png,,,,,,,,,,,,,,,,,,,,,,,,,,,,
null,,rt_thecrossant_black,784628,black_plus_sign,,,,,null,,,1,0.9117647058823529,,,,,,,,,,,,,,,,,,,,,,,,,,
null,,color_black,784744,black_plus_sign,,,,,null,,,,,,,,,,,,,,,,,,,,,,,,,,,,,,
null,,learn_phase(without_color),787370,black_plus_sign,,,,,null,US_Cities_List/nat_racine.png,US_Cities_List/mm_hotsprings.png,,,,,,,,,,,,,,,,,,,,,,,,,,,,
null,,black_cross(without_color),787800,green,,,,,null,US_Cities_List/nat_racine.png,US_Cities_List/mm_hotsprings.png,,,,,,,,,,,,,,,,,,,,,,,,,,,,
null,,rt_plussign_withcolor,788307,green,,,,,null,US_Cities_List/nat_racine.png,US_Cities_List/mm_hotsprings.png,,,,,,,,,,,,,,,,,,,,,,,,,,,,
1032.0999999046326,,rt_thecrossant_black,789894,black_plus_sign,,,,,50,,,1,0.912621359223301,,,,,,,,,,,,,,,,,,,,,,,,,,
null,,color_black,790003,black_plus_sign,,,,,null,,,,,,,,,,,,,,,,,,,,,,,,,,,,,,
null,,learn_phase(without_color),792565,black_plus_sign,,,,,null,US_Cities_List/nat_peoria.png,US_Cities_List/mm_carmel.png,,,,,,,,,,,,,,,,,,,,,,,,,,,,
null,,black_cross(without_color),793362,green,,,,,null,US_Cities_List/nat_peoria.png,US_Cities_List/mm_carmel.png,,,,,,,,,,,,,,,,,,,,,,,,,,,,
439.2999999523163,,rt_plussign_withcolor,793869,green,,,,,50,US_Cities_List/nat_peoria.png,US_Cities_List/mm_carmel.png,,,,,,,,,,,,,,,,,,,,,,,,,,,,
null,,rt_thecrossant_black,795080,black_plus_sign,,,,,null,,,1,0.9134615384615384,,,,,,,,,,,,,,,,,,,,,,,,,,
null,,color_black,795188,black_plus_sign,,,,,null,,,,,,,,,,,,,,,,,,,,,,,,,,,,,,
null,,learn_phase(without_color),797784,black_plus_sign,,,,,null,US_Cities_List/mm_westpalmbeach.png,US_Cities_List/nat_peoria.png,,,,,,,,,,,,,,,,,,,,,,,,,,,,
null,,black_cross(without_color),798578,blue,,,,,null,US_Cities_List/mm_westpalmbeach.png,US_Cities_List/nat_peoria.png,,,,,,,,,,,,,,,,,,,,,,,,,,,,
null,,rt_plussign_withcolor,799083,blue,,,,,null,US_Cities_List/mm_westpalmbeach.png,US_Cities_List/nat_peoria.png,,,,,,,,,,,,,,,,,,,,,,,,,,,,
938.2999999523163,,rt_thecrossant_black,800320,black_plus_sign,,,,,49,,,1,0.9142857142857143,,,,,,,,,,,,,,,,,,,,,,,,,,
null,,color_black,800436,black_plus_sign,,,,,null,,,,,,,,,,,,,,,,,,,,,,,,,,,,,,
null,,learn_phase(without_color),803044,black_plus_sign,,,,,null,US_Cities_List/mm_hotsprings.png,US_Cities_List/nat_newhope.png,,,,,,,,,,,,,,,,,,,,,,,,,,,,
null,,black_cross(without_color),803476,green,,,,,null,US_Cities_List/mm_hotsprings.png,US_Cities_List/nat_newhope.png,,,,,,,,,,,,,,,,,,,,,,,,,,,,
434.89999997615814,,rt_plussign_withcolor,803992,green,,,,,50,US_Cities_List/mm_hotsprings.png,US_Cities_List/nat_newhope.png,,,,,,,,,,,,,,,,,,,,,,,,,,,,
null,,rt_thecrossant_black,805578,black_plus_sign,,,,,null,,,1,0.9150943396226415,,,,,,,,,,,,,,,,,,,,,,,,,,
null,,color_black,805695,black_plus_sign,,,,,null,,,,,,,,,,,,,,,,,,,,,,,,,,,,,,
null,,learn_phase(without_color),808301,black_plus_sign,,,,,null,US_Cities_List/nat_leesburg.png,US_Cities_List/nat_gatlinburg.png,,,,,,,,,,,,,,,,,,,,,,,,,,,,
null,,black_cross(without_color),809020,green,,,,,null,US_Cities_List/nat_leesburg.png,US_Cities_List/nat_gatlinburg.png,,,,,,,,,,,,,,,,,,,,,,,,,,,,
493.5,,rt_plussign_withcolor,809525,green,,,,,50,US_Cities_List/nat_leesburg.png,US_Cities_List/nat_gatlinburg.png,,,,,,,,,,,,,,,,,,,,,,,,,,,,
null,,rt_thecrossant_black,810823,black_plus_sign,,,,,null,,,1,0.9158878504672897,,,,,,,,,,,,,,,,,,,,,,,,,,
null,,color_black,810939,black_plus_sign,,,,,null,,,,,,,,,,,,,,,,,,,,,,,,,,,,,,
null,,learn_phase(without_color),813513,black_plus_sign,,,,,null,US_Cities_List/nat_cornwall.png,US_Cities_List/nat_racine.png,,,,,,,,,,,,,,,,,,,,,,,,,,,,
null,,black_cross(without_color),814162,green,,,,,null,US_Cities_List/nat_cornwall.png,US_Cities_List/nat_racine.png,,,,,,,,,,,,,,,,,,,,,,,,,,,,
null,,rt_plussign_withcolor,814669,green,,,,,null,US_Cities_List/nat_cornwall.png,US_Cities_List/nat_racine.png,,,,,,,,,,,,,,,,,,,,,,,,,,,,
846.2000000476837,,rt_thecrossant_black,816034,black_plus_sign,,,,,50,,,1,0.9166666666666666,,,,,,,,,,,,,,,,,,,,,,,,,,
null,,color_black,816143,black_plus_sign,,,,,null,,,,,,,,,,,,,,,,,,,,,,,,,,,,,,
null,,learn_phase(without_color),818737,black_plus_sign,,,,,null,US_Cities_List/nat_peoria.png,US_Cities_List/mm_hanover.png,,,,,,,,,,,,,,,,,,,,,,,,,,,,
null,,black_cross(without_color),819759,green,,,,,null,US_Cities_List/nat_peoria.png,US_Cities_List/mm_hanover.png,,,,,,,,,,,,,,,,,,,,,,,,,,,,
null,,rt_plussign_withcolor,820266,green,,,,,null,US_Cities_List/nat_peoria.png,US_Cities_List/mm_hanover.png,,,,,,,,,,,,,,,,,,,,,,,,,,,,
817.1000000238419,,rt_thecrossant_black,821272,black_plus_sign,,,,,50,,,1,0.9174311926605505,,,,,,,,,,,,,,,,,,,,,,,,,,
null,,color_black,821377,black_plus_sign,,,,,null,,,,,,,,,,,,,,,,,,,,,,,,,,,,,,
null,,learn_phase(without_color),824004,black_plus_sign,,,,,null,US_Cities_List/mm_westpalmbeach.png,US_Cities_List/mm_carmel.png,,,,,,,,,,,,,,,,,,,,,,,,,,,,
null,,black_cross(without_color),824870,blue,,,,,null,US_Cities_List/mm_westpalmbeach.png,US_Cities_List/mm_carmel.png,,,,,,,,,,,,,,,,,,,,,,,,,,,,
null,,rt_plussign_withcolor,825377,blue,,,,,null,US_Cities_List/mm_westpalmbeach.png,US_Cities_List/mm_carmel.png,,,,,,,,,,,,,,,,,,,,,,,,,,,,
1111.3999999761581,,rt_thecrossant_black,826531,black_plus_sign,,,,,49,,,1,0.9181818181818182,,,,,,,,,,,,,,,,,,,,,,,,,,
null,,color_black,826638,black_plus_sign,,,,,null,,,,,,,,,,,,,,,,,,,,,,,,,,,,,,
null,,learn_phase(without_color),829213,black_plus_sign,,,,,null,US_Cities_List/mm_shreveport.png,US_Cities_List/mm_boulder.png,,,,,,,,,,,,,,,,,,,,,,,,,,,,
null,,black_cross(without_color),830249,blue,,,,,null,US_Cities_List/mm_shreveport.png,US_Cities_List/mm_boulder.png,,,,,,,,,,,,,,,,,,,,,,,,,,,,
435.8000000715256,,rt_plussign_withcolor,830753,blue,,,,,50,US_Cities_List/mm_shreveport.png,US_Cities_List/mm_boulder.png,,,,,,,,,,,,,,,,,,,,,,,,,,,,
null,,rt_thecrossant_black,831731,black_plus_sign,,,,,49,,,0,0.9099099099099099,,,,,,,,,,,,,,,,,,,,,,,,,,
null,,color_black,831842,black_plus_sign,,,,,null,,,,,,,,,,,,,,,,,,,,,,,,,,,,,,
null,,learn_phase(without_color),834457,black_plus_sign,,,,,null,US_Cities_List/nat_racine.png,US_Cities_List/mm_westpalmbeach.png,,,,,,,,,,,,,,,,,,,,,,,,,,,,
null,,black_cross(without_color),835394,blue,,,,,null,US_Cities_List/nat_racine.png,US_Cities_List/mm_westpalmbeach.png,,,,,,,,,,,,,,,,,,,,,,,,,,,,
null,,rt_plussign_withcolor,835908,blue,,,,,null,US_Cities_List/nat_racine.png,US_Cities_List/mm_westpalmbeach.png,,,,,,,,,,,,,,,,,,,,,,,,,,,,
1132.6000000238419,,rt_thecrossant_black,836996,black_plus_sign,,,,,49,,,1,0.9107142857142857,,,,,,,,,,,,,,,,,,,,,,,,,,
null,,color_black,837107,black_plus_sign,,,,,null,,,,,,,,,,,,,,,,,,,,,,,,,,,,,,
null,,learn_phase(without_color),839712,black_plus_sign,,,,,null,US_Cities_List/nat_cornwall.png,US_Cities_List/nat_racine.png,,,,,,,,,,,,,,,,,,,,,,,,,,,,
null,,black_cross(without_color),840715,blue,,,,,null,US_Cities_List/nat_cornwall.png,US_Cities_List/nat_racine.png,,,,,,,,,,,,,,,,,,,,,,,,,,,,
null,,rt_plussign_withcolor,841221,blue,,,,,null,US_Cities_List/nat_cornwall.png,US_Cities_List/nat_racine.png,,,,,,,,,,,,,,,,,,,,,,,,,,,,
1179,,rt_thecrossant_black,842242,black_plus_sign,,,,,49,,,1,0.911504424778761,,,,,,,,,,,,,,,,,,,,,,,,,,
null,,color_black,842350,black_plus_sign,,,,,null,,,,,,,,,,,,,,,,,,,,,,,,,,,,,,
null,,learn_phase(without_color),844950,black_plus_sign,,,,,null,US_Cities_List/nat_leesburg.png,US_Cities_List/nat_gatlinburg.png,,,,,,,,,,,,,,,,,,,,,,,,,,,,
null,,black_cross(without_color),845415,blue,,,,,null,US_Cities_List/nat_leesburg.png,US_Cities_List/nat_gatlinburg.png,,,,,,,,,,,,,,,,,,,,,,,,,,,,
481.2000000476837,,rt_plussign_withcolor,845920,blue,,,,,49,US_Cities_List/nat_leesburg.png,US_Cities_List/nat_gatlinburg.png,,,,,,,,,,,,,,,,,,,,,,,,,,,,
null,,rt_thecrossant_black,847465,black_plus_sign,,,,,null,,,1,0.9122807017543859,,,,,,,,,,,,,,,,,,,,,,,,,,
null,,color_black,847574,black_plus_sign,,,,,null,,,,,,,,,,,,,,,,,,,,,,,,,,,,,,
null,,learn_phase(without_color),850167,black_plus_sign,,,,,null,US_Cities_List/mm_hotsprings.png,US_Cities_List/nat_newhope.png,,,,,,,,,,,,,,,,,,,,,,,,,,,,
null,,black_cross(without_color),850665,blue,,,,,null,US_Cities_List/mm_hotsprings.png,US_Cities_List/nat_newhope.png,,,,,,,,,,,,,,,,,,,,,,,,,,,,
485.5,,rt_plussign_withcolor,851176,blue,,,,,49,US_Cities_List/mm_hotsprings.png,US_Cities_List/nat_newhope.png,,,,,,,,,,,,,,,,,,,,,,,,,,,,
null,,rt_thecrossant_black,852699,black_plus_sign,,,,,null,,,1,0.9130434782608695,,,,,,,,,,,,,,,,,,,,,,,,,,
null,,color_black,852808,black_plus_sign,,,,,null,,,,,,,,,,,,,,,,,,,,,,,,,,,,,,
null,,learn_phase(without_color),855413,black_plus_sign,,,,,null,US_Cities_List/mm_shreveport.png,US_Cities_List/mm_boulder.png,,,,,,,,,,,,,,,,,,,,,,,,,,,,
null,,black_cross(without_color),856169,green,,,,,null,US_Cities_List/mm_shreveport.png,US_Cities_List/mm_boulder.png,,,,,,,,,,,,,,,,,,,,,,,,,,,,
null,,rt_plussign_withcolor,856676,green,,,,,null,US_Cities_List/mm_shreveport.png,US_Cities_List/mm_boulder.png,,,,,,,,,,,,,,,,,,,,,,,,,,,,
614.3000000715256,,rt_thecrossant_black,857929,black_plus_sign,,,,,50,,,1,0.9137931034482759,,,,,,,,,,,,,,,,,,,,,,,,,,
null,,color_black,858044,black_plus_sign,,,,,null,,,,,,,,,,,,,,,,,,,,,,,,,,,,,,
null,,learn_phase(without_color),860627,black_plus_sign,,,,,null,US_Cities_List/mm_westpalmbeach.png,US_Cities_List/mm_carmel.png,,,,,,,,,,,,,,,,,,,,,,,,,,,,
null,,black_cross(without_color),861608,green,,,,,null,US_Cities_List/mm_westpalmbeach.png,US_Cities_List/mm_carmel.png,,,,,,,,,,,,,,,,,,,,,,,,,,,,
408.89999997615814,,rt_plussign_withcolor,862126,green,,,,,50,US_Cities_List/mm_westpalmbeach.png,US_Cities_List/mm_carmel.png,,,,,,,,,,,,,,,,,,,,,,,,,,,,
null,,rt_thecrossant_black,863176,black_plus_sign,,,,,null,,,1,0.9145299145299145,,,,,,,,,,,,,,,,,,,,,,,,,,
null,,color_black,863284,black_plus_sign,,,,,null,,,,,,,,,,,,,,,,,,,,,,,,,,,,,,
null,,learn_phase(without_color),865903,black_plus_sign,,,,,null,US_Cities_List/nat_peoria.png,US_Cities_List/mm_carmel.png,,,,,,,,,,,,,,,,,,,,,,,,,,,,
null,,black_cross(without_color),866559,green,,,,,null,US_Cities_List/nat_peoria.png,US_Cities_List/mm_carmel.png,,,,,,,,,,,,,,,,,,,,,,,,,,,,
463.7000000476837,,rt_plussign_withcolor,867078,green,,,,,50,US_Cities_List/nat_peoria.png,US_Cities_List/mm_carmel.png,,,,,,,,,,,,,,,,,,,,,,,,,,,,
null,,rt_thecrossant_black,868443,black_plus_sign,,,,,null,,,1,0.9152542372881356,,,,,,,,,,,,,,,,,,,,,,,,,,
null,,color_black,868549,black_plus_sign,,,,,null,,,,,,,,,,,,,,,,,,,,,,,,,,,,,,
null,,learn_phase(without_color),871178,black_plus_sign,,,,,null,US_Cities_List/mm_westpalmbeach.png,US_Cities_List/mm_carmel.png,,,,,,,,,,,,,,,,,,,,,,,,,,,,
null,,black_cross(without_color),872221,green,,,,,null,US_Cities_List/mm_westpalmbeach.png,US_Cities_List/mm_carmel.png,,,,,,,,,,,,,,,,,,,,,,,,,,,,
437.1999999284744,,rt_plussign_withcolor,872731,green,,,,,50,US_Cities_List/mm_westpalmbeach.png,US_Cities_List/mm_carmel.png,,,,,,,,,,,,,,,,,,,,,,,,,,,,
null,,rt_thecrossant_black,873707,black_plus_sign,,,,,null,,,1,0.9159663865546218,,,,,,,,,,,,,,,,,,,,,,,,,,
null,,color_black,873814,black_plus_sign,,,,,null,,,,,,,,,,,,,,,,,,,,,,,,,,,,,,
null,,learn_phase(without_color),876435,black_plus_sign,,,,,null,US_Cities_List/mm_shreveport.png,US_Cities_List/mm_carmel.png,,,,,,,,,,,,,,,,,,,,,,,,,,,,
null,,black_cross(without_color),877506,green,,,,,null,US_Cities_List/mm_shreveport.png,US_Cities_List/mm_carmel.png,,,,,,,,,,,,,,,,,,,,,,,,,,,,
492.10000002384186,,rt_plussign_withcolor,878016,green,,,,,50,US_Cities_List/mm_shreveport.png,US_Cities_List/mm_carmel.png,,,,,,,,,,,,,,,,,,,,,,,,,,,,
null,,rt_thecrossant_black,878974,black_plus_sign,,,,,null,,,1,0.9166666666666666,,,,,,,,,,,,,,,,,,,,,,,,,,
null,,color_black,879082,black_plus_sign,,,,,null,,,,,,,,,,,,,,,,,,,,,,,,,,,,,,
null,,learn_phase(without_color),881695,black_plus_sign,,,,,null,US_Cities_List/nat_huntsville.png,US_Cities_List/nat_cornwall.png,,,,,,,,,,,,,,,,,,,,,,,,,,,,
null,,black_cross(without_color),882365,blue,,,,,null,US_Cities_List/nat_huntsville.png,US_Cities_List/nat_cornwall.png,,,,,,,,,,,,,,,,,,,,,,,,,,,,
null,,rt_plussign_withcolor,882873,blue,,,,,null,US_Cities_List/nat_huntsville.png,US_Cities_List/nat_cornwall.png,,,,,,,,,,,,,,,,,,,,,,,,,,,,
1222.7999999523163,,rt_thecrossant_black,884226,black_plus_sign,,,,,50,,,0,0.9090909090909091,,,,,,,,,,,,,,,,,,,,,,,,,,
null,,color_black,884333,black_plus_sign,,,,,null,,,,,,,,,,,,,,,,,,,,,,,,,,,,,,
null,,learn_phase(without_color),886948,black_plus_sign,,,,,null,US_Cities_List/nat_peoria.png,US_Cities_List/mm_shreveport.png,,,,,,,,,,,,,,,,,,,,,,,,,,,,
null,,black_cross(without_color),887610,blue,,,,,null,US_Cities_List/nat_peoria.png,US_Cities_List/mm_shreveport.png,,,,,,,,,,,,,,,,,,,,,,,,,,,,
null,,rt_plussign_withcolor,888128,blue,,,,,null,US_Cities_List/nat_peoria.png,US_Cities_List/mm_shreveport.png,,,,,,,,,,,,,,,,,,,,,,,,,,,,
871.1999999284744,,rt_thecrossant_black,889483,black_plus_sign,,,,,49,,,1,0.9098360655737705,,,,,,,,,,,,,,,,,,,,,,,,,,
null,,color_black,889588,black_plus_sign,,,,,null,,,,,,,,,,,,,,,,,,,,,,,,,,,,,,
null,,learn_phase(without_color),892199,black_plus_sign,,,,,null,US_Cities_List/nat_leesburg.png,US_Cities_List/nat_newhope.png,,,,,,,,,,,,,,,,,,,,,,,,,,,,
null,,black_cross(without_color),893271,blue,,,,,null,US_Cities_List/nat_leesburg.png,US_Cities_List/nat_newhope.png,,,,,,,,,,,,,,,,,,,,,,,,,,,,
502.6999999284744,,rt_plussign_withcolor,893778,blue,,,,,49,US_Cities_List/nat_leesburg.png,US_Cities_List/nat_newhope.png,,,,,,,,,,,,,,,,,,,,,,,,,,,,
null,,rt_thecrossant_black,894736,black_plus_sign,,,,,null,,,1,0.9105691056910569,,,,,,,,,,,,,,,,,,,,,,,,,,
null,,color_black,894843,black_plus_sign,,,,,null,,,,,,,,,,,,,,,,,,,,,,,,,,,,,,
null,,learn_phase(without_color),897433,black_plus_sign,,,,,null,US_Cities_List/mm_carmel.png,US_Cities_List/mm_hotsprings.png,,,,,,,,,,,,,,,,,,,,,,,,,,,,
null,,black_cross(without_color),898376,green,,,,,null,US_Cities_List/mm_carmel.png,US_Cities_List/mm_hotsprings.png,,,,,,,,,,,,,,,,,,,,,,,,,,,,
484.10000002384186,,rt_plussign_withcolor,898883,green,,,,,50,US_Cities_List/mm_carmel.png,US_Cities_List/mm_hotsprings.png,,,,,,,,,,,,,,,,,,,,,,,,,,,,
null,,rt_thecrossant_black,899955,black_plus_sign,,,,,null,,,1,0.9112903225806451,,,,,,,,,,,,,,,,,,,,,,,,,,
null,,color_black,900064,black_plus_sign,,,,,null,,,,,,,,,,,,,,,,,,,,,,,,,,,,,,
null,,learn_phase(without_color),902678,black_plus_sign,,,,,null,US_Cities_List/nat_huntsville.png,US_Cities_List/nat_cornwall.png,,,,,,,,,,,,,,,,,,,,,,,,,,,,
null,,black_cross(without_color),903569,blue,,,,,null,US_Cities_List/nat_huntsville.png,US_Cities_List/nat_cornwall.png,,,,,,,,,,,,,,,,,,,,,,,,,,,,
null,,rt_plussign_withcolor,904083,blue,,,,,null,US_Cities_List/nat_huntsville.png,US_Cities_List/nat_cornwall.png,,,,,,,,,,,,,,,,,,,,,,,,,,,,
1181.7000000476837,,rt_thecrossant_black,905202,black_plus_sign,,,,,49,,,1,0.912,,,,,,,,,,,,,,,,,,,,,,,,,,
null,,color_black,905310,black_plus_sign,,,,,null,,,,,,,,,,,,,,,,,,,,,,,,,,,,,,
null,,learn_phase(without_color),907897,black_plus_sign,,,,,null,US_Cities_List/mm_westpalmbeach.png,US_Cities_List/mm_carmel.png,,,,,,,,,,,,,,,,,,,,,,,,,,,,
null,,black_cross(without_color),908701,green,,,,,null,US_Cities_List/mm_westpalmbeach.png,US_Cities_List/mm_carmel.png,,,,,,,,,,,,,,,,,,,,,,,,,,,,
null,,rt_plussign_withcolor,909213,green,,,,,null,US_Cities_List/mm_westpalmbeach.png,US_Cities_List/mm_carmel.png,,,,,,,,,,,,,,,,,,,,,,,,,,,,
1079.6000000238419,,rt_thecrossant_black,910426,black_plus_sign,,,,,49,,,0,0.9047619047619048,,,,,,,,,,,,,,,,,,,,,,,,,,
null,,color_black,910533,black_plus_sign,,,,,null,,,,,,,,,,,,,,,,,,,,,,,,,,,,,,
null,,learn_phase(without_color),913129,black_plus_sign,,,,,null,US_Cities_List/nat_racine.png,US_Cities_List/mm_hotsprings.png,,,,,,,,,,,,,,,,,,,,,,,,,,,,
null,,black_cross(without_color),913929,green,,,,,null,US_Cities_List/nat_racine.png,US_Cities_List/mm_hotsprings.png,,,,,,,,,,,,,,,,,,,,,,,,,,,,
432,,rt_plussign_withcolor,914436,green,,,,,50,US_Cities_List/nat_racine.png,US_Cities_List/mm_hotsprings.png,,,,,,,,,,,,,,,,,,,,,,,,,,,,
null,,rt_thecrossant_black,915659,black_plus_sign,,,,,null,,,1,0.905511811023622,,,,,,,,,,,,,,,,,,,,,,,,,,
null,,color_black,915775,black_plus_sign,,,,,null,,,,,,,,,,,,,,,,,,,,,,,,,,,,,,
null,,learn_phase(without_color),918346,black_plus_sign,,,,,null,US_Cities_List/nat_leesburg.png,US_Cities_List/nat_gatlinburg.png,,,,,,,,,,,,,,,,,,,,,,,,,,,,
null,,black_cross(without_color),919178,blue,,,,,null,US_Cities_List/nat_leesburg.png,US_Cities_List/nat_gatlinburg.png,,,,,,,,,,,,,,,,,,,,,,,,,,,,
null,,rt_plussign_withcolor,919689,blue,,,,,null,US_Cities_List/nat_leesburg.png,US_Cities_List/nat_gatlinburg.png,,,,,,,,,,,,,,,,,,,,,,,,,,,,
930.9000000953674,,rt_thecrossant_black,920876,black_plus_sign,,,,,49,,,1,0.90625,,,,,,,,,,,,,,,,,,,,,,,,,,
null,,color_black,920984,black_plus_sign,,,,,null,,,,,,,,,,,,,,,,,,,,,,,,,,,,,,
28723.100000023842,,intro_1,949713,instruct,,,0,,,,,,,,,,,,,,,,,,,,,,,,,,,,,,,,
24677.299999952316,,intro_2,974397,instruct,,,1,Next,,,,,,,,,,,,,,,,,,,,,,,,,,,,,,,
5302.199999928474,,directmemory_phase,979839,../static/images/US_Cities_List/mm_hotsprings.png,,,,,49,,,1,1,../static/images/US_Cities_List/mm_carmel.png,../static/images/US_Cities_List/mm_boulder.png,../static/images/US_Cities_List/mm_shreveport.png,../static/images/US_Cities_List/mm_carmel.png,../static/images/US_Cities_List/mm_shreveport.png,../static/images/US_Cities_List/mm_boulder.png,1,,,,,,,,,,,,,,,,,,,
null,,html-keyboard-response,980856,<p></p>,,,,,null,,,,,,,,,,,,,,,,,,,,,,,,,,,,,,
4895.100000023842,,directmemory_phase,985847,../static/images/US_Cities_List/nat_huntsville.png,,,,,51,,,0,0.5,../static/images/US_Cities_List/nat_leesburg.png,../static/images/US_Cities_List/nat_cornwall.png,../static/images/US_Cities_List/nat_peoria.png,../static/images/US_Cities_List/nat_cornwall.png,../static/images/US_Cities_List/nat_leesburg.png,../static/images/US_Cities_List/nat_peoria.png,0.5,closer,,,,,,,,,,,,,,,,,,
null,,html-keyboard-response,986876,<p></p>,,,,,null,,,,,,,,,,,,,,,,,,,,,,,,,,,,,,
3312.600000023842,,directmemory_phase,990317,../static/images/US_Cities_List/mm_carmel.png,,,,,50,,,1,0.6666666666666666,../static/images/US_Cities_List/nat_newhope.png,../static/images/US_Cities_List/mm_westpalmbeach.png,../static/images/US_Cities_List/nat_gatlinburg.png,../static/images/US_Cities_List/mm_westpalmbeach.png,../static/images/US_Cities_List/nat_newhope.png,../static/images/US_Cities_List/nat_gatlinburg.png,1,,,,,,,,,,,,,,,,,,,
null,,html-keyboard-response,991344,<p></p>,,,,,null,,,,,,,,,,,,,,,,,,,,,,,,,,,,,,
6218.5,,directmemory_phase,997666,../static/images/US_Cities_List/nat_cornwall.png,,,,,49,,,0,0.5,../static/images/US_Cities_List/mm_carmel.png,../static/images/US_Cities_List/nat_gatlinburg.png,../static/images/US_Cities_List/nat_racine.png,../static/images/US_Cities_List/nat_racine.png,../static/images/US_Cities_List/nat_gatlinburg.png,../static/images/US_Cities_List/mm_carmel.png,0.5,closer,,,,,,,,,,,,,,,,,,
null,,html-keyboard-response,998687,<p></p>,,,,,null,,,,,,,,,,,,,,,,,,,,,,,,,,,,,,
4096.700000047684,,directmemory_phase,1002858,../static/images/US_Cities_List/mm_westpalmbeach.png,,,,,51,,,0,0.4,../static/images/US_Cities_List/mm_carmel.png,../static/images/US_Cities_List/nat_huntsville.png,../static/images/US_Cities_List/mm_hotsprings.png,../static/images/US_Cities_List/mm_carmel.png,../static/images/US_Cities_List/mm_hotsprings.png,../static/images/US_Cities_List/nat_huntsville.png,0.5,closer,,,,,,,,,,,,,,,,,,
null,,html-keyboard-response,1003885,<p></p>,,,,,null,,,,,,,,,,,,,,,,,,,,,,,,,,,,,,
6230.799999952316,,directmemory_phase,1010218,../static/images/US_Cities_List/nat_gatlinburg.png,,,,,51,,,1,0.5,../static/images/US_Cities_List/nat_huntsville.png,../static/images/US_Cities_List/nat_newhope.png,../static/images/US_Cities_List/nat_leesburg.png,../static/images/US_Cities_List/nat_leesburg.png,../static/images/US_Cities_List/nat_newhope.png,../static/images/US_Cities_List/nat_huntsville.png,1,,,,,,,,,,,,,,,,,,,
null,,html-keyboard-response,1011236,<p></p>,,,,,null,,,,,,,,,,,,,,,,,,,,,,,,,,,,,,
5363.299999952316,,directmemory_phase,1016765,../static/images/US_Cities_List/mm_hotsprings.png,,,,,51,,,1,0.5714285714285714,../static/images/US_Cities_List/nat_gatlinburg.png,../static/images/US_Cities_List/nat_leesburg.png,../static/images/US_Cities_List/nat_racine.png,../static/images/US_Cities_List/nat_racine.png,../static/images/US_Cities_List/nat_leesburg.png,../static/images/US_Cities_List/nat_gatlinburg.png,1,,,,,,,,,,,,,,,,,,,
null,,html-keyboard-response,1017795,<p></p>,,,,,null,,,,,,,,,,,,,,,,,,,,,,,,,,,,,,
3163.600000023842,,directmemory_phase,1021075,../static/images/US_Cities_List/nat_peoria.png,,,,,50,,,1,0.625,../static/images/US_Cities_List/nat_racine.png,../static/images/US_Cities_List/mm_carmel.png,../static/images/US_Cities_List/nat_huntsville.png,../static/images/US_Cities_List/mm_carmel.png,../static/images/US_Cities_List/nat_racine.png,../static/images/US_Cities_List/nat_huntsville.png,1,,,,,,,,,,,,,,,,,,,
null,,html-keyboard-response,1022098,<p></p>,,,,,null,,,,,,,,,,,,,,,,,,,,,,,,,,,,,,
3419.7000000476837,,directmemory_phase,1025667,../static/images/US_Cities_List/nat_racine.png,,,,,49,,,0,0.5555555555555556,../static/images/US_Cities_List/mm_carmel.png,../static/images/US_Cities_List/mm_westpalmbeach.png,../static/images/US_Cities_List/mm_boulder.png,../static/images/US_Cities_List/mm_westpalmbeach.png,../static/images/US_Cities_List/mm_carmel.png,../static/images/US_Cities_List/mm_boulder.png,0.5,closer,,,,,,,,,,,,,,,,,,
null,,html-keyboard-response,1026688,<p></p>,,,,,null,,,,,,,,,,,,,,,,,,,,,,,,,,,,,,
3957.600000023842,,directmemory_phase,1030756,../static/images/US_Cities_List/nat_cornwall.png,,,,,51,,,1,0.6,../static/images/US_Cities_List/mm_hanover.png,../static/images/US_Cities_List/mm_hotsprings.png,../static/images/US_Cities_List/nat_leesburg.png,../static/images/US_Cities_List/nat_leesburg.png,../static/images/US_Cities_List/mm_hotsprings.png,../static/images/US_Cities_List/mm_hanover.png,1,,,,,,,,,,,,,,,,,,,
null,,html-keyboard-response,1031778,<p></p>,,,,,null,,,,,,,,,,,,,,,,,,,,,,,,,,,,,,
4172.399999976158,,directmemory_phase,1036073,../static/images/US_Cities_List/mm_westpalmbeach.png,,,,,51,,,1,0.6363636363636364,../static/images/US_Cities_List/nat_gatlinburg.png,../static/images/US_Cities_List/nat_cornwall.png,../static/images/US_Cities_List/nat_peoria.png,../static/images/US_Cities_List/nat_peoria.png,../static/images/US_Cities_List/nat_cornwall.png,../static/images/US_Cities_List/nat_gatlinburg.png,1,,,,,,,,,,,,,,,,,,,
null,,html-keyboard-response,1037104,<p></p>,,,,,null,,,,,,,,,,,,,,,,,,,,,,,,,,,,,,
2452.1999999284744,,directmemory_phase,1039698,../static/images/US_Cities_List/nat_racine.png,,,,,49,,,1,0.6666666666666666,../static/images/US_Cities_List/nat_cornwall.png,../static/images/US_Cities_List/nat_gatlinburg.png,../static/images/US_Cities_List/nat_newhope.png,../static/images/US_Cities_List/nat_cornwall.png,../static/images/US_Cities_List/nat_newhope.png,../static/images/US_Cities_List/nat_gatlinburg.png,1,,,,,,,,,,,,,,,,,,,
null,,html-keyboard-response,1040729,<p></p>,,,,,null,,,,,,,,,,,,,,,,,,,,,,,,,,,,,,
3244.9000000953674,,directmemory_phase,1044120,../static/images/US_Cities_List/mm_shreveport.png,,,,,51,,,0,0.6153846153846154,../static/images/US_Cities_List/mm_hanover.png,../static/images/US_Cities_List/mm_carmel.png,../static/images/US_Cities_List/nat_racine.png,../static/images/US_Cities_List/mm_carmel.png,../static/images/US_Cities_List/mm_hanover.png,../static/images/US_Cities_List/nat_racine.png,0.5,closer,,,,,,,,,,,,,,,,,,
null,,html-keyboard-response,1045141,<p></p>,,,,,null,,,,,,,,,,,,,,,,,,,,,,,,,,,,,,
2085.399999976158,,directmemory_phase,1047405,../static/images/US_Cities_List/nat_cornwall.png,,,,,50,,,0,0.5714285714285714,../static/images/US_Cities_List/nat_huntsville.png,../static/images/US_Cities_List/mm_carmel.png,../static/images/US_Cities_List/nat_newhope.png,../static/images/US_Cities_List/nat_huntsville.png,../static/images/US_Cities_List/nat_newhope.png,../static/images/US_Cities_List/mm_carmel.png,0.5,closer,,,,,,,,,,,,,,,,,,
null,,html-keyboard-response,1048427,<p></p>,,,,,null,,,,,,,,,,,,,,,,,,,,,,,,,,,,,,
4461.700000047684,,directmemory_phase,1053029,../static/images/US_Cities_List/mm_westpalmbeach.png,,,,,51,,,1,0.6,../static/images/US_Cities_List/nat_leesburg.png,../static/images/US_Cities_List/mm_hanover.png,../static/images/US_Cities_List/nat_racine.png,../static/images/US_Cities_List/nat_racine.png,../static/images/US_Cities_List/mm_hanover.png,../static/images/US_Cities_List/nat_leesburg.png,1,,,,,,,,,,,,,,,,,,,
null,,html-keyboard-response,1054053,<p></p>,,,,,null,,,,,,,,,,,,,,,,,,,,,,,,,,,,,,
5233.200000047684,,directmemory_phase,1059416,../static/images/US_Cities_List/mm_hanover.png,,,,,51,,,0,0.5625,../static/images/US_Cities_List/mm_carmel.png,../static/images/US_Cities_List/nat_peoria.png,../static/images/US_Cities_List/mm_hotsprings.png,../static/images/US_Cities_List/nat_peoria.png,../static/images/US_Cities_List/mm_carmel.png,../static/images/US_Cities_List/mm_hotsprings.png,0.5,closer,,,,,,,,,,,,,,,,,,
null,,html-keyboard-response,1060439,<p></p>,,,,,null,,,,,,,,,,,,,,,,,,,,,,,,,,,,,,
3199,,directmemory_phase,1063797,../static/images/US_Cities_List/nat_racine.png,,,,,50,,,0,0.5294117647058824,../static/images/US_Cities_List/mm_hotsprings.png,../static/images/US_Cities_List/mm_shreveport.png,../static/images/US_Cities_List/nat_leesburg.png,../static/images/US_Cities_List/mm_hotsprings.png,../static/images/US_Cities_List/nat_leesburg.png,../static/images/US_Cities_List/mm_shreveport.png,0.5,closer,,,,,,,,,,,,,,,,,,
null,,html-keyboard-response,1064822,<p></p>,,,,,null,,,,,,,,,,,,,,,,,,,,,,,,,,,,,,
2907.100000023842,,directmemory_phase,1067831,../static/images/US_Cities_List/nat_leesburg.png,,,,,50,,,0,0.5,../static/images/US_Cities_List/nat_newhope.png,../static/images/US_Cities_List/mm_westpalmbeach.png,../static/images/US_Cities_List/nat_huntsville.png,../static/images/US_Cities_List/nat_newhope.png,../static/images/US_Cities_List/nat_huntsville.png,../static/images/US_Cities_List/mm_westpalmbeach.png,0.5,closer,,,,,,,,,,,,,,,,,,
null,,html-keyboard-response,1068864,<p></p>,,,,,null,,,,,,,,,,,,,,,,,,,,,,,,,,,,,,
2562.600000023842,,directmemory_phase,1071538,../static/images/US_Cities_List/nat_peoria.png,,,,,49,,,1,0.5263157894736842,../static/images/US_Cities_List/mm_westpalmbeach.png,../static/images/US_Cities_List/nat_leesburg.png,../static/images/US_Cities_List/mm_boulder.png,../static/images/US_Cities_List/mm_westpalmbeach.png,../static/images/US_Cities_List/mm_boulder.png,../static/images/US_Cities_List/nat_leesburg.png,1,,,,,,,,,,,,,,,,,,,
null,,html-keyboard-response,1072565,<p></p>,,,,,null,,,,,,,,,,,,,,,,,,,,,,,,,,,,,,
4389.799999952316,,directmemory_phase,1077074,../static/images/US_Cities_List/nat_leesburg.png,,,,,50,,,1,0.55,../static/images/US_Cities_List/nat_racine.png,../static/images/US_Cities_List/nat_cornwall.png,../static/images/US_Cities_List/nat_peoria.png,../static/images/US_Cities_List/nat_cornwall.png,../static/images/US_Cities_List/nat_racine.png,../static/images/US_Cities_List/nat_peoria.png,1,,,,,,,,,,,,,,,,,,,
null,,html-keyboard-response,1078103,<p></p>,,,,,null,,,,,,,,,,,,,,,,,,,,,,,,,,,,,,
4632,,directmemory_phase,1082907,../static/images/US_Cities_List/mm_hotsprings.png,,,,,51,,,0,0.5238095238095238,../static/images/US_Cities_List/mm_shreveport.png,../static/images/US_Cities_List/nat_newhope.png,../static/images/US_Cities_List/mm_hanover.png,../static/images/US_Cities_List/nat_newhope.png,../static/images/US_Cities_List/mm_shreveport.png,../static/images/US_Cities_List/mm_hanover.png,0.5,closer,,,,,,,,,,,,,,,,,,
null,,html-keyboard-response,1083925,<p></p>,,,,,null,,,,,,,,,,,,,,,,,,,,,,,,,,,,,,
null,,directmemory_phase,1090545,../static/images/US_Cities_List/mm_shreveport.png,,,,,null,,,0,0.5,../static/images/US_Cities_List/mm_hanover.png,../static/images/US_Cities_List/nat_peoria.png,../static/images/US_Cities_List/nat_cornwall.png,../static/images/US_Cities_List/nat_peoria.png,../static/images/US_Cities_List/mm_hanover.png,../static/images/US_Cities_List/nat_cornwall.png,0,,,,,,,,,,,,,,,,,,,
null,,html-keyboard-response,1091565,<p></p>,,,,,null,,,,,,,,,,,,,,,,,,,,,,,,,,,,,,
0.2999999523162842,,directmemory_phase,1091756,../static/images/US_Cities_List/nat_newhope.png,,,,,50,,,0,0.4782608695652174,../static/images/US_Cities_List/mm_shreveport.png,../static/images/US_Cities_List/nat_racine.png,../static/images/US_Cities_List/mm_hotsprings.png,../static/images/US_Cities_List/mm_hotsprings.png,../static/images/US_Cities_List/nat_racine.png,../static/images/US_Cities_List/mm_shreveport.png,0.5,closer,,,,,,,,,,,,,,,,,,
null,,html-keyboard-response,1092768,<p></p>,,,,,null,,,,,,,,,,,,,,,,,,,,,,,,,,,,,,
4091.100000023842,,directmemory_phase,1097001,../static/images/US_Cities_List/mm_shreveport.png,,,,,49,,,1,0.5,../static/images/US_Cities_List/mm_boulder.png,../static/images/US_Cities_List/nat_leesburg.png,../static/images/US_Cities_List/mm_westpalmbeach.png,../static/images/US_Cities_List/mm_boulder.png,../static/images/US_Cities_List/mm_westpalmbeach.png,../static/images/US_Cities_List/nat_leesburg.png,1,,,,,,,,,,,,,,,,,,,
null,,html-keyboard-response,1098030,<p></p>,,,,,null,,,,,,,,,,,,,,,,,,,,,,,,,,,,,,
