rt,responses,trial_type,time_elapsed,stimulus,cities,city_images,button_pressed,response,key_press,stimulus_left,stimulus_right,accuracy,cumulative_accuracy,stimulus_down_left,stimulus_down_mid,stimulus_down_right,stimulus_correct,stimulus_short,stimulus_far,weighted_accuracy,missedtrial,condition,specific_pairs,imgL_ID,imgR_ID,linedress,linedressed,image_position,unknowncity,testedstates,currentstate,otherstate,problems,smooth,distraction,strategies,easier,similar,comments
256848.5,{worker_id:67cf70ec9741a100ffc7f570},id_enter,256856,intro,Gatlinburg; Boulder; Shreveport; Carmel; Racine; Peoria; Huntsville; Hanover; Leesburg; Cornwall; New Hope; Hot Springs; West Palm Beach,US_Cities_List/nat_gatlinburg.png; US_Cities_List/mm_boulder.png; US_Cities_List/mm_shreveport.png; US_Cities_List/mm_carmel.png; US_Cities_List/nat_racine.png; US_Cities_List/nat_peoria.png; US_Cities_List/nat_huntsville.png; US_Cities_List/nat_hanover.png; US_Cities_List/mm_leesburg.png; US_Cities_List/nat_cornwall.png; US_Cities_List/nat_newhope.png; US_Cities_List/mm_hotsprings.png; US_Cities_List/mm_westpalmbeach.png,,,,,,,,,,,,,,,,,,,,,,,,,,,,,,,,,
1802463.6000000015,,fullscreen,2059339,make_fullscreen,,,0,,,,,,,,,,,,,,,,,,,,,,,,,,,,,,,,
14881.89999999851,,intro_1,2074239,instruct,,,0,,,,,,,,,,,,,,,,,,,,,,,,,,,,,,,,
18990.89999999851,,intro_2,2093238,instruct,,,1,Next,,,,,,,,,,,,,,,,,,,,,,,,,,,,,,,
17460.5,,intro_3,2110702,instruct,,,1,Next,,,,,,,,,,,,,,,,,,,,,,,,,,,,,,,
30715.69999999553,,intro_4,2141422,instruct,,,1,Next,,,,,,,,,,,,,,,,,,,,,,,,,,,,,,,
11197.39999999851,,intro_5,2152623,instruct,,,1,Next,,,,,,,,,,,,,,,,,,,,,,,,,,,,,,,
48212.5,,intro_6,2200840,instruct,,,1,Next,,,,,,,,,,,,,,,,,,,,,,,,,,,,,,,
null,,prac_atten_color_black,2201217,black_plus_sign,,,,,null,,,,,,,,,,,,,,,,,,,,,,,,,,,,,,
523.7000000029802,,prac_atten_color,2202248,prac_stop_color,,,,,49,,,,,,,,,,,,,,,,,,,,,,,,,,,,,,
null,,prac_atten_color_black,2204252,black_plus_sign,,,,,null,,,,,,,,,,,,,,,,,,,,,,,,,,,,,,
null,,prac_atten_color_black,2204629,black_plus_sign,,,,,null,,,,,,,,,,,,,,,,,,,,,,,,,,,,,,
null,,prac_atten_color,2205210,prac_stop_color,,,,,null,,,,,,,,,,,,,,,,,,,,,,,,,,,,,,
87.39999999850988,,prac_atten_color_black,2207213,black_plus_sign,,,,,50,,,,,,,,,,,,,,,,,,,,,,,,,,,,,,
null,,prac_atten_color_black,2208040,black_plus_sign,,,,,null,,,,,,,,,,,,,,,,,,,,,,,,,,,,,,
452.6000000014901,,prac_atten_color,2209017,prac_stop_color,,,,,50,,,,,,,,,,,,,,,,,,,,,,,,,,,,,,
null,,prac_atten_color_black,2211020,black_plus_sign,,,,,null,,,,,,,,,,,,,,,,,,,,,,,,,,,,,,
null,,prac_atten_color_black,2211449,black_plus_sign,,,,,null,,,,,,,,,,,,,,,,,,,,,,,,,,,,,,
null,,prac_atten_color,2211957,prac_stop_color,,,,,null,,,,,,,,,,,,,,,,,,,,,,,,,,,,,,
275.6000000014901,,prac_atten_color_black,2213961,black_plus_sign,,,,,49,,,,,,,,,,,,,,,,,,,,,,,,,,,,,,
null,,prac_atten_color_black,2214861,black_plus_sign,,,,,null,,,,,,,,,,,,,,,,,,,,,,,,,,,,,,
602.2000000029802,,prac_atten_color,2215933,prac_stop_color,,,,,50,,,,,,,,,,,,,,,,,,,,,,,,,,,,,,
null,,prac_atten_color_black,2217937,black_plus_sign,,,,,null,,,,,,,,,,,,,,,,,,,,,,,,,,,,,,
null,,prac_atten_color_black,2218270,black_plus_sign,,,,,null,,,,,,,,,,,,,,,,,,,,,,,,,,,,,,
null,,prac_atten_color,2218775,prac_stop_color,,,,,null,,,,,,,,,,,,,,,,,,,,,,,,,,,,,,
18.700000002980232,,prac_atten_color_black,2220779,black_plus_sign,,,,,50,,,,,,,,,,,,,,,,,,,,,,,,,,,,,,
null,,prac_atten_color_black,2221688,black_plus_sign,,,,,null,,,,,,,,,,,,,,,,,,,,,,,,,,,,,,
null,,prac_atten_color,2222150,prac_stop_color,,,,,null,,,,,,,,,,,,,,,,,,,,,,,,,,,,,,
37.900000005960464,,prac_atten_color_black,2224153,black_plus_sign,,,,,49,,,,,,,,,,,,,,,,,,,,,,,,,,,,,,
null,,prac_atten_color_black,2225099,black_plus_sign,,,,,null,,,,,,,,,,,,,,,,,,,,,,,,,,,,,,
549.4000000059605,,prac_atten_color,2226172,prac_stop_color,,,,,50,,,,,,,,,,,,,,,,,,,,,,,,,,,,,,
null,,prac_atten_color_black,2228174,black_plus_sign,,,,,null,,,,,,,,,,,,,,,,,,,,,,,,,,,,,,
null,,prac_atten_color_black,2228507,black_plus_sign,,,,,null,,,,,,,,,,,,,,,,,,,,,,,,,,,,,,
null,,prac_atten_color,2228911,prac_stop_color,,,,,null,,,,,,,,,,,,,,,,,,,,,,,,,,,,,,
116.19999999552965,,prac_atten_color_black,2230913,black_plus_sign,,,,,49,,,,,,,,,,,,,,,,,,,,,,,,,,,,,,
null,,prac_atten_color_black,2231917,black_plus_sign,,,,,null,,,,,,,,,,,,,,,,,,,,,,,,,,,,,,
497.59999999403954,,prac_atten_color,2232557,prac_stop_color,,,,,49,,,,,,,,,,,,,,,,,,,,,,,,,,,,,,
null,,prac_atten_color_black,2234560,black_plus_sign,,,,,null,,,,,,,,,,,,,,,,,,,,,,,,,,,,,,
13199.10000000149,,attentioncheck_feedback,2247763,cross_check_feedback,,,0,,,,,,,,,,,,,,,,,,,,,,,,,,,,,,,,
15962.10000000149,,last_instruct,2263728,instruct,,,,,32,,,,,,,,,,,,,,,,,,,,,,,,,,,,,,
null,,learn_phase(without_color),2265798,black_plus_sign,,,,,null,US_Cities_List/nat_hanover.png,US_Cities_List/mm_leesburg.png,,,,,,,,,,,,,,,,,,,,,,,,,,,,
null,,black_cross(without_color),2266829,blue,,,,,null,US_Cities_List/nat_hanover.png,US_Cities_List/mm_leesburg.png,,,,,,,,,,,,,,,,,,,,,,,,,,,,
null,,rt_plussign_withcolor,2267333,blue,,,,,null,US_Cities_List/nat_hanover.png,US_Cities_List/mm_leesburg.png,,,,,,,,,,,,,,,,,,,,,,,,,,,,
899.2000000029802,,rt_thecrossant_black,2268309,black_plus_sign,,,,,49,,,1,1,,,,,,,,,,,,,,,,,,,,,,,,,,
null,,color_black,2268413,black_plus_sign,,,,,null,,,,,,,,,,,,,,,,,,,,,,,,,,,,,,
null,,learn_phase(without_color),2271013,black_plus_sign,,,,,null,US_Cities_List/mm_shreveport.png,US_Cities_List/nat_peoria.png,,,,,,,,,,,,,,,,,,,,,,,,,,,,
null,,black_cross(without_color),2271591,green,,,,,null,US_Cities_List/mm_shreveport.png,US_Cities_List/nat_peoria.png,,,,,,,,,,,,,,,,,,,,,,,,,,,,
471.70000000298023,,rt_plussign_withcolor,2272093,green,,,,,50,US_Cities_List/mm_shreveport.png,US_Cities_List/nat_peoria.png,,,,,,,,,,,,,,,,,,,,,,,,,,,,
null,,rt_thecrossant_black,2273523,black_plus_sign,,,,,null,,,1,1,,,,,,,,,,,,,,,,,,,,,,,,,,
null,,color_black,2273626,black_plus_sign,,,,,null,,,,,,,,,,,,,,,,,,,,,,,,,,,,,,
null,,learn_phase(without_color),2276216,black_plus_sign,,,,,null,US_Cities_List/mm_carmel.png,US_Cities_List/mm_hotsprings.png,,,,,,,,,,,,,,,,,,,,,,,,,,,,
null,,black_cross(without_color),2277259,green,,,,,null,US_Cities_List/mm_carmel.png,US_Cities_List/mm_hotsprings.png,,,,,,,,,,,,,,,,,,,,,,,,,,,,
null,,rt_plussign_withcolor,2277762,green,,,,,null,US_Cities_List/mm_carmel.png,US_Cities_List/mm_hotsprings.png,,,,,,,,,,,,,,,,,,,,,,,,,,,,
807.9000000059605,,rt_thecrossant_black,2278726,black_plus_sign,,,,,50,,,1,1,,,,,,,,,,,,,,,,,,,,,,,,,,
null,,color_black,2278829,black_plus_sign,,,,,null,,,,,,,,,,,,,,,,,,,,,,,,,,,,,,
null,,learn_phase(without_color),2281413,black_plus_sign,,,,,null,US_Cities_List/mm_shreveport.png,US_Cities_List/nat_peoria.png,,,,,,,,,,,,,,,,,,,,,,,,,,,,
null,,black_cross(without_color),2281846,blue,,,,,null,US_Cities_List/mm_shreveport.png,US_Cities_List/nat_peoria.png,,,,,,,,,,,,,,,,,,,,,,,,,,,,
null,,rt_plussign_withcolor,2282349,blue,,,,,null,US_Cities_List/mm_shreveport.png,US_Cities_List/nat_peoria.png,,,,,,,,,,,,,,,,,,,,,,,,,,,,
1426.6000000014901,,rt_thecrossant_black,2283923,black_plus_sign,,,,,49,,,1,1,,,,,,,,,,,,,,,,,,,,,,,,,,
null,,color_black,2284026,black_plus_sign,,,,,null,,,,,,,,,,,,,,,,,,,,,,,,,,,,,,
null,,learn_phase(without_color),2286621,black_plus_sign,,,,,null,US_Cities_List/nat_peoria.png,US_Cities_List/nat_huntsville.png,,,,,,,,,,,,,,,,,,,,,,,,,,,,
null,,black_cross(without_color),2287336,blue,,,,,null,US_Cities_List/nat_peoria.png,US_Cities_List/nat_huntsville.png,,,,,,,,,,,,,,,,,,,,,,,,,,,,
null,,rt_plussign_withcolor,2287839,blue,,,,,null,US_Cities_List/nat_peoria.png,US_Cities_List/nat_huntsville.png,,,,,,,,,,,,,,,,,,,,,,,,,,,,
865.1999999955297,,rt_thecrossant_black,2289146,black_plus_sign,,,,,49,,,1,1,,,,,,,,,,,,,,,,,,,,,,,,,,
null,,color_black,2289249,black_plus_sign,,,,,null,,,,,,,,,,,,,,,,,,,,,,,,,,,,,,
null,,learn_phase(without_color),2291833,black_plus_sign,,,,,null,US_Cities_List/mm_boulder.png,US_Cities_List/mm_carmel.png,,,,,,,,,,,,,,,,,,,,,,,,,,,,
null,,black_cross(without_color),2292755,blue,,,,,null,US_Cities_List/mm_boulder.png,US_Cities_List/mm_carmel.png,,,,,,,,,,,,,,,,,,,,,,,,,,,,
null,,rt_plussign_withcolor,2293258,blue,,,,,null,US_Cities_List/mm_boulder.png,US_Cities_List/mm_carmel.png,,,,,,,,,,,,,,,,,,,,,,,,,,,,
916.6000000014901,,rt_thecrossant_black,2294342,black_plus_sign,,,,,49,,,1,1,,,,,,,,,,,,,,,,,,,,,,,,,,
null,,color_black,2294446,black_plus_sign,,,,,null,,,,,,,,,,,,,,,,,,,,,,,,,,,,,,
null,,learn_phase(without_color),2297027,black_plus_sign,,,,,null,US_Cities_List/mm_leesburg.png,US_Cities_List/nat_newhope.png,,,,,,,,,,,,,,,,,,,,,,,,,,,,
null,,black_cross(without_color),2297959,blue,,,,,null,US_Cities_List/mm_leesburg.png,US_Cities_List/nat_newhope.png,,,,,,,,,,,,,,,,,,,,,,,,,,,,
null,,rt_plussign_withcolor,2298462,blue,,,,,null,US_Cities_List/mm_leesburg.png,US_Cities_List/nat_newhope.png,,,,,,,,,,,,,,,,,,,,,,,,,,,,
1236.5999999940395,,rt_thecrossant_black,2299536,black_plus_sign,,,,,49,,,1,1,,,,,,,,,,,,,,,,,,,,,,,,,,
null,,color_black,2299640,black_plus_sign,,,,,null,,,,,,,,,,,,,,,,,,,,,,,,,,,,,,
null,,learn_phase(without_color),2302243,black_plus_sign,,,,,null,US_Cities_List/nat_peoria.png,US_Cities_List/nat_huntsville.png,,,,,,,,,,,,,,,,,,,,,,,,,,,,
null,,black_cross(without_color),2302961,blue,,,,,null,US_Cities_List/nat_peoria.png,US_Cities_List/nat_huntsville.png,,,,,,,,,,,,,,,,,,,,,,,,,,,,
null,,rt_plussign_withcolor,2303464,blue,,,,,null,US_Cities_List/nat_peoria.png,US_Cities_List/nat_huntsville.png,,,,,,,,,,,,,,,,,,,,,,,,,,,,
1132,,rt_thecrossant_black,2304750,black_plus_sign,,,,,49,,,1,1,,,,,,,,,,,,,,,,,,,,,,,,,,
null,,color_black,2304854,black_plus_sign,,,,,null,,,,,,,,,,,,,,,,,,,,,,,,,,,,,,
null,,learn_phase(without_color),2307442,black_plus_sign,,,,,null,US_Cities_List/mm_boulder.png,US_Cities_List/mm_shreveport.png,,,,,,,,,,,,,,,,,,,,,,,,,,,,
null,,black_cross(without_color),2307998,blue,,,,,null,US_Cities_List/mm_boulder.png,US_Cities_List/mm_shreveport.png,,,,,,,,,,,,,,,,,,,,,,,,,,,,
null,,rt_plussign_withcolor,2308501,blue,,,,,null,US_Cities_List/mm_boulder.png,US_Cities_List/mm_shreveport.png,,,,,,,,,,,,,,,,,,,,,,,,,,,,
924.5,,rt_thecrossant_black,2309950,black_plus_sign,,,,,49,,,1,1,,,,,,,,,,,,,,,,,,,,,,,,,,
null,,color_black,2310054,black_plus_sign,,,,,null,,,,,,,,,,,,,,,,,,,,,,,,,,,,,,
null,,learn_phase(without_color),2312634,black_plus_sign,,,,,null,US_Cities_List/nat_huntsville.png,US_Cities_List/nat_hanover.png,,,,,,,,,,,,,,,,,,,,,,,,,,,,
null,,black_cross(without_color),2313066,green,,,,,null,US_Cities_List/nat_huntsville.png,US_Cities_List/nat_hanover.png,,,,,,,,,,,,,,,,,,,,,,,,,,,,
null,,rt_plussign_withcolor,2313569,green,,,,,null,US_Cities_List/nat_huntsville.png,US_Cities_List/nat_hanover.png,,,,,,,,,,,,,,,,,,,,,,,,,,,,
653.5,,rt_thecrossant_black,2315144,black_plus_sign,,,,,50,,,1,1,,,,,,,,,,,,,,,,,,,,,,,,,,
null,,color_black,2315247,black_plus_sign,,,,,null,,,,,,,,,,,,,,,,,,,,,,,,,,,,,,
null,,learn_phase(without_color),2317852,black_plus_sign,,,,,null,US_Cities_List/nat_huntsville.png,US_Cities_List/mm_westpalmbeach.png,,,,,,,,,,,,,,,,,,,,,,,,,,,,
null,,black_cross(without_color),2318659,blue,,,,,null,US_Cities_List/nat_huntsville.png,US_Cities_List/mm_westpalmbeach.png,,,,,,,,,,,,,,,,,,,,,,,,,,,,
null,,rt_plussign_withcolor,2319162,blue,,,,,null,US_Cities_List/nat_huntsville.png,US_Cities_List/mm_westpalmbeach.png,,,,,,,,,,,,,,,,,,,,,,,,,,,,
608,,rt_thecrossant_black,2320362,black_plus_sign,,,,,49,,,1,1,,,,,,,,,,,,,,,,,,,,,,,,,,
null,,color_black,2320466,black_plus_sign,,,,,null,,,,,,,,,,,,,,,,,,,,,,,,,,,,,,
null,,learn_phase(without_color),2323062,black_plus_sign,,,,,null,US_Cities_List/nat_huntsville.png,US_Cities_List/mm_leesburg.png,,,,,,,,,,,,,,,,,,,,,,,,,,,,
null,,black_cross(without_color),2323817,blue,,,,,null,US_Cities_List/nat_huntsville.png,US_Cities_List/mm_leesburg.png,,,,,,,,,,,,,,,,,,,,,,,,,,,,
null,,rt_plussign_withcolor,2324320,blue,,,,,null,US_Cities_List/nat_huntsville.png,US_Cities_List/mm_leesburg.png,,,,,,,,,,,,,,,,,,,,,,,,,,,,
908.2999999970198,,rt_thecrossant_black,2325571,black_plus_sign,,,,,49,,,1,1,,,,,,,,,,,,,,,,,,,,,,,,,,
null,,color_black,2325675,black_plus_sign,,,,,null,,,,,,,,,,,,,,,,,,,,,,,,,,,,,,
null,,learn_phase(without_color),2328265,black_plus_sign,,,,,null,US_Cities_List/nat_gatlinburg.png,US_Cities_List/mm_boulder.png,,,,,,,,,,,,,,,,,,,,,,,,,,,,
null,,black_cross(without_color),2328701,blue,,,,,null,US_Cities_List/nat_gatlinburg.png,US_Cities_List/mm_boulder.png,,,,,,,,,,,,,,,,,,,,,,,,,,,,
null,,rt_plussign_withcolor,2329204,blue,,,,,null,US_Cities_List/nat_gatlinburg.png,US_Cities_List/mm_boulder.png,,,,,,,,,,,,,,,,,,,,,,,,,,,,
852.3000000044703,,rt_thecrossant_black,2330787,black_plus_sign,,,,,49,,,1,1,,,,,,,,,,,,,,,,,,,,,,,,,,
null,,color_black,2330891,black_plus_sign,,,,,null,,,,,,,,,,,,,,,,,,,,,,,,,,,,,,
null,,learn_phase(without_color),2333497,black_plus_sign,,,,,null,US_Cities_List/nat_huntsville.png,US_Cities_List/mm_leesburg.png,,,,,,,,,,,,,,,,,,,,,,,,,,,,
null,,black_cross(without_color),2334580,blue,,,,,null,US_Cities_List/nat_huntsville.png,US_Cities_List/mm_leesburg.png,,,,,,,,,,,,,,,,,,,,,,,,,,,,
null,,rt_plussign_withcolor,2335083,blue,,,,,null,US_Cities_List/nat_huntsville.png,US_Cities_List/mm_leesburg.png,,,,,,,,,,,,,,,,,,,,,,,,,,,,
579.7000000029802,,rt_thecrossant_black,2336006,black_plus_sign,,,,,49,,,1,1,,,,,,,,,,,,,,,,,,,,,,,,,,
null,,color_black,2336109,black_plus_sign,,,,,null,,,,,,,,,,,,,,,,,,,,,,,,,,,,,,
null,,learn_phase(without_color),2338678,black_plus_sign,,,,,null,US_Cities_List/mm_boulder.png,US_Cities_List/mm_carmel.png,,,,,,,,,,,,,,,,,,,,,,,,,,,,
null,,black_cross(without_color),2339569,green,,,,,null,US_Cities_List/mm_boulder.png,US_Cities_List/mm_carmel.png,,,,,,,,,,,,,,,,,,,,,,,,,,,,
null,,rt_plussign_withcolor,2340072,green,,,,,null,US_Cities_List/mm_boulder.png,US_Cities_List/mm_carmel.png,,,,,,,,,,,,,,,,,,,,,,,,,,,,
1404.4000000059605,,rt_thecrossant_black,2341189,black_plus_sign,,,,,50,,,1,1,,,,,,,,,,,,,,,,,,,,,,,,,,
null,,color_black,2341292,black_plus_sign,,,,,null,,,,,,,,,,,,,,,,,,,,,,,,,,,,,,
null,,learn_phase(without_color),2343900,black_plus_sign,,,,,null,US_Cities_List/nat_huntsville.png,US_Cities_List/mm_westpalmbeach.png,,,,,,,,,,,,,,,,,,,,,,,,,,,,
null,,black_cross(without_color),2344495,green,,,,,null,US_Cities_List/nat_huntsville.png,US_Cities_List/mm_westpalmbeach.png,,,,,,,,,,,,,,,,,,,,,,,,,,,,
null,,rt_plussign_withcolor,2344997,green,,,,,null,US_Cities_List/nat_huntsville.png,US_Cities_List/mm_westpalmbeach.png,,,,,,,,,,,,,,,,,,,,,,,,,,,,
1168.7000000029802,,rt_thecrossant_black,2346411,black_plus_sign,,,,,50,,,1,1,,,,,,,,,,,,,,,,,,,,,,,,,,
null,,color_black,2346514,black_plus_sign,,,,,null,,,,,,,,,,,,,,,,,,,,,,,,,,,,,,
null,,learn_phase(without_color),2349114,black_plus_sign,,,,,null,US_Cities_List/mm_carmel.png,US_Cities_List/mm_hotsprings.png,,,,,,,,,,,,,,,,,,,,,,,,,,,,
null,,black_cross(without_color),2349561,blue,,,,,null,US_Cities_List/mm_carmel.png,US_Cities_List/mm_hotsprings.png,,,,,,,,,,,,,,,,,,,,,,,,,,,,
null,,rt_plussign_withcolor,2350063,blue,,,,,null,US_Cities_List/mm_carmel.png,US_Cities_List/mm_hotsprings.png,,,,,,,,,,,,,,,,,,,,,,,,,,,,
816.8999999985099,,rt_thecrossant_black,2351624,black_plus_sign,,,,,49,,,1,1,,,,,,,,,,,,,,,,,,,,,,,,,,
null,,color_black,2351727,black_plus_sign,,,,,null,,,,,,,,,,,,,,,,,,,,,,,,,,,,,,
null,,learn_phase(without_color),2354326,black_plus_sign,,,,,null,US_Cities_List/nat_huntsville.png,US_Cities_List/mm_leesburg.png,,,,,,,,,,,,,,,,,,,,,,,,,,,,
null,,black_cross(without_color),2354937,green,,,,,null,US_Cities_List/nat_huntsville.png,US_Cities_List/mm_leesburg.png,,,,,,,,,,,,,,,,,,,,,,,,,,,,
null,,rt_plussign_withcolor,2355440,green,,,,,null,US_Cities_List/nat_huntsville.png,US_Cities_List/mm_leesburg.png,,,,,,,,,,,,,,,,,,,,,,,,,,,,
808.6999999955297,,rt_thecrossant_black,2356835,black_plus_sign,,,,,50,,,1,1,,,,,,,,,,,,,,,,,,,,,,,,,,
null,,color_black,2356939,black_plus_sign,,,,,null,,,,,,,,,,,,,,,,,,,,,,,,,,,,,,
null,,learn_phase(without_color),2359550,black_plus_sign,,,,,null,US_Cities_List/mm_boulder.png,US_Cities_List/mm_shreveport.png,,,,,,,,,,,,,,,,,,,,,,,,,,,,
null,,black_cross(without_color),2360386,blue,,,,,null,US_Cities_List/mm_boulder.png,US_Cities_List/mm_shreveport.png,,,,,,,,,,,,,,,,,,,,,,,,,,,,
null,,rt_plussign_withcolor,2360888,blue,,,,,null,US_Cities_List/mm_boulder.png,US_Cities_List/mm_shreveport.png,,,,,,,,,,,,,,,,,,,,,,,,,,,,
842.2000000029802,,rt_thecrossant_black,2362059,black_plus_sign,,,,,49,,,1,1,,,,,,,,,,,,,,,,,,,,,,,,,,
null,,color_black,2362162,black_plus_sign,,,,,null,,,,,,,,,,,,,,,,,,,,,,,,,,,,,,
null,,learn_phase(without_color),2364760,black_plus_sign,,,,,null,US_Cities_List/mm_carmel.png,US_Cities_List/mm_hotsprings.png,,,,,,,,,,,,,,,,,,,,,,,,,,,,
null,,black_cross(without_color),2365590,blue,,,,,null,US_Cities_List/mm_carmel.png,US_Cities_List/mm_hotsprings.png,,,,,,,,,,,,,,,,,,,,,,,,,,,,
null,,rt_plussign_withcolor,2366092,blue,,,,,null,US_Cities_List/mm_carmel.png,US_Cities_List/mm_hotsprings.png,,,,,,,,,,,,,,,,,,,,,,,,,,,,
1125.1999999955297,,rt_thecrossant_black,2367269,black_plus_sign,,,,,49,,,1,1,,,,,,,,,,,,,,,,,,,,,,,,,,
null,,color_black,2367373,black_plus_sign,,,,,null,,,,,,,,,,,,,,,,,,,,,,,,,,,,,,
null,,learn_phase(without_color),2369946,black_plus_sign,,,,,null,US_Cities_List/nat_huntsville.png,US_Cities_List/mm_leesburg.png,,,,,,,,,,,,,,,,,,,,,,,,,,,,
null,,black_cross(without_color),2370587,blue,,,,,null,US_Cities_List/nat_huntsville.png,US_Cities_List/mm_leesburg.png,,,,,,,,,,,,,,,,,,,,,,,,,,,,
null,,rt_plussign_withcolor,2371089,blue,,,,,null,US_Cities_List/nat_huntsville.png,US_Cities_List/mm_leesburg.png,,,,,,,,,,,,,,,,,,,,,,,,,,,,
1074.7000000029802,,rt_thecrossant_black,2372454,black_plus_sign,,,,,50,,,0,0.9523809523809523,,,,,,,,,,,,,,,,,,,,,,,,,,
null,,color_black,2372557,black_plus_sign,,,,,null,,,,,,,,,,,,,,,,,,,,,,,,,,,,,,
null,,learn_phase(without_color),2375141,black_plus_sign,,,,,null,US_Cities_List/nat_peoria.png,US_Cities_List/mm_leesburg.png,,,,,,,,,,,,,,,,,,,,,,,,,,,,
null,,black_cross(without_color),2375966,blue,,,,,null,US_Cities_List/nat_peoria.png,US_Cities_List/mm_leesburg.png,,,,,,,,,,,,,,,,,,,,,,,,,,,,
null,,rt_plussign_withcolor,2376469,blue,,,,,null,US_Cities_List/nat_peoria.png,US_Cities_List/mm_leesburg.png,,,,,,,,,,,,,,,,,,,,,,,,,,,,
853.5,,rt_thecrossant_black,2377650,black_plus_sign,,,,,49,,,1,0.9545454545454546,,,,,,,,,,,,,,,,,,,,,,,,,,
null,,color_black,2377753,black_plus_sign,,,,,null,,,,,,,,,,,,,,,,,,,,,,,,,,,,,,
null,,learn_phase(without_color),2380346,black_plus_sign,,,,,null,US_Cities_List/mm_carmel.png,US_Cities_List/mm_hotsprings.png,,,,,,,,,,,,,,,,,,,,,,,,,,,,
null,,black_cross(without_color),2380865,green,,,,,null,US_Cities_List/mm_carmel.png,US_Cities_List/mm_hotsprings.png,,,,,,,,,,,,,,,,,,,,,,,,,,,,
null,,rt_plussign_withcolor,2381367,green,,,,,null,US_Cities_List/mm_carmel.png,US_Cities_List/mm_hotsprings.png,,,,,,,,,,,,,,,,,,,,,,,,,,,,
1161.5,,rt_thecrossant_black,2382855,black_plus_sign,,,,,50,,,1,0.9565217391304348,,,,,,,,,,,,,,,,,,,,,,,,,,
null,,color_black,2382959,black_plus_sign,,,,,null,,,,,,,,,,,,,,,,,,,,,,,,,,,,,,
null,,learn_phase(without_color),2385556,black_plus_sign,,,,,null,US_Cities_List/mm_shreveport.png,US_Cities_List/nat_newhope.png,,,,,,,,,,,,,,,,,,,,,,,,,,,,
null,,black_cross(without_color),2386112,blue,,,,,null,US_Cities_List/mm_shreveport.png,US_Cities_List/nat_newhope.png,,,,,,,,,,,,,,,,,,,,,,,,,,,,
null,,rt_plussign_withcolor,2386614,blue,,,,,null,US_Cities_List/mm_shreveport.png,US_Cities_List/nat_newhope.png,,,,,,,,,,,,,,,,,,,,,,,,,,,,
833.8000000044703,,rt_thecrossant_black,2388065,black_plus_sign,,,,,49,,,1,0.9583333333333334,,,,,,,,,,,,,,,,,,,,,,,,,,
null,,color_black,2388168,black_plus_sign,,,,,null,,,,,,,,,,,,,,,,,,,,,,,,,,,,,,
null,,learn_phase(without_color),2390754,black_plus_sign,,,,,null,US_Cities_List/mm_carmel.png,US_Cities_List/nat_racine.png,,,,,,,,,,,,,,,,,,,,,,,,,,,,
null,,black_cross(without_color),2391535,green,,,,,null,US_Cities_List/mm_carmel.png,US_Cities_List/nat_racine.png,,,,,,,,,,,,,,,,,,,,,,,,,,,,
null,,rt_plussign_withcolor,2392044,green,,,,,null,US_Cities_List/mm_carmel.png,US_Cities_List/nat_racine.png,,,,,,,,,,,,,,,,,,,,,,,,,,,,
1103.8999999985099,,rt_thecrossant_black,2393272,black_plus_sign,,,,,50,,,1,0.96,,,,,,,,,,,,,,,,,,,,,,,,,,
null,,color_black,2393375,black_plus_sign,,,,,null,,,,,,,,,,,,,,,,,,,,,,,,,,,,,,
null,,learn_phase(without_color),2395959,black_plus_sign,,,,,null,US_Cities_List/mm_shreveport.png,US_Cities_List/nat_peoria.png,,,,,,,,,,,,,,,,,,,,,,,,,,,,
null,,black_cross(without_color),2396401,green,,,,,null,US_Cities_List/mm_shreveport.png,US_Cities_List/nat_peoria.png,,,,,,,,,,,,,,,,,,,,,,,,,,,,
null,,rt_plussign_withcolor,2396904,green,,,,,null,US_Cities_List/mm_shreveport.png,US_Cities_List/nat_peoria.png,,,,,,,,,,,,,,,,,,,,,,,,,,,,
1102.4000000059605,,rt_thecrossant_black,2398469,black_plus_sign,,,,,50,,,1,0.9615384615384616,,,,,,,,,,,,,,,,,,,,,,,,,,
null,,color_black,2398573,black_plus_sign,,,,,null,,,,,,,,,,,,,,,,,,,,,,,,,,,,,,
null,,learn_phase(without_color),2401156,black_plus_sign,,,,,null,US_Cities_List/nat_huntsville.png,US_Cities_List/mm_leesburg.png,,,,,,,,,,,,,,,,,,,,,,,,,,,,
null,,black_cross(without_color),2402000,green,,,,,null,US_Cities_List/nat_huntsville.png,US_Cities_List/mm_leesburg.png,,,,,,,,,,,,,,,,,,,,,,,,,,,,
null,,rt_plussign_withcolor,2402503,green,,,,,null,US_Cities_List/nat_huntsville.png,US_Cities_List/mm_leesburg.png,,,,,,,,,,,,,,,,,,,,,,,,,,,,
667.8999999985099,,rt_thecrossant_black,2403666,black_plus_sign,,,,,50,,,1,0.9629629629629629,,,,,,,,,,,,,,,,,,,,,,,,,,
null,,color_black,2403769,black_plus_sign,,,,,null,,,,,,,,,,,,,,,,,,,,,,,,,,,,,,
null,,learn_phase(without_color),2406383,black_plus_sign,,,,,null,US_Cities_List/mm_carmel.png,US_Cities_List/nat_racine.png,,,,,,,,,,,,,,,,,,,,,,,,,,,,
null,,black_cross(without_color),2407417,green,,,,,null,US_Cities_List/mm_carmel.png,US_Cities_List/nat_racine.png,,,,,,,,,,,,,,,,,,,,,,,,,,,,
null,,rt_plussign_withcolor,2407920,green,,,,,null,US_Cities_List/mm_carmel.png,US_Cities_List/nat_racine.png,,,,,,,,,,,,,,,,,,,,,,,,,,,,
1079.5,,rt_thecrossant_black,2408893,black_plus_sign,,,,,50,,,1,0.9642857142857143,,,,,,,,,,,,,,,,,,,,,,,,,,
null,,color_black,2408996,black_plus_sign,,,,,null,,,,,,,,,,,,,,,,,,,,,,,,,,,,,,
null,,learn_phase(without_color),2411592,black_plus_sign,,,,,null,US_Cities_List/nat_peoria.png,US_Cities_List/mm_leesburg.png,,,,,,,,,,,,,,,,,,,,,,,,,,,,
null,,black_cross(without_color),2412177,green,,,,,null,US_Cities_List/nat_peoria.png,US_Cities_List/mm_leesburg.png,,,,,,,,,,,,,,,,,,,,,,,,,,,,
null,,rt_plussign_withcolor,2412679,green,,,,,null,US_Cities_List/nat_peoria.png,US_Cities_List/mm_leesburg.png,,,,,,,,,,,,,,,,,,,,,,,,,,,,
1209.9000000059605,,rt_thecrossant_black,2414102,black_plus_sign,,,,,50,,,1,0.9655172413793104,,,,,,,,,,,,,,,,,,,,,,,,,,
null,,color_black,2414206,black_plus_sign,,,,,null,,,,,,,,,,,,,,,,,,,,,,,,,,,,,,
null,,learn_phase(without_color),2416794,black_plus_sign,,,,,null,US_Cities_List/nat_hanover.png,US_Cities_List/mm_leesburg.png,,,,,,,,,,,,,,,,,,,,,,,,,,,,
null,,black_cross(without_color),2417464,blue,,,,,null,US_Cities_List/nat_hanover.png,US_Cities_List/mm_leesburg.png,,,,,,,,,,,,,,,,,,,,,,,,,,,,
null,,rt_plussign_withcolor,2417967,blue,,,,,null,US_Cities_List/nat_hanover.png,US_Cities_List/mm_leesburg.png,,,,,,,,,,,,,,,,,,,,,,,,,,,,
929,,rt_thecrossant_black,2419303,black_plus_sign,,,,,49,,,1,0.9666666666666667,,,,,,,,,,,,,,,,,,,,,,,,,,
null,,color_black,2419407,black_plus_sign,,,,,null,,,,,,,,,,,,,,,,,,,,,,,,,,,,,,
null,,learn_phase(without_color),2422002,black_plus_sign,,,,,null,US_Cities_List/nat_huntsville.png,US_Cities_List/nat_hanover.png,,,,,,,,,,,,,,,,,,,,,,,,,,,,
null,,black_cross(without_color),2422812,blue,,,,,null,US_Cities_List/nat_huntsville.png,US_Cities_List/nat_hanover.png,,,,,,,,,,,,,,,,,,,,,,,,,,,,
null,,rt_plussign_withcolor,2423315,blue,,,,,null,US_Cities_List/nat_huntsville.png,US_Cities_List/nat_hanover.png,,,,,,,,,,,,,,,,,,,,,,,,,,,,
1104.6999999955297,,rt_thecrossant_black,2424514,black_plus_sign,,,,,49,,,1,0.967741935483871,,,,,,,,,,,,,,,,,,,,,,,,,,
null,,color_black,2424618,black_plus_sign,,,,,null,,,,,,,,,,,,,,,,,,,,,,,,,,,,,,
null,,learn_phase(without_color),2427207,black_plus_sign,,,,,null,US_Cities_List/nat_newhope.png,US_Cities_List/mm_hotsprings.png,,,,,,,,,,,,,,,,,,,,,,,,,,,,
null,,black_cross(without_color),2427621,green,,,,,null,US_Cities_List/nat_newhope.png,US_Cities_List/mm_hotsprings.png,,,,,,,,,,,,,,,,,,,,,,,,,,,,
null,,rt_plussign_withcolor,2428124,green,,,,,null,US_Cities_List/nat_newhope.png,US_Cities_List/mm_hotsprings.png,,,,,,,,,,,,,,,,,,,,,,,,,,,,
1080.3000000044703,,rt_thecrossant_black,2429718,black_plus_sign,,,,,50,,,1,0.96875,,,,,,,,,,,,,,,,,,,,,,,,,,
null,,color_black,2429822,black_plus_sign,,,,,null,,,,,,,,,,,,,,,,,,,,,,,,,,,,,,
null,,learn_phase(without_color),2432400,black_plus_sign,,,,,null,US_Cities_List/nat_peoria.png,US_Cities_List/mm_leesburg.png,,,,,,,,,,,,,,,,,,,,,,,,,,,,
null,,black_cross(without_color),2433498,green,,,,,null,US_Cities_List/nat_peoria.png,US_Cities_List/mm_leesburg.png,,,,,,,,,,,,,,,,,,,,,,,,,,,,
null,,rt_plussign_withcolor,2434001,green,,,,,null,US_Cities_List/nat_peoria.png,US_Cities_List/mm_leesburg.png,,,,,,,,,,,,,,,,,,,,,,,,,,,,
722.3999999985099,,rt_thecrossant_black,2434910,black_plus_sign,,,,,50,,,1,0.9696969696969697,,,,,,,,,,,,,,,,,,,,,,,,,,
null,,color_black,2435014,black_plus_sign,,,,,null,,,,,,,,,,,,,,,,,,,,,,,,,,,,,,
null,,learn_phase(without_color),2437617,black_plus_sign,,,,,null,US_Cities_List/mm_carmel.png,US_Cities_List/nat_racine.png,,,,,,,,,,,,,,,,,,,,,,,,,,,,
null,,black_cross(without_color),2438426,blue,,,,,null,US_Cities_List/mm_carmel.png,US_Cities_List/nat_racine.png,,,,,,,,,,,,,,,,,,,,,,,,,,,,
null,,rt_plussign_withcolor,2438930,blue,,,,,null,US_Cities_List/mm_carmel.png,US_Cities_List/nat_racine.png,,,,,,,,,,,,,,,,,,,,,,,,,,,,
1457.7000000029802,,rt_thecrossant_black,2440129,black_plus_sign,,,,,49,,,1,0.9705882352941176,,,,,,,,,,,,,,,,,,,,,,,,,,
null,,color_black,2440248,black_plus_sign,,,,,null,,,,,,,,,,,,,,,,,,,,,,,,,,,,,,
null,,learn_phase(without_color),2442854,black_plus_sign,,,,,null,US_Cities_List/mm_shreveport.png,US_Cities_List/nat_newhope.png,,,,,,,,,,,,,,,,,,,,,,,,,,,,
null,,black_cross(without_color),2443850,blue,,,,,null,US_Cities_List/mm_shreveport.png,US_Cities_List/nat_newhope.png,,,,,,,,,,,,,,,,,,,,,,,,,,,,
null,,rt_plussign_withcolor,2444353,blue,,,,,null,US_Cities_List/mm_shreveport.png,US_Cities_List/nat_newhope.png,,,,,,,,,,,,,,,,,,,,,,,,,,,,
1257.6999999955297,,rt_thecrossant_black,2445364,black_plus_sign,,,,,49,,,1,0.9714285714285714,,,,,,,,,,,,,,,,,,,,,,,,,,
null,,color_black,2445467,black_plus_sign,,,,,null,,,,,,,,,,,,,,,,,,,,,,,,,,,,,,
null,,learn_phase(without_color),2448068,black_plus_sign,,,,,null,US_Cities_List/nat_peoria.png,US_Cities_List/mm_leesburg.png,,,,,,,,,,,,,,,,,,,,,,,,,,,,
null,,black_cross(without_color),2448755,green,,,,,null,US_Cities_List/nat_peoria.png,US_Cities_List/mm_leesburg.png,,,,,,,,,,,,,,,,,,,,,,,,,,,,
null,,rt_plussign_withcolor,2449259,green,,,,,null,US_Cities_List/nat_peoria.png,US_Cities_List/mm_leesburg.png,,,,,,,,,,,,,,,,,,,,,,,,,,,,
1145.1000000014901,,rt_thecrossant_black,2450578,black_plus_sign,,,,,50,,,1,0.9722222222222222,,,,,,,,,,,,,,,,,,,,,,,,,,
null,,color_black,2450681,black_plus_sign,,,,,null,,,,,,,,,,,,,,,,,,,,,,,,,,,,,,
null,,learn_phase(without_color),2453263,black_plus_sign,,,,,null,US_Cities_List/mm_boulder.png,US_Cities_List/mm_carmel.png,,,,,,,,,,,,,,,,,,,,,,,,,,,,
null,,black_cross(without_color),2453890,green,,,,,null,US_Cities_List/mm_boulder.png,US_Cities_List/mm_carmel.png,,,,,,,,,,,,,,,,,,,,,,,,,,,,
null,,rt_plussign_withcolor,2454393,green,,,,,null,US_Cities_List/mm_boulder.png,US_Cities_List/mm_carmel.png,,,,,,,,,,,,,,,,,,,,,,,,,,,,
867.5,,rt_thecrossant_black,2455772,black_plus_sign,,,,,50,,,1,0.972972972972973,,,,,,,,,,,,,,,,,,,,,,,,,,
null,,color_black,2455875,black_plus_sign,,,,,null,,,,,,,,,,,,,,,,,,,,,,,,,,,,,,
null,,learn_phase(without_color),2458467,black_plus_sign,,,,,null,US_Cities_List/nat_peoria.png,US_Cities_List/mm_leesburg.png,,,,,,,,,,,,,,,,,,,,,,,,,,,,
null,,black_cross(without_color),2459177,green,,,,,null,US_Cities_List/nat_peoria.png,US_Cities_List/mm_leesburg.png,,,,,,,,,,,,,,,,,,,,,,,,,,,,
null,,rt_plussign_withcolor,2459679,green,,,,,null,US_Cities_List/nat_peoria.png,US_Cities_List/mm_leesburg.png,,,,,,,,,,,,,,,,,,,,,,,,,,,,
889.3999999985099,,rt_thecrossant_black,2460981,black_plus_sign,,,,,50,,,1,0.9736842105263158,,,,,,,,,,,,,,,,,,,,,,,,,,
null,,color_black,2461085,black_plus_sign,,,,,null,,,,,,,,,,,,,,,,,,,,,,,,,,,,,,
null,,learn_phase(without_color),2463676,black_plus_sign,,,,,null,US_Cities_List/nat_newhope.png,US_Cities_List/mm_hotsprings.png,,,,,,,,,,,,,,,,,,,,,,,,,,,,
null,,black_cross(without_color),2464248,green,,,,,null,US_Cities_List/nat_newhope.png,US_Cities_List/mm_hotsprings.png,,,,,,,,,,,,,,,,,,,,,,,,,,,,
null,,rt_plussign_withcolor,2464750,green,,,,,null,US_Cities_List/nat_newhope.png,US_Cities_List/mm_hotsprings.png,,,,,,,,,,,,,,,,,,,,,,,,,,,,
989.9000000059605,,rt_thecrossant_black,2466190,black_plus_sign,,,,,50,,,1,0.9743589743589743,,,,,,,,,,,,,,,,,,,,,,,,,,
null,,color_black,2466294,black_plus_sign,,,,,null,,,,,,,,,,,,,,,,,,,,,,,,,,,,,,
null,,learn_phase(without_color),2468875,black_plus_sign,,,,,null,US_Cities_List/nat_hanover.png,US_Cities_List/nat_cornwall.png,,,,,,,,,,,,,,,,,,,,,,,,,,,,
null,,black_cross(without_color),2469860,blue,,,,,null,US_Cities_List/nat_hanover.png,US_Cities_List/nat_cornwall.png,,,,,,,,,,,,,,,,,,,,,,,,,,,,
null,,rt_plussign_withcolor,2470362,blue,,,,,null,US_Cities_List/nat_hanover.png,US_Cities_List/nat_cornwall.png,,,,,,,,,,,,,,,,,,,,,,,,,,,,
786.9000000059605,,rt_thecrossant_black,2471384,black_plus_sign,,,,,49,,,1,0.975,,,,,,,,,,,,,,,,,,,,,,,,,,
null,,color_black,2471487,black_plus_sign,,,,,null,,,,,,,,,,,,,,,,,,,,,,,,,,,,,,
null,,learn_phase(without_color),2474081,black_plus_sign,,,,,null,US_Cities_List/mm_shreveport.png,US_Cities_List/nat_peoria.png,,,,,,,,,,,,,,,,,,,,,,,,,,,,
null,,black_cross(without_color),2474757,blue,,,,,null,US_Cities_List/mm_shreveport.png,US_Cities_List/nat_peoria.png,,,,,,,,,,,,,,,,,,,,,,,,,,,,
null,,rt_plussign_withcolor,2475260,blue,,,,,null,US_Cities_List/mm_shreveport.png,US_Cities_List/nat_peoria.png,,,,,,,,,,,,,,,,,,,,,,,,,,,,
1469.3999999985099,,rt_thecrossant_black,2476590,black_plus_sign,,,,,49,,,1,0.975609756097561,,,,,,,,,,,,,,,,,,,,,,,,,,
null,,color_black,2476693,black_plus_sign,,,,,null,,,,,,,,,,,,,,,,,,,,,,,,,,,,,,
null,,learn_phase(without_color),2479277,black_plus_sign,,,,,null,US_Cities_List/nat_newhope.png,US_Cities_List/mm_hotsprings.png,,,,,,,,,,,,,,,,,,,,,,,,,,,,
null,,black_cross(without_color),2480247,blue,,,,,null,US_Cities_List/nat_newhope.png,US_Cities_List/mm_hotsprings.png,,,,,,,,,,,,,,,,,,,,,,,,,,,,
null,,rt_plussign_withcolor,2480750,blue,,,,,null,US_Cities_List/nat_newhope.png,US_Cities_List/mm_hotsprings.png,,,,,,,,,,,,,,,,,,,,,,,,,,,,
792.8000000044703,,rt_thecrossant_black,2481787,black_plus_sign,,,,,49,,,1,0.9761904761904762,,,,,,,,,,,,,,,,,,,,,,,,,,
null,,color_black,2481901,black_plus_sign,,,,,null,,,,,,,,,,,,,,,,,,,,,,,,,,,,,,
null,,learn_phase(without_color),2484476,black_plus_sign,,,,,null,US_Cities_List/nat_peoria.png,US_Cities_List/mm_leesburg.png,,,,,,,,,,,,,,,,,,,,,,,,,,,,
null,,black_cross(without_color),2485144,blue,,,,,null,US_Cities_List/nat_peoria.png,US_Cities_List/mm_leesburg.png,,,,,,,,,,,,,,,,,,,,,,,,,,,,
null,,rt_plussign_withcolor,2485648,blue,,,,,null,US_Cities_List/nat_peoria.png,US_Cities_List/mm_leesburg.png,,,,,,,,,,,,,,,,,,,,,,,,,,,,
1086.0999999940395,,rt_thecrossant_black,2486987,black_plus_sign,,,,,49,,,1,0.9767441860465116,,,,,,,,,,,,,,,,,,,,,,,,,,
null,,color_black,2487091,black_plus_sign,,,,,null,,,,,,,,,,,,,,,,,,,,,,,,,,,,,,
null,,learn_phase(without_color),2489667,black_plus_sign,,,,,null,US_Cities_List/mm_boulder.png,US_Cities_List/mm_carmel.png,,,,,,,,,,,,,,,,,,,,,,,,,,,,
null,,black_cross(without_color),2490425,green,,,,,null,US_Cities_List/mm_boulder.png,US_Cities_List/mm_carmel.png,,,,,,,,,,,,,,,,,,,,,,,,,,,,
null,,rt_plussign_withcolor,2490927,green,,,,,null,US_Cities_List/mm_boulder.png,US_Cities_List/mm_carmel.png,,,,,,,,,,,,,,,,,,,,,,,,,,,,
902.1000000014901,,rt_thecrossant_black,2492176,black_plus_sign,,,,,50,,,1,0.9772727272727273,,,,,,,,,,,,,,,,,,,,,,,,,,
null,,color_black,2492279,black_plus_sign,,,,,null,,,,,,,,,,,,,,,,,,,,,,,,,,,,,,
null,,learn_phase(without_color),2494862,black_plus_sign,,,,,null,US_Cities_List/nat_newhope.png,US_Cities_List/mm_hotsprings.png,,,,,,,,,,,,,,,,,,,,,,,,,,,,
null,,black_cross(without_color),2495914,blue,,,,,null,US_Cities_List/nat_newhope.png,US_Cities_List/mm_hotsprings.png,,,,,,,,,,,,,,,,,,,,,,,,,,,,
null,,rt_plussign_withcolor,2496417,blue,,,,,null,US_Cities_List/nat_newhope.png,US_Cities_List/mm_hotsprings.png,,,,,,,,,,,,,,,,,,,,,,,,,,,,
870,,rt_thecrossant_black,2497372,black_plus_sign,,,,,49,,,1,0.9777777777777777,,,,,,,,,,,,,,,,,,,,,,,,,,
null,,color_black,2497475,black_plus_sign,,,,,null,,,,,,,,,,,,,,,,,,,,,,,,,,,,,,
null,,learn_phase(without_color),2500089,black_plus_sign,,,,,null,US_Cities_List/mm_shreveport.png,US_Cities_List/nat_newhope.png,,,,,,,,,,,,,,,,,,,,,,,,,,,,
null,,black_cross(without_color),2500915,green,,,,,null,US_Cities_List/mm_shreveport.png,US_Cities_List/nat_newhope.png,,,,,,,,,,,,,,,,,,,,,,,,,,,,
null,,rt_plussign_withcolor,2501418,green,,,,,null,US_Cities_List/mm_shreveport.png,US_Cities_List/nat_newhope.png,,,,,,,,,,,,,,,,,,,,,,,,,,,,
1216.3999999985099,,rt_thecrossant_black,2502600,black_plus_sign,,,,,50,,,1,0.9782608695652174,,,,,,,,,,,,,,,,,,,,,,,,,,
null,,color_black,2502704,black_plus_sign,,,,,null,,,,,,,,,,,,,,,,,,,,,,,,,,,,,,
null,,learn_phase(without_color),2505325,black_plus_sign,,,,,null,US_Cities_List/mm_carmel.png,US_Cities_List/mm_hotsprings.png,,,,,,,,,,,,,,,,,,,,,,,,,,,,
null,,black_cross(without_color),2505999,green,,,,,null,US_Cities_List/mm_carmel.png,US_Cities_List/mm_hotsprings.png,,,,,,,,,,,,,,,,,,,,,,,,,,,,
null,,rt_plussign_withcolor,2506505,green,,,,,null,US_Cities_List/mm_carmel.png,US_Cities_List/mm_hotsprings.png,,,,,,,,,,,,,,,,,,,,,,,,,,,,
993.3999999985099,,rt_thecrossant_black,2507838,black_plus_sign,,,,,50,,,1,0.9787234042553191,,,,,,,,,,,,,,,,,,,,,,,,,,
null,,color_black,2507941,black_plus_sign,,,,,null,,,,,,,,,,,,,,,,,,,,,,,,,,,,,,
null,,learn_phase(without_color),2510522,black_plus_sign,,,,,null,US_Cities_List/mm_leesburg.png,US_Cities_List/nat_newhope.png,,,,,,,,,,,,,,,,,,,,,,,,,,,,
null,,black_cross(without_color),2511278,blue,,,,,null,US_Cities_List/mm_leesburg.png,US_Cities_List/nat_newhope.png,,,,,,,,,,,,,,,,,,,,,,,,,,,,
null,,rt_plussign_withcolor,2511780,blue,,,,,null,US_Cities_List/mm_leesburg.png,US_Cities_List/nat_newhope.png,,,,,,,,,,,,,,,,,,,,,,,,,,,,
1182.3000000044703,,rt_thecrossant_black,2513032,black_plus_sign,,,,,49,,,1,0.9791666666666666,,,,,,,,,,,,,,,,,,,,,,,,,,
null,,color_black,2513136,black_plus_sign,,,,,null,,,,,,,,,,,,,,,,,,,,,,,,,,,,,,
null,,learn_phase(without_color),2515723,black_plus_sign,,,,,null,US_Cities_List/nat_hanover.png,US_Cities_List/mm_leesburg.png,,,,,,,,,,,,,,,,,,,,,,,,,,,,
null,,black_cross(without_color),2516247,blue,,,,,null,US_Cities_List/nat_hanover.png,US_Cities_List/mm_leesburg.png,,,,,,,,,,,,,,,,,,,,,,,,,,,,
null,,rt_plussign_withcolor,2516751,blue,,,,,null,US_Cities_List/nat_hanover.png,US_Cities_List/mm_leesburg.png,,,,,,,,,,,,,,,,,,,,,,,,,,,,
866.1999999955297,,rt_thecrossant_black,2518238,black_plus_sign,,,,,49,,,1,0.9795918367346939,,,,,,,,,,,,,,,,,,,,,,,,,,
null,,color_black,2518342,black_plus_sign,,,,,null,,,,,,,,,,,,,,,,,,,,,,,,,,,,,,
null,,learn_phase(without_color),2520933,black_plus_sign,,,,,null,US_Cities_List/nat_hanover.png,US_Cities_List/nat_cornwall.png,,,,,,,,,,,,,,,,,,,,,,,,,,,,
null,,black_cross(without_color),2521475,blue,,,,,null,US_Cities_List/nat_hanover.png,US_Cities_List/nat_cornwall.png,,,,,,,,,,,,,,,,,,,,,,,,,,,,
null,,rt_plussign_withcolor,2521979,blue,,,,,null,US_Cities_List/nat_hanover.png,US_Cities_List/nat_cornwall.png,,,,,,,,,,,,,,,,,,,,,,,,,,,,
730.6000000014901,,rt_thecrossant_black,2523444,black_plus_sign,,,,,49,,,1,0.98,,,,,,,,,,,,,,,,,,,,,,,,,,
null,,color_black,2523549,black_plus_sign,,,,,null,,,,,,,,,,,,,,,,,,,,,,,,,,,,,,
null,,learn_phase(without_color),2526160,black_plus_sign,,,,,null,US_Cities_List/nat_newhope.png,US_Cities_List/mm_hotsprings.png,,,,,,,,,,,,,,,,,,,,,,,,,,,,
null,,black_cross(without_color),2526828,green,,,,,null,US_Cities_List/nat_newhope.png,US_Cities_List/mm_hotsprings.png,,,,,,,,,,,,,,,,,,,,,,,,,,,,
464.19999999552965,,rt_plussign_withcolor,2527330,green,,,,,49,US_Cities_List/nat_newhope.png,US_Cities_List/mm_hotsprings.png,,,,,,,,,,,,,,,,,,,,,,,,,,,,
null,,rt_thecrossant_black,2528684,black_plus_sign,,,,,50,,,0,0.9607843137254902,,,,,,,,,,,,,,,,,,,,,,,,,,
null,,color_black,2528788,black_plus_sign,,,,,null,,,,,,,,,,,,,,,,,,,,,,,,,,,,,,
null,,learn_phase(without_color),2531394,black_plus_sign,,,,,null,US_Cities_List/nat_huntsville.png,US_Cities_List/mm_westpalmbeach.png,,,,,,,,,,,,,,,,,,,,,,,,,,,,
null,,black_cross(without_color),2532210,green,,,,,null,US_Cities_List/nat_huntsville.png,US_Cities_List/mm_westpalmbeach.png,,,,,,,,,,,,,,,,,,,,,,,,,,,,
null,,rt_plussign_withcolor,2532712,green,,,,,null,US_Cities_List/nat_huntsville.png,US_Cities_List/mm_westpalmbeach.png,,,,,,,,,,,,,,,,,,,,,,,,,,,,
891.1999999955297,,rt_thecrossant_black,2533902,black_plus_sign,,,,,50,,,1,0.9615384615384616,,,,,,,,,,,,,,,,,,,,,,,,,,
null,,color_black,2534005,black_plus_sign,,,,,null,,,,,,,,,,,,,,,,,,,,,,,,,,,,,,
null,,learn_phase(without_color),2536604,black_plus_sign,,,,,null,US_Cities_List/nat_hanover.png,US_Cities_List/mm_leesburg.png,,,,,,,,,,,,,,,,,,,,,,,,,,,,
null,,black_cross(without_color),2537209,green,,,,,null,US_Cities_List/nat_hanover.png,US_Cities_List/mm_leesburg.png,,,,,,,,,,,,,,,,,,,,,,,,,,,,
null,,rt_plussign_withcolor,2537712,green,,,,,null,US_Cities_List/nat_hanover.png,US_Cities_List/mm_leesburg.png,,,,,,,,,,,,,,,,,,,,,,,,,,,,
1180.1000000014901,,rt_thecrossant_black,2539115,black_plus_sign,,,,,50,,,1,0.9622641509433962,,,,,,,,,,,,,,,,,,,,,,,,,,
null,,color_black,2539219,black_plus_sign,,,,,null,,,,,,,,,,,,,,,,,,,,,,,,,,,,,,
null,,learn_phase(without_color),2541802,black_plus_sign,,,,,null,US_Cities_List/mm_boulder.png,US_Cities_List/mm_carmel.png,,,,,,,,,,,,,,,,,,,,,,,,,,,,
null,,black_cross(without_color),2542254,blue,,,,,null,US_Cities_List/mm_boulder.png,US_Cities_List/mm_carmel.png,,,,,,,,,,,,,,,,,,,,,,,,,,,,
null,,rt_plussign_withcolor,2542757,blue,,,,,null,US_Cities_List/mm_boulder.png,US_Cities_List/mm_carmel.png,,,,,,,,,,,,,,,,,,,,,,,,,,,,
758.7000000029802,,rt_thecrossant_black,2544311,black_plus_sign,,,,,49,,,1,0.9629629629629629,,,,,,,,,,,,,,,,,,,,,,,,,,
null,,color_black,2544416,black_plus_sign,,,,,null,,,,,,,,,,,,,,,,,,,,,,,,,,,,,,
null,,learn_phase(without_color),2546981,black_plus_sign,,,,,null,US_Cities_List/nat_huntsville.png,US_Cities_List/mm_westpalmbeach.png,,,,,,,,,,,,,,,,,,,,,,,,,,,,
null,,black_cross(without_color),2547752,green,,,,,null,US_Cities_List/nat_huntsville.png,US_Cities_List/mm_westpalmbeach.png,,,,,,,,,,,,,,,,,,,,,,,,,,,,
null,,rt_plussign_withcolor,2548254,green,,,,,null,US_Cities_List/nat_huntsville.png,US_Cities_List/mm_westpalmbeach.png,,,,,,,,,,,,,,,,,,,,,,,,,,,,
682,,rt_thecrossant_black,2549490,black_plus_sign,,,,,50,,,1,0.9636363636363636,,,,,,,,,,,,,,,,,,,,,,,,,,
null,,color_black,2549594,black_plus_sign,,,,,null,,,,,,,,,,,,,,,,,,,,,,,,,,,,,,
null,,learn_phase(without_color),2552189,black_plus_sign,,,,,null,US_Cities_List/nat_newhope.png,US_Cities_List/mm_hotsprings.png,,,,,,,,,,,,,,,,,,,,,,,,,,,,
null,,black_cross(without_color),2553266,blue,,,,,null,US_Cities_List/nat_newhope.png,US_Cities_List/mm_hotsprings.png,,,,,,,,,,,,,,,,,,,,,,,,,,,,
null,,rt_plussign_withcolor,2553770,blue,,,,,null,US_Cities_List/nat_newhope.png,US_Cities_List/mm_hotsprings.png,,,,,,,,,,,,,,,,,,,,,,,,,,,,
978.3000000044703,,rt_thecrossant_black,2554698,black_plus_sign,,,,,49,,,1,0.9642857142857143,,,,,,,,,,,,,,,,,,,,,,,,,,
null,,color_black,2554803,black_plus_sign,,,,,null,,,,,,,,,,,,,,,,,,,,,,,,,,,,,,
null,,learn_phase(without_color),2557386,black_plus_sign,,,,,null,US_Cities_List/nat_huntsville.png,US_Cities_List/mm_westpalmbeach.png,,,,,,,,,,,,,,,,,,,,,,,,,,,,
null,,black_cross(without_color),2558318,green,,,,,null,US_Cities_List/nat_huntsville.png,US_Cities_List/mm_westpalmbeach.png,,,,,,,,,,,,,,,,,,,,,,,,,,,,
null,,rt_plussign_withcolor,2558821,green,,,,,null,US_Cities_List/nat_huntsville.png,US_Cities_List/mm_westpalmbeach.png,,,,,,,,,,,,,,,,,,,,,,,,,,,,
1361.5,,rt_thecrossant_black,2559896,black_plus_sign,,,,,50,,,1,0.9649122807017544,,,,,,,,,,,,,,,,,,,,,,,,,,
null,,color_black,2559999,black_plus_sign,,,,,null,,,,,,,,,,,,,,,,,,,,,,,,,,,,,,
null,,learn_phase(without_color),2562547,black_plus_sign,,,,,null,US_Cities_List/mm_boulder.png,US_Cities_List/mm_shreveport.png,,,,,,,,,,,,,,,,,,,,,,,,,,,,
null,,black_cross(without_color),2563374,green,,,,,null,US_Cities_List/mm_boulder.png,US_Cities_List/mm_shreveport.png,,,,,,,,,,,,,,,,,,,,,,,,,,,,
null,,rt_plussign_withcolor,2563877,green,,,,,null,US_Cities_List/mm_boulder.png,US_Cities_List/mm_shreveport.png,,,,,,,,,,,,,,,,,,,,,,,,,,,,
1465.0999999940395,,rt_thecrossant_black,2565055,black_plus_sign,,,,,50,,,1,0.9655172413793104,,,,,,,,,,,,,,,,,,,,,,,,,,
null,,color_black,2565159,black_plus_sign,,,,,null,,,,,,,,,,,,,,,,,,,,,,,,,,,,,,
null,,learn_phase(without_color),2567733,black_plus_sign,,,,,null,US_Cities_List/nat_peoria.png,US_Cities_List/mm_leesburg.png,,,,,,,,,,,,,,,,,,,,,,,,,,,,
null,,black_cross(without_color),2568776,green,,,,,null,US_Cities_List/nat_peoria.png,US_Cities_List/mm_leesburg.png,,,,,,,,,,,,,,,,,,,,,,,,,,,,
null,,rt_plussign_withcolor,2569279,green,,,,,null,US_Cities_List/nat_peoria.png,US_Cities_List/mm_leesburg.png,,,,,,,,,,,,,,,,,,,,,,,,,,,,
1131.6999999955297,,rt_thecrossant_black,2570243,black_plus_sign,,,,,50,,,1,0.9661016949152542,,,,,,,,,,,,,,,,,,,,,,,,,,
null,,color_black,2570346,black_plus_sign,,,,,null,,,,,,,,,,,,,,,,,,,,,,,,,,,,,,
null,,learn_phase(without_color),2572948,black_plus_sign,,,,,null,US_Cities_List/nat_newhope.png,US_Cities_List/mm_hotsprings.png,,,,,,,,,,,,,,,,,,,,,,,,,,,,
null,,black_cross(without_color),2573443,green,,,,,null,US_Cities_List/nat_newhope.png,US_Cities_List/mm_hotsprings.png,,,,,,,,,,,,,,,,,,,,,,,,,,,,
485.90000000596046,,rt_plussign_withcolor,2573946,green,,,,,50,US_Cities_List/nat_newhope.png,US_Cities_List/mm_hotsprings.png,,,,,,,,,,,,,,,,,,,,,,,,,,,,
null,,rt_thecrossant_black,2575457,black_plus_sign,,,,,null,,,1,0.9666666666666667,,,,,,,,,,,,,,,,,,,,,,,,,,
null,,color_black,2575561,black_plus_sign,,,,,null,,,,,,,,,,,,,,,,,,,,,,,,,,,,,,
null,,learn_phase(without_color),2578142,black_plus_sign,,,,,null,US_Cities_List/nat_huntsville.png,US_Cities_List/mm_leesburg.png,,,,,,,,,,,,,,,,,,,,,,,,,,,,
null,,black_cross(without_color),2579061,blue,,,,,null,US_Cities_List/nat_huntsville.png,US_Cities_List/mm_leesburg.png,,,,,,,,,,,,,,,,,,,,,,,,,,,,
null,,rt_plussign_withcolor,2579564,blue,,,,,null,US_Cities_List/nat_huntsville.png,US_Cities_List/mm_leesburg.png,,,,,,,,,,,,,,,,,,,,,,,,,,,,
null,,rt_thecrossant_black,2580652,black_plus_sign,,,,,null,,,,0.9666666666666667,,,,,,,,,,,,,,,,,,,,,,,,,,
null,,color_black,2580755,black_plus_sign,,,,,null,,,,,,,,,,,,,,,,,,,,,,,,,,,,,,
null,,learn_phase(without_color),2583333,black_plus_sign,,,,,null,US_Cities_List/nat_hanover.png,US_Cities_List/mm_leesburg.png,,,,,,,,,,,,,,,,,,,,,,,,,,,,
null,,black_cross(without_color),2584035,green,,,,,null,US_Cities_List/nat_hanover.png,US_Cities_List/mm_leesburg.png,,,,,,,,,,,,,,,,,,,,,,,,,,,,
null,,rt_plussign_withcolor,2584538,green,,,,,null,US_Cities_List/nat_hanover.png,US_Cities_List/mm_leesburg.png,,,,,,,,,,,,,,,,,,,,,,,,,,,,
1185.1000000014901,,rt_thecrossant_black,2585842,black_plus_sign,,,,,50,,,1,0.9672131147540983,,,,,,,,,,,,,,,,,,,,,,,,,,
null,,color_black,2585947,black_plus_sign,,,,,null,,,,,,,,,,,,,,,,,,,,,,,,,,,,,,
null,,learn_phase(without_color),2588532,black_plus_sign,,,,,null,US_Cities_List/nat_peoria.png,US_Cities_List/nat_huntsville.png,,,,,,,,,,,,,,,,,,,,,,,,,,,,
null,,black_cross(without_color),2589124,green,,,,,null,US_Cities_List/nat_peoria.png,US_Cities_List/nat_huntsville.png,,,,,,,,,,,,,,,,,,,,,,,,,,,,
null,,rt_plussign_withcolor,2589627,green,,,,,null,US_Cities_List/nat_peoria.png,US_Cities_List/nat_huntsville.png,,,,,,,,,,,,,,,,,,,,,,,,,,,,
866.5,,rt_thecrossant_black,2591044,black_plus_sign,,,,,50,,,1,0.967741935483871,,,,,,,,,,,,,,,,,,,,,,,,,,
null,,color_black,2591147,black_plus_sign,,,,,null,,,,,,,,,,,,,,,,,,,,,,,,,,,,,,
null,,learn_phase(without_color),2593690,black_plus_sign,,,,,null,US_Cities_List/nat_gatlinburg.png,US_Cities_List/mm_boulder.png,,,,,,,,,,,,,,,,,,,,,,,,,,,,
null,,black_cross(without_color),2594391,green,,,,,null,US_Cities_List/nat_gatlinburg.png,US_Cities_List/mm_boulder.png,,,,,,,,,,,,,,,,,,,,,,,,,,,,
null,,rt_plussign_withcolor,2594894,green,,,,,null,US_Cities_List/nat_gatlinburg.png,US_Cities_List/mm_boulder.png,,,,,,,,,,,,,,,,,,,,,,,,,,,,
913.1000000014901,,rt_thecrossant_black,2596199,black_plus_sign,,,,,50,,,1,0.9682539682539683,,,,,,,,,,,,,,,,,,,,,,,,,,
null,,color_black,2596303,black_plus_sign,,,,,null,,,,,,,,,,,,,,,,,,,,,,,,,,,,,,
null,,learn_phase(without_color),2598885,black_plus_sign,,,,,null,US_Cities_List/mm_carmel.png,US_Cities_List/nat_racine.png,,,,,,,,,,,,,,,,,,,,,,,,,,,,
null,,black_cross(without_color),2599863,blue,,,,,null,US_Cities_List/mm_carmel.png,US_Cities_List/nat_racine.png,,,,,,,,,,,,,,,,,,,,,,,,,,,,
null,,rt_plussign_withcolor,2600366,blue,,,,,null,US_Cities_List/mm_carmel.png,US_Cities_List/nat_racine.png,,,,,,,,,,,,,,,,,,,,,,,,,,,,
874.3999999985099,,rt_thecrossant_black,2601394,black_plus_sign,,,,,49,,,1,0.96875,,,,,,,,,,,,,,,,,,,,,,,,,,
null,,color_black,2601498,black_plus_sign,,,,,null,,,,,,,,,,,,,,,,,,,,,,,,,,,,,,
null,,learn_phase(without_color),2604100,black_plus_sign,,,,,null,US_Cities_List/mm_shreveport.png,US_Cities_List/nat_peoria.png,,,,,,,,,,,,,,,,,,,,,,,,,,,,
null,,black_cross(without_color),2605026,blue,,,,,null,US_Cities_List/mm_shreveport.png,US_Cities_List/nat_peoria.png,,,,,,,,,,,,,,,,,,,,,,,,,,,,
null,,rt_plussign_withcolor,2605529,blue,,,,,null,US_Cities_List/mm_shreveport.png,US_Cities_List/nat_peoria.png,,,,,,,,,,,,,,,,,,,,,,,,,,,,
1162.7999999970198,,rt_thecrossant_black,2606609,black_plus_sign,,,,,49,,,1,0.9692307692307692,,,,,,,,,,,,,,,,,,,,,,,,,,
null,,color_black,2606713,black_plus_sign,,,,,null,,,,,,,,,,,,,,,,,,,,,,,,,,,,,,
null,,learn_phase(without_color),2609330,black_plus_sign,,,,,null,US_Cities_List/mm_shreveport.png,US_Cities_List/nat_newhope.png,,,,,,,,,,,,,,,,,,,,,,,,,,,,
null,,black_cross(without_color),2610165,green,,,,,null,US_Cities_List/mm_shreveport.png,US_Cities_List/nat_newhope.png,,,,,,,,,,,,,,,,,,,,,,,,,,,,
476.8999999985099,,rt_plussign_withcolor,2610667,green,,,,,50,US_Cities_List/mm_shreveport.png,US_Cities_List/nat_newhope.png,,,,,,,,,,,,,,,,,,,,,,,,,,,,
null,,rt_thecrossant_black,2611841,black_plus_sign,,,,,null,,,1,0.9696969696969697,,,,,,,,,,,,,,,,,,,,,,,,,,
null,,color_black,2611944,black_plus_sign,,,,,null,,,,,,,,,,,,,,,,,,,,,,,,,,,,,,
null,,learn_phase(without_color),2614506,black_plus_sign,,,,,null,US_Cities_List/mm_shreveport.png,US_Cities_List/nat_peoria.png,,,,,,,,,,,,,,,,,,,,,,,,,,,,
null,,black_cross(without_color),2615022,green,,,,,null,US_Cities_List/mm_shreveport.png,US_Cities_List/nat_peoria.png,,,,,,,,,,,,,,,,,,,,,,,,,,,,
null,,rt_plussign_withcolor,2615524,green,,,,,null,US_Cities_List/mm_shreveport.png,US_Cities_List/nat_peoria.png,,,,,,,,,,,,,,,,,,,,,,,,,,,,
968.3999999985099,,rt_thecrossant_black,2617028,black_plus_sign,,,,,50,,,1,0.9701492537313433,,,,,,,,,,,,,,,,,,,,,,,,,,
null,,color_black,2617138,black_plus_sign,,,,,null,,,,,,,,,,,,,,,,,,,,,,,,,,,,,,
null,,learn_phase(without_color),2619721,black_plus_sign,,,,,null,US_Cities_List/nat_huntsville.png,US_Cities_List/nat_hanover.png,,,,,,,,,,,,,,,,,,,,,,,,,,,,
null,,black_cross(without_color),2620398,green,,,,,null,US_Cities_List/nat_huntsville.png,US_Cities_List/nat_hanover.png,,,,,,,,,,,,,,,,,,,,,,,,,,,,
null,,rt_plussign_withcolor,2620902,green,,,,,null,US_Cities_List/nat_huntsville.png,US_Cities_List/nat_hanover.png,,,,,,,,,,,,,,,,,,,,,,,,,,,,
623.2999999970198,,rt_thecrossant_black,2622233,black_plus_sign,,,,,50,,,1,0.9705882352941176,,,,,,,,,,,,,,,,,,,,,,,,,,
null,,color_black,2622338,black_plus_sign,,,,,null,,,,,,,,,,,,,,,,,,,,,,,,,,,,,,
null,,learn_phase(without_color),2624915,black_plus_sign,,,,,null,US_Cities_List/nat_hanover.png,US_Cities_List/nat_cornwall.png,,,,,,,,,,,,,,,,,,,,,,,,,,,,
null,,black_cross(without_color),2625512,blue,,,,,null,US_Cities_List/nat_hanover.png,US_Cities_List/nat_cornwall.png,,,,,,,,,,,,,,,,,,,,,,,,,,,,
null,,rt_plussign_withcolor,2626015,blue,,,,,null,US_Cities_List/nat_hanover.png,US_Cities_List/nat_cornwall.png,,,,,,,,,,,,,,,,,,,,,,,,,,,,
995,,rt_thecrossant_black,2627425,black_plus_sign,,,,,49,,,1,0.9710144927536232,,,,,,,,,,,,,,,,,,,,,,,,,,
null,,color_black,2627529,black_plus_sign,,,,,null,,,,,,,,,,,,,,,,,,,,,,,,,,,,,,
null,,learn_phase(without_color),2630110,black_plus_sign,,,,,null,US_Cities_List/nat_gatlinburg.png,US_Cities_List/mm_boulder.png,,,,,,,,,,,,,,,,,,,,,,,,,,,,
null,,black_cross(without_color),2630595,green,,,,,null,US_Cities_List/nat_gatlinburg.png,US_Cities_List/mm_boulder.png,,,,,,,,,,,,,,,,,,,,,,,,,,,,
null,,rt_plussign_withcolor,2631098,green,,,,,null,US_Cities_List/nat_gatlinburg.png,US_Cities_List/mm_boulder.png,,,,,,,,,,,,,,,,,,,,,,,,,,,,
724.6000000014901,,rt_thecrossant_black,2632619,black_plus_sign,,,,,50,,,1,0.9714285714285714,,,,,,,,,,,,,,,,,,,,,,,,,,
null,,color_black,2632723,black_plus_sign,,,,,null,,,,,,,,,,,,,,,,,,,,,,,,,,,,,,
null,,learn_phase(without_color),2635320,black_plus_sign,,,,,null,US_Cities_List/mm_boulder.png,US_Cities_List/mm_carmel.png,,,,,,,,,,,,,,,,,,,,,,,,,,,,
null,,black_cross(without_color),2635732,green,,,,,null,US_Cities_List/mm_boulder.png,US_Cities_List/mm_carmel.png,,,,,,,,,,,,,,,,,,,,,,,,,,,,
null,,rt_plussign_withcolor,2636234,green,,,,,null,US_Cities_List/mm_boulder.png,US_Cities_List/mm_carmel.png,,,,,,,,,,,,,,,,,,,,,,,,,,,,
605.6999999955297,,rt_thecrossant_black,2637827,black_plus_sign,,,,,50,,,1,0.971830985915493,,,,,,,,,,,,,,,,,,,,,,,,,,
null,,color_black,2637931,black_plus_sign,,,,,null,,,,,,,,,,,,,,,,,,,,,,,,,,,,,,
null,,learn_phase(without_color),2640531,black_plus_sign,,,,,null,US_Cities_List/nat_hanover.png,US_Cities_List/nat_cornwall.png,,,,,,,,,,,,,,,,,,,,,,,,,,,,
null,,black_cross(without_color),2641474,blue,,,,,null,US_Cities_List/nat_hanover.png,US_Cities_List/nat_cornwall.png,,,,,,,,,,,,,,,,,,,,,,,,,,,,
454.1000000014901,,rt_plussign_withcolor,2641977,blue,,,,,49,US_Cities_List/nat_hanover.png,US_Cities_List/nat_cornwall.png,,,,,,,,,,,,,,,,,,,,,,,,,,,,
null,,rt_thecrossant_black,2643040,black_plus_sign,,,,,null,,,1,0.9722222222222222,,,,,,,,,,,,,,,,,,,,,,,,,,
null,,color_black,2643143,black_plus_sign,,,,,null,,,,,,,,,,,,,,,,,,,,,,,,,,,,,,
null,,learn_phase(without_color),2645726,black_plus_sign,,,,,null,US_Cities_List/nat_newhope.png,US_Cities_List/mm_hotsprings.png,,,,,,,,,,,,,,,,,,,,,,,,,,,,
null,,black_cross(without_color),2646571,green,,,,,null,US_Cities_List/nat_newhope.png,US_Cities_List/mm_hotsprings.png,,,,,,,,,,,,,,,,,,,,,,,,,,,,
null,,rt_plussign_withcolor,2647075,green,,,,,null,US_Cities_List/nat_newhope.png,US_Cities_List/mm_hotsprings.png,,,,,,,,,,,,,,,,,,,,,,,,,,,,
1086.5,,rt_thecrossant_black,2648238,black_plus_sign,,,,,50,,,1,0.9726027397260274,,,,,,,,,,,,,,,,,,,,,,,,,,
null,,color_black,2648342,black_plus_sign,,,,,null,,,,,,,,,,,,,,,,,,,,,,,,,,,,,,
null,,learn_phase(without_color),2650949,black_plus_sign,,,,,null,US_Cities_List/nat_hanover.png,US_Cities_List/nat_cornwall.png,,,,,,,,,,,,,,,,,,,,,,,,,,,,
null,,black_cross(without_color),2651426,green,,,,,null,US_Cities_List/nat_hanover.png,US_Cities_List/nat_cornwall.png,,,,,,,,,,,,,,,,,,,,,,,,,,,,
null,,rt_plussign_withcolor,2651929,green,,,,,null,US_Cities_List/nat_hanover.png,US_Cities_List/nat_cornwall.png,,,,,,,,,,,,,,,,,,,,,,,,,,,,
1058.1000000014901,,rt_thecrossant_black,2653459,black_plus_sign,,,,,50,,,1,0.972972972972973,,,,,,,,,,,,,,,,,,,,,,,,,,
null,,color_black,2653566,black_plus_sign,,,,,null,,,,,,,,,,,,,,,,,,,,,,,,,,,,,,
null,,learn_phase(without_color),2656174,black_plus_sign,,,,,null,US_Cities_List/nat_gatlinburg.png,US_Cities_List/mm_boulder.png,,,,,,,,,,,,,,,,,,,,,,,,,,,,
null,,black_cross(without_color),2656866,green,,,,,null,US_Cities_List/nat_gatlinburg.png,US_Cities_List/mm_boulder.png,,,,,,,,,,,,,,,,,,,,,,,,,,,,
null,,rt_plussign_withcolor,2657369,green,,,,,null,US_Cities_List/nat_gatlinburg.png,US_Cities_List/mm_boulder.png,,,,,,,,,,,,,,,,,,,,,,,,,,,,
607.1000000014901,,rt_thecrossant_black,2658685,black_plus_sign,,,,,50,,,1,0.9733333333333334,,,,,,,,,,,,,,,,,,,,,,,,,,
null,,color_black,2658789,black_plus_sign,,,,,null,,,,,,,,,,,,,,,,,,,,,,,,,,,,,,
null,,learn_phase(without_color),2661410,black_plus_sign,,,,,null,US_Cities_List/nat_hanover.png,US_Cities_List/nat_cornwall.png,,,,,,,,,,,,,,,,,,,,,,,,,,,,
null,,black_cross(without_color),2661836,blue,,,,,null,US_Cities_List/nat_hanover.png,US_Cities_List/nat_cornwall.png,,,,,,,,,,,,,,,,,,,,,,,,,,,,
null,,rt_plussign_withcolor,2662340,blue,,,,,null,US_Cities_List/nat_hanover.png,US_Cities_List/nat_cornwall.png,,,,,,,,,,,,,,,,,,,,,,,,,,,,
828.8999999985099,,rt_thecrossant_black,2663922,black_plus_sign,,,,,49,,,1,0.9736842105263158,,,,,,,,,,,,,,,,,,,,,,,,,,
null,,color_black,2664026,black_plus_sign,,,,,null,,,,,,,,,,,,,,,,,,,,,,,,,,,,,,
null,,learn_phase(without_color),2666608,black_plus_sign,,,,,null,US_Cities_List/mm_leesburg.png,US_Cities_List/nat_newhope.png,,,,,,,,,,,,,,,,,,,,,,,,,,,,
null,,black_cross(without_color),2667154,green,,,,,null,US_Cities_List/mm_leesburg.png,US_Cities_List/nat_newhope.png,,,,,,,,,,,,,,,,,,,,,,,,,,,,
null,,rt_plussign_withcolor,2667658,green,,,,,null,US_Cities_List/mm_leesburg.png,US_Cities_List/nat_newhope.png,,,,,,,,,,,,,,,,,,,,,,,,,,,,
672.2000000029802,,rt_thecrossant_black,2669120,black_plus_sign,,,,,50,,,1,0.974025974025974,,,,,,,,,,,,,,,,,,,,,,,,,,
null,,color_black,2669224,black_plus_sign,,,,,null,,,,,,,,,,,,,,,,,,,,,,,,,,,,,,
null,,learn_phase(without_color),2671807,black_plus_sign,,,,,null,US_Cities_List/nat_peoria.png,US_Cities_List/nat_huntsville.png,,,,,,,,,,,,,,,,,,,,,,,,,,,,
null,,black_cross(without_color),2672488,blue,,,,,null,US_Cities_List/nat_peoria.png,US_Cities_List/nat_huntsville.png,,,,,,,,,,,,,,,,,,,,,,,,,,,,
null,,rt_plussign_withcolor,2672992,blue,,,,,null,US_Cities_List/nat_peoria.png,US_Cities_List/nat_huntsville.png,,,,,,,,,,,,,,,,,,,,,,,,,,,,
725.5999999940395,,rt_thecrossant_black,2674319,black_plus_sign,,,,,49,,,1,0.9743589743589743,,,,,,,,,,,,,,,,,,,,,,,,,,
null,,color_black,2674423,black_plus_sign,,,,,null,,,,,,,,,,,,,,,,,,,,,,,,,,,,,,
null,,learn_phase(without_color),2677013,black_plus_sign,,,,,null,US_Cities_List/mm_boulder.png,US_Cities_List/mm_shreveport.png,,,,,,,,,,,,,,,,,,,,,,,,,,,,
null,,black_cross(without_color),2677432,green,,,,,null,US_Cities_List/mm_boulder.png,US_Cities_List/mm_shreveport.png,,,,,,,,,,,,,,,,,,,,,,,,,,,,
492.29999999701977,,rt_plussign_withcolor,2677935,green,,,,,50,US_Cities_List/mm_boulder.png,US_Cities_List/mm_shreveport.png,,,,,,,,,,,,,,,,,,,,,,,,,,,,
null,,rt_thecrossant_black,2679522,black_plus_sign,,,,,null,,,1,0.9746835443037974,,,,,,,,,,,,,,,,,,,,,,,,,,
null,,color_black,2679625,black_plus_sign,,,,,null,,,,,,,,,,,,,,,,,,,,,,,,,,,,,,
null,,learn_phase(without_color),2682186,black_plus_sign,,,,,null,US_Cities_List/nat_gatlinburg.png,US_Cities_List/mm_boulder.png,,,,,,,,,,,,,,,,,,,,,,,,,,,,
null,,black_cross(without_color),2682705,green,,,,,null,US_Cities_List/nat_gatlinburg.png,US_Cities_List/mm_boulder.png,,,,,,,,,,,,,,,,,,,,,,,,,,,,
null,,rt_plussign_withcolor,2683208,green,,,,,null,US_Cities_List/nat_gatlinburg.png,US_Cities_List/mm_boulder.png,,,,,,,,,,,,,,,,,,,,,,,,,,,,
650.8999999985099,,rt_thecrossant_black,2684696,black_plus_sign,,,,,50,,,1,0.975,,,,,,,,,,,,,,,,,,,,,,,,,,
null,,color_black,2684800,black_plus_sign,,,,,null,,,,,,,,,,,,,,,,,,,,,,,,,,,,,,
null,,learn_phase(without_color),2687398,black_plus_sign,,,,,null,US_Cities_List/nat_huntsville.png,US_Cities_List/nat_hanover.png,,,,,,,,,,,,,,,,,,,,,,,,,,,,
null,,black_cross(without_color),2688030,green,,,,,null,US_Cities_List/nat_huntsville.png,US_Cities_List/nat_hanover.png,,,,,,,,,,,,,,,,,,,,,,,,,,,,
null,,rt_plussign_withcolor,2688533,green,,,,,null,US_Cities_List/nat_huntsville.png,US_Cities_List/nat_hanover.png,,,,,,,,,,,,,,,,,,,,,,,,,,,,
638.3999999985099,,rt_thecrossant_black,2689908,black_plus_sign,,,,,49,,,0,0.9629629629629629,,,,,,,,,,,,,,,,,,,,,,,,,,
null,,color_black,2690012,black_plus_sign,,,,,null,,,,,,,,,,,,,,,,,,,,,,,,,,,,,,
null,,learn_phase(without_color),2692599,black_plus_sign,,,,,null,US_Cities_List/mm_carmel.png,US_Cities_List/nat_racine.png,,,,,,,,,,,,,,,,,,,,,,,,,,,,
null,,black_cross(without_color),2693495,blue,,,,,null,US_Cities_List/mm_carmel.png,US_Cities_List/nat_racine.png,,,,,,,,,,,,,,,,,,,,,,,,,,,,
null,,rt_plussign_withcolor,2693998,blue,,,,,null,US_Cities_List/mm_carmel.png,US_Cities_List/nat_racine.png,,,,,,,,,,,,,,,,,,,,,,,,,,,,
789.7999999970198,,rt_thecrossant_black,2695108,black_plus_sign,,,,,49,,,1,0.9634146341463414,,,,,,,,,,,,,,,,,,,,,,,,,,
null,,color_black,2695211,black_plus_sign,,,,,null,,,,,,,,,,,,,,,,,,,,,,,,,,,,,,
null,,learn_phase(without_color),2697819,black_plus_sign,,,,,null,US_Cities_List/nat_huntsville.png,US_Cities_List/mm_westpalmbeach.png,,,,,,,,,,,,,,,,,,,,,,,,,,,,
null,,black_cross(without_color),2698480,green,,,,,null,US_Cities_List/nat_huntsville.png,US_Cities_List/mm_westpalmbeach.png,,,,,,,,,,,,,,,,,,,,,,,,,,,,
null,,rt_plussign_withcolor,2698982,green,,,,,null,US_Cities_List/nat_huntsville.png,US_Cities_List/mm_westpalmbeach.png,,,,,,,,,,,,,,,,,,,,,,,,,,,,
1089.5,,rt_thecrossant_black,2700328,black_plus_sign,,,,,50,,,1,0.963855421686747,,,,,,,,,,,,,,,,,,,,,,,,,,
null,,color_black,2700432,black_plus_sign,,,,,null,,,,,,,,,,,,,,,,,,,,,,,,,,,,,,
null,,learn_phase(without_color),2703021,black_plus_sign,,,,,null,US_Cities_List/nat_hanover.png,US_Cities_List/mm_leesburg.png,,,,,,,,,,,,,,,,,,,,,,,,,,,,
null,,black_cross(without_color),2703730,green,,,,,null,US_Cities_List/nat_hanover.png,US_Cities_List/mm_leesburg.png,,,,,,,,,,,,,,,,,,,,,,,,,,,,
null,,rt_plussign_withcolor,2704233,green,,,,,null,US_Cities_List/nat_hanover.png,US_Cities_List/mm_leesburg.png,,,,,,,,,,,,,,,,,,,,,,,,,,,,
793.8000000044703,,rt_thecrossant_black,2705531,black_plus_sign,,,,,50,,,1,0.9642857142857143,,,,,,,,,,,,,,,,,,,,,,,,,,
null,,color_black,2705635,black_plus_sign,,,,,null,,,,,,,,,,,,,,,,,,,,,,,,,,,,,,
null,,learn_phase(without_color),2708244,black_plus_sign,,,,,null,US_Cities_List/mm_carmel.png,US_Cities_List/nat_racine.png,,,,,,,,,,,,,,,,,,,,,,,,,,,,
null,,black_cross(without_color),2708795,blue,,,,,null,US_Cities_List/mm_carmel.png,US_Cities_List/nat_racine.png,,,,,,,,,,,,,,,,,,,,,,,,,,,,
null,,rt_plussign_withcolor,2709298,blue,,,,,null,US_Cities_List/mm_carmel.png,US_Cities_List/nat_racine.png,,,,,,,,,,,,,,,,,,,,,,,,,,,,
913.8999999985099,,rt_thecrossant_black,2710754,black_plus_sign,,,,,49,,,1,0.9647058823529412,,,,,,,,,,,,,,,,,,,,,,,,,,
null,,color_black,2710857,black_plus_sign,,,,,null,,,,,,,,,,,,,,,,,,,,,,,,,,,,,,
null,,learn_phase(without_color),2713444,black_plus_sign,,,,,null,US_Cities_List/nat_huntsville.png,US_Cities_List/mm_westpalmbeach.png,,,,,,,,,,,,,,,,,,,,,,,,,,,,
null,,black_cross(without_color),2714190,green,,,,,null,US_Cities_List/nat_huntsville.png,US_Cities_List/mm_westpalmbeach.png,,,,,,,,,,,,,,,,,,,,,,,,,,,,
491.1000000014901,,rt_plussign_withcolor,2714693,green,,,,,50,US_Cities_List/nat_huntsville.png,US_Cities_List/mm_westpalmbeach.png,,,,,,,,,,,,,,,,,,,,,,,,,,,,
null,,rt_thecrossant_black,2715954,black_plus_sign,,,,,null,,,1,0.9651162790697675,,,,,,,,,,,,,,,,,,,,,,,,,,
null,,color_black,2716058,black_plus_sign,,,,,null,,,,,,,,,,,,,,,,,,,,,,,,,,,,,,
null,,learn_phase(without_color),2718663,black_plus_sign,,,,,null,US_Cities_List/mm_carmel.png,US_Cities_List/mm_hotsprings.png,,,,,,,,,,,,,,,,,,,,,,,,,,,,
null,,black_cross(without_color),2719487,blue,,,,,null,US_Cities_List/mm_carmel.png,US_Cities_List/mm_hotsprings.png,,,,,,,,,,,,,,,,,,,,,,,,,,,,
null,,rt_plussign_withcolor,2719991,blue,,,,,null,US_Cities_List/mm_carmel.png,US_Cities_List/mm_hotsprings.png,,,,,,,,,,,,,,,,,,,,,,,,,,,,
843.3999999985099,,rt_thecrossant_black,2721180,black_plus_sign,,,,,49,,,1,0.9655172413793104,,,,,,,,,,,,,,,,,,,,,,,,,,
null,,color_black,2721283,black_plus_sign,,,,,null,,,,,,,,,,,,,,,,,,,,,,,,,,,,,,
null,,learn_phase(without_color),2723876,black_plus_sign,,,,,null,US_Cities_List/mm_shreveport.png,US_Cities_List/nat_newhope.png,,,,,,,,,,,,,,,,,,,,,,,,,,,,
null,,black_cross(without_color),2724522,green,,,,,null,US_Cities_List/mm_shreveport.png,US_Cities_List/nat_newhope.png,,,,,,,,,,,,,,,,,,,,,,,,,,,,
null,,rt_plussign_withcolor,2725025,green,,,,,null,US_Cities_List/mm_shreveport.png,US_Cities_List/nat_newhope.png,,,,,,,,,,,,,,,,,,,,,,,,,,,,
1019.3999999985099,,rt_thecrossant_black,2726387,black_plus_sign,,,,,50,,,1,0.9659090909090909,,,,,,,,,,,,,,,,,,,,,,,,,,
null,,color_black,2726491,black_plus_sign,,,,,null,,,,,,,,,,,,,,,,,,,,,,,,,,,,,,
null,,learn_phase(without_color),2729092,black_plus_sign,,,,,null,US_Cities_List/mm_boulder.png,US_Cities_List/mm_shreveport.png,,,,,,,,,,,,,,,,,,,,,,,,,,,,
null,,black_cross(without_color),2730065,blue,,,,,null,US_Cities_List/mm_boulder.png,US_Cities_List/mm_shreveport.png,,,,,,,,,,,,,,,,,,,,,,,,,,,,
null,,rt_plussign_withcolor,2730568,blue,,,,,null,US_Cities_List/mm_boulder.png,US_Cities_List/mm_shreveport.png,,,,,,,,,,,,,,,,,,,,,,,,,,,,
861.5,,rt_thecrossant_black,2731607,black_plus_sign,,,,,49,,,1,0.9662921348314607,,,,,,,,,,,,,,,,,,,,,,,,,,
null,,color_black,2731711,black_plus_sign,,,,,null,,,,,,,,,,,,,,,,,,,,,,,,,,,,,,
null,,learn_phase(without_color),2734308,black_plus_sign,,,,,null,US_Cities_List/nat_huntsville.png,US_Cities_List/mm_leesburg.png,,,,,,,,,,,,,,,,,,,,,,,,,,,,
null,,black_cross(without_color),2735258,green,,,,,null,US_Cities_List/nat_huntsville.png,US_Cities_List/mm_leesburg.png,,,,,,,,,,,,,,,,,,,,,,,,,,,,
null,,rt_plussign_withcolor,2735761,green,,,,,null,US_Cities_List/nat_huntsville.png,US_Cities_List/mm_leesburg.png,,,,,,,,,,,,,,,,,,,,,,,,,,,,
1197.4000000059605,,rt_thecrossant_black,2736819,black_plus_sign,,,,,50,,,1,0.9666666666666667,,,,,,,,,,,,,,,,,,,,,,,,,,
null,,color_black,2736931,black_plus_sign,,,,,null,,,,,,,,,,,,,,,,,,,,,,,,,,,,,,
null,,learn_phase(without_color),2739545,black_plus_sign,,,,,null,US_Cities_List/mm_shreveport.png,US_Cities_List/nat_newhope.png,,,,,,,,,,,,,,,,,,,,,,,,,,,,
null,,black_cross(without_color),2740197,blue,,,,,null,US_Cities_List/mm_shreveport.png,US_Cities_List/nat_newhope.png,,,,,,,,,,,,,,,,,,,,,,,,,,,,
null,,rt_plussign_withcolor,2740700,blue,,,,,null,US_Cities_List/mm_shreveport.png,US_Cities_List/nat_newhope.png,,,,,,,,,,,,,,,,,,,,,,,,,,,,
1065.8000000044703,,rt_thecrossant_black,2742065,black_plus_sign,,,,,49,,,1,0.967032967032967,,,,,,,,,,,,,,,,,,,,,,,,,,
null,,color_black,2742168,black_plus_sign,,,,,null,,,,,,,,,,,,,,,,,,,,,,,,,,,,,,
null,,learn_phase(without_color),2744770,black_plus_sign,,,,,null,US_Cities_List/mm_boulder.png,US_Cities_List/mm_shreveport.png,,,,,,,,,,,,,,,,,,,,,,,,,,,,
null,,black_cross(without_color),2745870,blue,,,,,null,US_Cities_List/mm_boulder.png,US_Cities_List/mm_shreveport.png,,,,,,,,,,,,,,,,,,,,,,,,,,,,
null,,rt_plussign_withcolor,2746373,blue,,,,,null,US_Cities_List/mm_boulder.png,US_Cities_List/mm_shreveport.png,,,,,,,,,,,,,,,,,,,,,,,,,,,,
907.6999999955297,,rt_thecrossant_black,2747282,black_plus_sign,,,,,49,,,1,0.967391304347826,,,,,,,,,,,,,,,,,,,,,,,,,,
null,,color_black,2747386,black_plus_sign,,,,,null,,,,,,,,,,,,,,,,,,,,,,,,,,,,,,
null,,learn_phase(without_color),2749972,black_plus_sign,,,,,null,US_Cities_List/nat_hanover.png,US_Cities_List/mm_leesburg.png,,,,,,,,,,,,,,,,,,,,,,,,,,,,
null,,black_cross(without_color),2750958,green,,,,,null,US_Cities_List/nat_hanover.png,US_Cities_List/mm_leesburg.png,,,,,,,,,,,,,,,,,,,,,,,,,,,,
null,,rt_plussign_withcolor,2751460,green,,,,,null,US_Cities_List/nat_hanover.png,US_Cities_List/mm_leesburg.png,,,,,,,,,,,,,,,,,,,,,,,,,,,,
1277.2999999970198,,rt_thecrossant_black,2752482,black_plus_sign,,,,,50,,,1,0.967741935483871,,,,,,,,,,,,,,,,,,,,,,,,,,
null,,color_black,2752585,black_plus_sign,,,,,null,,,,,,,,,,,,,,,,,,,,,,,,,,,,,,
null,,learn_phase(without_color),2755192,black_plus_sign,,,,,null,US_Cities_List/mm_boulder.png,US_Cities_List/mm_shreveport.png,,,,,,,,,,,,,,,,,,,,,,,,,,,,
null,,black_cross(without_color),2755635,blue,,,,,null,US_Cities_List/mm_boulder.png,US_Cities_List/mm_shreveport.png,,,,,,,,,,,,,,,,,,,,,,,,,,,,
null,,rt_plussign_withcolor,2756138,blue,,,,,null,US_Cities_List/mm_boulder.png,US_Cities_List/mm_shreveport.png,,,,,,,,,,,,,,,,,,,,,,,,,,,,
1356.3999999985099,,rt_thecrossant_black,2757701,black_plus_sign,,,,,49,,,1,0.9680851063829787,,,,,,,,,,,,,,,,,,,,,,,,,,
null,,color_black,2757805,black_plus_sign,,,,,null,,,,,,,,,,,,,,,,,,,,,,,,,,,,,,
null,,learn_phase(without_color),2760348,black_plus_sign,,,,,null,US_Cities_List/nat_huntsville.png,US_Cities_List/nat_hanover.png,,,,,,,,,,,,,,,,,,,,,,,,,,,,
null,,black_cross(without_color),2760793,blue,,,,,null,US_Cities_List/nat_huntsville.png,US_Cities_List/nat_hanover.png,,,,,,,,,,,,,,,,,,,,,,,,,,,,
null,,rt_plussign_withcolor,2761296,blue,,,,,null,US_Cities_List/nat_huntsville.png,US_Cities_List/nat_hanover.png,,,,,,,,,,,,,,,,,,,,,,,,,,,,
820.1999999955297,,rt_thecrossant_black,2762859,black_plus_sign,,,,,49,,,1,0.968421052631579,,,,,,,,,,,,,,,,,,,,,,,,,,
null,,color_black,2762966,black_plus_sign,,,,,null,,,,,,,,,,,,,,,,,,,,,,,,,,,,,,
null,,learn_phase(without_color),2765549,black_plus_sign,,,,,null,US_Cities_List/nat_peoria.png,US_Cities_List/nat_huntsville.png,,,,,,,,,,,,,,,,,,,,,,,,,,,,
null,,black_cross(without_color),2766518,blue,,,,,null,US_Cities_List/nat_peoria.png,US_Cities_List/nat_huntsville.png,,,,,,,,,,,,,,,,,,,,,,,,,,,,
null,,rt_plussign_withcolor,2767021,blue,,,,,null,US_Cities_List/nat_peoria.png,US_Cities_List/nat_huntsville.png,,,,,,,,,,,,,,,,,,,,,,,,,,,,
599.8999999985099,,rt_thecrossant_black,2768060,black_plus_sign,,,,,49,,,1,0.96875,,,,,,,,,,,,,,,,,,,,,,,,,,
null,,color_black,2768165,black_plus_sign,,,,,null,,,,,,,,,,,,,,,,,,,,,,,,,,,,,,
null,,learn_phase(without_color),2770756,black_plus_sign,,,,,null,US_Cities_List/mm_carmel.png,US_Cities_List/nat_racine.png,,,,,,,,,,,,,,,,,,,,,,,,,,,,
null,,black_cross(without_color),2771277,green,,,,,null,US_Cities_List/mm_carmel.png,US_Cities_List/nat_racine.png,,,,,,,,,,,,,,,,,,,,,,,,,,,,
493.70000000298023,,rt_plussign_withcolor,2771780,green,,,,,50,US_Cities_List/mm_carmel.png,US_Cities_List/nat_racine.png,,,,,,,,,,,,,,,,,,,,,,,,,,,,
null,,rt_thecrossant_black,2773272,black_plus_sign,,,,,null,,,1,0.9690721649484536,,,,,,,,,,,,,,,,,,,,,,,,,,
null,,color_black,2773376,black_plus_sign,,,,,null,,,,,,,,,,,,,,,,,,,,,,,,,,,,,,
null,,learn_phase(without_color),2775955,black_plus_sign,,,,,null,US_Cities_List/nat_gatlinburg.png,US_Cities_List/mm_boulder.png,,,,,,,,,,,,,,,,,,,,,,,,,,,,
null,,black_cross(without_color),2776641,blue,,,,,null,US_Cities_List/nat_gatlinburg.png,US_Cities_List/mm_boulder.png,,,,,,,,,,,,,,,,,,,,,,,,,,,,
416.3999999985099,,rt_plussign_withcolor,2777144,blue,,,,,49,US_Cities_List/nat_gatlinburg.png,US_Cities_List/mm_boulder.png,,,,,,,,,,,,,,,,,,,,,,,,,,,,
null,,rt_thecrossant_black,2778466,black_plus_sign,,,,,null,,,1,0.9693877551020408,,,,,,,,,,,,,,,,,,,,,,,,,,
null,,color_black,2778571,black_plus_sign,,,,,null,,,,,,,,,,,,,,,,,,,,,,,,,,,,,,
null,,learn_phase(without_color),2781165,black_plus_sign,,,,,null,US_Cities_List/mm_shreveport.png,US_Cities_List/nat_newhope.png,,,,,,,,,,,,,,,,,,,,,,,,,,,,
null,,black_cross(without_color),2782140,green,,,,,null,US_Cities_List/mm_shreveport.png,US_Cities_List/nat_newhope.png,,,,,,,,,,,,,,,,,,,,,,,,,,,,
432.8999999985099,,rt_plussign_withcolor,2782644,green,,,,,50,US_Cities_List/mm_shreveport.png,US_Cities_List/nat_newhope.png,,,,,,,,,,,,,,,,,,,,,,,,,,,,
null,,rt_thecrossant_black,2783688,black_plus_sign,,,,,null,,,1,0.9696969696969697,,,,,,,,,,,,,,,,,,,,,,,,,,
null,,color_black,2783792,black_plus_sign,,,,,null,,,,,,,,,,,,,,,,,,,,,,,,,,,,,,
null,,learn_phase(without_color),2786401,black_plus_sign,,,,,null,US_Cities_List/mm_shreveport.png,US_Cities_List/nat_peoria.png,,,,,,,,,,,,,,,,,,,,,,,,,,,,
null,,black_cross(without_color),2787034,green,,,,,null,US_Cities_List/mm_shreveport.png,US_Cities_List/nat_peoria.png,,,,,,,,,,,,,,,,,,,,,,,,,,,,
446.20000000298023,,rt_plussign_withcolor,2787537,green,,,,,50,US_Cities_List/mm_shreveport.png,US_Cities_List/nat_peoria.png,,,,,,,,,,,,,,,,,,,,,,,,,,,,
null,,rt_thecrossant_black,2788913,black_plus_sign,,,,,null,,,1,0.97,,,,,,,,,,,,,,,,,,,,,,,,,,
null,,color_black,2789018,black_plus_sign,,,,,null,,,,,,,,,,,,,,,,,,,,,,,,,,,,,,
null,,learn_phase(without_color),2791612,black_plus_sign,,,,,null,US_Cities_List/nat_gatlinburg.png,US_Cities_List/mm_boulder.png,,,,,,,,,,,,,,,,,,,,,,,,,,,,
null,,black_cross(without_color),2792503,green,,,,,null,US_Cities_List/nat_gatlinburg.png,US_Cities_List/mm_boulder.png,,,,,,,,,,,,,,,,,,,,,,,,,,,,
null,,rt_plussign_withcolor,2793006,green,,,,,null,US_Cities_List/nat_gatlinburg.png,US_Cities_List/mm_boulder.png,,,,,,,,,,,,,,,,,,,,,,,,,,,,
966,,rt_thecrossant_black,2794124,black_plus_sign,,,,,50,,,1,0.9702970297029703,,,,,,,,,,,,,,,,,,,,,,,,,,
null,,color_black,2794228,black_plus_sign,,,,,null,,,,,,,,,,,,,,,,,,,,,,,,,,,,,,
null,,learn_phase(without_color),2796827,black_plus_sign,,,,,null,US_Cities_List/mm_leesburg.png,US_Cities_List/nat_newhope.png,,,,,,,,,,,,,,,,,,,,,,,,,,,,
null,,black_cross(without_color),2797826,blue,,,,,null,US_Cities_List/mm_leesburg.png,US_Cities_List/nat_newhope.png,,,,,,,,,,,,,,,,,,,,,,,,,,,,
null,,rt_plussign_withcolor,2798328,blue,,,,,null,US_Cities_List/mm_leesburg.png,US_Cities_List/nat_newhope.png,,,,,,,,,,,,,,,,,,,,,,,,,,,,
1670.8999999985099,,rt_thecrossant_black,2799338,black_plus_sign,,,,,49,,,1,0.9705882352941176,,,,,,,,,,,,,,,,,,,,,,,,,,
null,,color_black,2799441,black_plus_sign,,,,,null,,,,,,,,,,,,,,,,,,,,,,,,,,,,,,
null,,learn_phase(without_color),2802041,black_plus_sign,,,,,null,US_Cities_List/nat_huntsville.png,US_Cities_List/nat_hanover.png,,,,,,,,,,,,,,,,,,,,,,,,,,,,
null,,black_cross(without_color),2802576,green,,,,,null,US_Cities_List/nat_huntsville.png,US_Cities_List/nat_hanover.png,,,,,,,,,,,,,,,,,,,,,,,,,,,,
null,,rt_plussign_withcolor,2803081,green,,,,,null,US_Cities_List/nat_huntsville.png,US_Cities_List/nat_hanover.png,,,,,,,,,,,,,,,,,,,,,,,,,,,,
null,,rt_thecrossant_black,2804554,black_plus_sign,,,,,null,,,,0.9705882352941176,,,,,,,,,,,,,,,,,,,,,,,,,,
null,,color_black,2804658,black_plus_sign,,,,,null,,,,,,,,,,,,,,,,,,,,,,,,,,,,,,
null,,learn_phase(without_color),2807263,black_plus_sign,,,,,null,US_Cities_List/nat_huntsville.png,US_Cities_List/mm_leesburg.png,,,,,,,,,,,,,,,,,,,,,,,,,,,,
null,,black_cross(without_color),2807742,green,,,,,null,US_Cities_List/nat_huntsville.png,US_Cities_List/mm_leesburg.png,,,,,,,,,,,,,,,,,,,,,,,,,,,,
null,,rt_plussign_withcolor,2808246,green,,,,,null,US_Cities_List/nat_huntsville.png,US_Cities_List/mm_leesburg.png,,,,,,,,,,,,,,,,,,,,,,,,,,,,
1001.8999999985099,,rt_thecrossant_black,2809775,black_plus_sign,,,,,50,,,1,0.970873786407767,,,,,,,,,,,,,,,,,,,,,,,,,,
null,,color_black,2809878,black_plus_sign,,,,,null,,,,,,,,,,,,,,,,,,,,,,,,,,,,,,
null,,learn_phase(without_color),2812489,black_plus_sign,,,,,null,US_Cities_List/mm_boulder.png,US_Cities_List/mm_shreveport.png,,,,,,,,,,,,,,,,,,,,,,,,,,,,
null,,black_cross(without_color),2813514,blue,,,,,null,US_Cities_List/mm_boulder.png,US_Cities_List/mm_shreveport.png,,,,,,,,,,,,,,,,,,,,,,,,,,,,
504.30000000447035,,rt_plussign_withcolor,2814023,blue,,,,,49,US_Cities_List/mm_boulder.png,US_Cities_List/mm_shreveport.png,,,,,,,,,,,,,,,,,,,,,,,,,,,,
null,,rt_thecrossant_black,2815005,black_plus_sign,,,,,null,,,1,0.9711538461538461,,,,,,,,,,,,,,,,,,,,,,,,,,
null,,color_black,2815109,black_plus_sign,,,,,null,,,,,,,,,,,,,,,,,,,,,,,,,,,,,,
null,,learn_phase(without_color),2817690,black_plus_sign,,,,,null,US_Cities_List/mm_leesburg.png,US_Cities_List/nat_newhope.png,,,,,,,,,,,,,,,,,,,,,,,,,,,,
null,,black_cross(without_color),2818188,green,,,,,null,US_Cities_List/mm_leesburg.png,US_Cities_List/nat_newhope.png,,,,,,,,,,,,,,,,,,,,,,,,,,,,
null,,rt_plussign_withcolor,2818693,green,,,,,null,US_Cities_List/mm_leesburg.png,US_Cities_List/nat_newhope.png,,,,,,,,,,,,,,,,,,,,,,,,,,,,
1278.7999999970198,,rt_thecrossant_black,2820202,black_plus_sign,,,,,50,,,1,0.9714285714285714,,,,,,,,,,,,,,,,,,,,,,,,,,
null,,color_black,2820307,black_plus_sign,,,,,null,,,,,,,,,,,,,,,,,,,,,,,,,,,,,,
null,,learn_phase(without_color),2822906,black_plus_sign,,,,,null,US_Cities_List/nat_huntsville.png,US_Cities_List/mm_westpalmbeach.png,,,,,,,,,,,,,,,,,,,,,,,,,,,,
null,,black_cross(without_color),2823400,blue,,,,,null,US_Cities_List/nat_huntsville.png,US_Cities_List/mm_westpalmbeach.png,,,,,,,,,,,,,,,,,,,,,,,,,,,,
null,,rt_plussign_withcolor,2823904,blue,,,,,null,US_Cities_List/nat_huntsville.png,US_Cities_List/mm_westpalmbeach.png,,,,,,,,,,,,,,,,,,,,,,,,,,,,
658.1000000014901,,rt_thecrossant_black,2825419,black_plus_sign,,,,,49,,,1,0.9716981132075472,,,,,,,,,,,,,,,,,,,,,,,,,,
null,,color_black,2825527,black_plus_sign,,,,,null,,,,,,,,,,,,,,,,,,,,,,,,,,,,,,
null,,learn_phase(without_color),2828111,black_plus_sign,,,,,null,US_Cities_List/mm_boulder.png,US_Cities_List/mm_carmel.png,,,,,,,,,,,,,,,,,,,,,,,,,,,,
null,,black_cross(without_color),2829182,green,,,,,null,US_Cities_List/mm_boulder.png,US_Cities_List/mm_carmel.png,,,,,,,,,,,,,,,,,,,,,,,,,,,,
null,,rt_plussign_withcolor,2829685,green,,,,,null,US_Cities_List/mm_boulder.png,US_Cities_List/mm_carmel.png,,,,,,,,,,,,,,,,,,,,,,,,,,,,
649,,rt_thecrossant_black,2830623,black_plus_sign,,,,,50,,,1,0.9719626168224299,,,,,,,,,,,,,,,,,,,,,,,,,,
null,,color_black,2830728,black_plus_sign,,,,,null,,,,,,,,,,,,,,,,,,,,,,,,,,,,,,
null,,learn_phase(without_color),2833309,black_plus_sign,,,,,null,US_Cities_List/nat_hanover.png,US_Cities_List/nat_cornwall.png,,,,,,,,,,,,,,,,,,,,,,,,,,,,
null,,black_cross(without_color),2834016,blue,,,,,null,US_Cities_List/nat_hanover.png,US_Cities_List/nat_cornwall.png,,,,,,,,,,,,,,,,,,,,,,,,,,,,
null,,rt_plussign_withcolor,2834519,blue,,,,,null,US_Cities_List/nat_hanover.png,US_Cities_List/nat_cornwall.png,,,,,,,,,,,,,,,,,,,,,,,,,,,,
1365.5,,rt_thecrossant_black,2835821,black_plus_sign,,,,,49,,,1,0.9722222222222222,,,,,,,,,,,,,,,,,,,,,,,,,,
null,,color_black,2835926,black_plus_sign,,,,,null,,,,,,,,,,,,,,,,,,,,,,,,,,,,,,
null,,learn_phase(without_color),2838529,black_plus_sign,,,,,null,US_Cities_List/nat_huntsville.png,US_Cities_List/nat_hanover.png,,,,,,,,,,,,,,,,,,,,,,,,,,,,
null,,black_cross(without_color),2839075,green,,,,,null,US_Cities_List/nat_huntsville.png,US_Cities_List/nat_hanover.png,,,,,,,,,,,,,,,,,,,,,,,,,,,,
489.80000000447035,,rt_plussign_withcolor,2839578,green,,,,,50,US_Cities_List/nat_huntsville.png,US_Cities_List/nat_hanover.png,,,,,,,,,,,,,,,,,,,,,,,,,,,,
null,,rt_thecrossant_black,2841039,black_plus_sign,,,,,null,,,1,0.9724770642201835,,,,,,,,,,,,,,,,,,,,,,,,,,
null,,color_black,2841144,black_plus_sign,,,,,null,,,,,,,,,,,,,,,,,,,,,,,,,,,,,,
null,,learn_phase(without_color),2843751,black_plus_sign,,,,,null,US_Cities_List/mm_boulder.png,US_Cities_List/mm_carmel.png,,,,,,,,,,,,,,,,,,,,,,,,,,,,
null,,black_cross(without_color),2844825,blue,,,,,null,US_Cities_List/mm_boulder.png,US_Cities_List/mm_carmel.png,,,,,,,,,,,,,,,,,,,,,,,,,,,,
null,,rt_plussign_withcolor,2845328,blue,,,,,null,US_Cities_List/mm_boulder.png,US_Cities_List/mm_carmel.png,,,,,,,,,,,,,,,,,,,,,,,,,,,,
797.4000000059605,,rt_thecrossant_black,2846261,black_plus_sign,,,,,49,,,1,0.9727272727272728,,,,,,,,,,,,,,,,,,,,,,,,,,
null,,color_black,2846370,black_plus_sign,,,,,null,,,,,,,,,,,,,,,,,,,,,,,,,,,,,,
null,,learn_phase(without_color),2848939,black_plus_sign,,,,,null,US_Cities_List/nat_peoria.png,US_Cities_List/nat_huntsville.png,,,,,,,,,,,,,,,,,,,,,,,,,,,,
null,,black_cross(without_color),2849401,green,,,,,null,US_Cities_List/nat_peoria.png,US_Cities_List/nat_huntsville.png,,,,,,,,,,,,,,,,,,,,,,,,,,,,
457.1000000014901,,rt_plussign_withcolor,2849903,green,,,,,50,US_Cities_List/nat_peoria.png,US_Cities_List/nat_huntsville.png,,,,,,,,,,,,,,,,,,,,,,,,,,,,
null,,rt_thecrossant_black,2851448,black_plus_sign,,,,,null,,,1,0.972972972972973,,,,,,,,,,,,,,,,,,,,,,,,,,
null,,color_black,2851552,black_plus_sign,,,,,null,,,,,,,,,,,,,,,,,,,,,,,,,,,,,,
null,,learn_phase(without_color),2854118,black_plus_sign,,,,,null,US_Cities_List/nat_hanover.png,US_Cities_List/mm_leesburg.png,,,,,,,,,,,,,,,,,,,,,,,,,,,,
null,,black_cross(without_color),2854874,blue,,,,,null,US_Cities_List/nat_hanover.png,US_Cities_List/mm_leesburg.png,,,,,,,,,,,,,,,,,,,,,,,,,,,,
null,,rt_plussign_withcolor,2855377,blue,,,,,null,US_Cities_List/nat_hanover.png,US_Cities_List/mm_leesburg.png,,,,,,,,,,,,,,,,,,,,,,,,,,,,
977.7999999970198,,rt_thecrossant_black,2856628,black_plus_sign,,,,,49,,,1,0.9732142857142857,,,,,,,,,,,,,,,,,,,,,,,,,,
null,,color_black,2856732,black_plus_sign,,,,,null,,,,,,,,,,,,,,,,,,,,,,,,,,,,,,
null,,learn_phase(without_color),2859319,black_plus_sign,,,,,null,US_Cities_List/nat_huntsville.png,US_Cities_List/nat_hanover.png,,,,,,,,,,,,,,,,,,,,,,,,,,,,
null,,black_cross(without_color),2860137,green,,,,,null,US_Cities_List/nat_huntsville.png,US_Cities_List/nat_hanover.png,,,,,,,,,,,,,,,,,,,,,,,,,,,,
null,,rt_plussign_withcolor,2860641,green,,,,,null,US_Cities_List/nat_huntsville.png,US_Cities_List/nat_hanover.png,,,,,,,,,,,,,,,,,,,,,,,,,,,,
868.3999999985099,,rt_thecrossant_black,2861831,black_plus_sign,,,,,50,,,1,0.9734513274336283,,,,,,,,,,,,,,,,,,,,,,,,,,
null,,color_black,2861936,black_plus_sign,,,,,null,,,,,,,,,,,,,,,,,,,,,,,,,,,,,,
null,,learn_phase(without_color),2864534,black_plus_sign,,,,,null,US_Cities_List/mm_shreveport.png,US_Cities_List/nat_peoria.png,,,,,,,,,,,,,,,,,,,,,,,,,,,,
null,,black_cross(without_color),2865179,green,,,,,null,US_Cities_List/mm_shreveport.png,US_Cities_List/nat_peoria.png,,,,,,,,,,,,,,,,,,,,,,,,,,,,
null,,rt_plussign_withcolor,2865691,green,,,,,null,US_Cities_List/mm_shreveport.png,US_Cities_List/nat_peoria.png,,,,,,,,,,,,,,,,,,,,,,,,,,,,
1199.3999999985099,,rt_thecrossant_black,2867053,black_plus_sign,,,,,50,,,1,0.9736842105263158,,,,,,,,,,,,,,,,,,,,,,,,,,
null,,color_black,2867158,black_plus_sign,,,,,null,,,,,,,,,,,,,,,,,,,,,,,,,,,,,,
null,,learn_phase(without_color),2869756,black_plus_sign,,,,,null,US_Cities_List/mm_leesburg.png,US_Cities_List/nat_newhope.png,,,,,,,,,,,,,,,,,,,,,,,,,,,,
null,,black_cross(without_color),2870215,green,,,,,null,US_Cities_List/mm_leesburg.png,US_Cities_List/nat_newhope.png,,,,,,,,,,,,,,,,,,,,,,,,,,,,
null,,rt_plussign_withcolor,2870718,green,,,,,null,US_Cities_List/mm_leesburg.png,US_Cities_List/nat_newhope.png,,,,,,,,,,,,,,,,,,,,,,,,,,,,
786.7999999970198,,rt_thecrossant_black,2872267,black_plus_sign,,,,,50,,,1,0.9739130434782609,,,,,,,,,,,,,,,,,,,,,,,,,,
null,,color_black,2872371,black_plus_sign,,,,,null,,,,,,,,,,,,,,,,,,,,,,,,,,,,,,
null,,learn_phase(without_color),2874966,black_plus_sign,,,,,null,US_Cities_List/mm_carmel.png,US_Cities_List/mm_hotsprings.png,,,,,,,,,,,,,,,,,,,,,,,,,,,,
null,,black_cross(without_color),2875406,blue,,,,,null,US_Cities_List/mm_carmel.png,US_Cities_List/mm_hotsprings.png,,,,,,,,,,,,,,,,,,,,,,,,,,,,
null,,rt_plussign_withcolor,2875924,blue,,,,,null,US_Cities_List/mm_carmel.png,US_Cities_List/mm_hotsprings.png,,,,,,,,,,,,,,,,,,,,,,,,,,,,
574.6000000014901,,rt_thecrossant_black,2877492,black_plus_sign,,,,,49,,,1,0.9741379310344828,,,,,,,,,,,,,,,,,,,,,,,,,,
null,,color_black,2877596,black_plus_sign,,,,,null,,,,,,,,,,,,,,,,,,,,,,,,,,,,,,
null,,learn_phase(without_color),2880185,black_plus_sign,,,,,null,US_Cities_List/mm_shreveport.png,US_Cities_List/nat_newhope.png,,,,,,,,,,,,,,,,,,,,,,,,,,,,
null,,black_cross(without_color),2881164,blue,,,,,null,US_Cities_List/mm_shreveport.png,US_Cities_List/nat_newhope.png,,,,,,,,,,,,,,,,,,,,,,,,,,,,
null,,rt_plussign_withcolor,2881668,blue,,,,,null,US_Cities_List/mm_shreveport.png,US_Cities_List/nat_newhope.png,,,,,,,,,,,,,,,,,,,,,,,,,,,,
811.5,,rt_thecrossant_black,2882698,black_plus_sign,,,,,49,,,1,0.9743589743589743,,,,,,,,,,,,,,,,,,,,,,,,,,
null,,color_black,2882802,black_plus_sign,,,,,null,,,,,,,,,,,,,,,,,,,,,,,,,,,,,,
null,,learn_phase(without_color),2885403,black_plus_sign,,,,,null,US_Cities_List/mm_leesburg.png,US_Cities_List/nat_newhope.png,,,,,,,,,,,,,,,,,,,,,,,,,,,,
null,,black_cross(without_color),2886376,green,,,,,null,US_Cities_List/mm_leesburg.png,US_Cities_List/nat_newhope.png,,,,,,,,,,,,,,,,,,,,,,,,,,,,
null,,rt_plussign_withcolor,2886879,green,,,,,null,US_Cities_List/mm_leesburg.png,US_Cities_List/nat_newhope.png,,,,,,,,,,,,,,,,,,,,,,,,,,,,
1404.6000000014901,,rt_thecrossant_black,2887920,black_plus_sign,,,,,50,,,1,0.9745762711864406,,,,,,,,,,,,,,,,,,,,,,,,,,
null,,color_black,2888024,black_plus_sign,,,,,null,,,,,,,,,,,,,,,,,,,,,,,,,,,,,,
null,,learn_phase(without_color),2890623,black_plus_sign,,,,,null,US_Cities_List/mm_carmel.png,US_Cities_List/nat_racine.png,,,,,,,,,,,,,,,,,,,,,,,,,,,,
null,,black_cross(without_color),2891662,blue,,,,,null,US_Cities_List/mm_carmel.png,US_Cities_List/nat_racine.png,,,,,,,,,,,,,,,,,,,,,,,,,,,,
null,,rt_plussign_withcolor,2892178,blue,,,,,null,US_Cities_List/mm_carmel.png,US_Cities_List/nat_racine.png,,,,,,,,,,,,,,,,,,,,,,,,,,,,
1076.3999999985099,,rt_thecrossant_black,2893148,black_plus_sign,,,,,49,,,1,0.9747899159663865,,,,,,,,,,,,,,,,,,,,,,,,,,
null,,color_black,2893260,black_plus_sign,,,,,null,,,,,,,,,,,,,,,,,,,,,,,,,,,,,,
null,,learn_phase(without_color),2895847,black_plus_sign,,,,,null,US_Cities_List/nat_peoria.png,US_Cities_List/nat_huntsville.png,,,,,,,,,,,,,,,,,,,,,,,,,,,,
null,,black_cross(without_color),2896372,blue,,,,,null,US_Cities_List/nat_peoria.png,US_Cities_List/nat_huntsville.png,,,,,,,,,,,,,,,,,,,,,,,,,,,,
null,,rt_plussign_withcolor,2896875,blue,,,,,null,US_Cities_List/nat_peoria.png,US_Cities_List/nat_huntsville.png,,,,,,,,,,,,,,,,,,,,,,,,,,,,
null,,rt_thecrossant_black,2898359,black_plus_sign,,,,,null,,,,0.9747899159663865,,,,,,,,,,,,,,,,,,,,,,,,,,
null,,color_black,2898471,black_plus_sign,,,,,null,,,,,,,,,,,,,,,,,,,,,,,,,,,,,,
null,,learn_phase(without_color),2901053,black_plus_sign,,,,,null,US_Cities_List/nat_hanover.png,US_Cities_List/nat_cornwall.png,,,,,,,,,,,,,,,,,,,,,,,,,,,,
null,,black_cross(without_color),2902000,blue,,,,,null,US_Cities_List/nat_hanover.png,US_Cities_List/nat_cornwall.png,,,,,,,,,,,,,,,,,,,,,,,,,,,,
null,,rt_plussign_withcolor,2902504,blue,,,,,null,US_Cities_List/nat_hanover.png,US_Cities_List/nat_cornwall.png,,,,,,,,,,,,,,,,,,,,,,,,,,,,
753.1000000014901,,rt_thecrossant_black,2903564,black_plus_sign,,,,,49,,,1,0.975,,,,,,,,,,,,,,,,,,,,,,,,,,
null,,color_black,2903669,black_plus_sign,,,,,null,,,,,,,,,,,,,,,,,,,,,,,,,,,,,,
null,,learn_phase(without_color),2906272,black_plus_sign,,,,,null,US_Cities_List/mm_leesburg.png,US_Cities_List/nat_newhope.png,,,,,,,,,,,,,,,,,,,,,,,,,,,,
null,,black_cross(without_color),2907320,blue,,,,,null,US_Cities_List/mm_leesburg.png,US_Cities_List/nat_newhope.png,,,,,,,,,,,,,,,,,,,,,,,,,,,,
null,,rt_plussign_withcolor,2907823,blue,,,,,null,US_Cities_List/mm_leesburg.png,US_Cities_List/nat_newhope.png,,,,,,,,,,,,,,,,,,,,,,,,,,,,
1148.1000000014901,,rt_thecrossant_black,2908783,black_plus_sign,,,,,49,,,1,0.9752066115702479,,,,,,,,,,,,,,,,,,,,,,,,,,
null,,color_black,2908887,black_plus_sign,,,,,null,,,,,,,,,,,,,,,,,,,,,,,,,,,,,,
null,,learn_phase(without_color),2911498,black_plus_sign,,,,,null,US_Cities_List/mm_carmel.png,US_Cities_List/mm_hotsprings.png,,,,,,,,,,,,,,,,,,,,,,,,,,,,
null,,black_cross(without_color),2912548,blue,,,,,null,US_Cities_List/mm_carmel.png,US_Cities_List/mm_hotsprings.png,,,,,,,,,,,,,,,,,,,,,,,,,,,,
484.8999999985099,,rt_plussign_withcolor,2913051,blue,,,,,49,US_Cities_List/mm_carmel.png,US_Cities_List/mm_hotsprings.png,,,,,,,,,,,,,,,,,,,,,,,,,,,,
null,,rt_thecrossant_black,2914020,black_plus_sign,,,,,50,,,1,0.9754098360655737,,,,,,,,,,,,,,,,,,,,,,,,,,
null,,color_black,2914124,black_plus_sign,,,,,null,,,,,,,,,,,,,,,,,,,,,,,,,,,,,,
null,,learn_phase(without_color),2916711,black_plus_sign,,,,,null,US_Cities_List/nat_gatlinburg.png,US_Cities_List/mm_boulder.png,,,,,,,,,,,,,,,,,,,,,,,,,,,,
null,,black_cross(without_color),2917697,green,,,,,null,US_Cities_List/nat_gatlinburg.png,US_Cities_List/mm_boulder.png,,,,,,,,,,,,,,,,,,,,,,,,,,,,
437.29999999701977,,rt_plussign_withcolor,2918199,green,,,,,50,US_Cities_List/nat_gatlinburg.png,US_Cities_List/mm_boulder.png,,,,,,,,,,,,,,,,,,,,,,,,,,,,
null,,rt_thecrossant_black,2919222,black_plus_sign,,,,,null,,,1,0.975609756097561,,,,,,,,,,,,,,,,,,,,,,,,,,
null,,color_black,2919326,black_plus_sign,,,,,null,,,,,,,,,,,,,,,,,,,,,,,,,,,,,,
null,,learn_phase(without_color),2921934,black_plus_sign,,,,,null,US_Cities_List/nat_peoria.png,US_Cities_List/mm_leesburg.png,,,,,,,,,,,,,,,,,,,,,,,,,,,,
null,,black_cross(without_color),2922685,blue,,,,,null,US_Cities_List/nat_peoria.png,US_Cities_List/mm_leesburg.png,,,,,,,,,,,,,,,,,,,,,,,,,,,,
null,,rt_plussign_withcolor,2923196,blue,,,,,null,US_Cities_List/nat_peoria.png,US_Cities_List/mm_leesburg.png,,,,,,,,,,,,,,,,,,,,,,,,,,,,
1226.1000000014901,,rt_thecrossant_black,2924453,black_plus_sign,,,,,49,,,1,0.9758064516129032,,,,,,,,,,,,,,,,,,,,,,,,,,
null,,color_black,2924558,black_plus_sign,,,,,null,,,,,,,,,,,,,,,,,,,,,,,,,,,,,,
null,,learn_phase(without_color),2927163,black_plus_sign,,,,,null,US_Cities_List/nat_peoria.png,US_Cities_List/nat_huntsville.png,,,,,,,,,,,,,,,,,,,,,,,,,,,,
null,,black_cross(without_color),2927582,blue,,,,,null,US_Cities_List/nat_peoria.png,US_Cities_List/nat_huntsville.png,,,,,,,,,,,,,,,,,,,,,,,,,,,,
null,,rt_plussign_withcolor,2928085,blue,,,,,null,US_Cities_List/nat_peoria.png,US_Cities_List/nat_huntsville.png,,,,,,,,,,,,,,,,,,,,,,,,,,,,
981.3999999985099,,rt_thecrossant_black,2929673,black_plus_sign,,,,,49,,,1,0.976,,,,,,,,,,,,,,,,,,,,,,,,,,
null,,color_black,2929777,black_plus_sign,,,,,null,,,,,,,,,,,,,,,,,,,,,,,,,,,,,,
26695.10000000149,,intro_1,2956480,instruct,,,0,,,,,,,,,,,,,,,,,,,,,,,,,,,,,,,,
14633.19999999553,,intro_2,2971118,instruct,,,1,Next,,,,,,,,,,,,,,,,,,,,,,,,,,,,,,,
2778.5,,directmemory_phase,2974028,../static/images/US_Cities_List/mm_boulder.png,,,,,49,,,0,0,../static/images/US_Cities_List/nat_huntsville.png,../static/images/US_Cities_List/nat_peoria.png,../static/images/US_Cities_List/mm_carmel.png,../static/images/US_Cities_List/mm_carmel.png,../static/images/US_Cities_List/nat_peoria.png,../static/images/US_Cities_List/nat_huntsville.png,0.5,closer,,,,,,,,,,,,,,,,,,
null,,html-keyboard-response,2975047,<p></p>,,,,,null,,,,,,,,,,,,,,,,,,,,,,,,,,,,,,
4428.5,,directmemory_phase,2979640,../static/images/US_Cities_List/nat_huntsville.png,,,,,51,,,1,0.5,../static/images/US_Cities_List/mm_hotsprings.png,../static/images/US_Cities_List/mm_shreveport.png,../static/images/US_Cities_List/mm_westpalmbeach.png,../static/images/US_Cities_List/mm_westpalmbeach.png,../static/images/US_Cities_List/mm_shreveport.png,../static/images/US_Cities_List/mm_hotsprings.png,1,,,,,,,,,,,,,,,,,,,
null,,html-keyboard-response,2980655,<p></p>,,,,,null,,,,,,,,,,,,,,,,,,,,,,,,,,,,,,
3322.7000000029802,,directmemory_phase,2984153,../static/images/US_Cities_List/nat_gatlinburg.png,,,,,51,,,1,0.6666666666666666,../static/images/US_Cities_List/mm_leesburg.png,../static/images/US_Cities_List/mm_shreveport.png,../static/images/US_Cities_List/mm_boulder.png,../static/images/US_Cities_List/mm_boulder.png,../static/images/US_Cities_List/mm_shreveport.png,../static/images/US_Cities_List/mm_leesburg.png,1,,,,,,,,,,,,,,,,,,,
null,,html-keyboard-response,2985170,<p></p>,,,,,null,,,,,,,,,,,,,,,,,,,,,,,,,,,,,,
3231.10000000149,,directmemory_phase,2988533,../static/images/US_Cities_List/nat_hanover.png,,,,,49,,,1,0.75,../static/images/US_Cities_List/mm_leesburg.png,../static/images/US_Cities_List/mm_carmel.png,../static/images/US_Cities_List/mm_westpalmbeach.png,../static/images/US_Cities_List/mm_leesburg.png,../static/images/US_Cities_List/mm_westpalmbeach.png,../static/images/US_Cities_List/mm_carmel.png,1,,,,,,,,,,,,,,,,,,,
null,,html-keyboard-response,2989560,<p></p>,,,,,null,,,,,,,,,,,,,,,,,,,,,,,,,,,,,,
3242.1999999955297,,directmemory_phase,2992940,../static/images/US_Cities_List/nat_peoria.png,,,,,49,,,0,0.6,../static/images/US_Cities_List/nat_racine.png,../static/images/US_Cities_List/mm_boulder.png,../static/images/US_Cities_List/mm_shreveport.png,../static/images/US_Cities_List/mm_shreveport.png,../static/images/US_Cities_List/mm_boulder.png,../static/images/US_Cities_List/nat_racine.png,0.5,closer,,,,,,,,,,,,,,,,,,
null,,html-keyboard-response,2993955,<p></p>,,,,,null,,,,,,,,,,,,,,,,,,,,,,,,,,,,,,
3770.7000000029802,,directmemory_phase,2997859,../static/images/US_Cities_List/nat_hanover.png,,,,,49,,,0,0.5,../static/images/US_Cities_List/mm_shreveport.png,../static/images/US_Cities_List/nat_peoria.png,../static/images/US_Cities_List/nat_huntsville.png,../static/images/US_Cities_List/nat_huntsville.png,../static/images/US_Cities_List/nat_peoria.png,../static/images/US_Cities_List/mm_shreveport.png,0.5,closer,,,,,,,,,,,,,,,,,,
null,,html-keyboard-response,2998874,<p></p>,,,,,null,,,,,,,,,,,,,,,,,,,,,,,,,,,,,,
2452.89999999851,,directmemory_phase,3001459,../static/images/US_Cities_List/nat_racine.png,,,,,49,,,0,0.42857142857142855,../static/images/US_Cities_List/nat_newhope.png,../static/images/US_Cities_List/mm_boulder.png,../static/images/US_Cities_List/mm_carmel.png,../static/images/US_Cities_List/mm_carmel.png,../static/images/US_Cities_List/mm_boulder.png,../static/images/US_Cities_List/nat_newhope.png,0.5,closer,,,,,,,,,,,,,,,,,,
null,,html-keyboard-response,3002475,<p></p>,,,,,null,,,,,,,,,,,,,,,,,,,,,,,,,,,,,,
1301,,directmemory_phase,3003897,../static/images/US_Cities_List/nat_cornwall.png,,,,,50,,,0,0.375,../static/images/US_Cities_List/nat_hanover.png,../static/images/US_Cities_List/mm_hotsprings.png,../static/images/US_Cities_List/mm_leesburg.png,../static/images/US_Cities_List/nat_hanover.png,../static/images/US_Cities_List/mm_leesburg.png,../static/images/US_Cities_List/mm_hotsprings.png,0.5,closer,,,,,,,,,,,,,,,,,,
null,,html-keyboard-response,3004913,<p></p>,,,,,null,,,,,,,,,,,,,,,,,,,,,,,,,,,,,,
374,,directmemory_phase,3005431,../static/images/US_Cities_List/nat_newhope.png,,,,,51,,,1,0.4444444444444444,../static/images/US_Cities_List/nat_cornwall.png,../static/images/US_Cities_List/mm_boulder.png,../static/images/US_Cities_List/mm_hotsprings.png,../static/images/US_Cities_List/mm_hotsprings.png,../static/images/US_Cities_List/mm_boulder.png,../static/images/US_Cities_List/nat_cornwall.png,1,,,,,,,,,,,,,,,,,,,
null,,html-keyboard-response,3006447,<p></p>,,,,,null,,,,,,,,,,,,,,,,,,,,,,,,,,,,,,
264.29999999701977,,directmemory_phase,3006849,../static/images/US_Cities_List/mm_carmel.png,,,,,49,,,0,0.4,../static/images/US_Cities_List/nat_peoria.png,../static/images/US_Cities_List/nat_gatlinburg.png,../static/images/US_Cities_List/nat_racine.png,../static/images/US_Cities_List/nat_racine.png,../static/images/US_Cities_List/nat_gatlinburg.png,../static/images/US_Cities_List/nat_peoria.png,0.5,closer,,,,,,,,,,,,,,,,,,
null,,html-keyboard-response,3007867,<p></p>,,,,,null,,,,,,,,,,,,,,,,,,,,,,,,,,,,,,
293.3999999985099,,directmemory_phase,3008286,../static/images/US_Cities_List/nat_huntsville.png,,,,,50,,,0,0.36363636363636365,../static/images/US_Cities_List/mm_boulder.png,../static/images/US_Cities_List/mm_shreveport.png,../static/images/US_Cities_List/nat_peoria.png,../static/images/US_Cities_List/nat_peoria.png,../static/images/US_Cities_List/mm_shreveport.png,../static/images/US_Cities_List/mm_boulder.png,0.5,closer,,,,,,,,,,,,,,,,,,
null,,html-keyboard-response,3009300,<p></p>,,,,,null,,,,,,,,,,,,,,,,,,,,,,,,,,,,,,
158.40000000596046,,directmemory_phase,3009581,../static/images/US_Cities_List/mm_hotsprings.png,,,,,51,,,0,0.3333333333333333,../static/images/US_Cities_List/mm_carmel.png,../static/images/US_Cities_List/nat_cornwall.png,../static/images/US_Cities_List/mm_boulder.png,../static/images/US_Cities_List/mm_carmel.png,../static/images/US_Cities_List/mm_boulder.png,../static/images/US_Cities_List/nat_cornwall.png,0.5,closer,,,,,,,,,,,,,,,,,,
null,,html-keyboard-response,3010588,<p></p>,,,,,null,,,,,,,,,,,,,,,,,,,,,,,,,,,,,,
127.20000000298023,,directmemory_phase,3010836,../static/images/US_Cities_List/mm_leesburg.png,,,,,49,,,0,0.3076923076923077,../static/images/US_Cities_List/nat_cornwall.png,../static/images/US_Cities_List/nat_peoria.png,../static/images/US_Cities_List/nat_racine.png,../static/images/US_Cities_List/nat_peoria.png,../static/images/US_Cities_List/nat_cornwall.png,../static/images/US_Cities_List/nat_racine.png,0.5,closer,,,,,,,,,,,,,,,,,,
null,,html-keyboard-response,3011845,<p></p>,,,,,null,,,,,,,,,,,,,,,,,,,,,,,,,,,,,,
108.20000000298023,,directmemory_phase,3012144,../static/images/US_Cities_List/mm_westpalmbeach.png,,,,,51,,,0,0.2857142857142857,../static/images/US_Cities_List/nat_huntsville.png,../static/images/US_Cities_List/nat_cornwall.png,../static/images/US_Cities_List/mm_leesburg.png,../static/images/US_Cities_List/nat_huntsville.png,../static/images/US_Cities_List/mm_leesburg.png,../static/images/US_Cities_List/nat_cornwall.png,0.5,closer,,,,,,,,,,,,,,,,,,
null,,html-keyboard-response,3013152,<p></p>,,,,,null,,,,,,,,,,,,,,,,,,,,,,,,,,,,,,
92.69999999552965,,directmemory_phase,3013377,../static/images/US_Cities_List/nat_newhope.png,,,,,49,,,0,0.26666666666666666,../static/images/US_Cities_List/nat_cornwall.png,../static/images/US_Cities_List/nat_peoria.png,../static/images/US_Cities_List/mm_leesburg.png,../static/images/US_Cities_List/mm_leesburg.png,../static/images/US_Cities_List/nat_peoria.png,../static/images/US_Cities_List/nat_cornwall.png,0.5,closer,,,,,,,,,,,,,,,,,,
null,,html-keyboard-response,3014384,<p></p>,,,,,null,,,,,,,,,,,,,,,,,,,,,,,,,,,,,,
6.600000001490116,,directmemory_phase,3014527,../static/images/US_Cities_List/nat_hanover.png,,,,,50,,,0,0.25,../static/images/US_Cities_List/mm_carmel.png,../static/images/US_Cities_List/nat_newhope.png,../static/images/US_Cities_List/nat_cornwall.png,../static/images/US_Cities_List/nat_cornwall.png,../static/images/US_Cities_List/nat_newhope.png,../static/images/US_Cities_List/mm_carmel.png,0.5,closer,,,,,,,,,,,,,,,,,,
null,,html-keyboard-response,3015533,<p></p>,,,,,null,,,,,,,,,,,,,,,,,,,,,,,,,,,,,,
572.5,,directmemory_phase,3016252,../static/images/US_Cities_List/nat_huntsville.png,,,,,50,,,0,0.23529411764705882,../static/images/US_Cities_List/mm_boulder.png,../static/images/US_Cities_List/mm_shreveport.png,../static/images/US_Cities_List/mm_leesburg.png,../static/images/US_Cities_List/mm_leesburg.png,../static/images/US_Cities_List/mm_shreveport.png,../static/images/US_Cities_List/mm_boulder.png,0.5,closer,,,,,,,,,,,,,,,,,,
null,,html-keyboard-response,3017280,<p></p>,,,,,null,,,,,,,,,,,,,,,,,,,,,,,,,,,,,,
266,,directmemory_phase,3017691,../static/images/US_Cities_List/mm_shreveport.png,,,,,51,,,1,0.2777777777777778,../static/images/US_Cities_List/nat_hanover.png,../static/images/US_Cities_List/mm_carmel.png,../static/images/US_Cities_List/mm_boulder.png,../static/images/US_Cities_List/mm_boulder.png,../static/images/US_Cities_List/mm_carmel.png,../static/images/US_Cities_List/nat_hanover.png,1,,,,,,,,,,,,,,,,,,,
null,,html-keyboard-response,3018705,<p></p>,,,,,null,,,,,,,,,,,,,,,,,,,,,,,,,,,,,,
291.6000000014901,,directmemory_phase,3019173,../static/images/US_Cities_List/mm_leesburg.png,,,,,49,,,1,0.3157894736842105,../static/images/US_Cities_List/nat_hanover.png,../static/images/US_Cities_List/nat_gatlinburg.png,../static/images/US_Cities_List/mm_westpalmbeach.png,../static/images/US_Cities_List/nat_hanover.png,../static/images/US_Cities_List/mm_westpalmbeach.png,../static/images/US_Cities_List/nat_gatlinburg.png,1,,,,,,,,,,,,,,,,,,,
null,,html-keyboard-response,3020191,<p></p>,,,,,null,,,,,,,,,,,,,,,,,,,,,,,,,,,,,,
109.60000000149012,,directmemory_phase,3020453,../static/images/US_Cities_List/mm_shreveport.png,,,,,51,,,0,0.3,../static/images/US_Cities_List/mm_hotsprings.png,../static/images/US_Cities_List/nat_peoria.png,../static/images/US_Cities_List/nat_hanover.png,../static/images/US_Cities_List/nat_peoria.png,../static/images/US_Cities_List/mm_hotsprings.png,../static/images/US_Cities_List/nat_hanover.png,0.5,closer,,,,,,,,,,,,,,,,,,
null,,html-keyboard-response,3021461,<p></p>,,,,,null,,,,,,,,,,,,,,,,,,,,,,,,,,,,,,
0.20000000298023224,,directmemory_phase,3021616,../static/images/US_Cities_List/mm_leesburg.png,,,,,50,,,1,0.3333333333333333,../static/images/US_Cities_List/nat_cornwall.png,../static/images/US_Cities_List/nat_huntsville.png,../static/images/US_Cities_List/nat_racine.png,../static/images/US_Cities_List/nat_huntsville.png,../static/images/US_Cities_List/nat_cornwall.png,../static/images/US_Cities_List/nat_racine.png,1,,,,,,,,,,,,,,,,,,,
null,,html-keyboard-response,3022624,<p></p>,,,,,null,,,,,,,,,,,,,,,,,,,,,,,,,,,,,,
382.1000000014901,,directmemory_phase,3023130,../static/images/US_Cities_List/mm_carmel.png,,,,,50,,,1,0.36363636363636365,../static/images/US_Cities_List/mm_shreveport.png,../static/images/US_Cities_List/mm_hotsprings.png,../static/images/US_Cities_List/nat_hanover.png,../static/images/US_Cities_List/mm_hotsprings.png,../static/images/US_Cities_List/mm_shreveport.png,../static/images/US_Cities_List/nat_hanover.png,1,,,,,,,,,,,,,,,,,,,
null,,html-keyboard-response,3024155,<p></p>,,,,,null,,,,,,,,,,,,,,,,,,,,,,,,,,,,,,
370.6000000014901,,directmemory_phase,3024661,../static/images/US_Cities_List/nat_peoria.png,,,,,50,,,1,0.391304347826087,../static/images/US_Cities_List/nat_newhope.png,../static/images/US_Cities_List/mm_leesburg.png,../static/images/US_Cities_List/nat_cornwall.png,../static/images/US_Cities_List/mm_leesburg.png,../static/images/US_Cities_List/nat_newhope.png,../static/images/US_Cities_List/nat_cornwall.png,1,,,,,,,,,,,,,,,,,,,
null,,html-keyboard-response,3025676,<p></p>,,,,,null,,,,,,,,,,,,,,,,,,,,,,,,,,,,,,
366.80000000447035,,directmemory_phase,3026176,../static/images/US_Cities_List/mm_carmel.png,,,,,51,,,1,0.4166666666666667,../static/images/US_Cities_List/mm_leesburg.png,../static/images/US_Cities_List/nat_gatlinburg.png,../static/images/US_Cities_List/mm_boulder.png,../static/images/US_Cities_List/mm_boulder.png,../static/images/US_Cities_List/nat_gatlinburg.png,../static/images/US_Cities_List/mm_leesburg.png,1,,,,,,,,,,,,,,,,,,,
