rt,responses,trial_type,time_elapsed,stimulus,cities,city_images,button_pressed,response,key_press,stimulus_left,stimulus_right,accuracy,cumulative_accuracy,stimulus_down_left,stimulus_down_mid,stimulus_down_right,stimulus_correct,stimulus_short,stimulus_far,weighted_accuracy,missedtrial,condition,specific_pairs,imgL_ID,imgR_ID,linedress,linedressed,image_position,unknowncity,testedstates,currentstate,otherstate,problems,smooth,distraction,strategies,easier,similar,comments
9400.100000023842,{worker_id:682b4aa9f44c4882f1629d8a},id_enter,9406,intro,Carmel; Boulder; New Hope; Leesburg; Hanover; Hot Springs; Shreveport; West Palm Beach; Racine; Huntsville; Peoria; Gatlinburg; Cornwall,US_Cities_List/nat_carmel.png; US_Cities_List/nat_boulder.png; US_Cities_List/nat_newhope.png; US_Cities_List/mm_leesburg.png; US_Cities_List/mm_hanover.png; US_Cities_List/mm_hotsprings.png; US_Cities_List/nat_shreveport.png; US_Cities_List/mm_westpalmbeach.png; US_Cities_List/nat_racine.png; US_Cities_List/nat_huntsville.png; US_Cities_List/mm_peoria.png; US_Cities_List/nat_gatlinburg.png; US_Cities_List/nat_cornwall.png,,,,,,,,,,,,,,,,,,,,,,,,,,,,,,,,,
27490.899999976158,,fullscreen,36903,make_fullscreen,,,0,,,,,,,,,,,,,,,,,,,,,,,,,,,,,,,,
28889.599999904633,,intro_1,65794,instruct,,,0,,,,,,,,,,,,,,,,,,,,,,,,,,,,,,,,
27168.600000023842,,intro_2,92964,instruct,,,1,Next,,,,,,,,,,,,,,,,,,,,,,,,,,,,,,,
16832.399999976158,,intro_3,109798,instruct,,,1,Next,,,,,,,,,,,,,,,,,,,,,,,,,,,,,,,
20703.299999952316,,intro_4,130502,instruct,,,1,Next,,,,,,,,,,,,,,,,,,,,,,,,,,,,,,,
11910.400000095367,,intro_5,142413,instruct,,,1,Next,,,,,,,,,,,,,,,,,,,,,,,,,,,,,,,
53413.300000071526,,intro_6,195828,instruct,,,1,Next,,,,,,,,,,,,,,,,,,,,,,,,,,,,,,,
null,,prac_atten_color_black,196408,black_plus_sign,,,,,null,,,,,,,,,,,,,,,,,,,,,,,,,,,,,,
null,,prac_atten_color,197234,prac_stop_color,,,,,null,,,,,,,,,,,,,,,,,,,,,,,,,,,,,,
491.7000000476837,,prac_atten_color_black,199236,black_plus_sign,,,,,49,,,,,,,,,,,,,,,,,,,,,,,,,,,,,,
null,,prac_atten_color_black,199818,black_plus_sign,,,,,null,,,,,,,,,,,,,,,,,,,,,,,,,,,,,,
719,,prac_atten_color,200924,prac_stop_color,,,,,50,,,,,,,,,,,,,,,,,,,,,,,,,,,,,,
null,,prac_atten_color_black,202927,black_plus_sign,,,,,null,,,,,,,,,,,,,,,,,,,,,,,,,,,,,,
null,,prac_atten_color_black,203237,black_plus_sign,,,,,null,,,,,,,,,,,,,,,,,,,,,,,,,,,,,,
697.2999999523163,,prac_atten_color,204234,prac_stop_color,,,,,50,,,,,,,,,,,,,,,,,,,,,,,,,,,,,,
null,,prac_atten_color_black,206236,black_plus_sign,,,,,null,,,,,,,,,,,,,,,,,,,,,,,,,,,,,,
null,,prac_atten_color_black,206644,black_plus_sign,,,,,null,,,,,,,,,,,,,,,,,,,,,,,,,,,,,,
null,,prac_atten_color,207265,prac_stop_color,,,,,null,,,,,,,,,,,,,,,,,,,,,,,,,,,,,,
132.29999995231628,,prac_atten_color_black,209267,black_plus_sign,,,,,49,,,,,,,,,,,,,,,,,,,,,,,,,,,,,,
null,,prac_atten_color_black,210053,black_plus_sign,,,,,null,,,,,,,,,,,,,,,,,,,,,,,,,,,,,,
364.8000000715256,,prac_atten_color,210941,prac_stop_color,,,,,49,,,,,,,,,,,,,,,,,,,,,,,,,,,,,,
null,,prac_atten_color_black,212943,black_plus_sign,,,,,null,,,,,,,,,,,,,,,,,,,,,,,,,,,,,,
13070.700000047684,,attentioncheck_help,226016,instruct,,,,,32,,,,,,,,,,,,,,,,,,,,,,,,,,,,,,
null,,prac_atten_color_black,226531,black_plus_sign,,,,,null,,,,,,,,,,,,,,,,,,,,,,,,,,,,,,
null,,prac_atten_color,227430,prac_stop_color,,,,,null,,,,,,,,,,,,,,,,,,,,,,,,,,,,,,
143.10000002384186,,prac_atten_color_black,229432,black_plus_sign,,,,,50,,,,,,,,,,,,,,,,,,,,,,,,,,,,,,
null,,prac_atten_color_black,229939,black_plus_sign,,,,,null,,,,,,,,,,,,,,,,,,,,,,,,,,,,,,
575,,prac_atten_color,230684,prac_stop_color,,,,,49,,,,,,,,,,,,,,,,,,,,,,,,,,,,,,
null,,prac_atten_color_black,232688,black_plus_sign,,,,,null,,,,,,,,,,,,,,,,,,,,,,,,,,,,,,
null,,prac_atten_color_black,233347,black_plus_sign,,,,,null,,,,,,,,,,,,,,,,,,,,,,,,,,,,,,
621.6999999284744,,prac_atten_color,234001,prac_stop_color,,,,,50,,,,,,,,,,,,,,,,,,,,,,,,,,,,,,
null,,prac_atten_color_black,236003,black_plus_sign,,,,,null,,,,,,,,,,,,,,,,,,,,,,,,,,,,,,
null,,prac_atten_color_black,236755,black_plus_sign,,,,,null,,,,,,,,,,,,,,,,,,,,,,,,,,,,,,
442.39999997615814,,prac_atten_color,237768,prac_stop_color,,,,,49,,,,,,,,,,,,,,,,,,,,,,,,,,,,,,
null,,prac_atten_color_black,239771,black_plus_sign,,,,,null,,,,,,,,,,,,,,,,,,,,,,,,,,,,,,
null,,prac_atten_color_black,240172,black_plus_sign,,,,,null,,,,,,,,,,,,,,,,,,,,,,,,,,,,,,
503.5,,prac_atten_color,240888,prac_stop_color,,,,,49,,,,,,,,,,,,,,,,,,,,,,,,,,,,,,
null,,prac_atten_color_black,242890,black_plus_sign,,,,,null,,,,,,,,,,,,,,,,,,,,,,,,,,,,,,
11101.600000023842,,attentioncheck_feedback,253994,cross_check_feedback,,,0,,,,,,,,,,,,,,,,,,,,,,,,,,,,,,,,
12487.900000095367,,last_instruct,266483,instruct,,,,,32,,,,,,,,,,,,,,,,,,,,,,,,,,,,,,
null,,learn_phase(without_color),268532,black_plus_sign,,,,,null,US_Cities_List/nat_shreveport.png,US_Cities_List/nat_racine.png,,,,,,,,,,,,,,,,,,,,,,,,,,,,
null,,black_cross(without_color),269357,green,,,,,null,US_Cities_List/nat_shreveport.png,US_Cities_List/nat_racine.png,,,,,,,,,,,,,,,,,,,,,,,,,,,,
null,,rt_plussign_withcolor,269860,green,,,,,null,US_Cities_List/nat_shreveport.png,US_Cities_List/nat_racine.png,,,,,,,,,,,,,,,,,,,,,,,,,,,,
1500.7000000476837,,rt_thecrossant_black,271040,black_plus_sign,,,,,50,,,1,1,,,,,,,,,,,,,,,,,,,,,,,,,,
null,,color_black,271144,black_plus_sign,,,,,null,,,,,,,,,,,,,,,,,,,,,,,,,,,,,,
null,,learn_phase(without_color),273695,black_plus_sign,,,,,null,US_Cities_List/nat_shreveport.png,US_Cities_List/nat_cornwall.png,,,,,,,,,,,,,,,,,,,,,,,,,,,,
null,,black_cross(without_color),274174,blue,,,,,null,US_Cities_List/nat_shreveport.png,US_Cities_List/nat_cornwall.png,,,,,,,,,,,,,,,,,,,,,,,,,,,,
null,,rt_plussign_withcolor,274676,blue,,,,,null,US_Cities_List/nat_shreveport.png,US_Cities_List/nat_cornwall.png,,,,,,,,,,,,,,,,,,,,,,,,,,,,
998,,rt_thecrossant_black,276201,black_plus_sign,,,,,49,,,1,1,,,,,,,,,,,,,,,,,,,,,,,,,,
null,,color_black,276303,black_plus_sign,,,,,null,,,,,,,,,,,,,,,,,,,,,,,,,,,,,,
null,,learn_phase(without_color),278881,black_plus_sign,,,,,null,US_Cities_List/nat_newhope.png,US_Cities_List/mm_hotsprings.png,,,,,,,,,,,,,,,,,,,,,,,,,,,,
null,,black_cross(without_color),279765,green,,,,,null,US_Cities_List/nat_newhope.png,US_Cities_List/mm_hotsprings.png,,,,,,,,,,,,,,,,,,,,,,,,,,,,
null,,rt_plussign_withcolor,280267,green,,,,,null,US_Cities_List/nat_newhope.png,US_Cities_List/mm_hotsprings.png,,,,,,,,,,,,,,,,,,,,,,,,,,,,
598.8999999761581,,rt_thecrossant_black,281388,black_plus_sign,,,,,50,,,1,1,,,,,,,,,,,,,,,,,,,,,,,,,,
null,,color_black,281490,black_plus_sign,,,,,null,,,,,,,,,,,,,,,,,,,,,,,,,,,,,,
null,,learn_phase(without_color),284038,black_plus_sign,,,,,null,US_Cities_List/mm_peoria.png,US_Cities_List/nat_gatlinburg.png,,,,,,,,,,,,,,,,,,,,,,,,,,,,
null,,black_cross(without_color),284608,green,,,,,null,US_Cities_List/mm_peoria.png,US_Cities_List/nat_gatlinburg.png,,,,,,,,,,,,,,,,,,,,,,,,,,,,
null,,rt_plussign_withcolor,285111,green,,,,,null,US_Cities_List/mm_peoria.png,US_Cities_List/nat_gatlinburg.png,,,,,,,,,,,,,,,,,,,,,,,,,,,,
1057.8000000715256,,rt_thecrossant_black,286545,black_plus_sign,,,,,50,,,1,1,,,,,,,,,,,,,,,,,,,,,,,,,,
null,,color_black,286648,black_plus_sign,,,,,null,,,,,,,,,,,,,,,,,,,,,,,,,,,,,,
null,,learn_phase(without_color),289202,black_plus_sign,,,,,null,US_Cities_List/mm_hotsprings.png,US_Cities_List/nat_shreveport.png,,,,,,,,,,,,,,,,,,,,,,,,,,,,
null,,black_cross(without_color),289608,green,,,,,null,US_Cities_List/mm_hotsprings.png,US_Cities_List/nat_shreveport.png,,,,,,,,,,,,,,,,,,,,,,,,,,,,
null,,rt_plussign_withcolor,290109,green,,,,,null,US_Cities_List/mm_hotsprings.png,US_Cities_List/nat_shreveport.png,,,,,,,,,,,,,,,,,,,,,,,,,,,,
779.1000000238419,,rt_thecrossant_black,291708,black_plus_sign,,,,,50,,,1,1,,,,,,,,,,,,,,,,,,,,,,,,,,
null,,color_black,291811,black_plus_sign,,,,,null,,,,,,,,,,,,,,,,,,,,,,,,,,,,,,
null,,learn_phase(without_color),294361,black_plus_sign,,,,,null,US_Cities_List/mm_westpalmbeach.png,US_Cities_List/nat_huntsville.png,,,,,,,,,,,,,,,,,,,,,,,,,,,,
null,,black_cross(without_color),294848,green,,,,,null,US_Cities_List/mm_westpalmbeach.png,US_Cities_List/nat_huntsville.png,,,,,,,,,,,,,,,,,,,,,,,,,,,,
null,,rt_plussign_withcolor,295349,green,,,,,null,US_Cities_List/mm_westpalmbeach.png,US_Cities_List/nat_huntsville.png,,,,,,,,,,,,,,,,,,,,,,,,,,,,
618.8999999761581,,rt_thecrossant_black,296867,black_plus_sign,,,,,50,,,1,1,,,,,,,,,,,,,,,,,,,,,,,,,,
null,,color_black,296970,black_plus_sign,,,,,null,,,,,,,,,,,,,,,,,,,,,,,,,,,,,,
null,,learn_phase(without_color),299524,black_plus_sign,,,,,null,US_Cities_List/nat_shreveport.png,US_Cities_List/mm_westpalmbeach.png,,,,,,,,,,,,,,,,,,,,,,,,,,,,
null,,black_cross(without_color),300005,blue,,,,,null,US_Cities_List/nat_shreveport.png,US_Cities_List/mm_westpalmbeach.png,,,,,,,,,,,,,,,,,,,,,,,,,,,,
null,,rt_plussign_withcolor,300507,blue,,,,,null,US_Cities_List/nat_shreveport.png,US_Cities_List/mm_westpalmbeach.png,,,,,,,,,,,,,,,,,,,,,,,,,,,,
623.7000000476837,,rt_thecrossant_black,302031,black_plus_sign,,,,,49,,,1,1,,,,,,,,,,,,,,,,,,,,,,,,,,
null,,color_black,302134,black_plus_sign,,,,,null,,,,,,,,,,,,,,,,,,,,,,,,,,,,,,
null,,learn_phase(without_color),304695,black_plus_sign,,,,,null,US_Cities_List/nat_carmel.png,US_Cities_List/nat_boulder.png,,,,,,,,,,,,,,,,,,,,,,,,,,,,
null,,black_cross(without_color),305113,blue,,,,,null,US_Cities_List/nat_carmel.png,US_Cities_List/nat_boulder.png,,,,,,,,,,,,,,,,,,,,,,,,,,,,
null,,rt_plussign_withcolor,305616,blue,,,,,null,US_Cities_List/nat_carmel.png,US_Cities_List/nat_boulder.png,,,,,,,,,,,,,,,,,,,,,,,,,,,,
719.7999999523163,,rt_thecrossant_black,307201,black_plus_sign,,,,,49,,,1,1,,,,,,,,,,,,,,,,,,,,,,,,,,
null,,color_black,307305,black_plus_sign,,,,,null,,,,,,,,,,,,,,,,,,,,,,,,,,,,,,
null,,learn_phase(without_color),309870,black_plus_sign,,,,,null,US_Cities_List/nat_shreveport.png,US_Cities_List/mm_westpalmbeach.png,,,,,,,,,,,,,,,,,,,,,,,,,,,,
null,,black_cross(without_color),310648,green,,,,,null,US_Cities_List/nat_shreveport.png,US_Cities_List/mm_westpalmbeach.png,,,,,,,,,,,,,,,,,,,,,,,,,,,,
407.7000000476837,,rt_plussign_withcolor,311150,green,,,,,50,US_Cities_List/nat_shreveport.png,US_Cities_List/mm_westpalmbeach.png,,,,,,,,,,,,,,,,,,,,,,,,,,,,
null,,rt_thecrossant_black,312377,black_plus_sign,,,,,null,,,1,1,,,,,,,,,,,,,,,,,,,,,,,,,,
null,,color_black,312480,black_plus_sign,,,,,null,,,,,,,,,,,,,,,,,,,,,,,,,,,,,,
null,,learn_phase(without_color),315040,black_plus_sign,,,,,null,US_Cities_List/mm_westpalmbeach.png,US_Cities_List/nat_racine.png,,,,,,,,,,,,,,,,,,,,,,,,,,,,
null,,black_cross(without_color),315540,blue,,,,,null,US_Cities_List/mm_westpalmbeach.png,US_Cities_List/nat_racine.png,,,,,,,,,,,,,,,,,,,,,,,,,,,,
null,,rt_plussign_withcolor,316041,blue,,,,,null,US_Cities_List/mm_westpalmbeach.png,US_Cities_List/nat_racine.png,,,,,,,,,,,,,,,,,,,,,,,,,,,,
1036.6000000238419,,rt_thecrossant_black,317562,black_plus_sign,,,,,49,,,1,1,,,,,,,,,,,,,,,,,,,,,,,,,,
null,,color_black,317665,black_plus_sign,,,,,null,,,,,,,,,,,,,,,,,,,,,,,,,,,,,,
null,,learn_phase(without_color),320238,black_plus_sign,,,,,null,US_Cities_List/nat_shreveport.png,US_Cities_List/mm_westpalmbeach.png,,,,,,,,,,,,,,,,,,,,,,,,,,,,
null,,black_cross(without_color),321168,blue,,,,,null,US_Cities_List/nat_shreveport.png,US_Cities_List/mm_westpalmbeach.png,,,,,,,,,,,,,,,,,,,,,,,,,,,,
null,,rt_plussign_withcolor,321670,blue,,,,,null,US_Cities_List/nat_shreveport.png,US_Cities_List/mm_westpalmbeach.png,,,,,,,,,,,,,,,,,,,,,,,,,,,,
653,,rt_thecrossant_black,322745,black_plus_sign,,,,,49,,,1,1,,,,,,,,,,,,,,,,,,,,,,,,,,
null,,color_black,322848,black_plus_sign,,,,,null,,,,,,,,,,,,,,,,,,,,,,,,,,,,,,
null,,learn_phase(without_color),325389,black_plus_sign,,,,,null,US_Cities_List/nat_racine.png,US_Cities_List/mm_peoria.png,,,,,,,,,,,,,,,,,,,,,,,,,,,,
null,,black_cross(without_color),326187,blue,,,,,null,US_Cities_List/nat_racine.png,US_Cities_List/mm_peoria.png,,,,,,,,,,,,,,,,,,,,,,,,,,,,
null,,rt_plussign_withcolor,326689,blue,,,,,null,US_Cities_List/nat_racine.png,US_Cities_List/mm_peoria.png,,,,,,,,,,,,,,,,,,,,,,,,,,,,
1082.5,,rt_thecrossant_black,327897,black_plus_sign,,,,,49,,,1,1,,,,,,,,,,,,,,,,,,,,,,,,,,
null,,color_black,328000,black_plus_sign,,,,,null,,,,,,,,,,,,,,,,,,,,,,,,,,,,,,
null,,learn_phase(without_color),330526,black_plus_sign,,,,,null,US_Cities_List/mm_westpalmbeach.png,US_Cities_List/nat_racine.png,,,,,,,,,,,,,,,,,,,,,,,,,,,,
null,,black_cross(without_color),331337,blue,,,,,null,US_Cities_List/mm_westpalmbeach.png,US_Cities_List/nat_racine.png,,,,,,,,,,,,,,,,,,,,,,,,,,,,
489.2000000476837,,rt_plussign_withcolor,331839,blue,,,,,49,US_Cities_List/mm_westpalmbeach.png,US_Cities_List/nat_racine.png,,,,,,,,,,,,,,,,,,,,,,,,,,,,
null,,rt_thecrossant_black,333034,black_plus_sign,,,,,null,,,1,1,,,,,,,,,,,,,,,,,,,,,,,,,,
null,,color_black,333137,black_plus_sign,,,,,null,,,,,,,,,,,,,,,,,,,,,,,,,,,,,,
null,,learn_phase(without_color),335678,black_plus_sign,,,,,null,US_Cities_List/nat_boulder.png,US_Cities_List/mm_leesburg.png,,,,,,,,,,,,,,,,,,,,,,,,,,,,
null,,black_cross(without_color),336422,green,,,,,null,US_Cities_List/nat_boulder.png,US_Cities_List/mm_leesburg.png,,,,,,,,,,,,,,,,,,,,,,,,,,,,
null,,rt_plussign_withcolor,336924,green,,,,,null,US_Cities_List/nat_boulder.png,US_Cities_List/mm_leesburg.png,,,,,,,,,,,,,,,,,,,,,,,,,,,,
982,,rt_thecrossant_black,338183,black_plus_sign,,,,,50,,,1,1,,,,,,,,,,,,,,,,,,,,,,,,,,
null,,color_black,338285,black_plus_sign,,,,,null,,,,,,,,,,,,,,,,,,,,,,,,,,,,,,
null,,learn_phase(without_color),340840,black_plus_sign,,,,,null,US_Cities_List/nat_racine.png,US_Cities_List/mm_peoria.png,,,,,,,,,,,,,,,,,,,,,,,,,,,,
null,,black_cross(without_color),341331,green,,,,,null,US_Cities_List/nat_racine.png,US_Cities_List/mm_peoria.png,,,,,,,,,,,,,,,,,,,,,,,,,,,,
null,,rt_plussign_withcolor,341834,green,,,,,null,US_Cities_List/nat_racine.png,US_Cities_List/mm_peoria.png,,,,,,,,,,,,,,,,,,,,,,,,,,,,
1129.8999999761581,,rt_thecrossant_black,343347,black_plus_sign,,,,,50,,,1,1,,,,,,,,,,,,,,,,,,,,,,,,,,
null,,color_black,343449,black_plus_sign,,,,,null,,,,,,,,,,,,,,,,,,,,,,,,,,,,,,
null,,learn_phase(without_color),346001,black_plus_sign,,,,,null,US_Cities_List/mm_leesburg.png,US_Cities_List/nat_gatlinburg.png,,,,,,,,,,,,,,,,,,,,,,,,,,,,
null,,black_cross(without_color),346412,blue,,,,,null,US_Cities_List/mm_leesburg.png,US_Cities_List/nat_gatlinburg.png,,,,,,,,,,,,,,,,,,,,,,,,,,,,
null,,rt_plussign_withcolor,346914,blue,,,,,null,US_Cities_List/mm_leesburg.png,US_Cities_List/nat_gatlinburg.png,,,,,,,,,,,,,,,,,,,,,,,,,,,,
687.5999999046326,,rt_thecrossant_black,348507,black_plus_sign,,,,,49,,,1,1,,,,,,,,,,,,,,,,,,,,,,,,,,
null,,color_black,348609,black_plus_sign,,,,,null,,,,,,,,,,,,,,,,,,,,,,,,,,,,,,
null,,learn_phase(without_color),351161,black_plus_sign,,,,,null,US_Cities_List/nat_boulder.png,US_Cities_List/nat_newhope.png,,,,,,,,,,,,,,,,,,,,,,,,,,,,
null,,black_cross(without_color),351877,blue,,,,,null,US_Cities_List/nat_boulder.png,US_Cities_List/nat_newhope.png,,,,,,,,,,,,,,,,,,,,,,,,,,,,
null,,rt_plussign_withcolor,352380,blue,,,,,null,US_Cities_List/nat_boulder.png,US_Cities_List/nat_newhope.png,,,,,,,,,,,,,,,,,,,,,,,,,,,,
638.6000000238419,,rt_thecrossant_black,353671,black_plus_sign,,,,,49,,,1,1,,,,,,,,,,,,,,,,,,,,,,,,,,
null,,color_black,353772,black_plus_sign,,,,,null,,,,,,,,,,,,,,,,,,,,,,,,,,,,,,
null,,learn_phase(without_color),356336,black_plus_sign,,,,,null,US_Cities_List/nat_shreveport.png,US_Cities_List/nat_cornwall.png,,,,,,,,,,,,,,,,,,,,,,,,,,,,
null,,black_cross(without_color),357135,blue,,,,,null,US_Cities_List/nat_shreveport.png,US_Cities_List/nat_cornwall.png,,,,,,,,,,,,,,,,,,,,,,,,,,,,
null,,rt_plussign_withcolor,357637,blue,,,,,null,US_Cities_List/nat_shreveport.png,US_Cities_List/nat_cornwall.png,,,,,,,,,,,,,,,,,,,,,,,,,,,,
982.8999999761581,,rt_thecrossant_black,358843,black_plus_sign,,,,,49,,,1,1,,,,,,,,,,,,,,,,,,,,,,,,,,
null,,color_black,358947,black_plus_sign,,,,,null,,,,,,,,,,,,,,,,,,,,,,,,,,,,,,
null,,learn_phase(without_color),361500,black_plus_sign,,,,,null,US_Cities_List/nat_newhope.png,US_Cities_List/mm_peoria.png,,,,,,,,,,,,,,,,,,,,,,,,,,,,
null,,black_cross(without_color),362259,green,,,,,null,US_Cities_List/nat_newhope.png,US_Cities_List/mm_peoria.png,,,,,,,,,,,,,,,,,,,,,,,,,,,,
null,,rt_plussign_withcolor,362761,green,,,,,null,US_Cities_List/nat_newhope.png,US_Cities_List/mm_peoria.png,,,,,,,,,,,,,,,,,,,,,,,,,,,,
1002.3999999761581,,rt_thecrossant_black,364006,black_plus_sign,,,,,49,,,0,0.9473684210526315,,,,,,,,,,,,,,,,,,,,,,,,,,
null,,color_black,364109,black_plus_sign,,,,,null,,,,,,,,,,,,,,,,,,,,,,,,,,,,,,
null,,learn_phase(without_color),366674,black_plus_sign,,,,,null,US_Cities_List/nat_boulder.png,US_Cities_List/nat_newhope.png,,,,,,,,,,,,,,,,,,,,,,,,,,,,
null,,black_cross(without_color),367622,blue,,,,,null,US_Cities_List/nat_boulder.png,US_Cities_List/nat_newhope.png,,,,,,,,,,,,,,,,,,,,,,,,,,,,
366.40000009536743,,rt_plussign_withcolor,368125,blue,,,,,49,US_Cities_List/nat_boulder.png,US_Cities_List/nat_newhope.png,,,,,,,,,,,,,,,,,,,,,,,,,,,,
null,,rt_thecrossant_black,369181,black_plus_sign,,,,,null,,,1,0.95,,,,,,,,,,,,,,,,,,,,,,,,,,
null,,color_black,369284,black_plus_sign,,,,,null,,,,,,,,,,,,,,,,,,,,,,,,,,,,,,
null,,learn_phase(without_color),371842,black_plus_sign,,,,,null,US_Cities_List/mm_westpalmbeach.png,US_Cities_List/nat_racine.png,,,,,,,,,,,,,,,,,,,,,,,,,,,,
null,,black_cross(without_color),372677,blue,,,,,null,US_Cities_List/mm_westpalmbeach.png,US_Cities_List/nat_racine.png,,,,,,,,,,,,,,,,,,,,,,,,,,,,
null,,rt_plussign_withcolor,373179,blue,,,,,null,US_Cities_List/mm_westpalmbeach.png,US_Cities_List/nat_racine.png,,,,,,,,,,,,,,,,,,,,,,,,,,,,
1073.1000000238419,,rt_thecrossant_black,374349,black_plus_sign,,,,,49,,,1,0.9523809523809523,,,,,,,,,,,,,,,,,,,,,,,,,,
null,,color_black,374452,black_plus_sign,,,,,null,,,,,,,,,,,,,,,,,,,,,,,,,,,,,,
null,,learn_phase(without_color),377003,black_plus_sign,,,,,null,US_Cities_List/mm_hotsprings.png,US_Cities_List/nat_racine.png,,,,,,,,,,,,,,,,,,,,,,,,,,,,
null,,black_cross(without_color),378011,green,,,,,null,US_Cities_List/mm_hotsprings.png,US_Cities_List/nat_racine.png,,,,,,,,,,,,,,,,,,,,,,,,,,,,
null,,rt_plussign_withcolor,378514,green,,,,,null,US_Cities_List/mm_hotsprings.png,US_Cities_List/nat_racine.png,,,,,,,,,,,,,,,,,,,,,,,,,,,,
1115.7000000476837,,rt_thecrossant_black,379511,black_plus_sign,,,,,50,,,1,0.9545454545454546,,,,,,,,,,,,,,,,,,,,,,,,,,
null,,color_black,379628,black_plus_sign,,,,,null,,,,,,,,,,,,,,,,,,,,,,,,,,,,,,
null,,learn_phase(without_color),382181,black_plus_sign,,,,,null,US_Cities_List/mm_westpalmbeach.png,US_Cities_List/nat_racine.png,,,,,,,,,,,,,,,,,,,,,,,,,,,,
null,,black_cross(without_color),383204,blue,,,,,null,US_Cities_List/mm_westpalmbeach.png,US_Cities_List/nat_racine.png,,,,,,,,,,,,,,,,,,,,,,,,,,,,
438.6999999284744,,rt_plussign_withcolor,383707,blue,,,,,49,US_Cities_List/mm_westpalmbeach.png,US_Cities_List/nat_racine.png,,,,,,,,,,,,,,,,,,,,,,,,,,,,
null,,rt_thecrossant_black,384689,black_plus_sign,,,,,null,,,1,0.9565217391304348,,,,,,,,,,,,,,,,,,,,,,,,,,
null,,color_black,384792,black_plus_sign,,,,,null,,,,,,,,,,,,,,,,,,,,,,,,,,,,,,
null,,learn_phase(without_color),387347,black_plus_sign,,,,,null,US_Cities_List/mm_peoria.png,US_Cities_List/nat_gatlinburg.png,,,,,,,,,,,,,,,,,,,,,,,,,,,,
null,,black_cross(without_color),388052,green,,,,,null,US_Cities_List/mm_peoria.png,US_Cities_List/nat_gatlinburg.png,,,,,,,,,,,,,,,,,,,,,,,,,,,,
null,,rt_plussign_withcolor,388554,green,,,,,null,US_Cities_List/mm_peoria.png,US_Cities_List/nat_gatlinburg.png,,,,,,,,,,,,,,,,,,,,,,,,,,,,
1219.5999999046326,,rt_thecrossant_black,389854,black_plus_sign,,,,,50,,,1,0.9583333333333334,,,,,,,,,,,,,,,,,,,,,,,,,,
null,,color_black,389958,black_plus_sign,,,,,null,,,,,,,,,,,,,,,,,,,,,,,,,,,,,,
null,,learn_phase(without_color),392515,black_plus_sign,,,,,null,US_Cities_List/mm_westpalmbeach.png,US_Cities_List/nat_racine.png,,,,,,,,,,,,,,,,,,,,,,,,,,,,
null,,black_cross(without_color),393072,blue,,,,,null,US_Cities_List/mm_westpalmbeach.png,US_Cities_List/nat_racine.png,,,,,,,,,,,,,,,,,,,,,,,,,,,,
421.5,,rt_plussign_withcolor,393583,blue,,,,,49,US_Cities_List/mm_westpalmbeach.png,US_Cities_List/nat_racine.png,,,,,,,,,,,,,,,,,,,,,,,,,,,,
null,,rt_thecrossant_black,395031,black_plus_sign,,,,,null,,,1,0.96,,,,,,,,,,,,,,,,,,,,,,,,,,
null,,color_black,395133,black_plus_sign,,,,,null,,,,,,,,,,,,,,,,,,,,,,,,,,,,,,
null,,learn_phase(without_color),397689,black_plus_sign,,,,,null,US_Cities_List/mm_hotsprings.png,US_Cities_List/nat_shreveport.png,,,,,,,,,,,,,,,,,,,,,,,,,,,,
null,,black_cross(without_color),398367,blue,,,,,null,US_Cities_List/mm_hotsprings.png,US_Cities_List/nat_shreveport.png,,,,,,,,,,,,,,,,,,,,,,,,,,,,
null,,rt_plussign_withcolor,398869,blue,,,,,null,US_Cities_List/mm_hotsprings.png,US_Cities_List/nat_shreveport.png,,,,,,,,,,,,,,,,,,,,,,,,,,,,
703.8000000715256,,rt_thecrossant_black,400196,black_plus_sign,,,,,49,,,1,0.9615384615384616,,,,,,,,,,,,,,,,,,,,,,,,,,
null,,color_black,400298,black_plus_sign,,,,,null,,,,,,,,,,,,,,,,,,,,,,,,,,,,,,
null,,learn_phase(without_color),402852,black_plus_sign,,,,,null,US_Cities_List/nat_newhope.png,US_Cities_List/mm_peoria.png,,,,,,,,,,,,,,,,,,,,,,,,,,,,
null,,black_cross(without_color),403362,blue,,,,,null,US_Cities_List/nat_newhope.png,US_Cities_List/mm_peoria.png,,,,,,,,,,,,,,,,,,,,,,,,,,,,
null,,rt_plussign_withcolor,403864,blue,,,,,null,US_Cities_List/nat_newhope.png,US_Cities_List/mm_peoria.png,,,,,,,,,,,,,,,,,,,,,,,,,,,,
800.3999999761581,,rt_thecrossant_black,405358,black_plus_sign,,,,,49,,,1,0.9629629629629629,,,,,,,,,,,,,,,,,,,,,,,,,,
null,,color_black,405461,black_plus_sign,,,,,null,,,,,,,,,,,,,,,,,,,,,,,,,,,,,,
null,,learn_phase(without_color),408013,black_plus_sign,,,,,null,US_Cities_List/mm_peoria.png,US_Cities_List/nat_gatlinburg.png,,,,,,,,,,,,,,,,,,,,,,,,,,,,
null,,black_cross(without_color),408941,blue,,,,,null,US_Cities_List/mm_peoria.png,US_Cities_List/nat_gatlinburg.png,,,,,,,,,,,,,,,,,,,,,,,,,,,,
null,,rt_plussign_withcolor,409443,blue,,,,,null,US_Cities_List/mm_peoria.png,US_Cities_List/nat_gatlinburg.png,,,,,,,,,,,,,,,,,,,,,,,,,,,,
816.7000000476837,,rt_thecrossant_black,410519,black_plus_sign,,,,,49,,,1,0.9642857142857143,,,,,,,,,,,,,,,,,,,,,,,,,,
null,,color_black,410622,black_plus_sign,,,,,null,,,,,,,,,,,,,,,,,,,,,,,,,,,,,,
null,,learn_phase(without_color),413192,black_plus_sign,,,,,null,US_Cities_List/mm_leesburg.png,US_Cities_List/nat_gatlinburg.png,,,,,,,,,,,,,,,,,,,,,,,,,,,,
null,,black_cross(without_color),413987,green,,,,,null,US_Cities_List/mm_leesburg.png,US_Cities_List/nat_gatlinburg.png,,,,,,,,,,,,,,,,,,,,,,,,,,,,
null,,rt_plussign_withcolor,414489,green,,,,,null,US_Cities_List/mm_leesburg.png,US_Cities_List/nat_gatlinburg.png,,,,,,,,,,,,,,,,,,,,,,,,,,,,
1119.8999999761581,,rt_thecrossant_black,415698,black_plus_sign,,,,,50,,,1,0.9655172413793104,,,,,,,,,,,,,,,,,,,,,,,,,,
null,,color_black,415801,black_plus_sign,,,,,null,,,,,,,,,,,,,,,,,,,,,,,,,,,,,,
null,,learn_phase(without_color),418360,black_plus_sign,,,,,null,US_Cities_List/mm_peoria.png,US_Cities_List/nat_gatlinburg.png,,,,,,,,,,,,,,,,,,,,,,,,,,,,
null,,black_cross(without_color),418847,blue,,,,,null,US_Cities_List/mm_peoria.png,US_Cities_List/nat_gatlinburg.png,,,,,,,,,,,,,,,,,,,,,,,,,,,,
null,,rt_plussign_withcolor,419350,blue,,,,,null,US_Cities_List/mm_peoria.png,US_Cities_List/nat_gatlinburg.png,,,,,,,,,,,,,,,,,,,,,,,,,,,,
1359.3000000715256,,rt_thecrossant_black,420867,black_plus_sign,,,,,49,,,1,0.9666666666666667,,,,,,,,,,,,,,,,,,,,,,,,,,
null,,color_black,420970,black_plus_sign,,,,,null,,,,,,,,,,,,,,,,,,,,,,,,,,,,,,
null,,learn_phase(without_color),423516,black_plus_sign,,,,,null,US_Cities_List/mm_hotsprings.png,US_Cities_List/nat_shreveport.png,,,,,,,,,,,,,,,,,,,,,,,,,,,,
null,,black_cross(without_color),424187,blue,,,,,null,US_Cities_List/mm_hotsprings.png,US_Cities_List/nat_shreveport.png,,,,,,,,,,,,,,,,,,,,,,,,,,,,
null,,rt_plussign_withcolor,424688,blue,,,,,null,US_Cities_List/mm_hotsprings.png,US_Cities_List/nat_shreveport.png,,,,,,,,,,,,,,,,,,,,,,,,,,,,
643.1000000238419,,rt_thecrossant_black,426024,black_plus_sign,,,,,49,,,1,0.967741935483871,,,,,,,,,,,,,,,,,,,,,,,,,,
null,,color_black,426127,black_plus_sign,,,,,null,,,,,,,,,,,,,,,,,,,,,,,,,,,,,,
null,,learn_phase(without_color),428671,black_plus_sign,,,,,null,US_Cities_List/nat_carmel.png,US_Cities_List/nat_boulder.png,,,,,,,,,,,,,,,,,,,,,,,,,,,,
null,,black_cross(without_color),429210,blue,,,,,null,US_Cities_List/nat_carmel.png,US_Cities_List/nat_boulder.png,,,,,,,,,,,,,,,,,,,,,,,,,,,,
null,,rt_plussign_withcolor,429711,blue,,,,,null,US_Cities_List/nat_carmel.png,US_Cities_List/nat_boulder.png,,,,,,,,,,,,,,,,,,,,,,,,,,,,
835.7000000476837,,rt_thecrossant_black,431178,black_plus_sign,,,,,49,,,1,0.96875,,,,,,,,,,,,,,,,,,,,,,,,,,
null,,color_black,431280,black_plus_sign,,,,,null,,,,,,,,,,,,,,,,,,,,,,,,,,,,,,
null,,learn_phase(without_color),433839,black_plus_sign,,,,,null,US_Cities_List/nat_shreveport.png,US_Cities_List/mm_westpalmbeach.png,,,,,,,,,,,,,,,,,,,,,,,,,,,,
null,,black_cross(without_color),434750,green,,,,,null,US_Cities_List/nat_shreveport.png,US_Cities_List/mm_westpalmbeach.png,,,,,,,,,,,,,,,,,,,,,,,,,,,,
498.60000002384186,,rt_plussign_withcolor,435251,green,,,,,50,US_Cities_List/nat_shreveport.png,US_Cities_List/mm_westpalmbeach.png,,,,,,,,,,,,,,,,,,,,,,,,,,,,
null,,rt_thecrossant_black,436344,black_plus_sign,,,,,null,,,1,0.9696969696969697,,,,,,,,,,,,,,,,,,,,,,,,,,
null,,color_black,436447,black_plus_sign,,,,,null,,,,,,,,,,,,,,,,,,,,,,,,,,,,,,
null,,learn_phase(without_color),439015,black_plus_sign,,,,,null,US_Cities_List/mm_hotsprings.png,US_Cities_List/nat_racine.png,,,,,,,,,,,,,,,,,,,,,,,,,,,,
null,,black_cross(without_color),440043,green,,,,,null,US_Cities_List/mm_hotsprings.png,US_Cities_List/nat_racine.png,,,,,,,,,,,,,,,,,,,,,,,,,,,,
407.2999999523163,,rt_plussign_withcolor,440545,green,,,,,50,US_Cities_List/mm_hotsprings.png,US_Cities_List/nat_racine.png,,,,,,,,,,,,,,,,,,,,,,,,,,,,
null,,rt_thecrossant_black,441524,black_plus_sign,,,,,null,,,1,0.9705882352941176,,,,,,,,,,,,,,,,,,,,,,,,,,
null,,color_black,441627,black_plus_sign,,,,,null,,,,,,,,,,,,,,,,,,,,,,,,,,,,,,
null,,learn_phase(without_color),444179,black_plus_sign,,,,,null,US_Cities_List/mm_leesburg.png,US_Cities_List/mm_hanover.png,,,,,,,,,,,,,,,,,,,,,,,,,,,,
null,,black_cross(without_color),445037,green,,,,,null,US_Cities_List/mm_leesburg.png,US_Cities_List/mm_hanover.png,,,,,,,,,,,,,,,,,,,,,,,,,,,,
null,,rt_plussign_withcolor,445538,green,,,,,null,US_Cities_List/mm_leesburg.png,US_Cities_List/mm_hanover.png,,,,,,,,,,,,,,,,,,,,,,,,,,,,
1158.6000000238419,,rt_thecrossant_black,446687,black_plus_sign,,,,,50,,,1,0.9714285714285714,,,,,,,,,,,,,,,,,,,,,,,,,,
null,,color_black,446790,black_plus_sign,,,,,null,,,,,,,,,,,,,,,,,,,,,,,,,,,,,,
null,,learn_phase(without_color),449346,black_plus_sign,,,,,null,US_Cities_List/nat_carmel.png,US_Cities_List/nat_boulder.png,,,,,,,,,,,,,,,,,,,,,,,,,,,,
null,,black_cross(without_color),450000,blue,,,,,null,US_Cities_List/nat_carmel.png,US_Cities_List/nat_boulder.png,,,,,,,,,,,,,,,,,,,,,,,,,,,,
null,,rt_plussign_withcolor,450502,blue,,,,,null,US_Cities_List/nat_carmel.png,US_Cities_List/nat_boulder.png,,,,,,,,,,,,,,,,,,,,,,,,,,,,
1087.6999999284744,,rt_thecrossant_black,451854,black_plus_sign,,,,,49,,,1,0.9722222222222222,,,,,,,,,,,,,,,,,,,,,,,,,,
null,,color_black,451957,black_plus_sign,,,,,null,,,,,,,,,,,,,,,,,,,,,,,,,,,,,,
null,,learn_phase(without_color),454511,black_plus_sign,,,,,null,US_Cities_List/nat_boulder.png,US_Cities_List/nat_newhope.png,,,,,,,,,,,,,,,,,,,,,,,,,,,,
null,,black_cross(without_color),455158,blue,,,,,null,US_Cities_List/nat_boulder.png,US_Cities_List/nat_newhope.png,,,,,,,,,,,,,,,,,,,,,,,,,,,,
null,,rt_plussign_withcolor,455660,blue,,,,,null,US_Cities_List/nat_boulder.png,US_Cities_List/nat_newhope.png,,,,,,,,,,,,,,,,,,,,,,,,,,,,
888.6000000238419,,rt_thecrossant_black,457018,black_plus_sign,,,,,49,,,1,0.972972972972973,,,,,,,,,,,,,,,,,,,,,,,,,,
null,,color_black,457121,black_plus_sign,,,,,null,,,,,,,,,,,,,,,,,,,,,,,,,,,,,,
null,,learn_phase(without_color),459678,black_plus_sign,,,,,null,US_Cities_List/nat_shreveport.png,US_Cities_List/nat_cornwall.png,,,,,,,,,,,,,,,,,,,,,,,,,,,,
null,,black_cross(without_color),460127,green,,,,,null,US_Cities_List/nat_shreveport.png,US_Cities_List/nat_cornwall.png,,,,,,,,,,,,,,,,,,,,,,,,,,,,
null,,rt_plussign_withcolor,460630,green,,,,,null,US_Cities_List/nat_shreveport.png,US_Cities_List/nat_cornwall.png,,,,,,,,,,,,,,,,,,,,,,,,,,,,
841.3999999761581,,rt_thecrossant_black,462185,black_plus_sign,,,,,50,,,1,0.9736842105263158,,,,,,,,,,,,,,,,,,,,,,,,,,
null,,color_black,462288,black_plus_sign,,,,,null,,,,,,,,,,,,,,,,,,,,,,,,,,,,,,
null,,learn_phase(without_color),464843,black_plus_sign,,,,,null,US_Cities_List/nat_carmel.png,US_Cities_List/nat_boulder.png,,,,,,,,,,,,,,,,,,,,,,,,,,,,
null,,black_cross(without_color),465319,blue,,,,,null,US_Cities_List/nat_carmel.png,US_Cities_List/nat_boulder.png,,,,,,,,,,,,,,,,,,,,,,,,,,,,
471.60000002384186,,rt_plussign_withcolor,465821,blue,,,,,49,US_Cities_List/nat_carmel.png,US_Cities_List/nat_boulder.png,,,,,,,,,,,,,,,,,,,,,,,,,,,,
null,,rt_thecrossant_black,467350,black_plus_sign,,,,,null,,,1,0.9743589743589743,,,,,,,,,,,,,,,,,,,,,,,,,,
null,,color_black,467453,black_plus_sign,,,,,null,,,,,,,,,,,,,,,,,,,,,,,,,,,,,,
null,,learn_phase(without_color),469999,black_plus_sign,,,,,null,US_Cities_List/nat_newhope.png,US_Cities_List/mm_peoria.png,,,,,,,,,,,,,,,,,,,,,,,,,,,,
null,,black_cross(without_color),470623,blue,,,,,null,US_Cities_List/nat_newhope.png,US_Cities_List/mm_peoria.png,,,,,,,,,,,,,,,,,,,,,,,,,,,,
null,,rt_plussign_withcolor,471124,blue,,,,,null,US_Cities_List/nat_newhope.png,US_Cities_List/mm_peoria.png,,,,,,,,,,,,,,,,,,,,,,,,,,,,
914,,rt_thecrossant_black,472505,black_plus_sign,,,,,49,,,1,0.975,,,,,,,,,,,,,,,,,,,,,,,,,,
null,,color_black,472608,black_plus_sign,,,,,null,,,,,,,,,,,,,,,,,,,,,,,,,,,,,,
null,,learn_phase(without_color),475157,black_plus_sign,,,,,null,US_Cities_List/mm_peoria.png,US_Cities_List/nat_gatlinburg.png,,,,,,,,,,,,,,,,,,,,,,,,,,,,
null,,black_cross(without_color),476047,green,,,,,null,US_Cities_List/mm_peoria.png,US_Cities_List/nat_gatlinburg.png,,,,,,,,,,,,,,,,,,,,,,,,,,,,
null,,rt_plussign_withcolor,476549,green,,,,,null,US_Cities_List/mm_peoria.png,US_Cities_List/nat_gatlinburg.png,,,,,,,,,,,,,,,,,,,,,,,,,,,,
1157.7000000476837,,rt_thecrossant_black,477664,black_plus_sign,,,,,50,,,1,0.975609756097561,,,,,,,,,,,,,,,,,,,,,,,,,,
null,,color_black,477767,black_plus_sign,,,,,null,,,,,,,,,,,,,,,,,,,,,,,,,,,,,,
null,,learn_phase(without_color),480317,black_plus_sign,,,,,null,US_Cities_List/mm_leesburg.png,US_Cities_List/nat_gatlinburg.png,,,,,,,,,,,,,,,,,,,,,,,,,,,,
null,,black_cross(without_color),481109,green,,,,,null,US_Cities_List/mm_leesburg.png,US_Cities_List/nat_gatlinburg.png,,,,,,,,,,,,,,,,,,,,,,,,,,,,
null,,rt_plussign_withcolor,481611,green,,,,,null,US_Cities_List/mm_leesburg.png,US_Cities_List/nat_gatlinburg.png,,,,,,,,,,,,,,,,,,,,,,,,,,,,
1049.1000000238419,,rt_thecrossant_black,482824,black_plus_sign,,,,,50,,,1,0.9761904761904762,,,,,,,,,,,,,,,,,,,,,,,,,,
null,,color_black,482927,black_plus_sign,,,,,null,,,,,,,,,,,,,,,,,,,,,,,,,,,,,,
null,,learn_phase(without_color),485487,black_plus_sign,,,,,null,US_Cities_List/nat_newhope.png,US_Cities_List/mm_peoria.png,,,,,,,,,,,,,,,,,,,,,,,,,,,,
null,,black_cross(without_color),486258,green,,,,,null,US_Cities_List/nat_newhope.png,US_Cities_List/mm_peoria.png,,,,,,,,,,,,,,,,,,,,,,,,,,,,
null,,rt_plussign_withcolor,486761,green,,,,,null,US_Cities_List/nat_newhope.png,US_Cities_List/mm_peoria.png,,,,,,,,,,,,,,,,,,,,,,,,,,,,
1628.2000000476837,,rt_thecrossant_black,487993,black_plus_sign,,,,,50,,,1,0.9767441860465116,,,,,,,,,,,,,,,,,,,,,,,,,,
null,,color_black,488097,black_plus_sign,,,,,null,,,,,,,,,,,,,,,,,,,,,,,,,,,,,,
null,,learn_phase(without_color),490655,black_plus_sign,,,,,null,US_Cities_List/mm_westpalmbeach.png,US_Cities_List/nat_racine.png,,,,,,,,,,,,,,,,,,,,,,,,,,,,
null,,black_cross(without_color),491431,green,,,,,null,US_Cities_List/mm_westpalmbeach.png,US_Cities_List/nat_racine.png,,,,,,,,,,,,,,,,,,,,,,,,,,,,
null,,rt_plussign_withcolor,491932,green,,,,,null,US_Cities_List/mm_westpalmbeach.png,US_Cities_List/nat_racine.png,,,,,,,,,,,,,,,,,,,,,,,,,,,,
973.1000000238419,,rt_thecrossant_black,493161,black_plus_sign,,,,,50,,,1,0.9772727272727273,,,,,,,,,,,,,,,,,,,,,,,,,,
null,,color_black,493264,black_plus_sign,,,,,null,,,,,,,,,,,,,,,,,,,,,,,,,,,,,,
null,,learn_phase(without_color),495813,black_plus_sign,,,,,null,US_Cities_List/mm_leesburg.png,US_Cities_List/mm_hanover.png,,,,,,,,,,,,,,,,,,,,,,,,,,,,
null,,black_cross(without_color),496277,green,,,,,null,US_Cities_List/mm_leesburg.png,US_Cities_List/mm_hanover.png,,,,,,,,,,,,,,,,,,,,,,,,,,,,
null,,rt_plussign_withcolor,496780,green,,,,,null,US_Cities_List/mm_leesburg.png,US_Cities_List/mm_hanover.png,,,,,,,,,,,,,,,,,,,,,,,,,,,,
1073.7000000476837,,rt_thecrossant_black,498321,black_plus_sign,,,,,50,,,1,0.9777777777777777,,,,,,,,,,,,,,,,,,,,,,,,,,
null,,color_black,498424,black_plus_sign,,,,,null,,,,,,,,,,,,,,,,,,,,,,,,,,,,,,
null,,learn_phase(without_color),500982,black_plus_sign,,,,,null,US_Cities_List/mm_hotsprings.png,US_Cities_List/nat_racine.png,,,,,,,,,,,,,,,,,,,,,,,,,,,,
null,,black_cross(without_color),501869,green,,,,,null,US_Cities_List/mm_hotsprings.png,US_Cities_List/nat_racine.png,,,,,,,,,,,,,,,,,,,,,,,,,,,,
473.5,,rt_plussign_withcolor,502370,green,,,,,50,US_Cities_List/mm_hotsprings.png,US_Cities_List/nat_racine.png,,,,,,,,,,,,,,,,,,,,,,,,,,,,
null,,rt_thecrossant_black,503489,black_plus_sign,,,,,null,,,1,0.9782608695652174,,,,,,,,,,,,,,,,,,,,,,,,,,
null,,color_black,503592,black_plus_sign,,,,,null,,,,,,,,,,,,,,,,,,,,,,,,,,,,,,
null,,learn_phase(without_color),506143,black_plus_sign,,,,,null,US_Cities_List/mm_leesburg.png,US_Cities_List/mm_hanover.png,,,,,,,,,,,,,,,,,,,,,,,,,,,,
null,,black_cross(without_color),506814,blue,,,,,null,US_Cities_List/mm_leesburg.png,US_Cities_List/mm_hanover.png,,,,,,,,,,,,,,,,,,,,,,,,,,,,
null,,rt_plussign_withcolor,507317,blue,,,,,null,US_Cities_List/mm_leesburg.png,US_Cities_List/mm_hanover.png,,,,,,,,,,,,,,,,,,,,,,,,,,,,
984.5,,rt_thecrossant_black,508653,black_plus_sign,,,,,49,,,1,0.9787234042553191,,,,,,,,,,,,,,,,,,,,,,,,,,
null,,color_black,508757,black_plus_sign,,,,,null,,,,,,,,,,,,,,,,,,,,,,,,,,,,,,
null,,learn_phase(without_color),511309,black_plus_sign,,,,,null,US_Cities_List/nat_carmel.png,US_Cities_List/nat_boulder.png,,,,,,,,,,,,,,,,,,,,,,,,,,,,
null,,black_cross(without_color),512307,green,,,,,null,US_Cities_List/nat_carmel.png,US_Cities_List/nat_boulder.png,,,,,,,,,,,,,,,,,,,,,,,,,,,,
397.5,,rt_plussign_withcolor,512810,green,,,,,50,US_Cities_List/nat_carmel.png,US_Cities_List/nat_boulder.png,,,,,,,,,,,,,,,,,,,,,,,,,,,,
null,,rt_thecrossant_black,513817,black_plus_sign,,,,,null,,,1,0.9791666666666666,,,,,,,,,,,,,,,,,,,,,,,,,,
null,,color_black,513919,black_plus_sign,,,,,null,,,,,,,,,,,,,,,,,,,,,,,,,,,,,,
null,,learn_phase(without_color),516464,black_plus_sign,,,,,null,US_Cities_List/nat_shreveport.png,US_Cities_List/nat_racine.png,,,,,,,,,,,,,,,,,,,,,,,,,,,,
null,,black_cross(without_color),517264,blue,,,,,null,US_Cities_List/nat_shreveport.png,US_Cities_List/nat_racine.png,,,,,,,,,,,,,,,,,,,,,,,,,,,,
null,,rt_plussign_withcolor,517765,blue,,,,,null,US_Cities_List/nat_shreveport.png,US_Cities_List/nat_racine.png,,,,,,,,,,,,,,,,,,,,,,,,,,,,
1226.7000000476837,,rt_thecrossant_black,518971,black_plus_sign,,,,,49,,,1,0.9795918367346939,,,,,,,,,,,,,,,,,,,,,,,,,,
null,,color_black,519073,black_plus_sign,,,,,null,,,,,,,,,,,,,,,,,,,,,,,,,,,,,,
null,,learn_phase(without_color),521637,black_plus_sign,,,,,null,US_Cities_List/mm_westpalmbeach.png,US_Cities_List/nat_racine.png,,,,,,,,,,,,,,,,,,,,,,,,,,,,
null,,black_cross(without_color),522632,blue,,,,,null,US_Cities_List/mm_westpalmbeach.png,US_Cities_List/nat_racine.png,,,,,,,,,,,,,,,,,,,,,,,,,,,,
null,,rt_plussign_withcolor,523134,blue,,,,,null,US_Cities_List/mm_westpalmbeach.png,US_Cities_List/nat_racine.png,,,,,,,,,,,,,,,,,,,,,,,,,,,,
1091.6999999284744,,rt_thecrossant_black,524144,black_plus_sign,,,,,49,,,1,0.98,,,,,,,,,,,,,,,,,,,,,,,,,,
null,,color_black,524247,black_plus_sign,,,,,null,,,,,,,,,,,,,,,,,,,,,,,,,,,,,,
null,,learn_phase(without_color),526803,black_plus_sign,,,,,null,US_Cities_List/mm_westpalmbeach.png,US_Cities_List/nat_huntsville.png,,,,,,,,,,,,,,,,,,,,,,,,,,,,
null,,black_cross(without_color),527284,blue,,,,,null,US_Cities_List/mm_westpalmbeach.png,US_Cities_List/nat_huntsville.png,,,,,,,,,,,,,,,,,,,,,,,,,,,,
null,,rt_plussign_withcolor,527787,blue,,,,,null,US_Cities_List/mm_westpalmbeach.png,US_Cities_List/nat_huntsville.png,,,,,,,,,,,,,,,,,,,,,,,,,,,,
1346.1000000238419,,rt_thecrossant_black,529311,black_plus_sign,,,,,49,,,1,0.9803921568627451,,,,,,,,,,,,,,,,,,,,,,,,,,
null,,color_black,529413,black_plus_sign,,,,,null,,,,,,,,,,,,,,,,,,,,,,,,,,,,,,
null,,learn_phase(without_color),531971,black_plus_sign,,,,,null,US_Cities_List/mm_hotsprings.png,US_Cities_List/nat_shreveport.png,,,,,,,,,,,,,,,,,,,,,,,,,,,,
null,,black_cross(without_color),532807,blue,,,,,null,US_Cities_List/mm_hotsprings.png,US_Cities_List/nat_shreveport.png,,,,,,,,,,,,,,,,,,,,,,,,,,,,
null,,rt_plussign_withcolor,533309,blue,,,,,null,US_Cities_List/mm_hotsprings.png,US_Cities_List/nat_shreveport.png,,,,,,,,,,,,,,,,,,,,,,,,,,,,
1232.5,,rt_thecrossant_black,534478,black_plus_sign,,,,,49,,,1,0.9807692307692307,,,,,,,,,,,,,,,,,,,,,,,,,,
null,,color_black,534581,black_plus_sign,,,,,null,,,,,,,,,,,,,,,,,,,,,,,,,,,,,,
null,,learn_phase(without_color),537133,black_plus_sign,,,,,null,US_Cities_List/mm_peoria.png,US_Cities_List/nat_gatlinburg.png,,,,,,,,,,,,,,,,,,,,,,,,,,,,
null,,black_cross(without_color),538203,green,,,,,null,US_Cities_List/mm_peoria.png,US_Cities_List/nat_gatlinburg.png,,,,,,,,,,,,,,,,,,,,,,,,,,,,
null,,rt_plussign_withcolor,538705,green,,,,,null,US_Cities_List/mm_peoria.png,US_Cities_List/nat_gatlinburg.png,,,,,,,,,,,,,,,,,,,,,,,,,,,,
1241.6999999284744,,rt_thecrossant_black,539641,black_plus_sign,,,,,50,,,1,0.9811320754716981,,,,,,,,,,,,,,,,,,,,,,,,,,
null,,color_black,539744,black_plus_sign,,,,,null,,,,,,,,,,,,,,,,,,,,,,,,,,,,,,
null,,learn_phase(without_color),542295,black_plus_sign,,,,,null,US_Cities_List/mm_hotsprings.png,US_Cities_List/nat_racine.png,,,,,,,,,,,,,,,,,,,,,,,,,,,,
null,,black_cross(without_color),542882,blue,,,,,null,US_Cities_List/mm_hotsprings.png,US_Cities_List/nat_racine.png,,,,,,,,,,,,,,,,,,,,,,,,,,,,
null,,rt_plussign_withcolor,543384,blue,,,,,null,US_Cities_List/mm_hotsprings.png,US_Cities_List/nat_racine.png,,,,,,,,,,,,,,,,,,,,,,,,,,,,
1354.6000000238419,,rt_thecrossant_black,544803,black_plus_sign,,,,,49,,,1,0.9814814814814815,,,,,,,,,,,,,,,,,,,,,,,,,,
null,,color_black,544907,black_plus_sign,,,,,null,,,,,,,,,,,,,,,,,,,,,,,,,,,,,,
null,,learn_phase(without_color),547455,black_plus_sign,,,,,null,US_Cities_List/nat_newhope.png,US_Cities_List/mm_hotsprings.png,,,,,,,,,,,,,,,,,,,,,,,,,,,,
null,,black_cross(without_color),548344,blue,,,,,null,US_Cities_List/nat_newhope.png,US_Cities_List/mm_hotsprings.png,,,,,,,,,,,,,,,,,,,,,,,,,,,,
null,,rt_plussign_withcolor,548846,blue,,,,,null,US_Cities_List/nat_newhope.png,US_Cities_List/mm_hotsprings.png,,,,,,,,,,,,,,,,,,,,,,,,,,,,
836.2999999523163,,rt_thecrossant_black,549962,black_plus_sign,,,,,49,,,1,0.9818181818181818,,,,,,,,,,,,,,,,,,,,,,,,,,
null,,color_black,550065,black_plus_sign,,,,,null,,,,,,,,,,,,,,,,,,,,,,,,,,,,,,
null,,learn_phase(without_color),552619,black_plus_sign,,,,,null,US_Cities_List/nat_boulder.png,US_Cities_List/mm_leesburg.png,,,,,,,,,,,,,,,,,,,,,,,,,,,,
null,,black_cross(without_color),553707,blue,,,,,null,US_Cities_List/nat_boulder.png,US_Cities_List/mm_leesburg.png,,,,,,,,,,,,,,,,,,,,,,,,,,,,
null,,rt_plussign_withcolor,554209,blue,,,,,null,US_Cities_List/nat_boulder.png,US_Cities_List/mm_leesburg.png,,,,,,,,,,,,,,,,,,,,,,,,,,,,
1113.3999999761581,,rt_thecrossant_black,555127,black_plus_sign,,,,,49,,,1,0.9821428571428571,,,,,,,,,,,,,,,,,,,,,,,,,,
null,,color_black,555230,black_plus_sign,,,,,null,,,,,,,,,,,,,,,,,,,,,,,,,,,,,,
null,,learn_phase(without_color),557773,black_plus_sign,,,,,null,US_Cities_List/mm_leesburg.png,US_Cities_List/mm_hanover.png,,,,,,,,,,,,,,,,,,,,,,,,,,,,
null,,black_cross(without_color),558807,blue,,,,,null,US_Cities_List/mm_leesburg.png,US_Cities_List/mm_hanover.png,,,,,,,,,,,,,,,,,,,,,,,,,,,,
null,,rt_plussign_withcolor,559310,blue,,,,,null,US_Cities_List/mm_leesburg.png,US_Cities_List/mm_hanover.png,,,,,,,,,,,,,,,,,,,,,,,,,,,,
1323.6999999284744,,rt_thecrossant_black,560282,black_plus_sign,,,,,49,,,1,0.9824561403508771,,,,,,,,,,,,,,,,,,,,,,,,,,
null,,color_black,560384,black_plus_sign,,,,,null,,,,,,,,,,,,,,,,,,,,,,,,,,,,,,
null,,learn_phase(without_color),562943,black_plus_sign,,,,,null,US_Cities_List/nat_newhope.png,US_Cities_List/mm_hotsprings.png,,,,,,,,,,,,,,,,,,,,,,,,,,,,
null,,black_cross(without_color),563984,blue,,,,,null,US_Cities_List/nat_newhope.png,US_Cities_List/mm_hotsprings.png,,,,,,,,,,,,,,,,,,,,,,,,,,,,
null,,rt_plussign_withcolor,564486,blue,,,,,null,US_Cities_List/nat_newhope.png,US_Cities_List/mm_hotsprings.png,,,,,,,,,,,,,,,,,,,,,,,,,,,,
1157.6000000238419,,rt_thecrossant_black,565457,black_plus_sign,,,,,49,,,1,0.9827586206896551,,,,,,,,,,,,,,,,,,,,,,,,,,
null,,color_black,565558,black_plus_sign,,,,,null,,,,,,,,,,,,,,,,,,,,,,,,,,,,,,
null,,learn_phase(without_color),568090,black_plus_sign,,,,,null,US_Cities_List/nat_boulder.png,US_Cities_List/nat_newhope.png,,,,,,,,,,,,,,,,,,,,,,,,,,,,
null,,black_cross(without_color),568667,blue,,,,,null,US_Cities_List/nat_boulder.png,US_Cities_List/nat_newhope.png,,,,,,,,,,,,,,,,,,,,,,,,,,,,
null,,rt_plussign_withcolor,569169,blue,,,,,null,US_Cities_List/nat_boulder.png,US_Cities_List/nat_newhope.png,,,,,,,,,,,,,,,,,,,,,,,,,,,,
1492,,rt_thecrossant_black,570595,black_plus_sign,,,,,49,,,1,0.9830508474576272,,,,,,,,,,,,,,,,,,,,,,,,,,
null,,color_black,570697,black_plus_sign,,,,,null,,,,,,,,,,,,,,,,,,,,,,,,,,,,,,
null,,learn_phase(without_color),573249,black_plus_sign,,,,,null,US_Cities_List/nat_racine.png,US_Cities_List/mm_peoria.png,,,,,,,,,,,,,,,,,,,,,,,,,,,,
null,,black_cross(without_color),573698,blue,,,,,null,US_Cities_List/nat_racine.png,US_Cities_List/mm_peoria.png,,,,,,,,,,,,,,,,,,,,,,,,,,,,
null,,rt_plussign_withcolor,574200,blue,,,,,null,US_Cities_List/nat_racine.png,US_Cities_List/mm_peoria.png,,,,,,,,,,,,,,,,,,,,,,,,,,,,
942.4000000953674,,rt_thecrossant_black,575757,black_plus_sign,,,,,49,,,1,0.9833333333333333,,,,,,,,,,,,,,,,,,,,,,,,,,
null,,color_black,575859,black_plus_sign,,,,,null,,,,,,,,,,,,,,,,,,,,,,,,,,,,,,
null,,learn_phase(without_color),578420,black_plus_sign,,,,,null,US_Cities_List/nat_shreveport.png,US_Cities_List/mm_westpalmbeach.png,,,,,,,,,,,,,,,,,,,,,,,,,,,,
null,,black_cross(without_color),579522,green,,,,,null,US_Cities_List/nat_shreveport.png,US_Cities_List/mm_westpalmbeach.png,,,,,,,,,,,,,,,,,,,,,,,,,,,,
null,,rt_plussign_withcolor,580024,green,,,,,null,US_Cities_List/nat_shreveport.png,US_Cities_List/mm_westpalmbeach.png,,,,,,,,,,,,,,,,,,,,,,,,,,,,
759.7999999523163,,rt_thecrossant_black,580928,black_plus_sign,,,,,50,,,1,0.9836065573770492,,,,,,,,,,,,,,,,,,,,,,,,,,
null,,color_black,581030,black_plus_sign,,,,,null,,,,,,,,,,,,,,,,,,,,,,,,,,,,,,
null,,learn_phase(without_color),583574,black_plus_sign,,,,,null,US_Cities_List/nat_boulder.png,US_Cities_List/nat_newhope.png,,,,,,,,,,,,,,,,,,,,,,,,,,,,
null,,black_cross(without_color),584640,blue,,,,,null,US_Cities_List/nat_boulder.png,US_Cities_List/nat_newhope.png,,,,,,,,,,,,,,,,,,,,,,,,,,,,
null,,rt_plussign_withcolor,585142,blue,,,,,null,US_Cities_List/nat_boulder.png,US_Cities_List/nat_newhope.png,,,,,,,,,,,,,,,,,,,,,,,,,,,,
1278.3000000715256,,rt_thecrossant_black,586082,black_plus_sign,,,,,49,,,1,0.9838709677419355,,,,,,,,,,,,,,,,,,,,,,,,,,
null,,color_black,586184,black_plus_sign,,,,,null,,,,,,,,,,,,,,,,,,,,,,,,,,,,,,
null,,learn_phase(without_color),588733,black_plus_sign,,,,,null,US_Cities_List/nat_shreveport.png,US_Cities_List/nat_cornwall.png,,,,,,,,,,,,,,,,,,,,,,,,,,,,
null,,black_cross(without_color),589399,blue,,,,,null,US_Cities_List/nat_shreveport.png,US_Cities_List/nat_cornwall.png,,,,,,,,,,,,,,,,,,,,,,,,,,,,
null,,rt_plussign_withcolor,589902,blue,,,,,null,US_Cities_List/nat_shreveport.png,US_Cities_List/nat_cornwall.png,,,,,,,,,,,,,,,,,,,,,,,,,,,,
1652.8999999761581,,rt_thecrossant_black,591241,black_plus_sign,,,,,49,,,1,0.9841269841269841,,,,,,,,,,,,,,,,,,,,,,,,,,
null,,color_black,591343,black_plus_sign,,,,,null,,,,,,,,,,,,,,,,,,,,,,,,,,,,,,
null,,learn_phase(without_color),593903,black_plus_sign,,,,,null,US_Cities_List/mm_westpalmbeach.png,US_Cities_List/nat_huntsville.png,,,,,,,,,,,,,,,,,,,,,,,,,,,,
null,,black_cross(without_color),594725,green,,,,,null,US_Cities_List/mm_westpalmbeach.png,US_Cities_List/nat_huntsville.png,,,,,,,,,,,,,,,,,,,,,,,,,,,,
null,,rt_plussign_withcolor,595228,green,,,,,null,US_Cities_List/mm_westpalmbeach.png,US_Cities_List/nat_huntsville.png,,,,,,,,,,,,,,,,,,,,,,,,,,,,
952.0999999046326,,rt_thecrossant_black,596417,black_plus_sign,,,,,50,,,1,0.984375,,,,,,,,,,,,,,,,,,,,,,,,,,
null,,color_black,596519,black_plus_sign,,,,,null,,,,,,,,,,,,,,,,,,,,,,,,,,,,,,
null,,learn_phase(without_color),599065,black_plus_sign,,,,,null,US_Cities_List/nat_boulder.png,US_Cities_List/mm_leesburg.png,,,,,,,,,,,,,,,,,,,,,,,,,,,,
null,,black_cross(without_color),599761,green,,,,,null,US_Cities_List/nat_boulder.png,US_Cities_List/mm_leesburg.png,,,,,,,,,,,,,,,,,,,,,,,,,,,,
null,,rt_plussign_withcolor,600263,green,,,,,null,US_Cities_List/nat_boulder.png,US_Cities_List/mm_leesburg.png,,,,,,,,,,,,,,,,,,,,,,,,,,,,
1107.5,,rt_thecrossant_black,601573,black_plus_sign,,,,,50,,,1,0.9846153846153847,,,,,,,,,,,,,,,,,,,,,,,,,,
null,,color_black,601690,black_plus_sign,,,,,null,,,,,,,,,,,,,,,,,,,,,,,,,,,,,,
null,,learn_phase(without_color),604247,black_plus_sign,,,,,null,US_Cities_List/nat_newhope.png,US_Cities_List/mm_peoria.png,,,,,,,,,,,,,,,,,,,,,,,,,,,,
null,,black_cross(without_color),604673,green,,,,,null,US_Cities_List/nat_newhope.png,US_Cities_List/mm_peoria.png,,,,,,,,,,,,,,,,,,,,,,,,,,,,
null,,rt_plussign_withcolor,605174,green,,,,,null,US_Cities_List/nat_newhope.png,US_Cities_List/mm_peoria.png,,,,,,,,,,,,,,,,,,,,,,,,,,,,
1156.8000000715256,,rt_thecrossant_black,606754,black_plus_sign,,,,,50,,,1,0.9848484848484849,,,,,,,,,,,,,,,,,,,,,,,,,,
null,,color_black,606857,black_plus_sign,,,,,null,,,,,,,,,,,,,,,,,,,,,,,,,,,,,,
null,,learn_phase(without_color),609460,black_plus_sign,,,,,null,US_Cities_List/mm_westpalmbeach.png,US_Cities_List/nat_huntsville.png,,,,,,,,,,,,,,,,,,,,,,,,,,,,
null,,black_cross(without_color),610470,green,,,,,null,US_Cities_List/mm_westpalmbeach.png,US_Cities_List/nat_huntsville.png,,,,,,,,,,,,,,,,,,,,,,,,,,,,
null,,rt_plussign_withcolor,610972,green,,,,,null,US_Cities_List/mm_westpalmbeach.png,US_Cities_List/nat_huntsville.png,,,,,,,,,,,,,,,,,,,,,,,,,,,,
1035.5999999046326,,rt_thecrossant_black,611968,black_plus_sign,,,,,50,,,1,0.9850746268656716,,,,,,,,,,,,,,,,,,,,,,,,,,
null,,color_black,612071,black_plus_sign,,,,,null,,,,,,,,,,,,,,,,,,,,,,,,,,,,,,
null,,learn_phase(without_color),614619,black_plus_sign,,,,,null,US_Cities_List/nat_shreveport.png,US_Cities_List/nat_racine.png,,,,,,,,,,,,,,,,,,,,,,,,,,,,
null,,black_cross(without_color),615165,green,,,,,null,US_Cities_List/nat_shreveport.png,US_Cities_List/nat_racine.png,,,,,,,,,,,,,,,,,,,,,,,,,,,,
null,,rt_plussign_withcolor,615667,green,,,,,null,US_Cities_List/nat_shreveport.png,US_Cities_List/nat_racine.png,,,,,,,,,,,,,,,,,,,,,,,,,,,,
1114.7999999523163,,rt_thecrossant_black,617128,black_plus_sign,,,,,50,,,1,0.9852941176470589,,,,,,,,,,,,,,,,,,,,,,,,,,
null,,color_black,617230,black_plus_sign,,,,,null,,,,,,,,,,,,,,,,,,,,,,,,,,,,,,
null,,learn_phase(without_color),619779,black_plus_sign,,,,,null,US_Cities_List/mm_hotsprings.png,US_Cities_List/nat_shreveport.png,,,,,,,,,,,,,,,,,,,,,,,,,,,,
null,,black_cross(without_color),620817,green,,,,,null,US_Cities_List/mm_hotsprings.png,US_Cities_List/nat_shreveport.png,,,,,,,,,,,,,,,,,,,,,,,,,,,,
null,,rt_plussign_withcolor,621319,green,,,,,null,US_Cities_List/mm_hotsprings.png,US_Cities_List/nat_shreveport.png,,,,,,,,,,,,,,,,,,,,,,,,,,,,
672.6000000238419,,rt_thecrossant_black,622286,black_plus_sign,,,,,50,,,1,0.9855072463768116,,,,,,,,,,,,,,,,,,,,,,,,,,
null,,color_black,622388,black_plus_sign,,,,,null,,,,,,,,,,,,,,,,,,,,,,,,,,,,,,
null,,learn_phase(without_color),624942,black_plus_sign,,,,,null,US_Cities_List/nat_shreveport.png,US_Cities_List/nat_cornwall.png,,,,,,,,,,,,,,,,,,,,,,,,,,,,
null,,black_cross(without_color),625657,blue,,,,,null,US_Cities_List/nat_shreveport.png,US_Cities_List/nat_cornwall.png,,,,,,,,,,,,,,,,,,,,,,,,,,,,
null,,rt_plussign_withcolor,626160,blue,,,,,null,US_Cities_List/nat_shreveport.png,US_Cities_List/nat_cornwall.png,,,,,,,,,,,,,,,,,,,,,,,,,,,,
1653.1999999284744,,rt_thecrossant_black,627450,black_plus_sign,,,,,49,,,1,0.9857142857142858,,,,,,,,,,,,,,,,,,,,,,,,,,
null,,color_black,627552,black_plus_sign,,,,,null,,,,,,,,,,,,,,,,,,,,,,,,,,,,,,
null,,learn_phase(without_color),630105,black_plus_sign,,,,,null,US_Cities_List/mm_leesburg.png,US_Cities_List/nat_gatlinburg.png,,,,,,,,,,,,,,,,,,,,,,,,,,,,
null,,black_cross(without_color),630568,green,,,,,null,US_Cities_List/mm_leesburg.png,US_Cities_List/nat_gatlinburg.png,,,,,,,,,,,,,,,,,,,,,,,,,,,,
null,,rt_plussign_withcolor,631070,green,,,,,null,US_Cities_List/mm_leesburg.png,US_Cities_List/nat_gatlinburg.png,,,,,,,,,,,,,,,,,,,,,,,,,,,,
1051.3999999761581,,rt_thecrossant_black,632613,black_plus_sign,,,,,50,,,1,0.9859154929577465,,,,,,,,,,,,,,,,,,,,,,,,,,
null,,color_black,632717,black_plus_sign,,,,,null,,,,,,,,,,,,,,,,,,,,,,,,,,,,,,
null,,learn_phase(without_color),635298,black_plus_sign,,,,,null,US_Cities_List/mm_hotsprings.png,US_Cities_List/nat_shreveport.png,,,,,,,,,,,,,,,,,,,,,,,,,,,,
null,,black_cross(without_color),635771,blue,,,,,null,US_Cities_List/mm_hotsprings.png,US_Cities_List/nat_shreveport.png,,,,,,,,,,,,,,,,,,,,,,,,,,,,
null,,rt_plussign_withcolor,636288,blue,,,,,null,US_Cities_List/mm_hotsprings.png,US_Cities_List/nat_shreveport.png,,,,,,,,,,,,,,,,,,,,,,,,,,,,
685.8000000715256,,rt_thecrossant_black,637822,black_plus_sign,,,,,49,,,1,0.9861111111111112,,,,,,,,,,,,,,,,,,,,,,,,,,
null,,color_black,637930,black_plus_sign,,,,,null,,,,,,,,,,,,,,,,,,,,,,,,,,,,,,
null,,learn_phase(without_color),640493,black_plus_sign,,,,,null,US_Cities_List/nat_boulder.png,US_Cities_List/mm_leesburg.png,,,,,,,,,,,,,,,,,,,,,,,,,,,,
null,,black_cross(without_color),641086,green,,,,,null,US_Cities_List/nat_boulder.png,US_Cities_List/mm_leesburg.png,,,,,,,,,,,,,,,,,,,,,,,,,,,,
null,,rt_plussign_withcolor,641588,green,,,,,null,US_Cities_List/nat_boulder.png,US_Cities_List/mm_leesburg.png,,,,,,,,,,,,,,,,,,,,,,,,,,,,
821.3000000715256,,rt_thecrossant_black,643001,black_plus_sign,,,,,50,,,1,0.9863013698630136,,,,,,,,,,,,,,,,,,,,,,,,,,
null,,color_black,643103,black_plus_sign,,,,,null,,,,,,,,,,,,,,,,,,,,,,,,,,,,,,
null,,learn_phase(without_color),645654,black_plus_sign,,,,,null,US_Cities_List/mm_westpalmbeach.png,US_Cities_List/nat_huntsville.png,,,,,,,,,,,,,,,,,,,,,,,,,,,,
null,,black_cross(without_color),646148,green,,,,,null,US_Cities_List/mm_westpalmbeach.png,US_Cities_List/nat_huntsville.png,,,,,,,,,,,,,,,,,,,,,,,,,,,,
null,,rt_plussign_withcolor,646650,green,,,,,null,US_Cities_List/mm_westpalmbeach.png,US_Cities_List/nat_huntsville.png,,,,,,,,,,,,,,,,,,,,,,,,,,,,
840.8999999761581,,rt_thecrossant_black,648161,black_plus_sign,,,,,50,,,1,0.9864864864864865,,,,,,,,,,,,,,,,,,,,,,,,,,
null,,color_black,648264,black_plus_sign,,,,,null,,,,,,,,,,,,,,,,,,,,,,,,,,,,,,
null,,learn_phase(without_color),650824,black_plus_sign,,,,,null,US_Cities_List/nat_shreveport.png,US_Cities_List/nat_cornwall.png,,,,,,,,,,,,,,,,,,,,,,,,,,,,
null,,black_cross(without_color),651453,green,,,,,null,US_Cities_List/nat_shreveport.png,US_Cities_List/nat_cornwall.png,,,,,,,,,,,,,,,,,,,,,,,,,,,,
null,,rt_plussign_withcolor,651955,green,,,,,null,US_Cities_List/nat_shreveport.png,US_Cities_List/nat_cornwall.png,,,,,,,,,,,,,,,,,,,,,,,,,,,,
942.9000000953674,,rt_thecrossant_black,653331,black_plus_sign,,,,,50,,,1,0.9866666666666667,,,,,,,,,,,,,,,,,,,,,,,,,,
null,,color_black,653441,black_plus_sign,,,,,null,,,,,,,,,,,,,,,,,,,,,,,,,,,,,,
null,,learn_phase(without_color),655990,black_plus_sign,,,,,null,US_Cities_List/nat_racine.png,US_Cities_List/mm_peoria.png,,,,,,,,,,,,,,,,,,,,,,,,,,,,
null,,black_cross(without_color),656824,green,,,,,null,US_Cities_List/nat_racine.png,US_Cities_List/mm_peoria.png,,,,,,,,,,,,,,,,,,,,,,,,,,,,
467,,rt_plussign_withcolor,657326,green,,,,,50,US_Cities_List/nat_racine.png,US_Cities_List/mm_peoria.png,,,,,,,,,,,,,,,,,,,,,,,,,,,,
null,,rt_thecrossant_black,658497,black_plus_sign,,,,,null,,,1,0.9868421052631579,,,,,,,,,,,,,,,,,,,,,,,,,,
null,,color_black,658600,black_plus_sign,,,,,null,,,,,,,,,,,,,,,,,,,,,,,,,,,,,,
null,,learn_phase(without_color),661168,black_plus_sign,,,,,null,US_Cities_List/mm_leesburg.png,US_Cities_List/nat_gatlinburg.png,,,,,,,,,,,,,,,,,,,,,,,,,,,,
null,,black_cross(without_color),662234,green,,,,,null,US_Cities_List/mm_leesburg.png,US_Cities_List/nat_gatlinburg.png,,,,,,,,,,,,,,,,,,,,,,,,,,,,
null,,rt_plussign_withcolor,662738,green,,,,,null,US_Cities_List/mm_leesburg.png,US_Cities_List/nat_gatlinburg.png,,,,,,,,,,,,,,,,,,,,,,,,,,,,
1038.1999999284744,,rt_thecrossant_black,663677,black_plus_sign,,,,,50,,,1,0.987012987012987,,,,,,,,,,,,,,,,,,,,,,,,,,
null,,color_black,663779,black_plus_sign,,,,,null,,,,,,,,,,,,,,,,,,,,,,,,,,,,,,
null,,learn_phase(without_color),666331,black_plus_sign,,,,,null,US_Cities_List/nat_boulder.png,US_Cities_List/nat_newhope.png,,,,,,,,,,,,,,,,,,,,,,,,,,,,
null,,black_cross(without_color),667027,green,,,,,null,US_Cities_List/nat_boulder.png,US_Cities_List/nat_newhope.png,,,,,,,,,,,,,,,,,,,,,,,,,,,,
488.89999997615814,,rt_plussign_withcolor,667529,green,,,,,50,US_Cities_List/nat_boulder.png,US_Cities_List/nat_newhope.png,,,,,,,,,,,,,,,,,,,,,,,,,,,,
null,,rt_thecrossant_black,668838,black_plus_sign,,,,,null,,,1,0.9871794871794872,,,,,,,,,,,,,,,,,,,,,,,,,,
null,,color_black,668941,black_plus_sign,,,,,null,,,,,,,,,,,,,,,,,,,,,,,,,,,,,,
null,,learn_phase(without_color),671497,black_plus_sign,,,,,null,US_Cities_List/nat_newhope.png,US_Cities_List/mm_hotsprings.png,,,,,,,,,,,,,,,,,,,,,,,,,,,,
null,,black_cross(without_color),672255,green,,,,,null,US_Cities_List/nat_newhope.png,US_Cities_List/mm_hotsprings.png,,,,,,,,,,,,,,,,,,,,,,,,,,,,
null,,rt_plussign_withcolor,672758,green,,,,,null,US_Cities_List/nat_newhope.png,US_Cities_List/mm_hotsprings.png,,,,,,,,,,,,,,,,,,,,,,,,,,,,
944.3999999761581,,rt_thecrossant_black,674005,black_plus_sign,,,,,50,,,1,0.9873417721518988,,,,,,,,,,,,,,,,,,,,,,,,,,
null,,color_black,674108,black_plus_sign,,,,,null,,,,,,,,,,,,,,,,,,,,,,,,,,,,,,
null,,learn_phase(without_color),676654,black_plus_sign,,,,,null,US_Cities_List/nat_shreveport.png,US_Cities_List/nat_racine.png,,,,,,,,,,,,,,,,,,,,,,,,,,,,
null,,black_cross(without_color),677714,green,,,,,null,US_Cities_List/nat_shreveport.png,US_Cities_List/nat_racine.png,,,,,,,,,,,,,,,,,,,,,,,,,,,,
null,,rt_plussign_withcolor,678216,green,,,,,null,US_Cities_List/nat_shreveport.png,US_Cities_List/nat_racine.png,,,,,,,,,,,,,,,,,,,,,,,,,,,,
1079.5,,rt_thecrossant_black,679161,black_plus_sign,,,,,50,,,1,0.9875,,,,,,,,,,,,,,,,,,,,,,,,,,
null,,color_black,679264,black_plus_sign,,,,,null,,,,,,,,,,,,,,,,,,,,,,,,,,,,,,
null,,learn_phase(without_color),681811,black_plus_sign,,,,,null,US_Cities_List/mm_leesburg.png,US_Cities_List/mm_hanover.png,,,,,,,,,,,,,,,,,,,,,,,,,,,,
null,,black_cross(without_color),682724,blue,,,,,null,US_Cities_List/mm_leesburg.png,US_Cities_List/mm_hanover.png,,,,,,,,,,,,,,,,,,,,,,,,,,,,
498.10000002384186,,rt_plussign_withcolor,683225,blue,,,,,49,US_Cities_List/mm_leesburg.png,US_Cities_List/mm_hanover.png,,,,,,,,,,,,,,,,,,,,,,,,,,,,
null,,rt_thecrossant_black,684318,black_plus_sign,,,,,null,,,1,0.9876543209876543,,,,,,,,,,,,,,,,,,,,,,,,,,
null,,color_black,684421,black_plus_sign,,,,,null,,,,,,,,,,,,,,,,,,,,,,,,,,,,,,
null,,learn_phase(without_color),686975,black_plus_sign,,,,,null,US_Cities_List/nat_newhope.png,US_Cities_List/mm_hotsprings.png,,,,,,,,,,,,,,,,,,,,,,,,,,,,
null,,black_cross(without_color),687831,green,,,,,null,US_Cities_List/nat_newhope.png,US_Cities_List/mm_hotsprings.png,,,,,,,,,,,,,,,,,,,,,,,,,,,,
null,,rt_plussign_withcolor,688333,green,,,,,null,US_Cities_List/nat_newhope.png,US_Cities_List/mm_hotsprings.png,,,,,,,,,,,,,,,,,,,,,,,,,,,,
1092.8000000715256,,rt_thecrossant_black,689482,black_plus_sign,,,,,50,,,1,0.9878048780487805,,,,,,,,,,,,,,,,,,,,,,,,,,
null,,color_black,689584,black_plus_sign,,,,,null,,,,,,,,,,,,,,,,,,,,,,,,,,,,,,
null,,learn_phase(without_color),692133,black_plus_sign,,,,,null,US_Cities_List/nat_newhope.png,US_Cities_List/mm_peoria.png,,,,,,,,,,,,,,,,,,,,,,,,,,,,
null,,black_cross(without_color),692875,blue,,,,,null,US_Cities_List/nat_newhope.png,US_Cities_List/mm_peoria.png,,,,,,,,,,,,,,,,,,,,,,,,,,,,
null,,rt_plussign_withcolor,693377,blue,,,,,null,US_Cities_List/nat_newhope.png,US_Cities_List/mm_peoria.png,,,,,,,,,,,,,,,,,,,,,,,,,,,,
1185.5,,rt_thecrossant_black,694641,black_plus_sign,,,,,49,,,1,0.9879518072289156,,,,,,,,,,,,,,,,,,,,,,,,,,
null,,color_black,694745,black_plus_sign,,,,,null,,,,,,,,,,,,,,,,,,,,,,,,,,,,,,
null,,learn_phase(without_color),697301,black_plus_sign,,,,,null,US_Cities_List/mm_hotsprings.png,US_Cities_List/nat_shreveport.png,,,,,,,,,,,,,,,,,,,,,,,,,,,,
null,,black_cross(without_color),697762,green,,,,,null,US_Cities_List/mm_hotsprings.png,US_Cities_List/nat_shreveport.png,,,,,,,,,,,,,,,,,,,,,,,,,,,,
null,,rt_plussign_withcolor,698264,green,,,,,null,US_Cities_List/mm_hotsprings.png,US_Cities_List/nat_shreveport.png,,,,,,,,,,,,,,,,,,,,,,,,,,,,
888.3000000715256,,rt_thecrossant_black,699817,black_plus_sign,,,,,50,,,1,0.9880952380952381,,,,,,,,,,,,,,,,,,,,,,,,,,
null,,color_black,699920,black_plus_sign,,,,,null,,,,,,,,,,,,,,,,,,,,,,,,,,,,,,
null,,learn_phase(without_color),702483,black_plus_sign,,,,,null,US_Cities_List/nat_boulder.png,US_Cities_List/mm_leesburg.png,,,,,,,,,,,,,,,,,,,,,,,,,,,,
null,,black_cross(without_color),702930,blue,,,,,null,US_Cities_List/nat_boulder.png,US_Cities_List/mm_leesburg.png,,,,,,,,,,,,,,,,,,,,,,,,,,,,
null,,rt_plussign_withcolor,703432,blue,,,,,null,US_Cities_List/nat_boulder.png,US_Cities_List/mm_leesburg.png,,,,,,,,,,,,,,,,,,,,,,,,,,,,
639,,rt_thecrossant_black,704991,black_plus_sign,,,,,49,,,1,0.9882352941176471,,,,,,,,,,,,,,,,,,,,,,,,,,
null,,color_black,705093,black_plus_sign,,,,,null,,,,,,,,,,,,,,,,,,,,,,,,,,,,,,
null,,learn_phase(without_color),707647,black_plus_sign,,,,,null,US_Cities_List/nat_carmel.png,US_Cities_List/nat_boulder.png,,,,,,,,,,,,,,,,,,,,,,,,,,,,
null,,black_cross(without_color),708420,blue,,,,,null,US_Cities_List/nat_carmel.png,US_Cities_List/nat_boulder.png,,,,,,,,,,,,,,,,,,,,,,,,,,,,
null,,rt_plussign_withcolor,708922,blue,,,,,null,US_Cities_List/nat_carmel.png,US_Cities_List/nat_boulder.png,,,,,,,,,,,,,,,,,,,,,,,,,,,,
746.8999999761581,,rt_thecrossant_black,710158,black_plus_sign,,,,,49,,,1,0.9883720930232558,,,,,,,,,,,,,,,,,,,,,,,,,,
null,,color_black,710261,black_plus_sign,,,,,null,,,,,,,,,,,,,,,,,,,,,,,,,,,,,,
null,,learn_phase(without_color),712809,black_plus_sign,,,,,null,US_Cities_List/nat_boulder.png,US_Cities_List/mm_leesburg.png,,,,,,,,,,,,,,,,,,,,,,,,,,,,
null,,black_cross(without_color),713523,green,,,,,null,US_Cities_List/nat_boulder.png,US_Cities_List/mm_leesburg.png,,,,,,,,,,,,,,,,,,,,,,,,,,,,
null,,rt_plussign_withcolor,714025,green,,,,,null,US_Cities_List/nat_boulder.png,US_Cities_List/mm_leesburg.png,,,,,,,,,,,,,,,,,,,,,,,,,,,,
1050.1999999284744,,rt_thecrossant_black,715317,black_plus_sign,,,,,50,,,1,0.9885057471264368,,,,,,,,,,,,,,,,,,,,,,,,,,
null,,color_black,715420,black_plus_sign,,,,,null,,,,,,,,,,,,,,,,,,,,,,,,,,,,,,
null,,learn_phase(without_color),717975,black_plus_sign,,,,,null,US_Cities_List/nat_shreveport.png,US_Cities_List/nat_cornwall.png,,,,,,,,,,,,,,,,,,,,,,,,,,,,
null,,black_cross(without_color),718904,blue,,,,,null,US_Cities_List/nat_shreveport.png,US_Cities_List/nat_cornwall.png,,,,,,,,,,,,,,,,,,,,,,,,,,,,
429.2999999523163,,rt_plussign_withcolor,719407,blue,,,,,49,US_Cities_List/nat_shreveport.png,US_Cities_List/nat_cornwall.png,,,,,,,,,,,,,,,,,,,,,,,,,,,,
null,,rt_thecrossant_black,720483,black_plus_sign,,,,,null,,,1,0.9886363636363636,,,,,,,,,,,,,,,,,,,,,,,,,,
null,,color_black,720599,black_plus_sign,,,,,null,,,,,,,,,,,,,,,,,,,,,,,,,,,,,,
null,,learn_phase(without_color),723123,black_plus_sign,,,,,null,US_Cities_List/nat_boulder.png,US_Cities_List/mm_leesburg.png,,,,,,,,,,,,,,,,,,,,,,,,,,,,
null,,black_cross(without_color),723677,blue,,,,,null,US_Cities_List/nat_boulder.png,US_Cities_List/mm_leesburg.png,,,,,,,,,,,,,,,,,,,,,,,,,,,,
null,,rt_plussign_withcolor,724181,blue,,,,,null,US_Cities_List/nat_boulder.png,US_Cities_List/mm_leesburg.png,,,,,,,,,,,,,,,,,,,,,,,,,,,,
1069.1000000238419,,rt_thecrossant_black,725634,black_plus_sign,,,,,49,,,1,0.9887640449438202,,,,,,,,,,,,,,,,,,,,,,,,,,
null,,color_black,725737,black_plus_sign,,,,,null,,,,,,,,,,,,,,,,,,,,,,,,,,,,,,
null,,learn_phase(without_color),728287,black_plus_sign,,,,,null,US_Cities_List/mm_leesburg.png,US_Cities_List/nat_gatlinburg.png,,,,,,,,,,,,,,,,,,,,,,,,,,,,
null,,black_cross(without_color),729197,green,,,,,null,US_Cities_List/mm_leesburg.png,US_Cities_List/nat_gatlinburg.png,,,,,,,,,,,,,,,,,,,,,,,,,,,,
370.39999997615814,,rt_plussign_withcolor,729699,green,,,,,50,US_Cities_List/mm_leesburg.png,US_Cities_List/nat_gatlinburg.png,,,,,,,,,,,,,,,,,,,,,,,,,,,,
null,,rt_thecrossant_black,730795,black_plus_sign,,,,,null,,,1,0.9888888888888889,,,,,,,,,,,,,,,,,,,,,,,,,,
null,,color_black,730898,black_plus_sign,,,,,null,,,,,,,,,,,,,,,,,,,,,,,,,,,,,,
null,,learn_phase(without_color),733453,black_plus_sign,,,,,null,US_Cities_List/nat_racine.png,US_Cities_List/mm_peoria.png,,,,,,,,,,,,,,,,,,,,,,,,,,,,
null,,black_cross(without_color),734279,green,,,,,null,US_Cities_List/nat_racine.png,US_Cities_List/mm_peoria.png,,,,,,,,,,,,,,,,,,,,,,,,,,,,
402,,rt_plussign_withcolor,734781,green,,,,,50,US_Cities_List/nat_racine.png,US_Cities_List/mm_peoria.png,,,,,,,,,,,,,,,,,,,,,,,,,,,,
null,,rt_thecrossant_black,735961,black_plus_sign,,,,,null,,,1,0.989010989010989,,,,,,,,,,,,,,,,,,,,,,,,,,
null,,color_black,736063,black_plus_sign,,,,,null,,,,,,,,,,,,,,,,,,,,,,,,,,,,,,
null,,learn_phase(without_color),738621,black_plus_sign,,,,,null,US_Cities_List/mm_leesburg.png,US_Cities_List/mm_hanover.png,,,,,,,,,,,,,,,,,,,,,,,,,,,,
null,,black_cross(without_color),739686,blue,,,,,null,US_Cities_List/mm_leesburg.png,US_Cities_List/mm_hanover.png,,,,,,,,,,,,,,,,,,,,,,,,,,,,
null,,rt_plussign_withcolor,740188,blue,,,,,null,US_Cities_List/mm_leesburg.png,US_Cities_List/mm_hanover.png,,,,,,,,,,,,,,,,,,,,,,,,,,,,
1041.5,,rt_thecrossant_black,741128,black_plus_sign,,,,,49,,,1,0.9891304347826086,,,,,,,,,,,,,,,,,,,,,,,,,,
null,,color_black,741232,black_plus_sign,,,,,null,,,,,,,,,,,,,,,,,,,,,,,,,,,,,,
null,,learn_phase(without_color),743782,black_plus_sign,,,,,null,US_Cities_List/mm_hotsprings.png,US_Cities_List/nat_racine.png,,,,,,,,,,,,,,,,,,,,,,,,,,,,
null,,black_cross(without_color),744780,green,,,,,null,US_Cities_List/mm_hotsprings.png,US_Cities_List/nat_racine.png,,,,,,,,,,,,,,,,,,,,,,,,,,,,
null,,rt_plussign_withcolor,745282,green,,,,,null,US_Cities_List/mm_hotsprings.png,US_Cities_List/nat_racine.png,,,,,,,,,,,,,,,,,,,,,,,,,,,,
1267.2000000476837,,rt_thecrossant_black,746290,black_plus_sign,,,,,50,,,1,0.989247311827957,,,,,,,,,,,,,,,,,,,,,,,,,,
null,,color_black,746393,black_plus_sign,,,,,null,,,,,,,,,,,,,,,,,,,,,,,,,,,,,,
null,,learn_phase(without_color),748921,black_plus_sign,,,,,null,US_Cities_List/nat_newhope.png,US_Cities_List/mm_hotsprings.png,,,,,,,,,,,,,,,,,,,,,,,,,,,,
null,,black_cross(without_color),749813,blue,,,,,null,US_Cities_List/nat_newhope.png,US_Cities_List/mm_hotsprings.png,,,,,,,,,,,,,,,,,,,,,,,,,,,,
null,,rt_plussign_withcolor,750315,blue,,,,,null,US_Cities_List/nat_newhope.png,US_Cities_List/mm_hotsprings.png,,,,,,,,,,,,,,,,,,,,,,,,,,,,
1120.1999999284744,,rt_thecrossant_black,751429,black_plus_sign,,,,,49,,,1,0.9893617021276596,,,,,,,,,,,,,,,,,,,,,,,,,,
null,,color_black,751533,black_plus_sign,,,,,null,,,,,,,,,,,,,,,,,,,,,,,,,,,,,,
null,,learn_phase(without_color),754081,black_plus_sign,,,,,null,US_Cities_List/nat_carmel.png,US_Cities_List/nat_boulder.png,,,,,,,,,,,,,,,,,,,,,,,,,,,,
null,,black_cross(without_color),755109,blue,,,,,null,US_Cities_List/nat_carmel.png,US_Cities_List/nat_boulder.png,,,,,,,,,,,,,,,,,,,,,,,,,,,,
null,,rt_plussign_withcolor,755611,blue,,,,,null,US_Cities_List/nat_carmel.png,US_Cities_List/nat_boulder.png,,,,,,,,,,,,,,,,,,,,,,,,,,,,
998.7000000476837,,rt_thecrossant_black,756589,black_plus_sign,,,,,49,,,1,0.9894736842105263,,,,,,,,,,,,,,,,,,,,,,,,,,
null,,color_black,756691,black_plus_sign,,,,,null,,,,,,,,,,,,,,,,,,,,,,,,,,,,,,
null,,learn_phase(without_color),759254,black_plus_sign,,,,,null,US_Cities_List/mm_leesburg.png,US_Cities_List/nat_gatlinburg.png,,,,,,,,,,,,,,,,,,,,,,,,,,,,
null,,black_cross(without_color),760280,green,,,,,null,US_Cities_List/mm_leesburg.png,US_Cities_List/nat_gatlinburg.png,,,,,,,,,,,,,,,,,,,,,,,,,,,,
358.10000002384186,,rt_plussign_withcolor,760786,green,,,,,50,US_Cities_List/mm_leesburg.png,US_Cities_List/nat_gatlinburg.png,,,,,,,,,,,,,,,,,,,,,,,,,,,,
null,,rt_thecrossant_black,761766,black_plus_sign,,,,,null,,,1,0.9895833333333334,,,,,,,,,,,,,,,,,,,,,,,,,,
null,,color_black,761869,black_plus_sign,,,,,null,,,,,,,,,,,,,,,,,,,,,,,,,,,,,,
null,,learn_phase(without_color),764431,black_plus_sign,,,,,null,US_Cities_List/nat_shreveport.png,US_Cities_List/nat_racine.png,,,,,,,,,,,,,,,,,,,,,,,,,,,,
null,,black_cross(without_color),764850,blue,,,,,null,US_Cities_List/nat_shreveport.png,US_Cities_List/nat_racine.png,,,,,,,,,,,,,,,,,,,,,,,,,,,,
null,,rt_plussign_withcolor,765352,blue,,,,,null,US_Cities_List/nat_shreveport.png,US_Cities_List/nat_racine.png,,,,,,,,,,,,,,,,,,,,,,,,,,,,
1422.6999999284744,,rt_thecrossant_black,766938,black_plus_sign,,,,,49,,,1,0.9896907216494846,,,,,,,,,,,,,,,,,,,,,,,,,,
null,,color_black,767040,black_plus_sign,,,,,null,,,,,,,,,,,,,,,,,,,,,,,,,,,,,,
null,,learn_phase(without_color),769592,black_plus_sign,,,,,null,US_Cities_List/nat_racine.png,US_Cities_List/mm_peoria.png,,,,,,,,,,,,,,,,,,,,,,,,,,,,
null,,black_cross(without_color),770199,blue,,,,,null,US_Cities_List/nat_racine.png,US_Cities_List/mm_peoria.png,,,,,,,,,,,,,,,,,,,,,,,,,,,,
null,,rt_plussign_withcolor,770701,blue,,,,,null,US_Cities_List/nat_racine.png,US_Cities_List/mm_peoria.png,,,,,,,,,,,,,,,,,,,,,,,,,,,,
652.6000000238419,,rt_thecrossant_black,772099,black_plus_sign,,,,,49,,,1,0.9897959183673469,,,,,,,,,,,,,,,,,,,,,,,,,,
null,,color_black,772202,black_plus_sign,,,,,null,,,,,,,,,,,,,,,,,,,,,,,,,,,,,,
null,,learn_phase(without_color),774770,black_plus_sign,,,,,null,US_Cities_List/mm_hotsprings.png,US_Cities_List/nat_racine.png,,,,,,,,,,,,,,,,,,,,,,,,,,,,
null,,black_cross(without_color),775612,green,,,,,null,US_Cities_List/mm_hotsprings.png,US_Cities_List/nat_racine.png,,,,,,,,,,,,,,,,,,,,,,,,,,,,
null,,rt_plussign_withcolor,776114,green,,,,,null,US_Cities_List/mm_hotsprings.png,US_Cities_List/nat_racine.png,,,,,,,,,,,,,,,,,,,,,,,,,,,,
837.1000000238419,,rt_thecrossant_black,777279,black_plus_sign,,,,,50,,,1,0.98989898989899,,,,,,,,,,,,,,,,,,,,,,,,,,
null,,color_black,777381,black_plus_sign,,,,,null,,,,,,,,,,,,,,,,,,,,,,,,,,,,,,
null,,learn_phase(without_color),779930,black_plus_sign,,,,,null,US_Cities_List/nat_shreveport.png,US_Cities_List/nat_racine.png,,,,,,,,,,,,,,,,,,,,,,,,,,,,
null,,black_cross(without_color),780504,blue,,,,,null,US_Cities_List/nat_shreveport.png,US_Cities_List/nat_racine.png,,,,,,,,,,,,,,,,,,,,,,,,,,,,
null,,rt_plussign_withcolor,781008,blue,,,,,null,US_Cities_List/nat_shreveport.png,US_Cities_List/nat_racine.png,,,,,,,,,,,,,,,,,,,,,,,,,,,,
1040.3999999761581,,rt_thecrossant_black,782440,black_plus_sign,,,,,49,,,1,0.99,,,,,,,,,,,,,,,,,,,,,,,,,,
null,,color_black,782542,black_plus_sign,,,,,null,,,,,,,,,,,,,,,,,,,,,,,,,,,,,,
null,,learn_phase(without_color),785086,black_plus_sign,,,,,null,US_Cities_List/nat_shreveport.png,US_Cities_List/nat_cornwall.png,,,,,,,,,,,,,,,,,,,,,,,,,,,,
null,,black_cross(without_color),785544,blue,,,,,null,US_Cities_List/nat_shreveport.png,US_Cities_List/nat_cornwall.png,,,,,,,,,,,,,,,,,,,,,,,,,,,,
null,,rt_plussign_withcolor,786047,blue,,,,,null,US_Cities_List/nat_shreveport.png,US_Cities_List/nat_cornwall.png,,,,,,,,,,,,,,,,,,,,,,,,,,,,
719.6999999284744,,rt_thecrossant_black,787595,black_plus_sign,,,,,49,,,1,0.9900990099009901,,,,,,,,,,,,,,,,,,,,,,,,,,
null,,color_black,787698,black_plus_sign,,,,,null,,,,,,,,,,,,,,,,,,,,,,,,,,,,,,
null,,learn_phase(without_color),790248,black_plus_sign,,,,,null,US_Cities_List/nat_newhope.png,US_Cities_List/mm_hotsprings.png,,,,,,,,,,,,,,,,,,,,,,,,,,,,
null,,black_cross(without_color),790669,green,,,,,null,US_Cities_List/nat_newhope.png,US_Cities_List/mm_hotsprings.png,,,,,,,,,,,,,,,,,,,,,,,,,,,,
null,,rt_plussign_withcolor,791171,green,,,,,null,US_Cities_List/nat_newhope.png,US_Cities_List/mm_hotsprings.png,,,,,,,,,,,,,,,,,,,,,,,,,,,,
720.2999999523163,,rt_thecrossant_black,792755,black_plus_sign,,,,,50,,,1,0.9901960784313726,,,,,,,,,,,,,,,,,,,,,,,,,,
null,,color_black,792858,black_plus_sign,,,,,null,,,,,,,,,,,,,,,,,,,,,,,,,,,,,,
null,,learn_phase(without_color),795410,black_plus_sign,,,,,null,US_Cities_List/nat_shreveport.png,US_Cities_List/mm_westpalmbeach.png,,,,,,,,,,,,,,,,,,,,,,,,,,,,
null,,black_cross(without_color),796497,blue,,,,,null,US_Cities_List/nat_shreveport.png,US_Cities_List/mm_westpalmbeach.png,,,,,,,,,,,,,,,,,,,,,,,,,,,,
481,,rt_plussign_withcolor,796999,blue,,,,,49,US_Cities_List/nat_shreveport.png,US_Cities_List/mm_westpalmbeach.png,,,,,,,,,,,,,,,,,,,,,,,,,,,,
null,,rt_thecrossant_black,797918,black_plus_sign,,,,,null,,,1,0.9902912621359223,,,,,,,,,,,,,,,,,,,,,,,,,,
null,,color_black,798020,black_plus_sign,,,,,null,,,,,,,,,,,,,,,,,,,,,,,,,,,,,,
null,,learn_phase(without_color),800585,black_plus_sign,,,,,null,US_Cities_List/nat_shreveport.png,US_Cities_List/nat_racine.png,,,,,,,,,,,,,,,,,,,,,,,,,,,,
null,,black_cross(without_color),801505,green,,,,,null,US_Cities_List/nat_shreveport.png,US_Cities_List/nat_racine.png,,,,,,,,,,,,,,,,,,,,,,,,,,,,
null,,rt_plussign_withcolor,802007,green,,,,,null,US_Cities_List/nat_shreveport.png,US_Cities_List/nat_racine.png,,,,,,,,,,,,,,,,,,,,,,,,,,,,
1221,,rt_thecrossant_black,803093,black_plus_sign,,,,,50,,,1,0.9903846153846154,,,,,,,,,,,,,,,,,,,,,,,,,,
null,,color_black,803197,black_plus_sign,,,,,null,,,,,,,,,,,,,,,,,,,,,,,,,,,,,,
null,,learn_phase(without_color),805752,black_plus_sign,,,,,null,US_Cities_List/mm_hotsprings.png,US_Cities_List/nat_racine.png,,,,,,,,,,,,,,,,,,,,,,,,,,,,
null,,black_cross(without_color),806188,blue,,,,,null,US_Cities_List/mm_hotsprings.png,US_Cities_List/nat_racine.png,,,,,,,,,,,,,,,,,,,,,,,,,,,,
null,,rt_plussign_withcolor,806690,blue,,,,,null,US_Cities_List/mm_hotsprings.png,US_Cities_List/nat_racine.png,,,,,,,,,,,,,,,,,,,,,,,,,,,,
1098.9000000953674,,rt_thecrossant_black,808260,black_plus_sign,,,,,49,,,1,0.9904761904761905,,,,,,,,,,,,,,,,,,,,,,,,,,
null,,color_black,808363,black_plus_sign,,,,,null,,,,,,,,,,,,,,,,,,,,,,,,,,,,,,
null,,learn_phase(without_color),810931,black_plus_sign,,,,,null,US_Cities_List/nat_racine.png,US_Cities_List/mm_peoria.png,,,,,,,,,,,,,,,,,,,,,,,,,,,,
null,,black_cross(without_color),811488,blue,,,,,null,US_Cities_List/nat_racine.png,US_Cities_List/mm_peoria.png,,,,,,,,,,,,,,,,,,,,,,,,,,,,
null,,rt_plussign_withcolor,811991,blue,,,,,null,US_Cities_List/nat_racine.png,US_Cities_List/mm_peoria.png,,,,,,,,,,,,,,,,,,,,,,,,,,,,
709.3000000715256,,rt_thecrossant_black,813439,black_plus_sign,,,,,49,,,1,0.9905660377358491,,,,,,,,,,,,,,,,,,,,,,,,,,
null,,color_black,813542,black_plus_sign,,,,,null,,,,,,,,,,,,,,,,,,,,,,,,,,,,,,
null,,learn_phase(without_color),816098,black_plus_sign,,,,,null,US_Cities_List/mm_leesburg.png,US_Cities_List/mm_hanover.png,,,,,,,,,,,,,,,,,,,,,,,,,,,,
null,,black_cross(without_color),816985,blue,,,,,null,US_Cities_List/mm_leesburg.png,US_Cities_List/mm_hanover.png,,,,,,,,,,,,,,,,,,,,,,,,,,,,
497.10000002384186,,rt_plussign_withcolor,817487,blue,,,,,49,US_Cities_List/mm_leesburg.png,US_Cities_List/mm_hanover.png,,,,,,,,,,,,,,,,,,,,,,,,,,,,
null,,rt_thecrossant_black,818605,black_plus_sign,,,,,null,,,1,0.9906542056074766,,,,,,,,,,,,,,,,,,,,,,,,,,
null,,color_black,818708,black_plus_sign,,,,,null,,,,,,,,,,,,,,,,,,,,,,,,,,,,,,
null,,learn_phase(without_color),821287,black_plus_sign,,,,,null,US_Cities_List/nat_shreveport.png,US_Cities_List/mm_westpalmbeach.png,,,,,,,,,,,,,,,,,,,,,,,,,,,,
null,,black_cross(without_color),822262,blue,,,,,null,US_Cities_List/nat_shreveport.png,US_Cities_List/mm_westpalmbeach.png,,,,,,,,,,,,,,,,,,,,,,,,,,,,
469.6999999284744,,rt_plussign_withcolor,822764,blue,,,,,49,US_Cities_List/nat_shreveport.png,US_Cities_List/mm_westpalmbeach.png,,,,,,,,,,,,,,,,,,,,,,,,,,,,
null,,rt_thecrossant_black,823795,black_plus_sign,,,,,null,,,1,0.9907407407407407,,,,,,,,,,,,,,,,,,,,,,,,,,
null,,color_black,823897,black_plus_sign,,,,,null,,,,,,,,,,,,,,,,,,,,,,,,,,,,,,
null,,learn_phase(without_color),826468,black_plus_sign,,,,,null,US_Cities_List/mm_leesburg.png,US_Cities_List/nat_gatlinburg.png,,,,,,,,,,,,,,,,,,,,,,,,,,,,
null,,black_cross(without_color),827512,blue,,,,,null,US_Cities_List/mm_leesburg.png,US_Cities_List/nat_gatlinburg.png,,,,,,,,,,,,,,,,,,,,,,,,,,,,
500,,rt_plussign_withcolor,828015,blue,,,,,49,US_Cities_List/mm_leesburg.png,US_Cities_List/nat_gatlinburg.png,,,,,,,,,,,,,,,,,,,,,,,,,,,,
null,,rt_thecrossant_black,828976,black_plus_sign,,,,,null,,,1,0.9908256880733946,,,,,,,,,,,,,,,,,,,,,,,,,,
null,,color_black,829078,black_plus_sign,,,,,null,,,,,,,,,,,,,,,,,,,,,,,,,,,,,,
null,,learn_phase(without_color),831637,black_plus_sign,,,,,null,US_Cities_List/nat_shreveport.png,US_Cities_List/mm_westpalmbeach.png,,,,,,,,,,,,,,,,,,,,,,,,,,,,
null,,black_cross(without_color),832308,green,,,,,null,US_Cities_List/nat_shreveport.png,US_Cities_List/mm_westpalmbeach.png,,,,,,,,,,,,,,,,,,,,,,,,,,,,
null,,rt_plussign_withcolor,832809,green,,,,,null,US_Cities_List/nat_shreveport.png,US_Cities_List/mm_westpalmbeach.png,,,,,,,,,,,,,,,,,,,,,,,,,,,,
1218.1999999284744,,rt_thecrossant_black,834144,black_plus_sign,,,,,50,,,1,0.990909090909091,,,,,,,,,,,,,,,,,,,,,,,,,,
null,,color_black,834247,black_plus_sign,,,,,null,,,,,,,,,,,,,,,,,,,,,,,,,,,,,,
null,,learn_phase(without_color),836794,black_plus_sign,,,,,null,US_Cities_List/nat_boulder.png,US_Cities_List/mm_leesburg.png,,,,,,,,,,,,,,,,,,,,,,,,,,,,
null,,black_cross(without_color),837792,blue,,,,,null,US_Cities_List/nat_boulder.png,US_Cities_List/mm_leesburg.png,,,,,,,,,,,,,,,,,,,,,,,,,,,,
471.7999999523163,,rt_plussign_withcolor,838293,blue,,,,,49,US_Cities_List/nat_boulder.png,US_Cities_List/mm_leesburg.png,,,,,,,,,,,,,,,,,,,,,,,,,,,,
null,,rt_thecrossant_black,839300,black_plus_sign,,,,,null,,,1,0.990990990990991,,,,,,,,,,,,,,,,,,,,,,,,,,
null,,color_black,839403,black_plus_sign,,,,,null,,,,,,,,,,,,,,,,,,,,,,,,,,,,,,
null,,learn_phase(without_color),841974,black_plus_sign,,,,,null,US_Cities_List/nat_shreveport.png,US_Cities_List/nat_racine.png,,,,,,,,,,,,,,,,,,,,,,,,,,,,
null,,black_cross(without_color),843032,green,,,,,null,US_Cities_List/nat_shreveport.png,US_Cities_List/nat_racine.png,,,,,,,,,,,,,,,,,,,,,,,,,,,,
null,,rt_plussign_withcolor,843534,green,,,,,null,US_Cities_List/nat_shreveport.png,US_Cities_List/nat_racine.png,,,,,,,,,,,,,,,,,,,,,,,,,,,,
1123.1000000238419,,rt_thecrossant_black,844481,black_plus_sign,,,,,50,,,1,0.9910714285714286,,,,,,,,,,,,,,,,,,,,,,,,,,
null,,color_black,844583,black_plus_sign,,,,,null,,,,,,,,,,,,,,,,,,,,,,,,,,,,,,
null,,learn_phase(without_color),847144,black_plus_sign,,,,,null,US_Cities_List/mm_westpalmbeach.png,US_Cities_List/nat_huntsville.png,,,,,,,,,,,,,,,,,,,,,,,,,,,,
null,,black_cross(without_color),847636,blue,,,,,null,US_Cities_List/mm_westpalmbeach.png,US_Cities_List/nat_huntsville.png,,,,,,,,,,,,,,,,,,,,,,,,,,,,
null,,rt_plussign_withcolor,848139,blue,,,,,null,US_Cities_List/mm_westpalmbeach.png,US_Cities_List/nat_huntsville.png,,,,,,,,,,,,,,,,,,,,,,,,,,,,
1314,,rt_thecrossant_black,849653,black_plus_sign,,,,,50,,,0,0.9823008849557522,,,,,,,,,,,,,,,,,,,,,,,,,,
null,,color_black,849757,black_plus_sign,,,,,null,,,,,,,,,,,,,,,,,,,,,,,,,,,,,,
null,,learn_phase(without_color),852305,black_plus_sign,,,,,null,US_Cities_List/nat_newhope.png,US_Cities_List/mm_peoria.png,,,,,,,,,,,,,,,,,,,,,,,,,,,,
null,,black_cross(without_color),852982,green,,,,,null,US_Cities_List/nat_newhope.png,US_Cities_List/mm_peoria.png,,,,,,,,,,,,,,,,,,,,,,,,,,,,
null,,rt_plussign_withcolor,853483,green,,,,,null,US_Cities_List/nat_newhope.png,US_Cities_List/mm_peoria.png,,,,,,,,,,,,,,,,,,,,,,,,,,,,
725.6999999284744,,rt_thecrossant_black,854812,black_plus_sign,,,,,50,,,1,0.9824561403508771,,,,,,,,,,,,,,,,,,,,,,,,,,
null,,color_black,854916,black_plus_sign,,,,,null,,,,,,,,,,,,,,,,,,,,,,,,,,,,,,
null,,learn_phase(without_color),857471,black_plus_sign,,,,,null,US_Cities_List/mm_peoria.png,US_Cities_List/nat_gatlinburg.png,,,,,,,,,,,,,,,,,,,,,,,,,,,,
null,,black_cross(without_color),858061,blue,,,,,null,US_Cities_List/mm_peoria.png,US_Cities_List/nat_gatlinburg.png,,,,,,,,,,,,,,,,,,,,,,,,,,,,
null,,rt_plussign_withcolor,858563,blue,,,,,null,US_Cities_List/mm_peoria.png,US_Cities_List/nat_gatlinburg.png,,,,,,,,,,,,,,,,,,,,,,,,,,,,
895.1000000238419,,rt_thecrossant_black,859979,black_plus_sign,,,,,49,,,1,0.9826086956521739,,,,,,,,,,,,,,,,,,,,,,,,,,
null,,color_black,860082,black_plus_sign,,,,,null,,,,,,,,,,,,,,,,,,,,,,,,,,,,,,
null,,learn_phase(without_color),862632,black_plus_sign,,,,,null,US_Cities_List/nat_boulder.png,US_Cities_List/nat_newhope.png,,,,,,,,,,,,,,,,,,,,,,,,,,,,
null,,black_cross(without_color),863631,blue,,,,,null,US_Cities_List/nat_boulder.png,US_Cities_List/nat_newhope.png,,,,,,,,,,,,,,,,,,,,,,,,,,,,
null,,rt_plussign_withcolor,864133,blue,,,,,null,US_Cities_List/nat_boulder.png,US_Cities_List/nat_newhope.png,,,,,,,,,,,,,,,,,,,,,,,,,,,,
688.5999999046326,,rt_thecrossant_black,865140,black_plus_sign,,,,,49,,,1,0.9827586206896551,,,,,,,,,,,,,,,,,,,,,,,,,,
null,,color_black,865244,black_plus_sign,,,,,null,,,,,,,,,,,,,,,,,,,,,,,,,,,,,,
null,,learn_phase(without_color),867794,black_plus_sign,,,,,null,US_Cities_List/nat_newhope.png,US_Cities_List/mm_peoria.png,,,,,,,,,,,,,,,,,,,,,,,,,,,,
null,,black_cross(without_color),868277,blue,,,,,null,US_Cities_List/nat_newhope.png,US_Cities_List/mm_peoria.png,,,,,,,,,,,,,,,,,,,,,,,,,,,,
null,,rt_plussign_withcolor,868780,blue,,,,,null,US_Cities_List/nat_newhope.png,US_Cities_List/mm_peoria.png,,,,,,,,,,,,,,,,,,,,,,,,,,,,
1123.2000000476837,,rt_thecrossant_black,870302,black_plus_sign,,,,,49,,,1,0.9829059829059829,,,,,,,,,,,,,,,,,,,,,,,,,,
null,,color_black,870406,black_plus_sign,,,,,null,,,,,,,,,,,,,,,,,,,,,,,,,,,,,,
null,,learn_phase(without_color),872929,black_plus_sign,,,,,null,US_Cities_List/mm_leesburg.png,US_Cities_List/mm_hanover.png,,,,,,,,,,,,,,,,,,,,,,,,,,,,
null,,black_cross(without_color),873887,green,,,,,null,US_Cities_List/mm_leesburg.png,US_Cities_List/mm_hanover.png,,,,,,,,,,,,,,,,,,,,,,,,,,,,
null,,rt_plussign_withcolor,874389,green,,,,,null,US_Cities_List/mm_leesburg.png,US_Cities_List/mm_hanover.png,,,,,,,,,,,,,,,,,,,,,,,,,,,,
673.3999999761581,,rt_thecrossant_black,875438,black_plus_sign,,,,,50,,,1,0.9830508474576272,,,,,,,,,,,,,,,,,,,,,,,,,,
null,,color_black,875541,black_plus_sign,,,,,null,,,,,,,,,,,,,,,,,,,,,,,,,,,,,,
null,,learn_phase(without_color),878096,black_plus_sign,,,,,null,US_Cities_List/mm_peoria.png,US_Cities_List/nat_gatlinburg.png,,,,,,,,,,,,,,,,,,,,,,,,,,,,
null,,black_cross(without_color),878545,green,,,,,null,US_Cities_List/mm_peoria.png,US_Cities_List/nat_gatlinburg.png,,,,,,,,,,,,,,,,,,,,,,,,,,,,
null,,rt_plussign_withcolor,879048,green,,,,,null,US_Cities_List/mm_peoria.png,US_Cities_List/nat_gatlinburg.png,,,,,,,,,,,,,,,,,,,,,,,,,,,,
1167.5,,rt_thecrossant_black,880604,black_plus_sign,,,,,50,,,1,0.9831932773109243,,,,,,,,,,,,,,,,,,,,,,,,,,
null,,color_black,880707,black_plus_sign,,,,,null,,,,,,,,,,,,,,,,,,,,,,,,,,,,,,
null,,learn_phase(without_color),883260,black_plus_sign,,,,,null,US_Cities_List/mm_hotsprings.png,US_Cities_List/nat_shreveport.png,,,,,,,,,,,,,,,,,,,,,,,,,,,,
null,,black_cross(without_color),883679,green,,,,,null,US_Cities_List/mm_hotsprings.png,US_Cities_List/nat_shreveport.png,,,,,,,,,,,,,,,,,,,,,,,,,,,,
null,,rt_plussign_withcolor,884181,green,,,,,null,US_Cities_List/mm_hotsprings.png,US_Cities_List/nat_shreveport.png,,,,,,,,,,,,,,,,,,,,,,,,,,,,
801.3999999761581,,rt_thecrossant_black,885769,black_plus_sign,,,,,49,,,0,0.975,,,,,,,,,,,,,,,,,,,,,,,,,,
null,,color_black,885873,black_plus_sign,,,,,null,,,,,,,,,,,,,,,,,,,,,,,,,,,,,,
null,,learn_phase(without_color),888415,black_plus_sign,,,,,null,US_Cities_List/mm_westpalmbeach.png,US_Cities_List/nat_huntsville.png,,,,,,,,,,,,,,,,,,,,,,,,,,,,
null,,black_cross(without_color),889203,green,,,,,null,US_Cities_List/mm_westpalmbeach.png,US_Cities_List/nat_huntsville.png,,,,,,,,,,,,,,,,,,,,,,,,,,,,
null,,rt_plussign_withcolor,889705,green,,,,,null,US_Cities_List/mm_westpalmbeach.png,US_Cities_List/nat_huntsville.png,,,,,,,,,,,,,,,,,,,,,,,,,,,,
757.8999999761581,,rt_thecrossant_black,890923,black_plus_sign,,,,,50,,,1,0.9752066115702479,,,,,,,,,,,,,,,,,,,,,,,,,,
null,,color_black,891027,black_plus_sign,,,,,null,,,,,,,,,,,,,,,,,,,,,,,,,,,,,,
null,,learn_phase(without_color),893573,black_plus_sign,,,,,null,US_Cities_List/nat_newhope.png,US_Cities_List/mm_hotsprings.png,,,,,,,,,,,,,,,,,,,,,,,,,,,,
null,,black_cross(without_color),893998,blue,,,,,null,US_Cities_List/nat_newhope.png,US_Cities_List/mm_hotsprings.png,,,,,,,,,,,,,,,,,,,,,,,,,,,,
null,,rt_plussign_withcolor,894501,blue,,,,,null,US_Cities_List/nat_newhope.png,US_Cities_List/mm_hotsprings.png,,,,,,,,,,,,,,,,,,,,,,,,,,,,
1043.3000000715256,,rt_thecrossant_black,896081,black_plus_sign,,,,,49,,,1,0.9754098360655737,,,,,,,,,,,,,,,,,,,,,,,,,,
null,,color_black,896183,black_plus_sign,,,,,null,,,,,,,,,,,,,,,,,,,,,,,,,,,,,,
null,,learn_phase(without_color),898750,black_plus_sign,,,,,null,US_Cities_List/mm_hotsprings.png,US_Cities_List/nat_racine.png,,,,,,,,,,,,,,,,,,,,,,,,,,,,
null,,black_cross(without_color),899400,green,,,,,null,US_Cities_List/mm_hotsprings.png,US_Cities_List/nat_racine.png,,,,,,,,,,,,,,,,,,,,,,,,,,,,
485.2000000476837,,rt_plussign_withcolor,899902,green,,,,,49,US_Cities_List/mm_hotsprings.png,US_Cities_List/nat_racine.png,,,,,,,,,,,,,,,,,,,,,,,,,,,,
null,,rt_thecrossant_black,901259,black_plus_sign,,,,,null,,,0,0.967479674796748,,,,,,,,,,,,,,,,,,,,,,,,,,
null,,color_black,901361,black_plus_sign,,,,,null,,,,,,,,,,,,,,,,,,,,,,,,,,,,,,
null,,learn_phase(without_color),903921,black_plus_sign,,,,,null,US_Cities_List/nat_boulder.png,US_Cities_List/nat_newhope.png,,,,,,,,,,,,,,,,,,,,,,,,,,,,
null,,black_cross(without_color),904341,blue,,,,,null,US_Cities_List/nat_boulder.png,US_Cities_List/nat_newhope.png,,,,,,,,,,,,,,,,,,,,,,,,,,,,
null,,rt_plussign_withcolor,904844,blue,,,,,null,US_Cities_List/nat_boulder.png,US_Cities_List/nat_newhope.png,,,,,,,,,,,,,,,,,,,,,,,,,,,,
1307.7000000476837,,rt_thecrossant_black,906429,black_plus_sign,,,,,49,,,1,0.967741935483871,,,,,,,,,,,,,,,,,,,,,,,,,,
null,,color_black,906532,black_plus_sign,,,,,null,,,,,,,,,,,,,,,,,,,,,,,,,,,,,,
null,,learn_phase(without_color),909084,black_plus_sign,,,,,null,US_Cities_List/mm_westpalmbeach.png,US_Cities_List/nat_huntsville.png,,,,,,,,,,,,,,,,,,,,,,,,,,,,
null,,black_cross(without_color),909569,blue,,,,,null,US_Cities_List/mm_westpalmbeach.png,US_Cities_List/nat_huntsville.png,,,,,,,,,,,,,,,,,,,,,,,,,,,,
null,,rt_plussign_withcolor,910071,blue,,,,,null,US_Cities_List/mm_westpalmbeach.png,US_Cities_List/nat_huntsville.png,,,,,,,,,,,,,,,,,,,,,,,,,,,,
708.9000000953674,,rt_thecrossant_black,911593,black_plus_sign,,,,,49,,,1,0.968,,,,,,,,,,,,,,,,,,,,,,,,,,
null,,color_black,911697,black_plus_sign,,,,,null,,,,,,,,,,,,,,,,,,,,,,,,,,,,,,
null,,learn_phase(without_color),914260,black_plus_sign,,,,,null,US_Cities_List/nat_carmel.png,US_Cities_List/nat_boulder.png,,,,,,,,,,,,,,,,,,,,,,,,,,,,
null,,black_cross(without_color),914843,blue,,,,,null,US_Cities_List/nat_carmel.png,US_Cities_List/nat_boulder.png,,,,,,,,,,,,,,,,,,,,,,,,,,,,
null,,rt_plussign_withcolor,915346,blue,,,,,null,US_Cities_List/nat_carmel.png,US_Cities_List/nat_boulder.png,,,,,,,,,,,,,,,,,,,,,,,,,,,,
753.4000000953674,,rt_thecrossant_black,916768,black_plus_sign,,,,,49,,,1,0.9682539682539683,,,,,,,,,,,,,,,,,,,,,,,,,,
null,,color_black,916871,black_plus_sign,,,,,null,,,,,,,,,,,,,,,,,,,,,,,,,,,,,,
null,,learn_phase(without_color),919457,black_plus_sign,,,,,null,US_Cities_List/mm_westpalmbeach.png,US_Cities_List/nat_racine.png,,,,,,,,,,,,,,,,,,,,,,,,,,,,
null,,black_cross(without_color),920256,blue,,,,,null,US_Cities_List/mm_westpalmbeach.png,US_Cities_List/nat_racine.png,,,,,,,,,,,,,,,,,,,,,,,,,,,,
474,,rt_plussign_withcolor,920758,blue,,,,,49,US_Cities_List/mm_westpalmbeach.png,US_Cities_List/nat_racine.png,,,,,,,,,,,,,,,,,,,,,,,,,,,,
null,,rt_thecrossant_black,921965,black_plus_sign,,,,,null,,,1,0.968503937007874,,,,,,,,,,,,,,,,,,,,,,,,,,
null,,color_black,922068,black_plus_sign,,,,,null,,,,,,,,,,,,,,,,,,,,,,,,,,,,,,
null,,learn_phase(without_color),924622,black_plus_sign,,,,,null,US_Cities_List/nat_racine.png,US_Cities_List/mm_peoria.png,,,,,,,,,,,,,,,,,,,,,,,,,,,,
null,,black_cross(without_color),925065,green,,,,,null,US_Cities_List/nat_racine.png,US_Cities_List/mm_peoria.png,,,,,,,,,,,,,,,,,,,,,,,,,,,,
376,,rt_plussign_withcolor,925568,green,,,,,50,US_Cities_List/nat_racine.png,US_Cities_List/mm_peoria.png,,,,,,,,,,,,,,,,,,,,,,,,,,,,
null,,rt_thecrossant_black,927131,black_plus_sign,,,,,null,,,1,0.96875,,,,,,,,,,,,,,,,,,,,,,,,,,
null,,color_black,927242,black_plus_sign,,,,,null,,,,,,,,,,,,,,,,,,,,,,,,,,,,,,
17945.399999976158,,intro_1,945191,instruct,,,0,,,,,,,,,,,,,,,,,,,,,,,,,,,,,,,,
24520,,intro_2,969712,instruct,,,1,Next,,,,,,,,,,,,,,,,,,,,,,,,,,,,,,,
null,,directmemory_phase,976268,../static/images/US_Cities_List/nat_shreveport.png,,,,,null,,,0,0,../static/images/US_Cities_List/mm_westpalmbeach.png,../static/images/US_Cities_List/nat_carmel.png,../static/images/US_Cities_List/mm_peoria.png,../static/images/US_Cities_List/mm_westpalmbeach.png,../static/images/US_Cities_List/mm_peoria.png,../static/images/US_Cities_List/nat_carmel.png,0,,,,,,,,,,,,,,,,,,,
null,,html-keyboard-response,977282,<p></p>,,,,,null,,,,,,,,,,,,,,,,,,,,,,,,,,,,,,
3400.100000023842,,directmemory_phase,980766,../static/images/US_Cities_List/mm_leesburg.png,,,,,49,,,1,0.5,../static/images/US_Cities_List/nat_gatlinburg.png,../static/images/US_Cities_List/mm_westpalmbeach.png,../static/images/US_Cities_List/mm_peoria.png,../static/images/US_Cities_List/nat_gatlinburg.png,../static/images/US_Cities_List/mm_peoria.png,../static/images/US_Cities_List/mm_westpalmbeach.png,1,,,,,,,,,,,,,,,,,,,
null,,html-keyboard-response,981777,<p></p>,,,,,null,,,,,,,,,,,,,,,,,,,,,,,,,,,,,,
1835.7999999523163,,directmemory_phase,983698,../static/images/US_Cities_List/mm_hotsprings.png,,,,,49,,,1,0.6666666666666666,../static/images/US_Cities_List/nat_newhope.png,../static/images/US_Cities_List/nat_carmel.png,../static/images/US_Cities_List/mm_westpalmbeach.png,../static/images/US_Cities_List/nat_newhope.png,../static/images/US_Cities_List/mm_westpalmbeach.png,../static/images/US_Cities_List/nat_carmel.png,1,,,,,,,,,,,,,,,,,,,
null,,html-keyboard-response,984710,<p></p>,,,,,null,,,,,,,,,,,,,,,,,,,,,,,,,,,,,,
2023.7999999523163,,directmemory_phase,986813,../static/images/US_Cities_List/nat_boulder.png,,,,,50,,,0,0.5,../static/images/US_Cities_List/mm_leesburg.png,../static/images/US_Cities_List/nat_racine.png,../static/images/US_Cities_List/nat_gatlinburg.png,../static/images/US_Cities_List/mm_leesburg.png,../static/images/US_Cities_List/nat_gatlinburg.png,../static/images/US_Cities_List/nat_racine.png,0.5,closer,,,,,,,,,,,,,,,,,,
null,,html-keyboard-response,987829,<p></p>,,,,,null,,,,,,,,,,,,,,,,,,,,,,,,,,,,,,
2067.2000000476837,,directmemory_phase,989946,../static/images/US_Cities_List/nat_newhope.png,,,,,51,,,0,0.4,../static/images/US_Cities_List/mm_peoria.png,../static/images/US_Cities_List/mm_hanover.png,../static/images/US_Cities_List/nat_gatlinburg.png,../static/images/US_Cities_List/mm_peoria.png,../static/images/US_Cities_List/nat_gatlinburg.png,../static/images/US_Cities_List/mm_hanover.png,0.5,closer,,,,,,,,,,,,,,,,,,
null,,html-keyboard-response,990955,<p></p>,,,,,null,,,,,,,,,,,,,,,,,,,,,,,,,,,,,,
1529.3999999761581,,directmemory_phase,992581,../static/images/US_Cities_List/mm_leesburg.png,,,,,51,,,1,0.5,../static/images/US_Cities_List/nat_racine.png,../static/images/US_Cities_List/mm_peoria.png,../static/images/US_Cities_List/nat_boulder.png,../static/images/US_Cities_List/nat_boulder.png,../static/images/US_Cities_List/mm_peoria.png,../static/images/US_Cities_List/nat_racine.png,1,,,,,,,,,,,,,,,,,,,
null,,html-keyboard-response,993592,<p></p>,,,,,null,,,,,,,,,,,,,,,,,,,,,,,,,,,,,,
2717.5,,directmemory_phase,996385,../static/images/US_Cities_List/nat_cornwall.png,,,,,50,,,0,0.42857142857142855,../static/images/US_Cities_List/nat_huntsville.png,../static/images/US_Cities_List/mm_hotsprings.png,../static/images/US_Cities_List/nat_shreveport.png,../static/images/US_Cities_List/nat_shreveport.png,../static/images/US_Cities_List/mm_hotsprings.png,../static/images/US_Cities_List/nat_huntsville.png,0.5,closer,,,,,,,,,,,,,,,,,,
null,,html-keyboard-response,997394,<p></p>,,,,,null,,,,,,,,,,,,,,,,,,,,,,,,,,,,,,
2574.6999999284744,,directmemory_phase,1000029,../static/images/US_Cities_List/nat_newhope.png,,,,,49,,,0,0.375,../static/images/US_Cities_List/mm_westpalmbeach.png,../static/images/US_Cities_List/mm_leesburg.png,../static/images/US_Cities_List/nat_boulder.png,../static/images/US_Cities_List/nat_boulder.png,../static/images/US_Cities_List/mm_leesburg.png,../static/images/US_Cities_List/mm_westpalmbeach.png,0.5,closer,,,,,,,,,,,,,,,,,,
null,,html-keyboard-response,1001043,<p></p>,,,,,null,,,,,,,,,,,,,,,,,,,,,,,,,,,,,,
2282.899999976158,,directmemory_phase,1003410,../static/images/US_Cities_List/mm_hotsprings.png,,,,,50,,,0,0.3333333333333333,../static/images/US_Cities_List/nat_shreveport.png,../static/images/US_Cities_List/nat_huntsville.png,../static/images/US_Cities_List/mm_westpalmbeach.png,../static/images/US_Cities_List/nat_shreveport.png,../static/images/US_Cities_List/mm_westpalmbeach.png,../static/images/US_Cities_List/nat_huntsville.png,0.5,closer,,,,,,,,,,,,,,,,,,
null,,html-keyboard-response,1004423,<p></p>,,,,,null,,,,,,,,,,,,,,,,,,,,,,,,,,,,,,
1611.8999999761581,,directmemory_phase,1006118,../static/images/US_Cities_List/nat_boulder.png,,,,,50,,,1,0.4,../static/images/US_Cities_List/mm_hotsprings.png,../static/images/US_Cities_List/nat_carmel.png,../static/images/US_Cities_List/mm_westpalmbeach.png,../static/images/US_Cities_List/nat_carmel.png,../static/images/US_Cities_List/mm_hotsprings.png,../static/images/US_Cities_List/mm_westpalmbeach.png,1,,,,,,,,,,,,,,,,,,,
null,,html-keyboard-response,1007130,<p></p>,,,,,null,,,,,,,,,,,,,,,,,,,,,,,,,,,,,,
2874.7999999523163,,directmemory_phase,1010099,../static/images/US_Cities_List/mm_peoria.png,,,,,49,,,1,0.45454545454545453,../static/images/US_Cities_List/nat_gatlinburg.png,../static/images/US_Cities_List/mm_hanover.png,../static/images/US_Cities_List/mm_hotsprings.png,../static/images/US_Cities_List/nat_gatlinburg.png,../static/images/US_Cities_List/mm_hotsprings.png,../static/images/US_Cities_List/mm_hanover.png,1,,,,,,,,,,,,,,,,,,,
null,,html-keyboard-response,1011110,<p></p>,,,,,null,,,,,,,,,,,,,,,,,,,,,,,,,,,,,,
3097.399999976158,,directmemory_phase,1014290,../static/images/US_Cities_List/nat_boulder.png,,,,,49,,,0,0.4166666666666667,../static/images/US_Cities_List/nat_cornwall.png,../static/images/US_Cities_List/mm_peoria.png,../static/images/US_Cities_List/nat_newhope.png,../static/images/US_Cities_List/nat_newhope.png,../static/images/US_Cities_List/mm_peoria.png,../static/images/US_Cities_List/nat_cornwall.png,0.5,closer,,,,,,,,,,,,,,,,,,
null,,html-keyboard-response,1015301,<p></p>,,,,,null,,,,,,,,,,,,,,,,,,,,,,,,,,,,,,
1523.5,,directmemory_phase,1016934,../static/images/US_Cities_List/nat_racine.png,,,,,51,,,1,0.46153846153846156,../static/images/US_Cities_List/nat_carmel.png,../static/images/US_Cities_List/nat_gatlinburg.png,../static/images/US_Cities_List/mm_peoria.png,../static/images/US_Cities_List/mm_peoria.png,../static/images/US_Cities_List/nat_gatlinburg.png,../static/images/US_Cities_List/nat_carmel.png,1,,,,,,,,,,,,,,,,,,,
null,,html-keyboard-response,1017946,<p></p>,,,,,null,,,,,,,,,,,,,,,,,,,,,,,,,,,,,,
4830.900000095367,,directmemory_phase,1022863,../static/images/US_Cities_List/nat_shreveport.png,,,,,49,,,1,0.5,../static/images/US_Cities_List/nat_cornwall.png,../static/images/US_Cities_List/nat_carmel.png,../static/images/US_Cities_List/nat_huntsville.png,../static/images/US_Cities_List/nat_cornwall.png,../static/images/US_Cities_List/nat_huntsville.png,../static/images/US_Cities_List/nat_carmel.png,1,,,,,,,,,,,,,,,,,,,
null,,html-keyboard-response,1023876,<p></p>,,,,,null,,,,,,,,,,,,,,,,,,,,,,,,,,,,,,
1846.2999999523163,,directmemory_phase,1025814,../static/images/US_Cities_List/mm_peoria.png,,,,,50,,,0,0.4666666666666667,../static/images/US_Cities_List/mm_hanover.png,../static/images/US_Cities_List/nat_shreveport.png,../static/images/US_Cities_List/nat_newhope.png,../static/images/US_Cities_List/nat_newhope.png,../static/images/US_Cities_List/nat_shreveport.png,../static/images/US_Cities_List/mm_hanover.png,0.5,closer,,,,,,,,,,,,,,,,,,
null,,html-keyboard-response,1026824,<p></p>,,,,,null,,,,,,,,,,,,,,,,,,,,,,,,,,,,,,
1972.3000000715256,,directmemory_phase,1028898,../static/images/US_Cities_List/mm_hanover.png,,,,,51,,,1,0.5,../static/images/US_Cities_List/mm_hotsprings.png,../static/images/US_Cities_List/nat_gatlinburg.png,../static/images/US_Cities_List/mm_leesburg.png,../static/images/US_Cities_List/mm_leesburg.png,../static/images/US_Cities_List/nat_gatlinburg.png,../static/images/US_Cities_List/mm_hotsprings.png,1,,,,,,,,,,,,,,,,,,,
null,,html-keyboard-response,1029911,<p></p>,,,,,null,,,,,,,,,,,,,,,,,,,,,,,,,,,,,,
1802.6000000238419,,directmemory_phase,1031798,../static/images/US_Cities_List/nat_gatlinburg.png,,,,,51,,,0,0.47058823529411764,../static/images/US_Cities_List/mm_peoria.png,../static/images/US_Cities_List/nat_cornwall.png,../static/images/US_Cities_List/nat_boulder.png,../static/images/US_Cities_List/mm_peoria.png,../static/images/US_Cities_List/nat_boulder.png,../static/images/US_Cities_List/nat_cornwall.png,0.5,closer,,,,,,,,,,,,,,,,,,
null,,html-keyboard-response,1032810,<p></p>,,,,,null,,,,,,,,,,,,,,,,,,,,,,,,,,,,,,
1599.1000000238419,,directmemory_phase,1034490,../static/images/US_Cities_List/mm_leesburg.png,,,,,50,,,1,0.5,../static/images/US_Cities_List/mm_peoria.png,../static/images/US_Cities_List/mm_hanover.png,../static/images/US_Cities_List/mm_westpalmbeach.png,../static/images/US_Cities_List/mm_hanover.png,../static/images/US_Cities_List/mm_peoria.png,../static/images/US_Cities_List/mm_westpalmbeach.png,1,,,,,,,,,,,,,,,,,,,
null,,html-keyboard-response,1035502,<p></p>,,,,,null,,,,,,,,,,,,,,,,,,,,,,,,,,,,,,
3068.7000000476837,,directmemory_phase,1038666,../static/images/US_Cities_List/nat_racine.png,,,,,50,,,1,0.5263157894736842,../static/images/US_Cities_List/nat_cornwall.png,../static/images/US_Cities_List/mm_westpalmbeach.png,../static/images/US_Cities_List/mm_hanover.png,../static/images/US_Cities_List/mm_westpalmbeach.png,../static/images/US_Cities_List/nat_cornwall.png,../static/images/US_Cities_List/mm_hanover.png,1,,,,,,,,,,,,,,,,,,,
null,,html-keyboard-response,1039690,<p></p>,,,,,null,,,,,,,,,,,,,,,,,,,,,,,,,,,,,,
4241.5,,directmemory_phase,1044044,../static/images/US_Cities_List/nat_newhope.png,,,,,51,,,0,0.5,../static/images/US_Cities_List/mm_hotsprings.png,../static/images/US_Cities_List/mm_hanover.png,../static/images/US_Cities_List/nat_gatlinburg.png,../static/images/US_Cities_List/mm_hotsprings.png,../static/images/US_Cities_List/nat_gatlinburg.png,../static/images/US_Cities_List/mm_hanover.png,0.5,closer,,,,,,,,,,,,,,,,,,
null,,html-keyboard-response,1045061,<p></p>,,,,,null,,,,,,,,,,,,,,,,,,,,,,,,,,,,,,
1702.3999999761581,,directmemory_phase,1046872,../static/images/US_Cities_List/mm_westpalmbeach.png,,,,,50,,,1,0.5238095238095238,../static/images/US_Cities_List/mm_peoria.png,../static/images/US_Cities_List/nat_huntsville.png,../static/images/US_Cities_List/nat_boulder.png,../static/images/US_Cities_List/nat_huntsville.png,../static/images/US_Cities_List/mm_peoria.png,../static/images/US_Cities_List/nat_boulder.png,1,,,,,,,,,,,,,,,,,,,
null,,html-keyboard-response,1047884,<p></p>,,,,,null,,,,,,,,,,,,,,,,,,,,,,,,,,,,,,
1806.6999999284744,,directmemory_phase,1049780,../static/images/US_Cities_List/nat_shreveport.png,,,,,49,,,1,0.5454545454545454,../static/images/US_Cities_List/nat_racine.png,../static/images/US_Cities_List/nat_gatlinburg.png,../static/images/US_Cities_List/nat_huntsville.png,../static/images/US_Cities_List/nat_racine.png,../static/images/US_Cities_List/nat_huntsville.png,../static/images/US_Cities_List/nat_gatlinburg.png,1,,,,,,,,,,,,,,,,,,,
null,,html-keyboard-response,1050794,<p></p>,,,,,null,,,,,,,,,,,,,,,,,,,,,,,,,,,,,,
1906.1999999284744,,directmemory_phase,1052785,../static/images/US_Cities_List/nat_gatlinburg.png,,,,,50,,,0,0.5217391304347826,../static/images/US_Cities_List/nat_huntsville.png,../static/images/US_Cities_List/nat_racine.png,../static/images/US_Cities_List/mm_leesburg.png,../static/images/US_Cities_List/mm_leesburg.png,../static/images/US_Cities_List/nat_racine.png,../static/images/US_Cities_List/nat_huntsville.png,0.5,closer,,,,,,,,,,,,,,,,,,
null,,html-keyboard-response,1053798,<p></p>,,,,,null,,,,,,,,,,,,,,,,,,,,,,,,,,,,,,
3669.600000023842,,directmemory_phase,1057585,../static/images/US_Cities_List/mm_westpalmbeach.png,,,,,51,,,1,0.5416666666666666,../static/images/US_Cities_List/mm_leesburg.png,../static/images/US_Cities_List/nat_cornwall.png,../static/images/US_Cities_List/nat_racine.png,../static/images/US_Cities_List/nat_racine.png,../static/images/US_Cities_List/nat_cornwall.png,../static/images/US_Cities_List/mm_leesburg.png,1,,,,,,,,,,,,,,,,,,,
null,,html-keyboard-response,1058592,<p></p>,,,,,null,,,,,,,,,,,,,,,,,,,,,,,,,,,,,,
