rt,responses,trial_type,time_elapsed,sequence,stimulus,cities,city_images,button_pressed,response,key_press,stimulus_left,stimulus_right,accuracy,cumulative_accuracy,stimulus_down_left,stimulus_down_mid,stimulus_down_right,stimulus_correct,stimulus_short,stimulus_far,weighted_accuracy,missedtrial,condition,specific_pairs,imgL_ID,imgR_ID,linedress,linedressed,detour_trial,linedressed_detor,testedstates,currentstate,otherstate,problems,smooth,distraction,strategies,easier,similar,comments
4797.400000035763,{worker_id:sharon test},id_enter,4798,blocked,intro,New Verdan; Hollendale; Delaro Park; Cedarwyn; Orchard Bend; Baymarsh; Claywater; Riverlyn; Granton Ridge; North Arroya; Hawthorne Bluffs; Sunmere; Juniper Creek,US_Cities_List/snail.png; US_Cities_List/jukebox.png; US_Cities_List/teeth.png; US_Cities_List/paint.png; US_Cities_List/dustpan.png; US_Cities_List/soldier.png; US_Cities_List/camera.png; US_Cities_List/barrel.png; US_Cities_List/wheelchair.png; US_Cities_List/basket.png; US_Cities_List/gong.png; US_Cities_List/hat.png; US_Cities_List/globe.png,,,,,,,,,,,,,,,,,,,,,,,,,,,,,,,,,
13636.199999988079,,fullscreen,18438,,make_fullscreen,,,0,,,,,,,,,,,,,,,,,,,,,,,,,,,,,,,,
16772.5,,intro_1,35213,,instruct,,,0,,,,,,,,,,,,,,,,,,,,,,,,,,,,,,,,
6439.800000011921,,intro_2,41655,,instruct,,,1,Next,,,,,,,,,,,,,,,,,,,,,,,,,,,,,,,
7836.199999988079,,intro_3,49494,,instruct,,,1,Next,,,,,,,,,,,,,,,,,,,,,,,,,,,,,,,
11747.800000011921,,intro_4,61244,,instruct,,,1,Next,,,,,,,,,,,,,,,,,,,,,,,,,,,,,,,
4923.100000023842,,intro_5,66170,,instruct,,,1,Next,,,,,,,,,,,,,,,,,,,,,,,,,,,,,,,
17080.899999976158,,intro_6,83253,,instruct,,,1,Next,,,,,,,,,,,,,,,,,,,,,,,,,,,,,,,
6447,,intro_7,89701,,instruct,,,1,Next,,,,,,,,,,,,,,,,,,,,,,,,,,,,,,,
null,,learn_prac_1,92705,,lean_prac_1,,,,,null,,,,,,,,,,,,,,,,,,,,,,,,,,,,,,
null,,html-keyboard-response,93710,,<p></p>,,,,,null,,,,,,,,,,,,,,,,,,,,,,,,,,,,,,
4483,,intro_1,98195,,instruct,,,0,,,,,,,,,,,,,,,,,,,,,,,,,,,,,,,,
6831.399999976158,,intro_2,105028,,instruct,,,1,Next,,,,,,,,,,,,,,,,,,,,,,,,,,,,,,,
null,,learn_prac_2,108031,,lean_prac_2,,,,,null,,,,,,,,,,,,,,,,,,,,,,,,,,,,,,
null,,html-keyboard-response,109034,,<p></p>,,,,,null,,,,,,,,,,,,,,,,,,,,,,,,,,,,,,
1508.0999999642372,,intro_1,110544,,instruct,,,0,,,,,,,,,,,,,,,,,,,,,,,,,,,,,,,,
4163.300000011921,,intro_2,114709,,instruct,,,1,Next,,,,,,,,,,,,,,,,,,,,,,,,,,,,,,,
10149.799999952316,,intro_3,124860,,instruct,,,1,Next,,,,,,,,,,,,,,,,,,,,,,,,,,,,,,,
null,,prac_atten_color_black,125208,,black_plus_sign,,,,,null,,,,,,,,,,,,,,,,,,,,,,,,,,,,,,
626.3000000119209,,prac_atten_color,126270,,prac_stop_color,,,,,49,,,,,,,,,,,,,,,,,,,,,,,,,,,,,,
null,,prac_atten_color_black,128274,,black_plus_sign,,,,,null,,,,,,,,,,,,,,,,,,,,,,,,,,,,,,
null,,prac_atten_color_black,128624,,black_plus_sign,,,,,null,,,,,,,,,,,,,,,,,,,,,,,,,,,,,,
461.19999998807907,,prac_atten_color,129235,,prac_stop_color,,,,,50,,,,,,,,,,,,,,,,,,,,,,,,,,,,,,
null,,prac_atten_color_black,131238,,black_plus_sign,,,,,null,,,,,,,,,,,,,,,,,,,,,,,,,,,,,,
null,,prac_atten_color_black,132038,,black_plus_sign,,,,,null,,,,,,,,,,,,,,,,,,,,,,,,,,,,,,
null,,prac_atten_color,132575,,prac_stop_color,,,,,null,,,,,,,,,,,,,,,,,,,,,,,,,,,,,,
19,,prac_atten_color_black,134579,,black_plus_sign,,,,,50,,,,,,,,,,,,,,,,,,,,,,,,,,,,,,
null,,prac_atten_color_black,135454,,black_plus_sign,,,,,null,,,,,,,,,,,,,,,,,,,,,,,,,,,,,,
522.3000000119209,,prac_atten_color,136514,,prac_stop_color,,,,,49,,,,,,,,,,,,,,,,,,,,,,,,,,,,,,
null,,prac_atten_color_black,138517,,black_plus_sign,,,,,null,,,,,,,,,,,,,,,,,,,,,,,,,,,,,,
null,,prac_atten_color_black,138868,,black_plus_sign,,,,,null,,,,,,,,,,,,,,,,,,,,,,,,,,,,,,
668.6999999880791,,prac_atten_color,139906,,prac_stop_color,,,,,50,,,,,,,,,,,,,,,,,,,,,,,,,,,,,,
null,,prac_atten_color_black,141909,,black_plus_sign,,,,,null,,,,,,,,,,,,,,,,,,,,,,,,,,,,,,
null,,prac_atten_color_black,142282,,black_plus_sign,,,,,null,,,,,,,,,,,,,,,,,,,,,,,,,,,,,,
null,,prac_atten_color,142752,,prac_stop_color,,,,,null,,,,,,,,,,,,,,,,,,,,,,,,,,,,,,
446.39999997615814,,prac_atten_color_black,144755,,black_plus_sign,,,,,50,,,,,,,,,,,,,,,,,,,,,,,,,,,,,,
null,,prac_atten_color_black,145696,,black_plus_sign,,,,,null,,,,,,,,,,,,,,,,,,,,,,,,,,,,,,
null,,prac_atten_color,146308,,prac_stop_color,,,,,null,,,,,,,,,,,,,,,,,,,,,,,,,,,,,,
266.5,,prac_atten_color_black,148311,,black_plus_sign,,,,,49,,,,,,,,,,,,,,,,,,,,,,,,,,,,,,
null,,prac_atten_color_black,149109,,black_plus_sign,,,,,null,,,,,,,,,,,,,,,,,,,,,,,,,,,,,,
null,,prac_atten_color,149582,,prac_stop_color,,,,,null,,,,,,,,,,,,,,,,,,,,,,,,,,,,,,
null,,prac_atten_color_black,151586,,black_plus_sign,,,,,null,,,,,,,,,,,,,,,,,,,,,,,,,,,,,,
15940,,attentioncheck_help,167530,,instruct,,,,,32,,,,,,,,,,,,,,,,,,,,,,,,,,,,,,
null,,prac_atten_color_black,168466,,black_plus_sign,,,,,null,,,,,,,,,,,,,,,,,,,,,,,,,,,,,,
null,,prac_atten_color,169039,,prac_stop_color,,,,,null,,,,,,,,,,,,,,,,,,,,,,,,,,,,,,
null,,prac_atten_color_black,171043,,black_plus_sign,,,,,null,,,,,,,,,,,,,,,,,,,,,,,,,,,,,,
2058.099999964237,,attentioncheck_help,173105,,instruct,,,,,32,,,,,,,,,,,,,,,,,,,,,,,,,,,,,,
null,,prac_atten_color_black,173941,,black_plus_sign,,,,,null,,,,,,,,,,,,,,,,,,,,,,,,,,,,,,
754.1999999880791,,prac_atten_color,174853,,prac_stop_color,,,,,49,,,,,,,,,,,,,,,,,,,,,,,,,,,,,,
null,,prac_atten_color_black,176854,,black_plus_sign,,,,,null,,,,,,,,,,,,,,,,,,,,,,,,,,,,,,
5395.299999952316,,attentioncheck_feedback,182251,,cross_check_feedback,,,0,,,,,,,,,,,,,,,,,,,,,,,,,,,,,,,,
4920.699999988079,,last_instruct,187172,,instruct,,,,,32,,,,,,,,,,,,,,,,,,,,,,,,,,,,,,
null,,learn_phase(without_color),190186,,black_plus_sign,,,,,null,US_Cities_List/teeth.png,US_Cities_List/soldier.png,,,,,,,,,,,,,,,,,,,,,,,,,,,,
null,,black_cross(without_color),191246,,blue,,,,,null,US_Cities_List/teeth.png,US_Cities_List/soldier.png,,,,,,,,,,,,,,,,,,,,,,,,,,,,
null,,rt_plussign_withcolor,191749,,blue,,,,,null,US_Cities_List/teeth.png,US_Cities_List/soldier.png,,,,,,,,,,,,,,,,,,,,,,,,,,,,
1203.800000011921,,rt_thecrossant_black,192701,,black_plus_sign,,,,,50,,,0,0,,,,,,,,,,,,,,,,,,,,,,,,,,
null,,color_black,192808,,black_plus_sign,,,,,null,,,,,,,,,,,,,,,,,,,,,,,,,,,,,,
null,,learn_phase(without_color),195825,,black_plus_sign,,,,,null,US_Cities_List/wheelchair.png,US_Cities_List/camera.png,,,,,,,,,,,,,,,,,,,,,,,,,,,,
null,,black_cross(without_color),196673,,green,,,,,null,US_Cities_List/wheelchair.png,US_Cities_List/camera.png,,,,,,,,,,,,,,,,,,,,,,,,,,,,
null,,rt_plussign_withcolor,197177,,green,,,,,null,US_Cities_List/wheelchair.png,US_Cities_List/camera.png,,,,,,,,,,,,,,,,,,,,,,,,,,,,
1024.699999988079,,rt_thecrossant_black,198339,,black_plus_sign,,,,,50,,,1,0.5,,,,,,,,,,,,,,,,,,,,,,,,,,
null,,color_black,198445,,black_plus_sign,,,,,null,,,,,,,,,,,,,,,,,,,,,,,,,,,,,,
null,,learn_phase(without_color),201467,,black_plus_sign,,,,,null,US_Cities_List/soldier.png,US_Cities_List/teeth.png,,,,,,,,,,,,,,,,,,,,,,,,,,,,
null,,black_cross(without_color),202249,,green,,,,,null,US_Cities_List/soldier.png,US_Cities_List/teeth.png,,,,,,,,,,,,,,,,,,,,,,,,,,,,
null,,rt_plussign_withcolor,202752,,green,,,,,null,US_Cities_List/soldier.png,US_Cities_List/teeth.png,,,,,,,,,,,,,,,,,,,,,,,,,,,,
1047.6000000238419,,rt_thecrossant_black,203980,,black_plus_sign,,,,,50,,,1,0.6666666666666666,,,,,,,,,,,,,,,,,,,,,,,,,,
null,,color_black,204084,,black_plus_sign,,,,,null,,,,,,,,,,,,,,,,,,,,,,,,,,,,,,
null,,learn_phase(without_color),207101,,black_plus_sign,,,,,null,US_Cities_List/paint.png,US_Cities_List/hat.png,,,,,,,,,,,,,,,,,,,,,,,,,,,,
null,,black_cross(without_color),207850,,green,,,,,null,US_Cities_List/paint.png,US_Cities_List/hat.png,,,,,,,,,,,,,,,,,,,,,,,,,,,,
null,,rt_plussign_withcolor,208353,,green,,,,,null,US_Cities_List/paint.png,US_Cities_List/hat.png,,,,,,,,,,,,,,,,,,,,,,,,,,,,
1090.2000000476837,,rt_thecrossant_black,209613,,black_plus_sign,,,,,50,,,1,0.75,,,,,,,,,,,,,,,,,,,,,,,,,,
null,,color_black,209718,,black_plus_sign,,,,,null,,,,,,,,,,,,,,,,,,,,,,,,,,,,,,
null,,learn_phase(without_color),212735,,black_plus_sign,,,,,null,US_Cities_List/teeth.png,US_Cities_List/soldier.png,,,,,,,,,,,,,,,,,,,,,,,,,,,,
null,,black_cross(without_color),213346,,blue,,,,,null,US_Cities_List/teeth.png,US_Cities_List/soldier.png,,,,,,,,,,,,,,,,,,,,,,,,,,,,
null,,rt_plussign_withcolor,213849,,blue,,,,,null,US_Cities_List/teeth.png,US_Cities_List/soldier.png,,,,,,,,,,,,,,,,,,,,,,,,,,,,
1160.8999999761581,,rt_thecrossant_black,215249,,black_plus_sign,,,,,49,,,1,0.8,,,,,,,,,,,,,,,,,,,,,,,,,,
null,,color_black,215353,,black_plus_sign,,,,,null,,,,,,,,,,,,,,,,,,,,,,,,,,,,,,
null,,learn_phase(without_color),218375,,black_plus_sign,,,,,null,US_Cities_List/snail.png,US_Cities_List/jukebox.png,,,,,,,,,,,,,,,,,,,,,,,,,,,,
null,,black_cross(without_color),218877,,green,,,,,null,US_Cities_List/snail.png,US_Cities_List/jukebox.png,,,,,,,,,,,,,,,,,,,,,,,,,,,,
null,,rt_plussign_withcolor,219380,,green,,,,,null,US_Cities_List/snail.png,US_Cities_List/jukebox.png,,,,,,,,,,,,,,,,,,,,,,,,,,,,
1069.6000000238419,,rt_thecrossant_black,220888,,black_plus_sign,,,,,50,,,1,0.8333333333333334,,,,,,,,,,,,,,,,,,,,,,,,,,
null,,color_black,220995,,black_plus_sign,,,,,null,,,,,,,,,,,,,,,,,,,,,,,,,,,,,,
null,,learn_phase(without_color),224012,,black_plus_sign,,,,,null,US_Cities_List/wheelchair.png,US_Cities_List/camera.png,,,,,,,,,,,,,,,,,,,,,,,,,,,,
null,,black_cross(without_color),224969,,blue,,,,,null,US_Cities_List/wheelchair.png,US_Cities_List/camera.png,,,,,,,,,,,,,,,,,,,,,,,,,,,,
null,,rt_plussign_withcolor,225473,,blue,,,,,null,US_Cities_List/wheelchair.png,US_Cities_List/camera.png,,,,,,,,,,,,,,,,,,,,,,,,,,,,
735.5999999642372,,rt_thecrossant_black,226525,,black_plus_sign,,,,,49,,,1,0.8571428571428571,,,,,,,,,,,,,,,,,,,,,,,,,,
null,,color_black,226631,,black_plus_sign,,,,,null,,,,,,,,,,,,,,,,,,,,,,,,,,,,,,
null,,learn_phase(without_color),229652,,black_plus_sign,,,,,null,US_Cities_List/hat.png,US_Cities_List/paint.png,,,,,,,,,,,,,,,,,,,,,,,,,,,,
null,,black_cross(without_color),230575,,blue,,,,,null,US_Cities_List/hat.png,US_Cities_List/paint.png,,,,,,,,,,,,,,,,,,,,,,,,,,,,
null,,rt_plussign_withcolor,231081,,blue,,,,,null,US_Cities_List/hat.png,US_Cities_List/paint.png,,,,,,,,,,,,,,,,,,,,,,,,,,,,
1924.800000011921,,rt_thecrossant_black,232170,,black_plus_sign,,,,,49,,,1,0.875,,,,,,,,,,,,,,,,,,,,,,,,,,
null,,color_black,232276,,black_plus_sign,,,,,null,,,,,,,,,,,,,,,,,,,,,,,,,,,,,,
null,,learn_phase(without_color),235302,,black_plus_sign,,,,,null,US_Cities_List/jukebox.png,US_Cities_List/snail.png,,,,,,,,,,,,,,,,,,,,,,,,,,,,
null,,black_cross(without_color),235957,,green,,,,,null,US_Cities_List/jukebox.png,US_Cities_List/snail.png,,,,,,,,,,,,,,,,,,,,,,,,,,,,
null,,rt_plussign_withcolor,236460,,green,,,,,null,US_Cities_List/jukebox.png,US_Cities_List/snail.png,,,,,,,,,,,,,,,,,,,,,,,,,,,,
null,,rt_thecrossant_black,237812,,black_plus_sign,,,,,null,,,,0.875,,,,,,,,,,,,,,,,,,,,,,,,,,
null,,color_black,237918,,black_plus_sign,,,,,null,,,,,,,,,,,,,,,,,,,,,,,,,,,,,,
null,,learn_phase(without_color),240940,,black_plus_sign,,,,,null,US_Cities_List/hat.png,US_Cities_List/paint.png,,,,,,,,,,,,,,,,,,,,,,,,,,,,
null,,black_cross(without_color),241996,,green,,,,,null,US_Cities_List/hat.png,US_Cities_List/paint.png,,,,,,,,,,,,,,,,,,,,,,,,,,,,
null,,rt_plussign_withcolor,242499,,green,,,,,null,US_Cities_List/hat.png,US_Cities_List/paint.png,,,,,,,,,,,,,,,,,,,,,,,,,,,,
1173.9000000357628,,rt_thecrossant_black,243453,,black_plus_sign,,,,,50,,,1,0.8888888888888888,,,,,,,,,,,,,,,,,,,,,,,,,,
null,,color_black,243559,,black_plus_sign,,,,,null,,,,,,,,,,,,,,,,,,,,,,,,,,,,,,
null,,learn_phase(without_color),246586,,black_plus_sign,,,,,null,US_Cities_List/jukebox.png,US_Cities_List/snail.png,,,,,,,,,,,,,,,,,,,,,,,,,,,,
null,,black_cross(without_color),247174,,blue,,,,,null,US_Cities_List/jukebox.png,US_Cities_List/snail.png,,,,,,,,,,,,,,,,,,,,,,,,,,,,
null,,rt_plussign_withcolor,247678,,blue,,,,,null,US_Cities_List/jukebox.png,US_Cities_List/snail.png,,,,,,,,,,,,,,,,,,,,,,,,,,,,
1665.1000000238419,,rt_thecrossant_black,249102,,black_plus_sign,,,,,49,,,1,0.9,,,,,,,,,,,,,,,,,,,,,,,,,,
null,,color_black,249207,,black_plus_sign,,,,,null,,,,,,,,,,,,,,,,,,,,,,,,,,,,,,
null,,learn_phase(without_color),252225,,black_plus_sign,,,,,null,US_Cities_List/hat.png,US_Cities_List/paint.png,,,,,,,,,,,,,,,,,,,,,,,,,,,,
null,,black_cross(without_color),253061,,blue,,,,,null,US_Cities_List/hat.png,US_Cities_List/paint.png,,,,,,,,,,,,,,,,,,,,,,,,,,,,
null,,rt_plussign_withcolor,253565,,blue,,,,,null,US_Cities_List/hat.png,US_Cities_List/paint.png,,,,,,,,,,,,,,,,,,,,,,,,,,,,
1056.300000011921,,rt_thecrossant_black,254739,,black_plus_sign,,,,,49,,,1,0.9090909090909091,,,,,,,,,,,,,,,,,,,,,,,,,,
null,,color_black,254844,,black_plus_sign,,,,,null,,,,,,,,,,,,,,,,,,,,,,,,,,,,,,
null,,learn_phase(without_color),257861,,black_plus_sign,,,,,null,US_Cities_List/soldier.png,US_Cities_List/teeth.png,,,,,,,,,,,,,,,,,,,,,,,,,,,,
null,,black_cross(without_color),258635,,green,,,,,null,US_Cities_List/soldier.png,US_Cities_List/teeth.png,,,,,,,,,,,,,,,,,,,,,,,,,,,,
null,,rt_plussign_withcolor,259139,,green,,,,,null,US_Cities_List/soldier.png,US_Cities_List/teeth.png,,,,,,,,,,,,,,,,,,,,,,,,,,,,
1796.3999999761581,,rt_thecrossant_black,260374,,black_plus_sign,,,,,50,,,1,0.9166666666666666,,,,,,,,,,,,,,,,,,,,,,,,,,
null,,color_black,260479,,black_plus_sign,,,,,null,,,,,,,,,,,,,,,,,,,,,,,,,,,,,,
null,,learn_phase(without_color),263498,,black_plus_sign,,,,,null,US_Cities_List/camera.png,US_Cities_List/wheelchair.png,,,,,,,,,,,,,,,,,,,,,,,,,,,,
null,,black_cross(without_color),264177,,green,,,,,null,US_Cities_List/camera.png,US_Cities_List/wheelchair.png,,,,,,,,,,,,,,,,,,,,,,,,,,,,
null,,rt_plussign_withcolor,264681,,green,,,,,null,US_Cities_List/camera.png,US_Cities_List/wheelchair.png,,,,,,,,,,,,,,,,,,,,,,,,,,,,
null,,rt_thecrossant_black,266014,,black_plus_sign,,,,,null,,,,0.9166666666666666,,,,,,,,,,,,,,,,,,,,,,,,,,
null,,color_black,266119,,black_plus_sign,,,,,null,,,,,,,,,,,,,,,,,,,,,,,,,,,,,,
null,,learn_phase(without_color),269141,,black_plus_sign,,,,,null,US_Cities_List/soldier.png,US_Cities_List/teeth.png,,,,,,,,,,,,,,,,,,,,,,,,,,,,
null,,black_cross(without_color),270090,,green,,,,,null,US_Cities_List/soldier.png,US_Cities_List/teeth.png,,,,,,,,,,,,,,,,,,,,,,,,,,,,
null,,rt_plussign_withcolor,270594,,green,,,,,null,US_Cities_List/soldier.png,US_Cities_List/teeth.png,,,,,,,,,,,,,,,,,,,,,,,,,,,,
1678.800000011921,,rt_thecrossant_black,271653,,black_plus_sign,,,,,50,,,1,0.9230769230769231,,,,,,,,,,,,,,,,,,,,,,,,,,
null,,color_black,271758,,black_plus_sign,,,,,null,,,,,,,,,,,,,,,,,,,,,,,,,,,,,,
null,,learn_phase(without_color),274781,,black_plus_sign,,,,,null,US_Cities_List/wheelchair.png,US_Cities_List/camera.png,,,,,,,,,,,,,,,,,,,,,,,,,,,,
null,,black_cross(without_color),275539,,green,,,,,null,US_Cities_List/wheelchair.png,US_Cities_List/camera.png,,,,,,,,,,,,,,,,,,,,,,,,,,,,
null,,rt_plussign_withcolor,276043,,green,,,,,null,US_Cities_List/wheelchair.png,US_Cities_List/camera.png,,,,,,,,,,,,,,,,,,,,,,,,,,,,
1666.2999999523163,,rt_thecrossant_black,277296,,black_plus_sign,,,,,50,,,1,0.9285714285714286,,,,,,,,,,,,,,,,,,,,,,,,,,
null,,color_black,277400,,black_plus_sign,,,,,null,,,,,,,,,,,,,,,,,,,,,,,,,,,,,,
null,,learn_phase(without_color),280427,,black_plus_sign,,,,,null,US_Cities_List/snail.png,US_Cities_List/jukebox.png,,,,,,,,,,,,,,,,,,,,,,,,,,,,
null,,black_cross(without_color),281275,,green,,,,,null,US_Cities_List/snail.png,US_Cities_List/jukebox.png,,,,,,,,,,,,,,,,,,,,,,,,,,,,
null,,rt_plussign_withcolor,281779,,green,,,,,null,US_Cities_List/snail.png,US_Cities_List/jukebox.png,,,,,,,,,,,,,,,,,,,,,,,,,,,,
1634.699999988079,,rt_thecrossant_black,282940,,black_plus_sign,,,,,50,,,1,0.9333333333333333,,,,,,,,,,,,,,,,,,,,,,,,,,
null,,color_black,283044,,black_plus_sign,,,,,null,,,,,,,,,,,,,,,,,,,,,,,,,,,,,,
null,,learn_phase(without_color),286066,,black_plus_sign,,,,,null,US_Cities_List/soldier.png,US_Cities_List/teeth.png,,,,,,,,,,,,,,,,,,,,,,,,,,,,
null,,black_cross(without_color),286666,,green,,,,,null,US_Cities_List/soldier.png,US_Cities_List/teeth.png,,,,,,,,,,,,,,,,,,,,,,,,,,,,
null,,rt_plussign_withcolor,287170,,green,,,,,null,US_Cities_List/soldier.png,US_Cities_List/teeth.png,,,,,,,,,,,,,,,,,,,,,,,,,,,,
1040.4000000357628,,rt_thecrossant_black,288581,,black_plus_sign,,,,,50,,,1,0.9375,,,,,,,,,,,,,,,,,,,,,,,,,,
null,,color_black,288686,,black_plus_sign,,,,,null,,,,,,,,,,,,,,,,,,,,,,,,,,,,,,
null,,learn_phase(without_color),291710,,black_plus_sign,,,,,null,US_Cities_List/paint.png,US_Cities_List/hat.png,,,,,,,,,,,,,,,,,,,,,,,,,,,,
null,,black_cross(without_color),292182,,blue,,,,,null,US_Cities_List/paint.png,US_Cities_List/hat.png,,,,,,,,,,,,,,,,,,,,,,,,,,,,
null,,rt_plussign_withcolor,292687,,blue,,,,,null,US_Cities_List/paint.png,US_Cities_List/hat.png,,,,,,,,,,,,,,,,,,,,,,,,,,,,
null,,rt_thecrossant_black,294226,,black_plus_sign,,,,,null,,,,0.9375,,,,,,,,,,,,,,,,,,,,,,,,,,
null,,color_black,294331,,black_plus_sign,,,,,null,,,,,,,,,,,,,,,,,,,,,,,,,,,,,,
null,,learn_phase(without_color),297347,,black_plus_sign,,,,,null,US_Cities_List/wheelchair.png,US_Cities_List/camera.png,,,,,,,,,,,,,,,,,,,,,,,,,,,,
null,,black_cross(without_color),298093,,blue,,,,,null,US_Cities_List/wheelchair.png,US_Cities_List/camera.png,,,,,,,,,,,,,,,,,,,,,,,,,,,,
null,,rt_plussign_withcolor,298597,,blue,,,,,null,US_Cities_List/wheelchair.png,US_Cities_List/camera.png,,,,,,,,,,,,,,,,,,,,,,,,,,,,
660.3999999761581,,rt_thecrossant_black,299862,,black_plus_sign,,,,,50,,,0,0.8823529411764706,,,,,,,,,,,,,,,,,,,,,,,,,,
null,,warning_page,302868,,warning,,,,,null,,,,,,,,,,,,,,,,,,,,,,,,,,,,,,
null,,color_black,302972,,black_plus_sign,,,,,null,,,,,,,,,,,,,,,,,,,,,,,,,,,,,,
null,,learn_phase(without_color),305987,,black_plus_sign,,,,,null,US_Cities_List/paint.png,US_Cities_List/hat.png,,,,,,,,,,,,,,,,,,,,,,,,,,,,
null,,black_cross(without_color),306635,,green,,,,,null,US_Cities_List/paint.png,US_Cities_List/hat.png,,,,,,,,,,,,,,,,,,,,,,,,,,,,
null,,rt_plussign_withcolor,307139,,green,,,,,null,US_Cities_List/paint.png,US_Cities_List/hat.png,,,,,,,,,,,,,,,,,,,,,,,,,,,,
993,,rt_thecrossant_black,308504,,black_plus_sign,,,,,50,,,1,0.8888888888888888,,,,,,,,,,,,,,,,,,,,,,,,,,
null,,color_black,308610,,black_plus_sign,,,,,null,,,,,,,,,,,,,,,,,,,,,,,,,,,,,,
null,,learn_phase(without_color),311631,,black_plus_sign,,,,,null,US_Cities_List/jukebox.png,US_Cities_List/snail.png,,,,,,,,,,,,,,,,,,,,,,,,,,,,
null,,black_cross(without_color),312056,,green,,,,,null,US_Cities_List/jukebox.png,US_Cities_List/snail.png,,,,,,,,,,,,,,,,,,,,,,,,,,,,
null,,rt_plussign_withcolor,312560,,green,,,,,null,US_Cities_List/jukebox.png,US_Cities_List/snail.png,,,,,,,,,,,,,,,,,,,,,,,,,,,,
1064.0999999642372,,rt_thecrossant_black,314145,,black_plus_sign,,,,,50,,,1,0.8947368421052632,,,,,,,,,,,,,,,,,,,,,,,,,,
null,,color_black,314251,,black_plus_sign,,,,,null,,,,,,,,,,,,,,,,,,,,,,,,,,,,,,
null,,learn_phase(without_color),317268,,black_plus_sign,,,,,null,US_Cities_List/teeth.png,US_Cities_List/soldier.png,,,,,,,,,,,,,,,,,,,,,,,,,,,,
null,,black_cross(without_color),317761,,blue,,,,,null,US_Cities_List/teeth.png,US_Cities_List/soldier.png,,,,,,,,,,,,,,,,,,,,,,,,,,,,
null,,rt_plussign_withcolor,318265,,blue,,,,,null,US_Cities_List/teeth.png,US_Cities_List/soldier.png,,,,,,,,,,,,,,,,,,,,,,,,,,,,
711.5,,rt_thecrossant_black,319781,,black_plus_sign,,,,,50,,,0,0.85,,,,,,,,,,,,,,,,,,,,,,,,,,
null,,color_black,319884,,black_plus_sign,,,,,null,,,,,,,,,,,,,,,,,,,,,,,,,,,,,,
null,,learn_phase(without_color),322894,,black_plus_sign,,,,,null,US_Cities_List/wheelchair.png,US_Cities_List/camera.png,,,,,,,,,,,,,,,,,,,,,,,,,,,,
null,,black_cross(without_color),323898,,blue,,,,,null,US_Cities_List/wheelchair.png,US_Cities_List/camera.png,,,,,,,,,,,,,,,,,,,,,,,,,,,,
null,,rt_plussign_withcolor,324401,,blue,,,,,null,US_Cities_List/wheelchair.png,US_Cities_List/camera.png,,,,,,,,,,,,,,,,,,,,,,,,,,,,
1078.199999988079,,rt_thecrossant_black,325406,,black_plus_sign,,,,,49,,,1,0.8571428571428571,,,,,,,,,,,,,,,,,,,,,,,,,,
null,,color_black,325511,,black_plus_sign,,,,,null,,,,,,,,,,,,,,,,,,,,,,,,,,,,,,
null,,learn_phase(without_color),328533,,black_plus_sign,,,,,null,US_Cities_List/paint.png,US_Cities_List/hat.png,,,,,,,,,,,,,,,,,,,,,,,,,,,,
null,,black_cross(without_color),329531,,blue,,,,,null,US_Cities_List/paint.png,US_Cities_List/hat.png,,,,,,,,,,,,,,,,,,,,,,,,,,,,
null,,rt_plussign_withcolor,330035,,blue,,,,,null,US_Cities_List/paint.png,US_Cities_List/hat.png,,,,,,,,,,,,,,,,,,,,,,,,,,,,
null,,rt_thecrossant_black,331047,,black_plus_sign,,,,,null,,,,0.8571428571428571,,,,,,,,,,,,,,,,,,,,,,,,,,
null,,color_black,331150,,black_plus_sign,,,,,null,,,,,,,,,,,,,,,,,,,,,,,,,,,,,,
null,,learn_phase(without_color),334160,,black_plus_sign,,,,,null,US_Cities_List/camera.png,US_Cities_List/wheelchair.png,,,,,,,,,,,,,,,,,,,,,,,,,,,,
null,,black_cross(without_color),334865,,green,,,,,null,US_Cities_List/camera.png,US_Cities_List/wheelchair.png,,,,,,,,,,,,,,,,,,,,,,,,,,,,
null,,rt_plussign_withcolor,335369,,green,,,,,null,US_Cities_List/camera.png,US_Cities_List/wheelchair.png,,,,,,,,,,,,,,,,,,,,,,,,,,,,
1442.3999999761581,,rt_thecrossant_black,336674,,black_plus_sign,,,,,50,,,1,0.8636363636363636,,,,,,,,,,,,,,,,,,,,,,,,,,
null,,color_black,336778,,black_plus_sign,,,,,null,,,,,,,,,,,,,,,,,,,,,,,,,,,,,,
null,,learn_phase(without_color),339794,,black_plus_sign,,,,,null,US_Cities_List/teeth.png,US_Cities_List/soldier.png,,,,,,,,,,,,,,,,,,,,,,,,,,,,
null,,black_cross(without_color),340232,,blue,,,,,null,US_Cities_List/teeth.png,US_Cities_List/soldier.png,,,,,,,,,,,,,,,,,,,,,,,,,,,,
null,,rt_plussign_withcolor,340736,,blue,,,,,null,US_Cities_List/teeth.png,US_Cities_List/soldier.png,,,,,,,,,,,,,,,,,,,,,,,,,,,,
1003.3000000119209,,rt_thecrossant_black,342306,,black_plus_sign,,,,,50,,,0,0.8260869565217391,,,,,,,,,,,,,,,,,,,,,,,,,,
null,,color_black,342412,,black_plus_sign,,,,,null,,,,,,,,,,,,,,,,,,,,,,,,,,,,,,
null,,learn_phase(without_color),345436,,black_plus_sign,,,,,null,US_Cities_List/hat.png,US_Cities_List/paint.png,,,,,,,,,,,,,,,,,,,,,,,,,,,,
null,,black_cross(without_color),345912,,green,,,,,null,US_Cities_List/hat.png,US_Cities_List/paint.png,,,,,,,,,,,,,,,,,,,,,,,,,,,,
426.0999999642372,,rt_plussign_withcolor,346416,,green,,,,,50,US_Cities_List/hat.png,US_Cities_List/paint.png,,,,,,,,,,,,,,,,,,,,,,,,,,,,
null,,rt_thecrossant_black,347951,,black_plus_sign,,,,,null,,,1,0.8333333333333334,,,,,,,,,,,,,,,,,,,,,,,,,,
null,,color_black,348056,,black_plus_sign,,,,,null,,,,,,,,,,,,,,,,,,,,,,,,,,,,,,
null,,learn_phase(without_color),351074,,black_plus_sign,,,,,null,US_Cities_List/wheelchair.png,US_Cities_List/camera.png,,,,,,,,,,,,,,,,,,,,,,,,,,,,
null,,black_cross(without_color),351552,,green,,,,,null,US_Cities_List/wheelchair.png,US_Cities_List/camera.png,,,,,,,,,,,,,,,,,,,,,,,,,,,,
null,,rt_plussign_withcolor,352058,,green,,,,,null,US_Cities_List/wheelchair.png,US_Cities_List/camera.png,,,,,,,,,,,,,,,,,,,,,,,,,,,,
1157.0999999642372,,rt_thecrossant_black,353589,,black_plus_sign,,,,,50,,,1,0.84,,,,,,,,,,,,,,,,,,,,,,,,,,
null,,color_black,353694,,black_plus_sign,,,,,null,,,,,,,,,,,,,,,,,,,,,,,,,,,,,,
null,,learn_phase(without_color),356715,,black_plus_sign,,,,,null,US_Cities_List/snail.png,US_Cities_List/jukebox.png,,,,,,,,,,,,,,,,,,,,,,,,,,,,
null,,black_cross(without_color),357159,,blue,,,,,null,US_Cities_List/snail.png,US_Cities_List/jukebox.png,,,,,,,,,,,,,,,,,,,,,,,,,,,,
null,,rt_plussign_withcolor,357663,,blue,,,,,null,US_Cities_List/snail.png,US_Cities_List/jukebox.png,,,,,,,,,,,,,,,,,,,,,,,,,,,,
936,,rt_thecrossant_black,359230,,black_plus_sign,,,,,49,,,1,0.8461538461538461,,,,,,,,,,,,,,,,,,,,,,,,,,
null,,color_black,359336,,black_plus_sign,,,,,null,,,,,,,,,,,,,,,,,,,,,,,,,,,,,,
null,,learn_phase(without_color),362362,,black_plus_sign,,,,,null,US_Cities_List/jukebox.png,US_Cities_List/snail.png,,,,,,,,,,,,,,,,,,,,,,,,,,,,
null,,black_cross(without_color),363411,,blue,,,,,null,US_Cities_List/jukebox.png,US_Cities_List/snail.png,,,,,,,,,,,,,,,,,,,,,,,,,,,,
null,,rt_plussign_withcolor,363914,,blue,,,,,null,US_Cities_List/jukebox.png,US_Cities_List/snail.png,,,,,,,,,,,,,,,,,,,,,,,,,,,,
1048,,rt_thecrossant_black,364876,,black_plus_sign,,,,,49,,,1,0.8518518518518519,,,,,,,,,,,,,,,,,,,,,,,,,,
null,,color_black,364982,,black_plus_sign,,,,,null,,,,,,,,,,,,,,,,,,,,,,,,,,,,,,
null,,learn_phase(without_color),368009,,black_plus_sign,,,,,null,US_Cities_List/snail.png,US_Cities_List/jukebox.png,,,,,,,,,,,,,,,,,,,,,,,,,,,,
null,,black_cross(without_color),368696,,blue,,,,,null,US_Cities_List/snail.png,US_Cities_List/jukebox.png,,,,,,,,,,,,,,,,,,,,,,,,,,,,
null,,rt_plussign_withcolor,369200,,blue,,,,,null,US_Cities_List/snail.png,US_Cities_List/jukebox.png,,,,,,,,,,,,,,,,,,,,,,,,,,,,
1468.300000011921,,rt_thecrossant_black,370525,,black_plus_sign,,,,,49,,,1,0.8571428571428571,,,,,,,,,,,,,,,,,,,,,,,,,,
null,,color_black,370630,,black_plus_sign,,,,,null,,,,,,,,,,,,,,,,,,,,,,,,,,,,,,
null,,learn_phase(without_color),373652,,black_plus_sign,,,,,null,US_Cities_List/camera.png,US_Cities_List/barrel.png,,,,,,,,,,,,,,,,,,,,,,,,,,,,
null,,black_cross(without_color),374564,,blue,,,,,null,US_Cities_List/camera.png,US_Cities_List/barrel.png,,,,,,,,,,,,,,,,,,,,,,,,,,,,
null,,rt_plussign_withcolor,375067,,blue,,,,,null,US_Cities_List/camera.png,US_Cities_List/barrel.png,,,,,,,,,,,,,,,,,,,,,,,,,,,,
1282.2000000476837,,rt_thecrossant_black,376166,,black_plus_sign,,,,,49,,,1,0.8620689655172413,,,,,,,,,,,,,,,,,,,,,,,,,,
null,,color_black,376271,,black_plus_sign,,,,,null,,,,,,,,,,,,,,,,,,,,,,,,,,,,,,
null,,learn_phase(without_color),379290,,black_plus_sign,,,,,null,US_Cities_List/gong.png,US_Cities_List/hat.png,,,,,,,,,,,,,,,,,,,,,,,,,,,,
null,,black_cross(without_color),379736,,green,,,,,null,US_Cities_List/gong.png,US_Cities_List/hat.png,,,,,,,,,,,,,,,,,,,,,,,,,,,,
null,,rt_plussign_withcolor,380239,,green,,,,,null,US_Cities_List/gong.png,US_Cities_List/hat.png,,,,,,,,,,,,,,,,,,,,,,,,,,,,
1306.300000011921,,rt_thecrossant_black,381806,,black_plus_sign,,,,,50,,,1,0.8666666666666667,,,,,,,,,,,,,,,,,,,,,,,,,,
null,,color_black,381912,,black_plus_sign,,,,,null,,,,,,,,,,,,,,,,,,,,,,,,,,,,,,
null,,learn_phase(without_color),384930,,black_plus_sign,,,,,null,US_Cities_List/soldier.png,US_Cities_List/wheelchair.png,,,,,,,,,,,,,,,,,,,,,,,,,,,,
null,,black_cross(without_color),385760,,blue,,,,,null,US_Cities_List/soldier.png,US_Cities_List/wheelchair.png,,,,,,,,,,,,,,,,,,,,,,,,,,,,
null,,rt_plussign_withcolor,386263,,blue,,,,,null,US_Cities_List/soldier.png,US_Cities_List/wheelchair.png,,,,,,,,,,,,,,,,,,,,,,,,,,,,
680.0999999642372,,rt_thecrossant_black,387442,,black_plus_sign,,,,,49,,,1,0.8709677419354839,,,,,,,,,,,,,,,,,,,,,,,,,,
null,,color_black,387547,,black_plus_sign,,,,,null,,,,,,,,,,,,,,,,,,,,,,,,,,,,,,
null,,learn_phase(without_color),390571,,black_plus_sign,,,,,null,US_Cities_List/barrel.png,US_Cities_List/camera.png,,,,,,,,,,,,,,,,,,,,,,,,,,,,
null,,black_cross(without_color),391527,,blue,,,,,null,US_Cities_List/barrel.png,US_Cities_List/camera.png,,,,,,,,,,,,,,,,,,,,,,,,,,,,
null,,rt_plussign_withcolor,392031,,blue,,,,,null,US_Cities_List/barrel.png,US_Cities_List/camera.png,,,,,,,,,,,,,,,,,,,,,,,,,,,,
1911.3999999761581,,rt_thecrossant_black,393086,,black_plus_sign,,,,,49,,,1,0.875,,,,,,,,,,,,,,,,,,,,,,,,,,
null,,color_black,393192,,black_plus_sign,,,,,null,,,,,,,,,,,,,,,,,,,,,,,,,,,,,,
null,,learn_phase(without_color),396216,,black_plus_sign,,,,,null,US_Cities_List/gong.png,US_Cities_List/hat.png,,,,,,,,,,,,,,,,,,,,,,,,,,,,
null,,black_cross(without_color),396988,,green,,,,,null,US_Cities_List/gong.png,US_Cities_List/hat.png,,,,,,,,,,,,,,,,,,,,,,,,,,,,
null,,rt_plussign_withcolor,397493,,green,,,,,null,US_Cities_List/gong.png,US_Cities_List/hat.png,,,,,,,,,,,,,,,,,,,,,,,,,,,,
1140.5,,rt_thecrossant_black,398734,,black_plus_sign,,,,,50,,,1,0.8787878787878788,,,,,,,,,,,,,,,,,,,,,,,,,,
null,,color_black,398840,,black_plus_sign,,,,,null,,,,,,,,,,,,,,,,,,,,,,,,,,,,,,
null,,learn_phase(without_color),401854,,black_plus_sign,,,,,null,US_Cities_List/dustpan.png,US_Cities_List/paint.png,,,,,,,,,,,,,,,,,,,,,,,,,,,,
null,,black_cross(without_color),402820,,blue,,,,,null,US_Cities_List/dustpan.png,US_Cities_List/paint.png,,,,,,,,,,,,,,,,,,,,,,,,,,,,
null,,rt_plussign_withcolor,403325,,blue,,,,,null,US_Cities_List/dustpan.png,US_Cities_List/paint.png,,,,,,,,,,,,,,,,,,,,,,,,,,,,
1157.5,,rt_thecrossant_black,404369,,black_plus_sign,,,,,49,,,1,0.8823529411764706,,,,,,,,,,,,,,,,,,,,,,,,,,
null,,color_black,404474,,black_plus_sign,,,,,null,,,,,,,,,,,,,,,,,,,,,,,,,,,,,,
null,,learn_phase(without_color),407493,,black_plus_sign,,,,,null,US_Cities_List/barrel.png,US_Cities_List/camera.png,,,,,,,,,,,,,,,,,,,,,,,,,,,,
null,,black_cross(without_color),408593,,blue,,,,,null,US_Cities_List/barrel.png,US_Cities_List/camera.png,,,,,,,,,,,,,,,,,,,,,,,,,,,,
null,,rt_plussign_withcolor,409098,,blue,,,,,null,US_Cities_List/barrel.png,US_Cities_List/camera.png,,,,,,,,,,,,,,,,,,,,,,,,,,,,
null,,rt_thecrossant_black,410007,,black_plus_sign,,,,,null,,,,0.8823529411764706,,,,,,,,,,,,,,,,,,,,,,,,,,
null,,color_black,410113,,black_plus_sign,,,,,null,,,,,,,,,,,,,,,,,,,,,,,,,,,,,,
null,,learn_phase(without_color),413127,,black_plus_sign,,,,,null,US_Cities_List/paint.png,US_Cities_List/dustpan.png,,,,,,,,,,,,,,,,,,,,,,,,,,,,
null,,black_cross(without_color),413697,,blue,,,,,null,US_Cities_List/paint.png,US_Cities_List/dustpan.png,,,,,,,,,,,,,,,,,,,,,,,,,,,,
null,,rt_plussign_withcolor,414201,,blue,,,,,null,US_Cities_List/paint.png,US_Cities_List/dustpan.png,,,,,,,,,,,,,,,,,,,,,,,,,,,,
2022.3999999761581,,rt_thecrossant_black,415641,,black_plus_sign,,,,,49,,,1,0.8857142857142857,,,,,,,,,,,,,,,,,,,,,,,,,,
null,,color_black,415746,,black_plus_sign,,,,,null,,,,,,,,,,,,,,,,,,,,,,,,,,,,,,
null,,learn_phase(without_color),418763,,black_plus_sign,,,,,null,US_Cities_List/hat.png,US_Cities_List/gong.png,,,,,,,,,,,,,,,,,,,,,,,,,,,,
null,,black_cross(without_color),419599,,blue,,,,,null,US_Cities_List/hat.png,US_Cities_List/gong.png,,,,,,,,,,,,,,,,,,,,,,,,,,,,
null,,rt_plussign_withcolor,420104,,blue,,,,,null,US_Cities_List/hat.png,US_Cities_List/gong.png,,,,,,,,,,,,,,,,,,,,,,,,,,,,
738.1000000238419,,rt_thecrossant_black,421279,,black_plus_sign,,,,,49,,,1,0.8888888888888888,,,,,,,,,,,,,,,,,,,,,,,,,,
null,,color_black,421385,,black_plus_sign,,,,,null,,,,,,,,,,,,,,,,,,,,,,,,,,,,,,
null,,learn_phase(without_color),424402,,black_plus_sign,,,,,null,US_Cities_List/dustpan.png,US_Cities_List/paint.png,,,,,,,,,,,,,,,,,,,,,,,,,,,,
null,,black_cross(without_color),425368,,blue,,,,,null,US_Cities_List/dustpan.png,US_Cities_List/paint.png,,,,,,,,,,,,,,,,,,,,,,,,,,,,
null,,rt_plussign_withcolor,425873,,blue,,,,,null,US_Cities_List/dustpan.png,US_Cities_List/paint.png,,,,,,,,,,,,,,,,,,,,,,,,,,,,
null,,rt_thecrossant_black,426919,,black_plus_sign,,,,,null,,,,0.8888888888888888,,,,,,,,,,,,,,,,,,,,,,,,,,
null,,color_black,427025,,black_plus_sign,,,,,null,,,,,,,,,,,,,,,,,,,,,,,,,,,,,,
null,,learn_phase(without_color),430040,,black_plus_sign,,,,,null,US_Cities_List/soldier.png,US_Cities_List/wheelchair.png,,,,,,,,,,,,,,,,,,,,,,,,,,,,
null,,black_cross(without_color),430602,,blue,,,,,null,US_Cities_List/soldier.png,US_Cities_List/wheelchair.png,,,,,,,,,,,,,,,,,,,,,,,,,,,,
null,,rt_plussign_withcolor,431106,,blue,,,,,null,US_Cities_List/soldier.png,US_Cities_List/wheelchair.png,,,,,,,,,,,,,,,,,,,,,,,,,,,,
1255.2999999523163,,rt_thecrossant_black,432556,,black_plus_sign,,,,,49,,,1,0.8918918918918919,,,,,,,,,,,,,,,,,,,,,,,,,,
null,,color_black,432662,,black_plus_sign,,,,,null,,,,,,,,,,,,,,,,,,,,,,,,,,,,,,
null,,learn_phase(without_color),435687,,black_plus_sign,,,,,null,US_Cities_List/gong.png,US_Cities_List/hat.png,,,,,,,,,,,,,,,,,,,,,,,,,,,,
null,,black_cross(without_color),436585,,blue,,,,,null,US_Cities_List/gong.png,US_Cities_List/hat.png,,,,,,,,,,,,,,,,,,,,,,,,,,,,
null,,rt_plussign_withcolor,437089,,blue,,,,,null,US_Cities_List/gong.png,US_Cities_List/hat.png,,,,,,,,,,,,,,,,,,,,,,,,,,,,
1184.4000000357628,,rt_thecrossant_black,438201,,black_plus_sign,,,,,50,,,0,0.868421052631579,,,,,,,,,,,,,,,,,,,,,,,,,,
null,,color_black,438307,,black_plus_sign,,,,,null,,,,,,,,,,,,,,,,,,,,,,,,,,,,,,
null,,learn_phase(without_color),441325,,black_plus_sign,,,,,null,US_Cities_List/soldier.png,US_Cities_List/wheelchair.png,,,,,,,,,,,,,,,,,,,,,,,,,,,,
null,,black_cross(without_color),442355,,green,,,,,null,US_Cities_List/soldier.png,US_Cities_List/wheelchair.png,,,,,,,,,,,,,,,,,,,,,,,,,,,,
473.7999999523163,,rt_plussign_withcolor,442859,,green,,,,,49,US_Cities_List/soldier.png,US_Cities_List/wheelchair.png,,,,,,,,,,,,,,,,,,,,,,,,,,,,
null,,rt_thecrossant_black,443841,,black_plus_sign,,,,,50,,,0,0.8461538461538461,,,,,,,,,,,,,,,,,,,,,,,,,,
null,,warning_page,446847,,warning,,,,,null,,,,,,,,,,,,,,,,,,,,,,,,,,,,,,
null,,color_black,446952,,black_plus_sign,,,,,null,,,,,,,,,,,,,,,,,,,,,,,,,,,,,,
null,,learn_phase(without_color),449970,,black_plus_sign,,,,,null,US_Cities_List/dustpan.png,US_Cities_List/paint.png,,,,,,,,,,,,,,,,,,,,,,,,,,,,
null,,black_cross(without_color),450882,,blue,,,,,null,US_Cities_List/dustpan.png,US_Cities_List/paint.png,,,,,,,,,,,,,,,,,,,,,,,,,,,,
null,,rt_plussign_withcolor,451386,,blue,,,,,null,US_Cities_List/dustpan.png,US_Cities_List/paint.png,,,,,,,,,,,,,,,,,,,,,,,,,,,,
1525.5,,rt_thecrossant_black,452485,,black_plus_sign,,,,,49,,,1,0.85,,,,,,,,,,,,,,,,,,,,,,,,,,
null,,color_black,452590,,black_plus_sign,,,,,null,,,,,,,,,,,,,,,,,,,,,,,,,,,,,,
null,,learn_phase(without_color),455615,,black_plus_sign,,,,,null,US_Cities_List/hat.png,US_Cities_List/gong.png,,,,,,,,,,,,,,,,,,,,,,,,,,,,
null,,black_cross(without_color),456225,,blue,,,,,null,US_Cities_List/hat.png,US_Cities_List/gong.png,,,,,,,,,,,,,,,,,,,,,,,,,,,,
null,,rt_plussign_withcolor,456729,,blue,,,,,null,US_Cities_List/hat.png,US_Cities_List/gong.png,,,,,,,,,,,,,,,,,,,,,,,,,,,,
1352.699999988079,,rt_thecrossant_black,458132,,black_plus_sign,,,,,49,,,1,0.8536585365853658,,,,,,,,,,,,,,,,,,,,,,,,,,
null,,color_black,458238,,black_plus_sign,,,,,null,,,,,,,,,,,,,,,,,,,,,,,,,,,,,,
null,,learn_phase(without_color),461256,,black_plus_sign,,,,,null,US_Cities_List/barrel.png,US_Cities_List/camera.png,,,,,,,,,,,,,,,,,,,,,,,,,,,,
null,,black_cross(without_color),462130,,blue,,,,,null,US_Cities_List/barrel.png,US_Cities_List/camera.png,,,,,,,,,,,,,,,,,,,,,,,,,,,,
null,,rt_plussign_withcolor,462635,,blue,,,,,null,US_Cities_List/barrel.png,US_Cities_List/camera.png,,,,,,,,,,,,,,,,,,,,,,,,,,,,
830.8999999761581,,rt_thecrossant_black,463771,,black_plus_sign,,,,,49,,,1,0.8571428571428571,,,,,,,,,,,,,,,,,,,,,,,,,,
null,,color_black,463877,,black_plus_sign,,,,,null,,,,,,,,,,,,,,,,,,,,,,,,,,,,,,
null,,learn_phase(without_color),466893,,black_plus_sign,,,,,null,US_Cities_List/soldier.png,US_Cities_List/wheelchair.png,,,,,,,,,,,,,,,,,,,,,,,,,,,,
null,,black_cross(without_color),467535,,blue,,,,,null,US_Cities_List/soldier.png,US_Cities_List/wheelchair.png,,,,,,,,,,,,,,,,,,,,,,,,,,,,
null,,rt_plussign_withcolor,468041,,blue,,,,,null,US_Cities_List/soldier.png,US_Cities_List/wheelchair.png,,,,,,,,,,,,,,,,,,,,,,,,,,,,
null,,rt_thecrossant_black,469409,,black_plus_sign,,,,,null,,,,0.8571428571428571,,,,,,,,,,,,,,,,,,,,,,,,,,
null,,color_black,469514,,black_plus_sign,,,,,null,,,,,,,,,,,,,,,,,,,,,,,,,,,,,,
null,,learn_phase(without_color),472537,,black_plus_sign,,,,,null,US_Cities_List/barrel.png,US_Cities_List/camera.png,,,,,,,,,,,,,,,,,,,,,,,,,,,,
null,,black_cross(without_color),473319,,blue,,,,,null,US_Cities_List/barrel.png,US_Cities_List/camera.png,,,,,,,,,,,,,,,,,,,,,,,,,,,,
null,,rt_plussign_withcolor,473823,,blue,,,,,null,US_Cities_List/barrel.png,US_Cities_List/camera.png,,,,,,,,,,,,,,,,,,,,,,,,,,,,
944.4000000357628,,rt_thecrossant_black,475051,,black_plus_sign,,,,,49,,,1,0.8604651162790697,,,,,,,,,,,,,,,,,,,,,,,,,,
null,,color_black,475154,,black_plus_sign,,,,,null,,,,,,,,,,,,,,,,,,,,,,,,,,,,,,
null,,learn_phase(without_color),478165,,black_plus_sign,,,,,null,US_Cities_List/gong.png,US_Cities_List/hat.png,,,,,,,,,,,,,,,,,,,,,,,,,,,,
null,,black_cross(without_color),478804,,blue,,,,,null,US_Cities_List/gong.png,US_Cities_List/hat.png,,,,,,,,,,,,,,,,,,,,,,,,,,,,
null,,rt_plussign_withcolor,479307,,blue,,,,,null,US_Cities_List/gong.png,US_Cities_List/hat.png,,,,,,,,,,,,,,,,,,,,,,,,,,,,
933.3000000119209,,rt_thecrossant_black,480681,,black_plus_sign,,,,,49,,,1,0.8636363636363636,,,,,,,,,,,,,,,,,,,,,,,,,,
null,,color_black,480787,,black_plus_sign,,,,,null,,,,,,,,,,,,,,,,,,,,,,,,,,,,,,
null,,learn_phase(without_color),483806,,black_plus_sign,,,,,null,US_Cities_List/wheelchair.png,US_Cities_List/soldier.png,,,,,,,,,,,,,,,,,,,,,,,,,,,,
null,,black_cross(without_color),484888,,blue,,,,,null,US_Cities_List/wheelchair.png,US_Cities_List/soldier.png,,,,,,,,,,,,,,,,,,,,,,,,,,,,
null,,rt_plussign_withcolor,485392,,blue,,,,,null,US_Cities_List/wheelchair.png,US_Cities_List/soldier.png,,,,,,,,,,,,,,,,,,,,,,,,,,,,
865.9000000357628,,rt_thecrossant_black,486319,,black_plus_sign,,,,,49,,,1,0.8666666666666667,,,,,,,,,,,,,,,,,,,,,,,,,,
null,,color_black,486426,,black_plus_sign,,,,,null,,,,,,,,,,,,,,,,,,,,,,,,,,,,,,
null,,learn_phase(without_color),489450,,black_plus_sign,,,,,null,US_Cities_List/camera.png,US_Cities_List/barrel.png,,,,,,,,,,,,,,,,,,,,,,,,,,,,
null,,black_cross(without_color),490480,,blue,,,,,null,US_Cities_List/camera.png,US_Cities_List/barrel.png,,,,,,,,,,,,,,,,,,,,,,,,,,,,
null,,rt_plussign_withcolor,490984,,blue,,,,,null,US_Cities_List/camera.png,US_Cities_List/barrel.png,,,,,,,,,,,,,,,,,,,,,,,,,,,,
1368.800000011921,,rt_thecrossant_black,491966,,black_plus_sign,,,,,49,,,1,0.8695652173913043,,,,,,,,,,,,,,,,,,,,,,,,,,
null,,color_black,492072,,black_plus_sign,,,,,null,,,,,,,,,,,,,,,,,,,,,,,,,,,,,,
null,,learn_phase(without_color),495087,,black_plus_sign,,,,,null,US_Cities_List/dustpan.png,US_Cities_List/paint.png,,,,,,,,,,,,,,,,,,,,,,,,,,,,
null,,black_cross(without_color),496010,,blue,,,,,null,US_Cities_List/dustpan.png,US_Cities_List/paint.png,,,,,,,,,,,,,,,,,,,,,,,,,,,,
null,,rt_plussign_withcolor,496514,,blue,,,,,null,US_Cities_List/dustpan.png,US_Cities_List/paint.png,,,,,,,,,,,,,,,,,,,,,,,,,,,,
1226.5999999642372,,rt_thecrossant_black,497602,,black_plus_sign,,,,,49,,,1,0.8723404255319149,,,,,,,,,,,,,,,,,,,,,,,,,,
null,,color_black,497707,,black_plus_sign,,,,,null,,,,,,,,,,,,,,,,,,,,,,,,,,,,,,
null,,learn_phase(without_color),500731,,black_plus_sign,,,,,null,US_Cities_List/camera.png,US_Cities_List/barrel.png,,,,,,,,,,,,,,,,,,,,,,,,,,,,
null,,black_cross(without_color),501473,,blue,,,,,null,US_Cities_List/camera.png,US_Cities_List/barrel.png,,,,,,,,,,,,,,,,,,,,,,,,,,,,
null,,rt_plussign_withcolor,501977,,blue,,,,,null,US_Cities_List/camera.png,US_Cities_List/barrel.png,,,,,,,,,,,,,,,,,,,,,,,,,,,,
1198.8999999761581,,rt_thecrossant_black,503248,,black_plus_sign,,,,,49,,,1,0.875,,,,,,,,,,,,,,,,,,,,,,,,,,
null,,color_black,503353,,black_plus_sign,,,,,null,,,,,,,,,,,,,,,,,,,,,,,,,,,,,,
null,,learn_phase(without_color),506373,,black_plus_sign,,,,,null,US_Cities_List/soldier.png,US_Cities_List/wheelchair.png,,,,,,,,,,,,,,,,,,,,,,,,,,,,
null,,black_cross(without_color),507365,,blue,,,,,null,US_Cities_List/soldier.png,US_Cities_List/wheelchair.png,,,,,,,,,,,,,,,,,,,,,,,,,,,,
null,,rt_plussign_withcolor,507869,,blue,,,,,null,US_Cities_List/soldier.png,US_Cities_List/wheelchair.png,,,,,,,,,,,,,,,,,,,,,,,,,,,,
1081.2999999523163,,rt_thecrossant_black,508889,,black_plus_sign,,,,,49,,,1,0.8775510204081632,,,,,,,,,,,,,,,,,,,,,,,,,,
null,,color_black,508992,,black_plus_sign,,,,,null,,,,,,,,,,,,,,,,,,,,,,,,,,,,,,
null,,learn_phase(without_color),512010,,black_plus_sign,,,,,null,US_Cities_List/paint.png,US_Cities_List/dustpan.png,,,,,,,,,,,,,,,,,,,,,,,,,,,,
null,,black_cross(without_color),512656,,green,,,,,null,US_Cities_List/paint.png,US_Cities_List/dustpan.png,,,,,,,,,,,,,,,,,,,,,,,,,,,,
null,,rt_plussign_withcolor,513161,,green,,,,,null,US_Cities_List/paint.png,US_Cities_List/dustpan.png,,,,,,,,,,,,,,,,,,,,,,,,,,,,
1783.5999999642372,,rt_thecrossant_black,514527,,black_plus_sign,,,,,50,,,1,0.88,,,,,,,,,,,,,,,,,,,,,,,,,,
null,,color_black,514632,,black_plus_sign,,,,,null,,,,,,,,,,,,,,,,,,,,,,,,,,,,,,
null,,learn_phase(without_color),517647,,black_plus_sign,,,,,null,US_Cities_List/wheelchair.png,US_Cities_List/soldier.png,,,,,,,,,,,,,,,,,,,,,,,,,,,,
null,,black_cross(without_color),518558,,blue,,,,,null,US_Cities_List/wheelchair.png,US_Cities_List/soldier.png,,,,,,,,,,,,,,,,,,,,,,,,,,,,
null,,rt_plussign_withcolor,519064,,blue,,,,,null,US_Cities_List/wheelchair.png,US_Cities_List/soldier.png,,,,,,,,,,,,,,,,,,,,,,,,,,,,
1175.300000011921,,rt_thecrossant_black,520165,,black_plus_sign,,,,,49,,,1,0.8823529411764706,,,,,,,,,,,,,,,,,,,,,,,,,,
null,,color_black,520269,,black_plus_sign,,,,,null,,,,,,,,,,,,,,,,,,,,,,,,,,,,,,
null,,learn_phase(without_color),523288,,black_plus_sign,,,,,null,US_Cities_List/hat.png,US_Cities_List/gong.png,,,,,,,,,,,,,,,,,,,,,,,,,,,,
null,,black_cross(without_color),523700,,blue,,,,,null,US_Cities_List/hat.png,US_Cities_List/gong.png,,,,,,,,,,,,,,,,,,,,,,,,,,,,
null,,rt_plussign_withcolor,524205,,blue,,,,,null,US_Cities_List/hat.png,US_Cities_List/gong.png,,,,,,,,,,,,,,,,,,,,,,,,,,,,
1673.3999999761581,,rt_thecrossant_black,525803,,black_plus_sign,,,,,49,,,1,0.8846153846153846,,,,,,,,,,,,,,,,,,,,,,,,,,
null,,color_black,525909,,black_plus_sign,,,,,null,,,,,,,,,,,,,,,,,,,,,,,,,,,,,,
null,,learn_phase(without_color),528929,,black_plus_sign,,,,,null,US_Cities_List/barrel.png,US_Cities_List/camera.png,,,,,,,,,,,,,,,,,,,,,,,,,,,,
null,,black_cross(without_color),529940,,green,,,,,null,US_Cities_List/barrel.png,US_Cities_List/camera.png,,,,,,,,,,,,,,,,,,,,,,,,,,,,
null,,rt_plussign_withcolor,530445,,green,,,,,null,US_Cities_List/barrel.png,US_Cities_List/camera.png,,,,,,,,,,,,,,,,,,,,,,,,,,,,
759.3000000119209,,rt_thecrossant_black,531445,,black_plus_sign,,,,,50,,,1,0.8867924528301887,,,,,,,,,,,,,,,,,,,,,,,,,,
null,,color_black,531551,,black_plus_sign,,,,,null,,,,,,,,,,,,,,,,,,,,,,,,,,,,,,
null,,learn_phase(without_color),534566,,black_plus_sign,,,,,null,US_Cities_List/soldier.png,US_Cities_List/wheelchair.png,,,,,,,,,,,,,,,,,,,,,,,,,,,,
null,,black_cross(without_color),535283,,green,,,,,null,US_Cities_List/soldier.png,US_Cities_List/wheelchair.png,,,,,,,,,,,,,,,,,,,,,,,,,,,,
null,,rt_plussign_withcolor,535787,,green,,,,,null,US_Cities_List/soldier.png,US_Cities_List/wheelchair.png,,,,,,,,,,,,,,,,,,,,,,,,,,,,
null,,rt_thecrossant_black,537080,,black_plus_sign,,,,,null,,,,0.8867924528301887,,,,,,,,,,,,,,,,,,,,,,,,,,
null,,color_black,537186,,black_plus_sign,,,,,null,,,,,,,,,,,,,,,,,,,,,,,,,,,,,,
null,,learn_phase(without_color),540200,,black_plus_sign,,,,,null,US_Cities_List/dustpan.png,US_Cities_List/paint.png,,,,,,,,,,,,,,,,,,,,,,,,,,,,
null,,black_cross(without_color),540668,,green,,,,,null,US_Cities_List/dustpan.png,US_Cities_List/paint.png,,,,,,,,,,,,,,,,,,,,,,,,,,,,
null,,rt_plussign_withcolor,541173,,green,,,,,null,US_Cities_List/dustpan.png,US_Cities_List/paint.png,,,,,,,,,,,,,,,,,,,,,,,,,,,,
null,,rt_thecrossant_black,542717,,black_plus_sign,,,,,null,,,,0.8867924528301887,,,,,,,,,,,,,,,,,,,,,,,,,,
null,,warning_page,545724,,warning,,,,,null,,,,,,,,,,,,,,,,,,,,,,,,,,,,,,
null,,color_black,545828,,black_plus_sign,,,,,null,,,,,,,,,,,,,,,,,,,,,,,,,,,,,,
null,,learn_phase(without_color),548846,,black_plus_sign,,,,,null,US_Cities_List/paint.png,US_Cities_List/dustpan.png,,,,,,,,,,,,,,,,,,,,,,,,,,,,
null,,black_cross(without_color),549864,,green,,,,,null,US_Cities_List/paint.png,US_Cities_List/dustpan.png,,,,,,,,,,,,,,,,,,,,,,,,,,,,
null,,rt_plussign_withcolor,550368,,green,,,,,null,US_Cities_List/paint.png,US_Cities_List/dustpan.png,,,,,,,,,,,,,,,,,,,,,,,,,,,,
699.5999999642372,,rt_thecrossant_black,551362,,black_plus_sign,,,,,50,,,1,0.8888888888888888,,,,,,,,,,,,,,,,,,,,,,,,,,
null,,color_black,551468,,black_plus_sign,,,,,null,,,,,,,,,,,,,,,,,,,,,,,,,,,,,,
null,,learn_phase(without_color),554492,,black_plus_sign,,,,,null,US_Cities_List/hat.png,US_Cities_List/gong.png,,,,,,,,,,,,,,,,,,,,,,,,,,,,
null,,black_cross(without_color),555430,,green,,,,,null,US_Cities_List/hat.png,US_Cities_List/gong.png,,,,,,,,,,,,,,,,,,,,,,,,,,,,
null,,rt_plussign_withcolor,555934,,green,,,,,null,US_Cities_List/hat.png,US_Cities_List/gong.png,,,,,,,,,,,,,,,,,,,,,,,,,,,,
1224.8999999761581,,rt_thecrossant_black,557007,,black_plus_sign,,,,,50,,,1,0.8909090909090909,,,,,,,,,,,,,,,,,,,,,,,,,,
null,,color_black,557114,,black_plus_sign,,,,,null,,,,,,,,,,,,,,,,,,,,,,,,,,,,,,
null,,learn_phase(without_color),560139,,black_plus_sign,,,,,null,US_Cities_List/wheelchair.png,US_Cities_List/barrel.png,,,,,,,,,,,,,,,,,,,,,,,,,,,,
null,,black_cross(without_color),560658,,green,,,,,null,US_Cities_List/wheelchair.png,US_Cities_List/barrel.png,,,,,,,,,,,,,,,,,,,,,,,,,,,,
null,,rt_plussign_withcolor,561162,,green,,,,,null,US_Cities_List/wheelchair.png,US_Cities_List/barrel.png,,,,,,,,,,,,,,,,,,,,,,,,,,,,
1245.1000000238419,,rt_thecrossant_black,562655,,black_plus_sign,,,,,50,,,1,0.8928571428571429,,,,,,,,,,,,,,,,,,,,,,,,,,
null,,color_black,562762,,black_plus_sign,,,,,null,,,,,,,,,,,,,,,,,,,,,,,,,,,,,,
null,,learn_phase(without_color),565783,,black_plus_sign,,,,,null,US_Cities_List/jukebox.png,US_Cities_List/paint.png,,,,,,,,,,,,,,,,,,,,,,,,,,,,
null,,black_cross(without_color),566322,,green,,,,,null,US_Cities_List/jukebox.png,US_Cities_List/paint.png,,,,,,,,,,,,,,,,,,,,,,,,,,,,
null,,rt_plussign_withcolor,566826,,green,,,,,null,US_Cities_List/jukebox.png,US_Cities_List/paint.png,,,,,,,,,,,,,,,,,,,,,,,,,,,,
954.3999999761581,,rt_thecrossant_black,568298,,black_plus_sign,,,,,50,,,1,0.8947368421052632,,,,,,,,,,,,,,,,,,,,,,,,,,
null,,color_black,568403,,black_plus_sign,,,,,null,,,,,,,,,,,,,,,,,,,,,,,,,,,,,,
null,,learn_phase(without_color),571422,,black_plus_sign,,,,,null,US_Cities_List/soldier.png,US_Cities_List/camera.png,,,,,,,,,,,,,,,,,,,,,,,,,,,,
null,,black_cross(without_color),572517,,blue,,,,,null,US_Cities_List/soldier.png,US_Cities_List/camera.png,,,,,,,,,,,,,,,,,,,,,,,,,,,,
null,,rt_plussign_withcolor,573020,,blue,,,,,null,US_Cities_List/soldier.png,US_Cities_List/camera.png,,,,,,,,,,,,,,,,,,,,,,,,,,,,
1168.2000000476837,,rt_thecrossant_black,573935,,black_plus_sign,,,,,49,,,1,0.896551724137931,,,,,,,,,,,,,,,,,,,,,,,,,,
null,,color_black,574041,,black_plus_sign,,,,,null,,,,,,,,,,,,,,,,,,,,,,,,,,,,,,
null,,learn_phase(without_color),577065,,black_plus_sign,,,,,null,US_Cities_List/paint.png,US_Cities_List/jukebox.png,,,,,,,,,,,,,,,,,,,,,,,,,,,,
null,,black_cross(without_color),577997,,green,,,,,null,US_Cities_List/paint.png,US_Cities_List/jukebox.png,,,,,,,,,,,,,,,,,,,,,,,,,,,,
null,,rt_plussign_withcolor,578500,,green,,,,,null,US_Cities_List/paint.png,US_Cities_List/jukebox.png,,,,,,,,,,,,,,,,,,,,,,,,,,,,
1416.4000000357628,,rt_thecrossant_black,579578,,black_plus_sign,,,,,50,,,1,0.8983050847457628,,,,,,,,,,,,,,,,,,,,,,,,,,
null,,color_black,579685,,black_plus_sign,,,,,null,,,,,,,,,,,,,,,,,,,,,,,,,,,,,,
null,,learn_phase(without_color),582698,,black_plus_sign,,,,,null,US_Cities_List/camera.png,US_Cities_List/soldier.png,,,,,,,,,,,,,,,,,,,,,,,,,,,,
null,,black_cross(without_color),583532,,green,,,,,null,US_Cities_List/camera.png,US_Cities_List/soldier.png,,,,,,,,,,,,,,,,,,,,,,,,,,,,
null,,rt_plussign_withcolor,584037,,green,,,,,null,US_Cities_List/camera.png,US_Cities_List/soldier.png,,,,,,,,,,,,,,,,,,,,,,,,,,,,
1372.0999999642372,,rt_thecrossant_black,585214,,black_plus_sign,,,,,50,,,1,0.9,,,,,,,,,,,,,,,,,,,,,,,,,,
null,,color_black,585321,,black_plus_sign,,,,,null,,,,,,,,,,,,,,,,,,,,,,,,,,,,,,
null,,learn_phase(without_color),588341,,black_plus_sign,,,,,null,US_Cities_List/teeth.png,US_Cities_List/gong.png,,,,,,,,,,,,,,,,,,,,,,,,,,,,
null,,black_cross(without_color),589007,,green,,,,,null,US_Cities_List/teeth.png,US_Cities_List/gong.png,,,,,,,,,,,,,,,,,,,,,,,,,,,,
null,,rt_plussign_withcolor,589511,,green,,,,,null,US_Cities_List/teeth.png,US_Cities_List/gong.png,,,,,,,,,,,,,,,,,,,,,,,,,,,,
1402.300000011921,,rt_thecrossant_black,590857,,black_plus_sign,,,,,50,,,1,0.9016393442622951,,,,,,,,,,,,,,,,,,,,,,,,,,
null,,color_black,590962,,black_plus_sign,,,,,null,,,,,,,,,,,,,,,,,,,,,,,,,,,,,,
null,,learn_phase(without_color),593976,,black_plus_sign,,,,,null,US_Cities_List/paint.png,US_Cities_List/jukebox.png,,,,,,,,,,,,,,,,,,,,,,,,,,,,
null,,black_cross(without_color),594960,,green,,,,,null,US_Cities_List/paint.png,US_Cities_List/jukebox.png,,,,,,,,,,,,,,,,,,,,,,,,,,,,
null,,rt_plussign_withcolor,595462,,green,,,,,null,US_Cities_List/paint.png,US_Cities_List/jukebox.png,,,,,,,,,,,,,,,,,,,,,,,,,,,,
970.1000000238419,,rt_thecrossant_black,596487,,black_plus_sign,,,,,50,,,1,0.9032258064516129,,,,,,,,,,,,,,,,,,,,,,,,,,
null,,color_black,596593,,black_plus_sign,,,,,null,,,,,,,,,,,,,,,,,,,,,,,,,,,,,,
null,,learn_phase(without_color),599610,,black_plus_sign,,,,,null,US_Cities_List/gong.png,US_Cities_List/teeth.png,,,,,,,,,,,,,,,,,,,,,,,,,,,,
null,,black_cross(without_color),600380,,green,,,,,null,US_Cities_List/gong.png,US_Cities_List/teeth.png,,,,,,,,,,,,,,,,,,,,,,,,,,,,
null,,rt_plussign_withcolor,600884,,green,,,,,null,US_Cities_List/gong.png,US_Cities_List/teeth.png,,,,,,,,,,,,,,,,,,,,,,,,,,,,
1303.5,,rt_thecrossant_black,602125,,black_plus_sign,,,,,50,,,1,0.9047619047619048,,,,,,,,,,,,,,,,,,,,,,,,,,
null,,color_black,602231,,black_plus_sign,,,,,null,,,,,,,,,,,,,,,,,,,,,,,,,,,,,,
null,,learn_phase(without_color),605255,,black_plus_sign,,,,,null,US_Cities_List/jukebox.png,US_Cities_List/paint.png,,,,,,,,,,,,,,,,,,,,,,,,,,,,
null,,black_cross(without_color),606033,,green,,,,,null,US_Cities_List/jukebox.png,US_Cities_List/paint.png,,,,,,,,,,,,,,,,,,,,,,,,,,,,
null,,rt_plussign_withcolor,606537,,green,,,,,null,US_Cities_List/jukebox.png,US_Cities_List/paint.png,,,,,,,,,,,,,,,,,,,,,,,,,,,,
1577.8999999761581,,rt_thecrossant_black,607767,,black_plus_sign,,,,,50,,,1,0.90625,,,,,,,,,,,,,,,,,,,,,,,,,,
null,,color_black,607873,,black_plus_sign,,,,,null,,,,,,,,,,,,,,,,,,,,,,,,,,,,,,
null,,learn_phase(without_color),610899,,black_plus_sign,,,,,null,US_Cities_List/teeth.png,US_Cities_List/gong.png,,,,,,,,,,,,,,,,,,,,,,,,,,,,
null,,black_cross(without_color),611752,,blue,,,,,null,US_Cities_List/teeth.png,US_Cities_List/gong.png,,,,,,,,,,,,,,,,,,,,,,,,,,,,
null,,rt_plussign_withcolor,612257,,blue,,,,,null,US_Cities_List/teeth.png,US_Cities_List/gong.png,,,,,,,,,,,,,,,,,,,,,,,,,,,,
null,,rt_thecrossant_black,613414,,black_plus_sign,,,,,null,,,,0.90625,,,,,,,,,,,,,,,,,,,,,,,,,,
null,,color_black,613520,,black_plus_sign,,,,,null,,,,,,,,,,,,,,,,,,,,,,,,,,,,,,
null,,learn_phase(without_color),616545,,black_plus_sign,,,,,null,US_Cities_List/jukebox.png,US_Cities_List/paint.png,,,,,,,,,,,,,,,,,,,,,,,,,,,,
null,,black_cross(without_color),617398,,blue,,,,,null,US_Cities_List/jukebox.png,US_Cities_List/paint.png,,,,,,,,,,,,,,,,,,,,,,,,,,,,
null,,rt_plussign_withcolor,617903,,blue,,,,,null,US_Cities_List/jukebox.png,US_Cities_List/paint.png,,,,,,,,,,,,,,,,,,,,,,,,,,,,
1617.8999999761581,,rt_thecrossant_black,619063,,black_plus_sign,,,,,49,,,1,0.9076923076923077,,,,,,,,,,,,,,,,,,,,,,,,,,
null,,color_black,619170,,black_plus_sign,,,,,null,,,,,,,,,,,,,,,,,,,,,,,,,,,,,,
null,,learn_phase(without_color),622191,,black_plus_sign,,,,,null,US_Cities_List/wheelchair.png,US_Cities_List/barrel.png,,,,,,,,,,,,,,,,,,,,,,,,,,,,
null,,black_cross(without_color),622899,,green,,,,,null,US_Cities_List/wheelchair.png,US_Cities_List/barrel.png,,,,,,,,,,,,,,,,,,,,,,,,,,,,
472.89999997615814,,rt_plussign_withcolor,623403,,green,,,,,50,US_Cities_List/wheelchair.png,US_Cities_List/barrel.png,,,,,,,,,,,,,,,,,,,,,,,,,,,,
null,,rt_thecrossant_black,624707,,black_plus_sign,,,,,null,,,1,0.9090909090909091,,,,,,,,,,,,,,,,,,,,,,,,,,
null,,color_black,624813,,black_plus_sign,,,,,null,,,,,,,,,,,,,,,,,,,,,,,,,,,,,,
null,,learn_phase(without_color),627839,,black_plus_sign,,,,,null,US_Cities_List/teeth.png,US_Cities_List/gong.png,,,,,,,,,,,,,,,,,,,,,,,,,,,,
null,,black_cross(without_color),628372,,blue,,,,,null,US_Cities_List/teeth.png,US_Cities_List/gong.png,,,,,,,,,,,,,,,,,,,,,,,,,,,,
null,,rt_plussign_withcolor,628876,,blue,,,,,null,US_Cities_List/teeth.png,US_Cities_List/gong.png,,,,,,,,,,,,,,,,,,,,,,,,,,,,
1398.8999999761581,,rt_thecrossant_black,630352,,black_plus_sign,,,,,49,,,1,0.9104477611940298,,,,,,,,,,,,,,,,,,,,,,,,,,
null,,color_black,630457,,black_plus_sign,,,,,null,,,,,,,,,,,,,,,,,,,,,,,,,,,,,,
null,,learn_phase(without_color),633479,,black_plus_sign,,,,,null,US_Cities_List/barrel.png,US_Cities_List/wheelchair.png,,,,,,,,,,,,,,,,,,,,,,,,,,,,
null,,black_cross(without_color),634333,,green,,,,,null,US_Cities_List/barrel.png,US_Cities_List/wheelchair.png,,,,,,,,,,,,,,,,,,,,,,,,,,,,
null,,rt_plussign_withcolor,634837,,green,,,,,null,US_Cities_List/barrel.png,US_Cities_List/wheelchair.png,,,,,,,,,,,,,,,,,,,,,,,,,,,,
819.6999999880791,,rt_thecrossant_black,635996,,black_plus_sign,,,,,50,,,1,0.9117647058823529,,,,,,,,,,,,,,,,,,,,,,,,,,
null,,color_black,636101,,black_plus_sign,,,,,null,,,,,,,,,,,,,,,,,,,,,,,,,,,,,,
null,,learn_phase(without_color),639123,,black_plus_sign,,,,,null,US_Cities_List/teeth.png,US_Cities_List/gong.png,,,,,,,,,,,,,,,,,,,,,,,,,,,,
null,,black_cross(without_color),639691,,green,,,,,null,US_Cities_List/teeth.png,US_Cities_List/gong.png,,,,,,,,,,,,,,,,,,,,,,,,,,,,
null,,rt_plussign_withcolor,640197,,green,,,,,null,US_Cities_List/teeth.png,US_Cities_List/gong.png,,,,,,,,,,,,,,,,,,,,,,,,,,,,
null,,rt_thecrossant_black,641638,,black_plus_sign,,,,,null,,,,0.9117647058823529,,,,,,,,,,,,,,,,,,,,,,,,,,
null,,color_black,641745,,black_plus_sign,,,,,null,,,,,,,,,,,,,,,,,,,,,,,,,,,,,,
null,,learn_phase(without_color),644761,,black_plus_sign,,,,,null,US_Cities_List/soldier.png,US_Cities_List/camera.png,,,,,,,,,,,,,,,,,,,,,,,,,,,,
null,,black_cross(without_color),645299,,blue,,,,,null,US_Cities_List/soldier.png,US_Cities_List/camera.png,,,,,,,,,,,,,,,,,,,,,,,,,,,,
null,,rt_plussign_withcolor,645804,,blue,,,,,null,US_Cities_List/soldier.png,US_Cities_List/camera.png,,,,,,,,,,,,,,,,,,,,,,,,,,,,
1098.6000000238419,,rt_thecrossant_black,647278,,black_plus_sign,,,,,49,,,1,0.9130434782608695,,,,,,,,,,,,,,,,,,,,,,,,,,
null,,color_black,647384,,black_plus_sign,,,,,null,,,,,,,,,,,,,,,,,,,,,,,,,,,,,,
null,,learn_phase(without_color),650402,,black_plus_sign,,,,,null,US_Cities_List/paint.png,US_Cities_List/jukebox.png,,,,,,,,,,,,,,,,,,,,,,,,,,,,
null,,black_cross(without_color),651411,,blue,,,,,null,US_Cities_List/paint.png,US_Cities_List/jukebox.png,,,,,,,,,,,,,,,,,,,,,,,,,,,,
null,,rt_plussign_withcolor,651915,,blue,,,,,null,US_Cities_List/paint.png,US_Cities_List/jukebox.png,,,,,,,,,,,,,,,,,,,,,,,,,,,,
970.3999999761581,,rt_thecrossant_black,652917,,black_plus_sign,,,,,49,,,1,0.9142857142857143,,,,,,,,,,,,,,,,,,,,,,,,,,
null,,color_black,653022,,black_plus_sign,,,,,null,,,,,,,,,,,,,,,,,,,,,,,,,,,,,,
null,,learn_phase(without_color),656045,,black_plus_sign,,,,,null,US_Cities_List/teeth.png,US_Cities_List/gong.png,,,,,,,,,,,,,,,,,,,,,,,,,,,,
null,,black_cross(without_color),656874,,green,,,,,null,US_Cities_List/teeth.png,US_Cities_List/gong.png,,,,,,,,,,,,,,,,,,,,,,,,,,,,
null,,rt_plussign_withcolor,657379,,green,,,,,null,US_Cities_List/teeth.png,US_Cities_List/gong.png,,,,,,,,,,,,,,,,,,,,,,,,,,,,
1482.199999988079,,rt_thecrossant_black,658561,,black_plus_sign,,,,,50,,,1,0.9154929577464789,,,,,,,,,,,,,,,,,,,,,,,,,,
null,,color_black,658667,,black_plus_sign,,,,,null,,,,,,,,,,,,,,,,,,,,,,,,,,,,,,
null,,learn_phase(without_color),661680,,black_plus_sign,,,,,null,US_Cities_List/camera.png,US_Cities_List/soldier.png,,,,,,,,,,,,,,,,,,,,,,,,,,,,
null,,black_cross(without_color),662348,,green,,,,,null,US_Cities_List/camera.png,US_Cities_List/soldier.png,,,,,,,,,,,,,,,,,,,,,,,,,,,,
null,,rt_plussign_withcolor,662852,,green,,,,,null,US_Cities_List/camera.png,US_Cities_List/soldier.png,,,,,,,,,,,,,,,,,,,,,,,,,,,,
1614.300000011921,,rt_thecrossant_black,664192,,black_plus_sign,,,,,49,,,0,0.9027777777777778,,,,,,,,,,,,,,,,,,,,,,,,,,
null,,color_black,664297,,black_plus_sign,,,,,null,,,,,,,,,,,,,,,,,,,,,,,,,,,,,,
null,,learn_phase(without_color),667323,,black_plus_sign,,,,,null,US_Cities_List/gong.png,US_Cities_List/teeth.png,,,,,,,,,,,,,,,,,,,,,,,,,,,,
null,,black_cross(without_color),668150,,green,,,,,null,US_Cities_List/gong.png,US_Cities_List/teeth.png,,,,,,,,,,,,,,,,,,,,,,,,,,,,
430.4000000357628,,rt_plussign_withcolor,668654,,green,,,,,50,US_Cities_List/gong.png,US_Cities_List/teeth.png,,,,,,,,,,,,,,,,,,,,,,,,,,,,
null,,rt_thecrossant_black,669837,,black_plus_sign,,,,,null,,,1,0.9041095890410958,,,,,,,,,,,,,,,,,,,,,,,,,,
null,,color_black,669944,,black_plus_sign,,,,,null,,,,,,,,,,,,,,,,,,,,,,,,,,,,,,
null,,learn_phase(without_color),672963,,black_plus_sign,,,,,null,US_Cities_List/camera.png,US_Cities_List/soldier.png,,,,,,,,,,,,,,,,,,,,,,,,,,,,
null,,black_cross(without_color),673964,,green,,,,,null,US_Cities_List/camera.png,US_Cities_List/soldier.png,,,,,,,,,,,,,,,,,,,,,,,,,,,,
null,,rt_plussign_withcolor,674469,,green,,,,,null,US_Cities_List/camera.png,US_Cities_List/soldier.png,,,,,,,,,,,,,,,,,,,,,,,,,,,,
1545.199999988079,,rt_thecrossant_black,675481,,black_plus_sign,,,,,50,,,1,0.9054054054054054,,,,,,,,,,,,,,,,,,,,,,,,,,
null,,color_black,675587,,black_plus_sign,,,,,null,,,,,,,,,,,,,,,,,,,,,,,,,,,,,,
null,,learn_phase(without_color),678606,,black_plus_sign,,,,,null,US_Cities_List/barrel.png,US_Cities_List/wheelchair.png,,,,,,,,,,,,,,,,,,,,,,,,,,,,
null,,black_cross(without_color),679500,,green,,,,,null,US_Cities_List/barrel.png,US_Cities_List/wheelchair.png,,,,,,,,,,,,,,,,,,,,,,,,,,,,
null,,rt_plussign_withcolor,680004,,green,,,,,null,US_Cities_List/barrel.png,US_Cities_List/wheelchair.png,,,,,,,,,,,,,,,,,,,,,,,,,,,,
null,,rt_thecrossant_black,681121,,black_plus_sign,,,,,null,,,,0.9054054054054054,,,,,,,,,,,,,,,,,,,,,,,,,,
null,,color_black,681227,,black_plus_sign,,,,,null,,,,,,,,,,,,,,,,,,,,,,,,,,,,,,
null,,learn_phase(without_color),684260,,black_plus_sign,,,,,null,US_Cities_List/gong.png,US_Cities_List/teeth.png,,,,,,,,,,,,,,,,,,,,,,,,,,,,
null,,black_cross(without_color),685222,,green,,,,,null,US_Cities_List/gong.png,US_Cities_List/teeth.png,,,,,,,,,,,,,,,,,,,,,,,,,,,,
null,,rt_plussign_withcolor,685726,,green,,,,,null,US_Cities_List/gong.png,US_Cities_List/teeth.png,,,,,,,,,,,,,,,,,,,,,,,,,,,,
1218.5,,rt_thecrossant_black,686775,,black_plus_sign,,,,,50,,,1,0.9066666666666666,,,,,,,,,,,,,,,,,,,,,,,,,,
null,,color_black,686878,,black_plus_sign,,,,,null,,,,,,,,,,,,,,,,,,,,,,,,,,,,,,
null,,learn_phase(without_color),689890,,black_plus_sign,,,,,null,US_Cities_List/jukebox.png,US_Cities_List/paint.png,,,,,,,,,,,,,,,,,,,,,,,,,,,,
null,,black_cross(without_color),690518,,blue,,,,,null,US_Cities_List/jukebox.png,US_Cities_List/paint.png,,,,,,,,,,,,,,,,,,,,,,,,,,,,
null,,rt_plussign_withcolor,691024,,blue,,,,,null,US_Cities_List/jukebox.png,US_Cities_List/paint.png,,,,,,,,,,,,,,,,,,,,,,,,,,,,
1192.300000011921,,rt_thecrossant_black,692407,,black_plus_sign,,,,,49,,,1,0.9078947368421053,,,,,,,,,,,,,,,,,,,,,,,,,,
null,,color_black,692512,,black_plus_sign,,,,,null,,,,,,,,,,,,,,,,,,,,,,,,,,,,,,
null,,learn_phase(without_color),695540,,black_plus_sign,,,,,null,US_Cities_List/wheelchair.png,US_Cities_List/barrel.png,,,,,,,,,,,,,,,,,,,,,,,,,,,,
null,,black_cross(without_color),696510,,blue,,,,,null,US_Cities_List/wheelchair.png,US_Cities_List/barrel.png,,,,,,,,,,,,,,,,,,,,,,,,,,,,
null,,rt_plussign_withcolor,697015,,blue,,,,,null,US_Cities_List/wheelchair.png,US_Cities_List/barrel.png,,,,,,,,,,,,,,,,,,,,,,,,,,,,
754.4000000357628,,rt_thecrossant_black,698058,,black_plus_sign,,,,,49,,,1,0.9090909090909091,,,,,,,,,,,,,,,,,,,,,,,,,,
null,,color_black,698165,,black_plus_sign,,,,,null,,,,,,,,,,,,,,,,,,,,,,,,,,,,,,
null,,learn_phase(without_color),701184,,black_plus_sign,,,,,null,US_Cities_List/soldier.png,US_Cities_List/camera.png,,,,,,,,,,,,,,,,,,,,,,,,,,,,
null,,black_cross(without_color),701679,,green,,,,,null,US_Cities_List/soldier.png,US_Cities_List/camera.png,,,,,,,,,,,,,,,,,,,,,,,,,,,,
null,,rt_plussign_withcolor,702182,,green,,,,,null,US_Cities_List/soldier.png,US_Cities_List/camera.png,,,,,,,,,,,,,,,,,,,,,,,,,,,,
1634.300000011921,,rt_thecrossant_black,703698,,black_plus_sign,,,,,50,,,1,0.9102564102564102,,,,,,,,,,,,,,,,,,,,,,,,,,
null,,color_black,703805,,black_plus_sign,,,,,null,,,,,,,,,,,,,,,,,,,,,,,,,,,,,,
null,,learn_phase(without_color),706831,,black_plus_sign,,,,,null,US_Cities_List/barrel.png,US_Cities_List/wheelchair.png,,,,,,,,,,,,,,,,,,,,,,,,,,,,
null,,black_cross(without_color),707506,,blue,,,,,null,US_Cities_List/barrel.png,US_Cities_List/wheelchair.png,,,,,,,,,,,,,,,,,,,,,,,,,,,,
null,,rt_plussign_withcolor,708011,,blue,,,,,null,US_Cities_List/barrel.png,US_Cities_List/wheelchair.png,,,,,,,,,,,,,,,,,,,,,,,,,,,,
622.1000000238419,,rt_thecrossant_black,709349,,black_plus_sign,,,,,49,,,1,0.9113924050632911,,,,,,,,,,,,,,,,,,,,,,,,,,
null,,color_black,709455,,black_plus_sign,,,,,null,,,,,,,,,,,,,,,,,,,,,,,,,,,,,,
null,,learn_phase(without_color),712468,,black_plus_sign,,,,,null,US_Cities_List/soldier.png,US_Cities_List/camera.png,,,,,,,,,,,,,,,,,,,,,,,,,,,,
null,,black_cross(without_color),713557,,blue,,,,,null,US_Cities_List/soldier.png,US_Cities_List/camera.png,,,,,,,,,,,,,,,,,,,,,,,,,,,,
null,,rt_plussign_withcolor,714062,,blue,,,,,null,US_Cities_List/soldier.png,US_Cities_List/camera.png,,,,,,,,,,,,,,,,,,,,,,,,,,,,
1155.8999999761581,,rt_thecrossant_black,714983,,black_plus_sign,,,,,49,,,1,0.9125,,,,,,,,,,,,,,,,,,,,,,,,,,
null,,color_black,715088,,black_plus_sign,,,,,null,,,,,,,,,,,,,,,,,,,,,,,,,,,,,,
null,,learn_phase(without_color),718108,,black_plus_sign,,,,,null,US_Cities_List/barrel.png,US_Cities_List/wheelchair.png,,,,,,,,,,,,,,,,,,,,,,,,,,,,
null,,black_cross(without_color),719022,,green,,,,,null,US_Cities_List/barrel.png,US_Cities_List/wheelchair.png,,,,,,,,,,,,,,,,,,,,,,,,,,,,
null,,rt_plussign_withcolor,719527,,green,,,,,null,US_Cities_List/barrel.png,US_Cities_List/wheelchair.png,,,,,,,,,,,,,,,,,,,,,,,,,,,,
1776.5,,rt_thecrossant_black,720624,,black_plus_sign,,,,,49,,,0,0.9012345679012346,,,,,,,,,,,,,,,,,,,,,,,,,,
null,,color_black,720727,,black_plus_sign,,,,,null,,,,,,,,,,,,,,,,,,,,,,,,,,,,,,
null,,learn_phase(without_color),723746,,black_plus_sign,,,,,null,US_Cities_List/soldier.png,US_Cities_List/camera.png,,,,,,,,,,,,,,,,,,,,,,,,,,,,
null,,black_cross(without_color),724848,,green,,,,,null,US_Cities_List/soldier.png,US_Cities_List/camera.png,,,,,,,,,,,,,,,,,,,,,,,,,,,,
null,,rt_plussign_withcolor,725352,,green,,,,,null,US_Cities_List/soldier.png,US_Cities_List/camera.png,,,,,,,,,,,,,,,,,,,,,,,,,,,,
1115.5999999642372,,rt_thecrossant_black,726262,,black_plus_sign,,,,,50,,,1,0.9024390243902439,,,,,,,,,,,,,,,,,,,,,,,,,,
null,,color_black,726367,,black_plus_sign,,,,,null,,,,,,,,,,,,,,,,,,,,,,,,,,,,,,
null,,learn_phase(without_color),729393,,black_plus_sign,,,,,null,US_Cities_List/wheelchair.png,US_Cities_List/barrel.png,,,,,,,,,,,,,,,,,,,,,,,,,,,,
null,,black_cross(without_color),730047,,blue,,,,,null,US_Cities_List/wheelchair.png,US_Cities_List/barrel.png,,,,,,,,,,,,,,,,,,,,,,,,,,,,
null,,rt_plussign_withcolor,730553,,blue,,,,,null,US_Cities_List/wheelchair.png,US_Cities_List/barrel.png,,,,,,,,,,,,,,,,,,,,,,,,,,,,
1536.1000000238419,,rt_thecrossant_black,731911,,black_plus_sign,,,,,49,,,1,0.9036144578313253,,,,,,,,,,,,,,,,,,,,,,,,,,
null,,color_black,732018,,black_plus_sign,,,,,null,,,,,,,,,,,,,,,,,,,,,,,,,,,,,,
null,,learn_phase(without_color),735037,,black_plus_sign,,,,,null,US_Cities_List/jukebox.png,US_Cities_List/paint.png,,,,,,,,,,,,,,,,,,,,,,,,,,,,
null,,black_cross(without_color),735989,,blue,,,,,null,US_Cities_List/jukebox.png,US_Cities_List/paint.png,,,,,,,,,,,,,,,,,,,,,,,,,,,,
null,,rt_plussign_withcolor,736493,,blue,,,,,null,US_Cities_List/jukebox.png,US_Cities_List/paint.png,,,,,,,,,,,,,,,,,,,,,,,,,,,,
1196.3999999761581,,rt_thecrossant_black,737551,,black_plus_sign,,,,,49,,,1,0.9047619047619048,,,,,,,,,,,,,,,,,,,,,,,,,,
null,,color_black,737658,,black_plus_sign,,,,,null,,,,,,,,,,,,,,,,,,,,,,,,,,,,,,
null,,learn_phase(without_color),740679,,black_plus_sign,,,,,null,US_Cities_List/wheelchair.png,US_Cities_List/gong.png,,,,,,,,,,,,,,,,,,,,,,,,,,,,
null,,black_cross(without_color),741218,,blue,,,,,null,US_Cities_List/wheelchair.png,US_Cities_List/gong.png,,,,,,,,,,,,,,,,,,,,,,,,,,,,
null,,rt_plussign_withcolor,741722,,blue,,,,,null,US_Cities_List/wheelchair.png,US_Cities_List/gong.png,,,,,,,,,,,,,,,,,,,,,,,,,,,,
1750.1000000238419,,rt_thecrossant_black,743195,,black_plus_sign,,,,,49,,,1,0.9058823529411765,,,,,,,,,,,,,,,,,,,,,,,,,,
null,,color_black,743301,,black_plus_sign,,,,,null,,,,,,,,,,,,,,,,,,,,,,,,,,,,,,
null,,learn_phase(without_color),746321,,black_plus_sign,,,,,null,US_Cities_List/camera.png,US_Cities_List/globe.png,,,,,,,,,,,,,,,,,,,,,,,,,,,,
null,,black_cross(without_color),746734,,green,,,,,null,US_Cities_List/camera.png,US_Cities_List/globe.png,,,,,,,,,,,,,,,,,,,,,,,,,,,,
null,,rt_plussign_withcolor,747239,,green,,,,,null,US_Cities_List/camera.png,US_Cities_List/globe.png,,,,,,,,,,,,,,,,,,,,,,,,,,,,
1398.199999988079,,rt_thecrossant_black,748839,,black_plus_sign,,,,,50,,,1,0.9069767441860465,,,,,,,,,,,,,,,,,,,,,,,,,,
null,,color_black,748945,,black_plus_sign,,,,,null,,,,,,,,,,,,,,,,,,,,,,,,,,,,,,
null,,learn_phase(without_color),751970,,black_plus_sign,,,,,null,US_Cities_List/teeth.png,US_Cities_List/jukebox.png,,,,,,,,,,,,,,,,,,,,,,,,,,,,
null,,black_cross(without_color),752715,,blue,,,,,null,US_Cities_List/teeth.png,US_Cities_List/jukebox.png,,,,,,,,,,,,,,,,,,,,,,,,,,,,
null,,rt_plussign_withcolor,753220,,blue,,,,,null,US_Cities_List/teeth.png,US_Cities_List/jukebox.png,,,,,,,,,,,,,,,,,,,,,,,,,,,,
610.8000000119209,,rt_thecrossant_black,754485,,black_plus_sign,,,,,49,,,1,0.9080459770114943,,,,,,,,,,,,,,,,,,,,,,,,,,
null,,color_black,754590,,black_plus_sign,,,,,null,,,,,,,,,,,,,,,,,,,,,,,,,,,,,,
null,,learn_phase(without_color),757606,,black_plus_sign,,,,,null,US_Cities_List/barrel.png,US_Cities_List/basket.png,,,,,,,,,,,,,,,,,,,,,,,,,,,,
null,,black_cross(without_color),758590,,green,,,,,null,US_Cities_List/barrel.png,US_Cities_List/basket.png,,,,,,,,,,,,,,,,,,,,,,,,,,,,
null,,rt_plussign_withcolor,759095,,green,,,,,null,US_Cities_List/barrel.png,US_Cities_List/basket.png,,,,,,,,,,,,,,,,,,,,,,,,,,,,
1364,,rt_thecrossant_black,760122,,black_plus_sign,,,,,50,,,1,0.9090909090909091,,,,,,,,,,,,,,,,,,,,,,,,,,
null,,color_black,760229,,black_plus_sign,,,,,null,,,,,,,,,,,,,,,,,,,,,,,,,,,,,,
null,,learn_phase(without_color),763253,,black_plus_sign,,,,,null,US_Cities_List/wheelchair.png,US_Cities_List/gong.png,,,,,,,,,,,,,,,,,,,,,,,,,,,,
null,,black_cross(without_color),764078,,green,,,,,null,US_Cities_List/wheelchair.png,US_Cities_List/gong.png,,,,,,,,,,,,,,,,,,,,,,,,,,,,
null,,rt_plussign_withcolor,764583,,green,,,,,null,US_Cities_List/wheelchair.png,US_Cities_List/gong.png,,,,,,,,,,,,,,,,,,,,,,,,,,,,
1324.199999988079,,rt_thecrossant_black,765770,,black_plus_sign,,,,,50,,,1,0.9101123595505618,,,,,,,,,,,,,,,,,,,,,,,,,,
null,,color_black,765876,,black_plus_sign,,,,,null,,,,,,,,,,,,,,,,,,,,,,,,,,,,,,
null,,learn_phase(without_color),768899,,black_plus_sign,,,,,null,US_Cities_List/barrel.png,US_Cities_List/basket.png,,,,,,,,,,,,,,,,,,,,,,,,,,,,
null,,black_cross(without_color),769435,,green,,,,,null,US_Cities_List/barrel.png,US_Cities_List/basket.png,,,,,,,,,,,,,,,,,,,,,,,,,,,,
null,,rt_plussign_withcolor,769940,,green,,,,,null,US_Cities_List/barrel.png,US_Cities_List/basket.png,,,,,,,,,,,,,,,,,,,,,,,,,,,,
1285,,rt_thecrossant_black,771416,,black_plus_sign,,,,,50,,,1,0.9111111111111111,,,,,,,,,,,,,,,,,,,,,,,,,,
null,,color_black,771522,,black_plus_sign,,,,,null,,,,,,,,,,,,,,,,,,,,,,,,,,,,,,
null,,learn_phase(without_color),774545,,black_plus_sign,,,,,null,US_Cities_List/wheelchair.png,US_Cities_List/gong.png,,,,,,,,,,,,,,,,,,,,,,,,,,,,
null,,black_cross(without_color),775606,,green,,,,,null,US_Cities_List/wheelchair.png,US_Cities_List/gong.png,,,,,,,,,,,,,,,,,,,,,,,,,,,,
null,,rt_plussign_withcolor,776110,,green,,,,,null,US_Cities_List/wheelchair.png,US_Cities_List/gong.png,,,,,,,,,,,,,,,,,,,,,,,,,,,,
828.5,,rt_thecrossant_black,777059,,black_plus_sign,,,,,50,,,1,0.9120879120879121,,,,,,,,,,,,,,,,,,,,,,,,,,
null,,color_black,777163,,black_plus_sign,,,,,null,,,,,,,,,,,,,,,,,,,,,,,,,,,,,,
null,,learn_phase(without_color),780178,,black_plus_sign,,,,,null,US_Cities_List/camera.png,US_Cities_List/globe.png,,,,,,,,,,,,,,,,,,,,,,,,,,,,
null,,black_cross(without_color),780676,,blue,,,,,null,US_Cities_List/camera.png,US_Cities_List/globe.png,,,,,,,,,,,,,,,,,,,,,,,,,,,,
null,,rt_plussign_withcolor,781181,,blue,,,,,null,US_Cities_List/camera.png,US_Cities_List/globe.png,,,,,,,,,,,,,,,,,,,,,,,,,,,,
1627.300000011921,,rt_thecrossant_black,782694,,black_plus_sign,,,,,49,,,1,0.9130434782608695,,,,,,,,,,,,,,,,,,,,,,,,,,
null,,color_black,782799,,black_plus_sign,,,,,null,,,,,,,,,,,,,,,,,,,,,,,,,,,,,,
null,,learn_phase(without_color),785821,,black_plus_sign,,,,,null,US_Cities_List/teeth.png,US_Cities_List/jukebox.png,,,,,,,,,,,,,,,,,,,,,,,,,,,,
null,,black_cross(without_color),786291,,green,,,,,null,US_Cities_List/teeth.png,US_Cities_List/jukebox.png,,,,,,,,,,,,,,,,,,,,,,,,,,,,
null,,rt_plussign_withcolor,786794,,green,,,,,null,US_Cities_List/teeth.png,US_Cities_List/jukebox.png,,,,,,,,,,,,,,,,,,,,,,,,,,,,
964.3999999761581,,rt_thecrossant_black,788333,,black_plus_sign,,,,,50,,,1,0.9139784946236559,,,,,,,,,,,,,,,,,,,,,,,,,,
null,,color_black,788439,,black_plus_sign,,,,,null,,,,,,,,,,,,,,,,,,,,,,,,,,,,,,
null,,learn_phase(without_color),791458,,black_plus_sign,,,,,null,US_Cities_List/gong.png,US_Cities_List/wheelchair.png,,,,,,,,,,,,,,,,,,,,,,,,,,,,
null,,black_cross(without_color),792168,,green,,,,,null,US_Cities_List/gong.png,US_Cities_List/wheelchair.png,,,,,,,,,,,,,,,,,,,,,,,,,,,,
null,,rt_plussign_withcolor,792672,,green,,,,,null,US_Cities_List/gong.png,US_Cities_List/wheelchair.png,,,,,,,,,,,,,,,,,,,,,,,,,,,,
null,,rt_thecrossant_black,793974,,black_plus_sign,,,,,null,,,,0.9139784946236559,,,,,,,,,,,,,,,,,,,,,,,,,,
null,,color_black,794080,,black_plus_sign,,,,,null,,,,,,,,,,,,,,,,,,,,,,,,,,,,,,
null,,learn_phase(without_color),797108,,black_plus_sign,,,,,null,US_Cities_List/jukebox.png,US_Cities_List/teeth.png,,,,,,,,,,,,,,,,,,,,,,,,,,,,
null,,black_cross(without_color),797536,,blue,,,,,null,US_Cities_List/jukebox.png,US_Cities_List/teeth.png,,,,,,,,,,,,,,,,,,,,,,,,,,,,
null,,rt_plussign_withcolor,798040,,blue,,,,,null,US_Cities_List/jukebox.png,US_Cities_List/teeth.png,,,,,,,,,,,,,,,,,,,,,,,,,,,,
1140.2000000476837,,rt_thecrossant_black,799625,,black_plus_sign,,,,,49,,,1,0.9148936170212766,,,,,,,,,,,,,,,,,,,,,,,,,,
null,,color_black,799731,,black_plus_sign,,,,,null,,,,,,,,,,,,,,,,,,,,,,,,,,,,,,
null,,learn_phase(without_color),802750,,black_plus_sign,,,,,null,US_Cities_List/globe.png,US_Cities_List/camera.png,,,,,,,,,,,,,,,,,,,,,,,,,,,,
null,,black_cross(without_color),803248,,green,,,,,null,US_Cities_List/globe.png,US_Cities_List/camera.png,,,,,,,,,,,,,,,,,,,,,,,,,,,,
null,,rt_plussign_withcolor,803753,,green,,,,,null,US_Cities_List/globe.png,US_Cities_List/camera.png,,,,,,,,,,,,,,,,,,,,,,,,,,,,
660.4000000357628,,rt_thecrossant_black,805267,,black_plus_sign,,,,,50,,,1,0.9157894736842105,,,,,,,,,,,,,,,,,,,,,,,,,,
null,,color_black,805372,,black_plus_sign,,,,,null,,,,,,,,,,,,,,,,,,,,,,,,,,,,,,
null,,learn_phase(without_color),808395,,black_plus_sign,,,,,null,US_Cities_List/wheelchair.png,US_Cities_List/gong.png,,,,,,,,,,,,,,,,,,,,,,,,,,,,
null,,black_cross(without_color),809004,,green,,,,,null,US_Cities_List/wheelchair.png,US_Cities_List/gong.png,,,,,,,,,,,,,,,,,,,,,,,,,,,,
null,,rt_plussign_withcolor,809508,,green,,,,,null,US_Cities_List/wheelchair.png,US_Cities_List/gong.png,,,,,,,,,,,,,,,,,,,,,,,,,,,,
null,,rt_thecrossant_black,810907,,black_plus_sign,,,,,null,,,,0.9157894736842105,,,,,,,,,,,,,,,,,,,,,,,,,,
null,,color_black,811012,,black_plus_sign,,,,,null,,,,,,,,,,,,,,,,,,,,,,,,,,,,,,
null,,learn_phase(without_color),814040,,black_plus_sign,,,,,null,US_Cities_List/teeth.png,US_Cities_List/jukebox.png,,,,,,,,,,,,,,,,,,,,,,,,,,,,
null,,black_cross(without_color),815086,,green,,,,,null,US_Cities_List/teeth.png,US_Cities_List/jukebox.png,,,,,,,,,,,,,,,,,,,,,,,,,,,,
null,,rt_plussign_withcolor,815591,,green,,,,,null,US_Cities_List/teeth.png,US_Cities_List/jukebox.png,,,,,,,,,,,,,,,,,,,,,,,,,,,,
1254.1000000238419,,rt_thecrossant_black,816556,,black_plus_sign,,,,,50,,,1,0.9166666666666666,,,,,,,,,,,,,,,,,,,,,,,,,,
null,,color_black,816660,,black_plus_sign,,,,,null,,,,,,,,,,,,,,,,,,,,,,,,,,,,,,
null,,learn_phase(without_color),819679,,black_plus_sign,,,,,null,US_Cities_List/camera.png,US_Cities_List/globe.png,,,,,,,,,,,,,,,,,,,,,,,,,,,,
null,,black_cross(without_color),820734,,green,,,,,null,US_Cities_List/camera.png,US_Cities_List/globe.png,,,,,,,,,,,,,,,,,,,,,,,,,,,,
null,,rt_plussign_withcolor,821241,,green,,,,,null,US_Cities_List/camera.png,US_Cities_List/globe.png,,,,,,,,,,,,,,,,,,,,,,,,,,,,
1171,,rt_thecrossant_black,822199,,black_plus_sign,,,,,50,,,1,0.9175257731958762,,,,,,,,,,,,,,,,,,,,,,,,,,
null,,color_black,822304,,black_plus_sign,,,,,null,,,,,,,,,,,,,,,,,,,,,,,,,,,,,,
null,,learn_phase(without_color),825321,,black_plus_sign,,,,,null,US_Cities_List/teeth.png,US_Cities_List/jukebox.png,,,,,,,,,,,,,,,,,,,,,,,,,,,,
null,,black_cross(without_color),826145,,blue,,,,,null,US_Cities_List/teeth.png,US_Cities_List/jukebox.png,,,,,,,,,,,,,,,,,,,,,,,,,,,,
null,,rt_plussign_withcolor,826650,,blue,,,,,null,US_Cities_List/teeth.png,US_Cities_List/jukebox.png,,,,,,,,,,,,,,,,,,,,,,,,,,,,
1805.3999999761581,,rt_thecrossant_black,827838,,black_plus_sign,,,,,49,,,1,0.9183673469387755,,,,,,,,,,,,,,,,,,,,,,,,,,
null,,color_black,827944,,black_plus_sign,,,,,null,,,,,,,,,,,,,,,,,,,,,,,,,,,,,,
null,,learn_phase(without_color),830963,,black_plus_sign,,,,,null,US_Cities_List/basket.png,US_Cities_List/barrel.png,,,,,,,,,,,,,,,,,,,,,,,,,,,,
null,,black_cross(without_color),832036,,blue,,,,,null,US_Cities_List/basket.png,US_Cities_List/barrel.png,,,,,,,,,,,,,,,,,,,,,,,,,,,,
null,,rt_plussign_withcolor,832542,,blue,,,,,null,US_Cities_List/basket.png,US_Cities_List/barrel.png,,,,,,,,,,,,,,,,,,,,,,,,,,,,
null,,rt_thecrossant_black,833481,,black_plus_sign,,,,,null,,,,0.9183673469387755,,,,,,,,,,,,,,,,,,,,,,,,,,
null,,color_black,833588,,black_plus_sign,,,,,null,,,,,,,,,,,,,,,,,,,,,,,,,,,,,,
null,,learn_phase(without_color),836614,,black_plus_sign,,,,,null,US_Cities_List/teeth.png,US_Cities_List/jukebox.png,,,,,,,,,,,,,,,,,,,,,,,,,,,,
null,,black_cross(without_color),837100,,green,,,,,null,US_Cities_List/teeth.png,US_Cities_List/jukebox.png,,,,,,,,,,,,,,,,,,,,,,,,,,,,
null,,rt_plussign_withcolor,837604,,green,,,,,null,US_Cities_List/teeth.png,US_Cities_List/jukebox.png,,,,,,,,,,,,,,,,,,,,,,,,,,,,
1543,,rt_thecrossant_black,839128,,black_plus_sign,,,,,50,,,1,0.9191919191919192,,,,,,,,,,,,,,,,,,,,,,,,,,
null,,color_black,839234,,black_plus_sign,,,,,null,,,,,,,,,,,,,,,,,,,,,,,,,,,,,,
null,,learn_phase(without_color),842261,,black_plus_sign,,,,,null,US_Cities_List/barrel.png,US_Cities_List/basket.png,,,,,,,,,,,,,,,,,,,,,,,,,,,,
null,,black_cross(without_color),842822,,green,,,,,null,US_Cities_List/barrel.png,US_Cities_List/basket.png,,,,,,,,,,,,,,,,,,,,,,,,,,,,
null,,rt_plussign_withcolor,843326,,green,,,,,null,US_Cities_List/barrel.png,US_Cities_List/basket.png,,,,,,,,,,,,,,,,,,,,,,,,,,,,
991.4000000357628,,rt_thecrossant_black,844778,,black_plus_sign,,,,,50,,,1,0.92,,,,,,,,,,,,,,,,,,,,,,,,,,
null,,color_black,844883,,black_plus_sign,,,,,null,,,,,,,,,,,,,,,,,,,,,,,,,,,,,,
null,,learn_phase(without_color),847901,,black_plus_sign,,,,,null,US_Cities_List/globe.png,US_Cities_List/camera.png,,,,,,,,,,,,,,,,,,,,,,,,,,,,
null,,black_cross(without_color),848977,,blue,,,,,null,US_Cities_List/globe.png,US_Cities_List/camera.png,,,,,,,,,,,,,,,,,,,,,,,,,,,,
null,,rt_plussign_withcolor,849483,,blue,,,,,null,US_Cities_List/globe.png,US_Cities_List/camera.png,,,,,,,,,,,,,,,,,,,,,,,,,,,,
null,,rt_thecrossant_black,850420,,black_plus_sign,,,,,null,,,,0.92,,,,,,,,,,,,,,,,,,,,,,,,,,
null,,color_black,850525,,black_plus_sign,,,,,null,,,,,,,,,,,,,,,,,,,,,,,,,,,,,,
null,,learn_phase(without_color),853549,,black_plus_sign,,,,,null,US_Cities_List/jukebox.png,US_Cities_List/teeth.png,,,,,,,,,,,,,,,,,,,,,,,,,,,,
null,,black_cross(without_color),854065,,green,,,,,null,US_Cities_List/jukebox.png,US_Cities_List/teeth.png,,,,,,,,,,,,,,,,,,,,,,,,,,,,
null,,rt_plussign_withcolor,854571,,green,,,,,null,US_Cities_List/jukebox.png,US_Cities_List/teeth.png,,,,,,,,,,,,,,,,,,,,,,,,,,,,
1823.1000000238419,,rt_thecrossant_black,856065,,black_plus_sign,,,,,50,,,1,0.9207920792079208,,,,,,,,,,,,,,,,,,,,,,,,,,
null,,color_black,856172,,black_plus_sign,,,,,null,,,,,,,,,,,,,,,,,,,,,,,,,,,,,,
null,,learn_phase(without_color),859193,,black_plus_sign,,,,,null,US_Cities_List/barrel.png,US_Cities_List/basket.png,,,,,,,,,,,,,,,,,,,,,,,,,,,,
null,,black_cross(without_color),859685,,blue,,,,,null,US_Cities_List/barrel.png,US_Cities_List/basket.png,,,,,,,,,,,,,,,,,,,,,,,,,,,,
null,,rt_plussign_withcolor,860190,,blue,,,,,null,US_Cities_List/barrel.png,US_Cities_List/basket.png,,,,,,,,,,,,,,,,,,,,,,,,,,,,
840.3000000119209,,rt_thecrossant_black,861710,,black_plus_sign,,,,,49,,,1,0.9215686274509803,,,,,,,,,,,,,,,,,,,,,,,,,,
null,,color_black,861817,,black_plus_sign,,,,,null,,,,,,,,,,,,,,,,,,,,,,,,,,,,,,
null,,learn_phase(without_color),864840,,black_plus_sign,,,,,null,US_Cities_List/camera.png,US_Cities_List/globe.png,,,,,,,,,,,,,,,,,,,,,,,,,,,,
null,,black_cross(without_color),865704,,green,,,,,null,US_Cities_List/camera.png,US_Cities_List/globe.png,,,,,,,,,,,,,,,,,,,,,,,,,,,,
null,,rt_plussign_withcolor,866209,,green,,,,,null,US_Cities_List/camera.png,US_Cities_List/globe.png,,,,,,,,,,,,,,,,,,,,,,,,,,,,
null,,rt_thecrossant_black,867356,,black_plus_sign,,,,,null,,,,0.9215686274509803,,,,,,,,,,,,,,,,,,,,,,,,,,
null,,color_black,867460,,black_plus_sign,,,,,null,,,,,,,,,,,,,,,,,,,,,,,,,,,,,,
null,,learn_phase(without_color),870471,,black_plus_sign,,,,,null,US_Cities_List/gong.png,US_Cities_List/wheelchair.png,,,,,,,,,,,,,,,,,,,,,,,,,,,,
null,,black_cross(without_color),871005,,green,,,,,null,US_Cities_List/gong.png,US_Cities_List/wheelchair.png,,,,,,,,,,,,,,,,,,,,,,,,,,,,
null,,rt_plussign_withcolor,871510,,green,,,,,null,US_Cities_List/gong.png,US_Cities_List/wheelchair.png,,,,,,,,,,,,,,,,,,,,,,,,,,,,
1814.8999999761581,,rt_thecrossant_black,872988,,black_plus_sign,,,,,49,,,0,0.912621359223301,,,,,,,,,,,,,,,,,,,,,,,,,,
null,,warning_page,875994,,warning,,,,,null,,,,,,,,,,,,,,,,,,,,,,,,,,,,,,
null,,color_black,876100,,black_plus_sign,,,,,null,,,,,,,,,,,,,,,,,,,,,,,,,,,,,,
null,,learn_phase(without_color),879125,,black_plus_sign,,,,,null,US_Cities_List/barrel.png,US_Cities_List/basket.png,,,,,,,,,,,,,,,,,,,,,,,,,,,,
null,,black_cross(without_color),879543,,green,,,,,null,US_Cities_List/barrel.png,US_Cities_List/basket.png,,,,,,,,,,,,,,,,,,,,,,,,,,,,
null,,rt_plussign_withcolor,880048,,green,,,,,null,US_Cities_List/barrel.png,US_Cities_List/basket.png,,,,,,,,,,,,,,,,,,,,,,,,,,,,
826.3000000119209,,rt_thecrossant_black,881641,,black_plus_sign,,,,,50,,,1,0.9134615384615384,,,,,,,,,,,,,,,,,,,,,,,,,,
null,,color_black,881747,,black_plus_sign,,,,,null,,,,,,,,,,,,,,,,,,,,,,,,,,,,,,
null,,learn_phase(without_color),884770,,black_plus_sign,,,,,null,US_Cities_List/globe.png,US_Cities_List/camera.png,,,,,,,,,,,,,,,,,,,,,,,,,,,,
null,,black_cross(without_color),885493,,green,,,,,null,US_Cities_List/globe.png,US_Cities_List/camera.png,,,,,,,,,,,,,,,,,,,,,,,,,,,,
null,,rt_plussign_withcolor,885999,,green,,,,,null,US_Cities_List/globe.png,US_Cities_List/camera.png,,,,,,,,,,,,,,,,,,,,,,,,,,,,
1676.5,,rt_thecrossant_black,887286,,black_plus_sign,,,,,50,,,1,0.9142857142857143,,,,,,,,,,,,,,,,,,,,,,,,,,
null,,color_black,887392,,black_plus_sign,,,,,null,,,,,,,,,,,,,,,,,,,,,,,,,,,,,,
null,,learn_phase(without_color),890417,,black_plus_sign,,,,,null,US_Cities_List/gong.png,US_Cities_List/wheelchair.png,,,,,,,,,,,,,,,,,,,,,,,,,,,,
null,,black_cross(without_color),890963,,blue,,,,,null,US_Cities_List/gong.png,US_Cities_List/wheelchair.png,,,,,,,,,,,,,,,,,,,,,,,,,,,,
null,,rt_plussign_withcolor,891468,,blue,,,,,null,US_Cities_List/gong.png,US_Cities_List/wheelchair.png,,,,,,,,,,,,,,,,,,,,,,,,,,,,
868.3999999761581,,rt_thecrossant_black,892933,,black_plus_sign,,,,,49,,,1,0.9150943396226415,,,,,,,,,,,,,,,,,,,,,,,,,,
null,,color_black,893041,,black_plus_sign,,,,,null,,,,,,,,,,,,,,,,,,,,,,,,,,,,,,
null,,learn_phase(without_color),896064,,black_plus_sign,,,,,null,US_Cities_List/globe.png,US_Cities_List/camera.png,,,,,,,,,,,,,,,,,,,,,,,,,,,,
null,,black_cross(without_color),897159,,blue,,,,,null,US_Cities_List/globe.png,US_Cities_List/camera.png,,,,,,,,,,,,,,,,,,,,,,,,,,,,
null,,rt_plussign_withcolor,897665,,blue,,,,,null,US_Cities_List/globe.png,US_Cities_List/camera.png,,,,,,,,,,,,,,,,,,,,,,,,,,,,
811.2000000476837,,rt_thecrossant_black,898584,,black_plus_sign,,,,,49,,,1,0.9158878504672897,,,,,,,,,,,,,,,,,,,,,,,,,,
null,,color_black,898689,,black_plus_sign,,,,,null,,,,,,,,,,,,,,,,,,,,,,,,,,,,,,
null,,learn_phase(without_color),901712,,black_plus_sign,,,,,null,US_Cities_List/wheelchair.png,US_Cities_List/gong.png,,,,,,,,,,,,,,,,,,,,,,,,,,,,
null,,black_cross(without_color),902785,,blue,,,,,null,US_Cities_List/wheelchair.png,US_Cities_List/gong.png,,,,,,,,,,,,,,,,,,,,,,,,,,,,
null,,rt_plussign_withcolor,903289,,blue,,,,,null,US_Cities_List/wheelchair.png,US_Cities_List/gong.png,,,,,,,,,,,,,,,,,,,,,,,,,,,,
null,,rt_thecrossant_black,904227,,black_plus_sign,,,,,null,,,,0.9158878504672897,,,,,,,,,,,,,,,,,,,,,,,,,,
null,,color_black,904333,,black_plus_sign,,,,,null,,,,,,,,,,,,,,,,,,,,,,,,,,,,,,
null,,learn_phase(without_color),907357,,black_plus_sign,,,,,null,US_Cities_List/barrel.png,US_Cities_List/basket.png,,,,,,,,,,,,,,,,,,,,,,,,,,,,
null,,black_cross(without_color),908190,,blue,,,,,null,US_Cities_List/barrel.png,US_Cities_List/basket.png,,,,,,,,,,,,,,,,,,,,,,,,,,,,
null,,rt_plussign_withcolor,908695,,blue,,,,,null,US_Cities_List/barrel.png,US_Cities_List/basket.png,,,,,,,,,,,,,,,,,,,,,,,,,,,,
1417.300000011921,,rt_thecrossant_black,909874,,black_plus_sign,,,,,50,,,0,0.9074074074074074,,,,,,,,,,,,,,,,,,,,,,,,,,
null,,warning_page,912880,,warning,,,,,null,,,,,,,,,,,,,,,,,,,,,,,,,,,,,,
null,,color_black,912985,,black_plus_sign,,,,,null,,,,,,,,,,,,,,,,,,,,,,,,,,,,,,
null,,learn_phase(without_color),916013,,black_plus_sign,,,,,null,US_Cities_List/basket.png,US_Cities_List/barrel.png,,,,,,,,,,,,,,,,,,,,,,,,,,,,
null,,black_cross(without_color),917060,,green,,,,,null,US_Cities_List/basket.png,US_Cities_List/barrel.png,,,,,,,,,,,,,,,,,,,,,,,,,,,,
null,,rt_plussign_withcolor,917565,,green,,,,,null,US_Cities_List/basket.png,US_Cities_List/barrel.png,,,,,,,,,,,,,,,,,,,,,,,,,,,,
1276.3999999761581,,rt_thecrossant_black,918531,,black_plus_sign,,,,,50,,,1,0.908256880733945,,,,,,,,,,,,,,,,,,,,,,,,,,
null,,color_black,918638,,black_plus_sign,,,,,null,,,,,,,,,,,,,,,,,,,,,,,,,,,,,,
null,,learn_phase(without_color),921666,,black_plus_sign,,,,,null,US_Cities_List/teeth.png,US_Cities_List/jukebox.png,,,,,,,,,,,,,,,,,,,,,,,,,,,,
null,,black_cross(without_color),922526,,green,,,,,null,US_Cities_List/teeth.png,US_Cities_List/jukebox.png,,,,,,,,,,,,,,,,,,,,,,,,,,,,
null,,rt_plussign_withcolor,923031,,green,,,,,null,US_Cities_List/teeth.png,US_Cities_List/jukebox.png,,,,,,,,,,,,,,,,,,,,,,,,,,,,
1804.300000011921,,rt_thecrossant_black,924182,,black_plus_sign,,,,,49,,,0,0.9,,,,,,,,,,,,,,,,,,,,,,,,,,
null,,color_black,924287,,black_plus_sign,,,,,null,,,,,,,,,,,,,,,,,,,,,,,,,,,,,,
3874.400000035763,,intro_1,928166,,instruct,,,0,,,,,,,,,,,,,,,,,,,,,,,,,,,,,,,,
2063.699999988079,,intro_2,930232,,instruct,,,1,Next,,,,,,,,,,,,,,,,,,,,,,,,,,,,,,,
1312.199999988079,,directmemory_phase,931557,,../static/images/US_Cities_List/wheelchair.png,,,,,50,,,0,0,../static/images/US_Cities_List/dustpan.png,../static/images/US_Cities_List/basket.png,../static/images/US_Cities_List/camera.png,../static/images/US_Cities_List/camera.png,../static/images/US_Cities_List/basket.png,../static/images/US_Cities_List/dustpan.png,0.5,closer,,,,,,,,,,,,,,,,,,
null,,html-keyboard-response,932561,,<p></p>,,,,,null,,,,,,,,,,,,,,,,,,,,,,,,,,,,,,
497.39999997615814,,directmemory_phase,933089,,../static/images/US_Cities_List/hat.png,,,,,49,,,0,0,../static/images/US_Cities_List/barrel.png,../static/images/US_Cities_List/teeth.png,../static/images/US_Cities_List/gong.png,../static/images/US_Cities_List/gong.png,../static/images/US_Cities_List/teeth.png,../static/images/US_Cities_List/barrel.png,0.5,closer,,,,,,,,,,,,,,,,,,
null,,html-keyboard-response,934097,,<p></p>,,,,,null,,,,,,,,,,,,,,,,,,,,,,,,,,,,,,
1722.9000000357628,,directmemory_phase,935843,,../static/images/US_Cities_List/dustpan.png,,,,,51,,,0,0,../static/images/US_Cities_List/jukebox.png,../static/images/US_Cities_List/paint.png,../static/images/US_Cities_List/snail.png,../static/images/US_Cities_List/paint.png,../static/images/US_Cities_List/jukebox.png,../static/images/US_Cities_List/snail.png,0.5,closer,,,,,,,,,,,,,,,,,,
null,,html-keyboard-response,936849,,<p></p>,,,,,null,,,,,,,,,,,,,,,,,,,,,,,,,,,,,,
1279.699999988079,,directmemory_phase,938153,,../static/images/US_Cities_List/wheelchair.png,,,,,50,,,0,0,../static/images/US_Cities_List/dustpan.png,../static/images/US_Cities_List/basket.png,../static/images/US_Cities_List/soldier.png,../static/images/US_Cities_List/soldier.png,../static/images/US_Cities_List/basket.png,../static/images/US_Cities_List/dustpan.png,0.5,closer,,,,,,,,,,,,,,,,,,
null,,html-keyboard-response,939159,,<p></p>,,,,,null,,,,,,,,,,,,,,,,,,,,,,,,,,,,,,
3131.900000035763,,directmemory_phase,942330,,../static/images/US_Cities_List/teeth.png,,,,,51,,,1,0.2,../static/images/US_Cities_List/barrel.png,../static/images/US_Cities_List/camera.png,../static/images/US_Cities_List/gong.png,../static/images/US_Cities_List/gong.png,../static/images/US_Cities_List/camera.png,../static/images/US_Cities_List/barrel.png,1,,,,,,,,,,,,,,,,,,,
null,,html-keyboard-response,943338,,<p></p>,,,,,null,,,,,,,,,,,,,,,,,,,,,,,,,,,,,,
793.6999999880791,,directmemory_phase,944164,,../static/images/US_Cities_List/camera.png,,,,,49,,,1,0.3333333333333333,../static/images/US_Cities_List/globe.png,../static/images/US_Cities_List/hat.png,../static/images/US_Cities_List/teeth.png,../static/images/US_Cities_List/globe.png,../static/images/US_Cities_List/teeth.png,../static/images/US_Cities_List/hat.png,1,,,,,,,,,,,,,,,,,,,
null,,html-keyboard-response,945171,,<p></p>,,,,,null,,,,,,,,,,,,,,,,,,,,,,,,,,,,,,
2826.300000011921,,directmemory_phase,948030,,../static/images/US_Cities_List/basket.png,,,,,50,,,0,0.2857142857142857,../static/images/US_Cities_List/gong.png,../static/images/US_Cities_List/wheelchair.png,../static/images/US_Cities_List/barrel.png,../static/images/US_Cities_List/barrel.png,../static/images/US_Cities_List/wheelchair.png,../static/images/US_Cities_List/gong.png,0.5,closer,,,,,,,,,,,,,,,,,,
null,,html-keyboard-response,949036,,<p></p>,,,,,null,,,,,,,,,,,,,,,,,,,,,,,,,,,,,,
5666.899999976158,,directmemory_phase,954728,,../static/images/US_Cities_List/teeth.png,,,,,50,,,1,0.375,../static/images/US_Cities_List/paint.png,../static/images/US_Cities_List/soldier.png,../static/images/US_Cities_List/barrel.png,../static/images/US_Cities_List/soldier.png,../static/images/US_Cities_List/paint.png,../static/images/US_Cities_List/barrel.png,1,,,,,,,,,,,,,,,,,,,
null,,html-keyboard-response,955734,,<p></p>,,,,,null,,,,,,,,,,,,,,,,,,,,,,,,,,,,,,
5126.199999988079,,directmemory_phase,960890,,../static/images/US_Cities_List/barrel.png,,,,,50,,,0,0.3333333333333333,../static/images/US_Cities_List/jukebox.png,../static/images/US_Cities_List/gong.png,../static/images/US_Cities_List/camera.png,../static/images/US_Cities_List/camera.png,../static/images/US_Cities_List/gong.png,../static/images/US_Cities_List/jukebox.png,0.5,closer,,,,,,,,,,,,,,,,,,
null,,html-keyboard-response,961897,,<p></p>,,,,,null,,,,,,,,,,,,,,,,,,,,,,,,,,,,,,
5901.300000011921,,directmemory_phase,967827,,../static/images/US_Cities_List/paint.png,,,,,49,,,1,0.4,../static/images/US_Cities_List/jukebox.png,../static/images/US_Cities_List/wheelchair.png,../static/images/US_Cities_List/snail.png,../static/images/US_Cities_List/jukebox.png,../static/images/US_Cities_List/snail.png,../static/images/US_Cities_List/wheelchair.png,1,,,,,,,,,,,,,,,,,,,
null,,html-keyboard-response,968834,,<p></p>,,,,,null,,,,,,,,,,,,,,,,,,,,,,,,,,,,,,
5748.5,,directmemory_phase,974609,,../static/images/US_Cities_List/soldier.png,,,,,50,,,1,0.45454545454545453,../static/images/US_Cities_List/globe.png,../static/images/US_Cities_List/camera.png,../static/images/US_Cities_List/basket.png,../static/images/US_Cities_List/camera.png,../static/images/US_Cities_List/globe.png,../static/images/US_Cities_List/basket.png,1,,,,,,,,,,,,,,,,,,,
null,,html-keyboard-response,975616,,<p></p>,,,,,null,,,,,,,,,,,,,,,,,,,,,,,,,,,,,,
1376.5,,directmemory_phase,977021,,../static/images/US_Cities_List/hat.png,,,,,49,,,1,0.5,../static/images/US_Cities_List/paint.png,../static/images/US_Cities_List/snail.png,../static/images/US_Cities_List/wheelchair.png,../static/images/US_Cities_List/paint.png,../static/images/US_Cities_List/wheelchair.png,../static/images/US_Cities_List/snail.png,1,,,,,,,,,,,,,,,,,,,
null,,html-keyboard-response,978028,,<p></p>,,,,,null,,,,,,,,,,,,,,,,,,,,,,,,,,,,,,
1417.5,,directmemory_phase,979480,,../static/images/US_Cities_List/gong.png,,,,,51,,,1,0.5384615384615384,../static/images/US_Cities_List/basket.png,../static/images/US_Cities_List/paint.png,../static/images/US_Cities_List/teeth.png,../static/images/US_Cities_List/teeth.png,../static/images/US_Cities_List/paint.png,../static/images/US_Cities_List/basket.png,1,,,,,,,,,,,,,,,,,,,
null,,html-keyboard-response,980487,,<p></p>,,,,,null,,,,,,,,,,,,,,,,,,,,,,,,,,,,,,
2013.4000000357628,,directmemory_phase,982531,,../static/images/US_Cities_List/paint.png,,,,,51,,,1,0.5714285714285714,../static/images/US_Cities_List/camera.png,../static/images/US_Cities_List/gong.png,../static/images/US_Cities_List/hat.png,../static/images/US_Cities_List/hat.png,../static/images/US_Cities_List/gong.png,../static/images/US_Cities_List/camera.png,1,,,,,,,,,,,,,,,,,,,
null,,html-keyboard-response,983539,,<p></p>,,,,,null,,,,,,,,,,,,,,,,,,,,,,,,,,,,,,
2170.699999988079,,directmemory_phase,985741,,../static/images/US_Cities_List/barrel.png,,,,,49,,,1,0.6,../static/images/US_Cities_List/wheelchair.png,../static/images/US_Cities_List/paint.png,../static/images/US_Cities_List/gong.png,../static/images/US_Cities_List/wheelchair.png,../static/images/US_Cities_List/gong.png,../static/images/US_Cities_List/paint.png,1,,,,,,,,,,,,,,,,,,,
null,,html-keyboard-response,986748,,<p></p>,,,,,null,,,,,,,,,,,,,,,,,,,,,,,,,,,,,,
1113.5,,directmemory_phase,987898,,../static/images/US_Cities_List/teeth.png,,,,,51,,,0,0.5625,../static/images/US_Cities_List/camera.png,../static/images/US_Cities_List/jukebox.png,../static/images/US_Cities_List/barrel.png,../static/images/US_Cities_List/jukebox.png,../static/images/US_Cities_List/camera.png,../static/images/US_Cities_List/barrel.png,0.5,closer,,,,,,,,,,,,,,,,,,
null,,html-keyboard-response,988905,,<p></p>,,,,,null,,,,,,,,,,,,,,,,,,,,,,,,,,,,,,
null,,directmemory_phase,995437,,../static/images/US_Cities_List/paint.png,,,,,null,,,0,0.5294117647058824,../static/images/US_Cities_List/barrel.png,../static/images/US_Cities_List/teeth.png,../static/images/US_Cities_List/dustpan.png,../static/images/US_Cities_List/dustpan.png,../static/images/US_Cities_List/teeth.png,../static/images/US_Cities_List/barrel.png,0,,,,,,,,,,,,,,,,,,,
null,,html-keyboard-response,996445,,<p></p>,,,,,null,,,,,,,,,,,,,,,,,,,,,,,,,,,,,,
1725.1000000238419,,directmemory_phase,998202,,../static/images/US_Cities_List/snail.png,,,,,49,,,1,0.5555555555555556,../static/images/US_Cities_List/jukebox.png,../static/images/US_Cities_List/camera.png,../static/images/US_Cities_List/paint.png,../static/images/US_Cities_List/jukebox.png,../static/images/US_Cities_List/paint.png,../static/images/US_Cities_List/camera.png,1,,,,,,,,,,,,,,,,,,,
null,,html-keyboard-response,999212,,<p></p>,,,,,null,,,,,,,,,,,,,,,,,,,,,,,,,,,,,,
3605,,directmemory_phase,1002837,,../static/images/US_Cities_List/soldier.png,,,,,49,,,0,0.5263157894736842,../static/images/US_Cities_List/dustpan.png,../static/images/US_Cities_List/barrel.png,../static/images/US_Cities_List/teeth.png,../static/images/US_Cities_List/teeth.png,../static/images/US_Cities_List/barrel.png,../static/images/US_Cities_List/dustpan.png,0.5,closer,,,,,,,,,,,,,,,,,,
null,,html-keyboard-response,1003844,,<p></p>,,,,,null,,,,,,,,,,,,,,,,,,,,,,,,,,,,,,
3108.099999964237,,directmemory_phase,1006982,,../static/images/US_Cities_List/wheelchair.png,,,,,49,,,0,0.5,../static/images/US_Cities_List/dustpan.png,../static/images/US_Cities_List/teeth.png,../static/images/US_Cities_List/barrel.png,../static/images/US_Cities_List/barrel.png,../static/images/US_Cities_List/teeth.png,../static/images/US_Cities_List/dustpan.png,0.5,closer,,,,,,,,,,,,,,,,,,
null,,html-keyboard-response,1007987,,<p></p>,,,,,null,,,,,,,,,,,,,,,,,,,,,,,,,,,,,,
2104.600000023842,,directmemory_phase,1010118,,../static/images/US_Cities_List/gong.png,,,,,50,,,0,0.47619047619047616,../static/images/US_Cities_List/snail.png,../static/images/US_Cities_List/jukebox.png,../static/images/US_Cities_List/hat.png,../static/images/US_Cities_List/hat.png,../static/images/US_Cities_List/jukebox.png,../static/images/US_Cities_List/snail.png,0.5,closer,,,,,,,,,,,,,,,,,,
null,,html-keyboard-response,1011125,,<p></p>,,,,,null,,,,,,,,,,,,,,,,,,,,,,,,,,,,,,
2404.900000035763,,directmemory_phase,1013563,,../static/images/US_Cities_List/jukebox.png,,,,,49,,,0,0.45454545454545453,../static/images/US_Cities_List/wheelchair.png,../static/images/US_Cities_List/hat.png,../static/images/US_Cities_List/teeth.png,../static/images/US_Cities_List/teeth.png,../static/images/US_Cities_List/hat.png,../static/images/US_Cities_List/wheelchair.png,0.5,closer,,,,,,,,,,,,,,,,,,
null,,html-keyboard-response,1014571,,<p></p>,,,,,null,,,,,,,,,,,,,,,,,,,,,,,,,,,,,,
3408.899999976158,,directmemory_phase,1018010,,../static/images/US_Cities_List/gong.png,,,,,49,,,0,0.43478260869565216,../static/images/US_Cities_List/globe.png,../static/images/US_Cities_List/barrel.png,../static/images/US_Cities_List/wheelchair.png,../static/images/US_Cities_List/wheelchair.png,../static/images/US_Cities_List/barrel.png,../static/images/US_Cities_List/globe.png,0.5,closer,,,,,,,,,,,,,,,,,,
null,,html-keyboard-response,1019016,,<p></p>,,,,,null,,,,,,,,,,,,,,,,,,,,,,,,,,,,,,
3812.800000011921,,directmemory_phase,1022855,,../static/images/US_Cities_List/camera.png,,,,,50,,,1,0.4583333333333333,../static/images/US_Cities_List/gong.png,../static/images/US_Cities_List/soldier.png,../static/images/US_Cities_List/snail.png,../static/images/US_Cities_List/soldier.png,../static/images/US_Cities_List/gong.png,../static/images/US_Cities_List/snail.png,1,,,,,,,,,,,,,,,,,,,
null,,html-keyboard-response,1023863,,<p></p>,,,,,null,,,,,,,,,,,,,,,,,,,,,,,,,,,,,,
4059.7999999523163,,directmemory_phase,1027948,,../static/images/US_Cities_List/wheelchair.png,,,,,50,,,1,0.48,../static/images/US_Cities_List/basket.png,../static/images/US_Cities_List/gong.png,../static/images/US_Cities_List/paint.png,../static/images/US_Cities_List/gong.png,../static/images/US_Cities_List/basket.png,../static/images/US_Cities_List/paint.png,1,,,,,,,,,,,,,,,,,,,
null,,html-keyboard-response,1028956,,<p></p>,,,,,null,,,,,,,,,,,,,,,,,,,,,,,,,,,,,,
4628,,directmemory_phase,1033610,,../static/images/US_Cities_List/globe.png,,,,,49,,,0,0.46153846153846156,../static/images/US_Cities_List/basket.png,../static/images/US_Cities_List/soldier.png,../static/images/US_Cities_List/camera.png,../static/images/US_Cities_List/camera.png,../static/images/US_Cities_List/soldier.png,../static/images/US_Cities_List/basket.png,0.5,closer,,,,,,,,,,,,,,,,,,
null,,html-keyboard-response,1034617,,<p></p>,,,,,null,,,,,,,,,,,,,,,,,,,,,,,,,,,,,,
482.7000000476837,,directmemory_phase,1035129,,../static/images/US_Cities_List/barrel.png,,,,,51,,,0,0.4444444444444444,../static/images/US_Cities_List/basket.png,../static/images/US_Cities_List/paint.png,../static/images/US_Cities_List/globe.png,../static/images/US_Cities_List/basket.png,../static/images/US_Cities_List/globe.png,../static/images/US_Cities_List/paint.png,0.5,closer,,,,,,,,,,,,,,,,,,
null,,html-keyboard-response,1036137,,<p></p>,,,,,null,,,,,,,,,,,,,,,,,,,,,,,,,,,,,,
4031,,directmemory_phase,1040198,,../static/images/US_Cities_List/camera.png,,,,,50,,,0,0.42857142857142855,../static/images/US_Cities_List/wheelchair.png,../static/images/US_Cities_List/hat.png,../static/images/US_Cities_List/basket.png,../static/images/US_Cities_List/wheelchair.png,../static/images/US_Cities_List/basket.png,../static/images/US_Cities_List/hat.png,0.5,closer,,,,,,,,,,,,,,,,,,
null,,html-keyboard-response,1041207,,<p></p>,,,,,null,,,,,,,,,,,,,,,,,,,,,,,,,,,,,,
2135,,directmemory_phase,1043375,,../static/images/US_Cities_List/jukebox.png,,,,,49,,,1,0.4482758620689655,../static/images/US_Cities_List/snail.png,../static/images/US_Cities_List/globe.png,../static/images/US_Cities_List/hat.png,../static/images/US_Cities_List/snail.png,../static/images/US_Cities_List/hat.png,../static/images/US_Cities_List/globe.png,1,,,,,,,,,,,,,,,,,,,
null,,html-keyboard-response,1044383,,<p></p>,,,,,null,,,,,,,,,,,,,,,,,,,,,,,,,,,,,,
4615.099999964237,,directmemory_phase,1049027,,../static/images/US_Cities_List/camera.png,,,,,50,,,1,0.4666666666666667,../static/images/US_Cities_List/gong.png,../static/images/US_Cities_List/barrel.png,../static/images/US_Cities_List/jukebox.png,../static/images/US_Cities_List/barrel.png,../static/images/US_Cities_List/gong.png,../static/images/US_Cities_List/jukebox.png,1,,,,,,,,,,,,,,,,,,,
null,,html-keyboard-response,1050033,,<p></p>,,,,,null,,,,,,,,,,,,,,,,,,,,,,,,,,,,,,
3155.300000011921,,directmemory_phase,1053211,,../static/images/US_Cities_List/jukebox.png,,,,,50,,,0,0.45161290322580644,../static/images/US_Cities_List/globe.png,../static/images/US_Cities_List/hat.png,../static/images/US_Cities_List/paint.png,../static/images/US_Cities_List/paint.png,../static/images/US_Cities_List/hat.png,../static/images/US_Cities_List/globe.png,0.5,closer,,,,,,,,,,,,,,,,,,
null,,html-keyboard-response,1054217,,<p></p>,,,,,null,,,,,,,,,,,,,,,,,,,,,,,,,,,,,,
529.3000000119209,,directmemory_phase,1054778,,../static/images/US_Cities_List/soldier.png,,,,,50,,,0,0.4375,../static/images/US_Cities_List/wheelchair.png,../static/images/US_Cities_List/hat.png,../static/images/US_Cities_List/jukebox.png,../static/images/US_Cities_List/wheelchair.png,../static/images/US_Cities_List/jukebox.png,../static/images/US_Cities_List/hat.png,0.5,closer,,,,,,,,,,,,,,,,,,
