rt,responses,trial_type,time_elapsed,sequence,stimulus,cities,city_images,button_pressed,response,key_press,stimulus_left,stimulus_right,accuracy,cumulative_accuracy,stimulus_down_left,stimulus_down_mid,stimulus_down_right,stimulus_correct,stimulus_short,stimulus_far,weighted_accuracy,missedtrial,condition,specific_pairs,imgL_ID,imgR_ID,linedress,linedressed,detour_trial,linedressed_detor
7992.200000000186,{worker_id:3024},id_enter,7994,blocked,intro,Orchard Bend; Claywater; Hawthorne Bluffs; Delaro Park; Granton Ridge; Juniper Creek; Baymarsh; North Arroya; Cedarwyn; Sunmere; New Verdan; Riverlyn; Hollendale,US_Cities_List/dustpan.png; US_Cities_List/camera.png; US_Cities_List/gong.png; US_Cities_List/teeth.png; US_Cities_List/wheelchair.png; US_Cities_List/globe.png; US_Cities_List/soldier.png; US_Cities_List/basket.png; US_Cities_List/paint.png; US_Cities_List/hat.png; US_Cities_List/snail.png; US_Cities_List/barrel.png; US_Cities_List/jukebox.png,,,,,,,,,,,,,,,,,,,,,,,
2984.0999999996275,,fullscreen,10987,,make_fullscreen,,,0,,,,,,,,,,,,,,,,,,,,,,
272061,,intro_1,283054,,instruct,,,0,,,,,,,,,,,,,,,,,,,,,,
9426.599999999627,,intro_2,292483,,instruct,,,1,Next,,,,,,,,,,,,,,,,,,,,,
7565.299999999814,,intro_3,300051,,instruct,,,1,Next,,,,,,,,,,,,,,,,,,,,,
3590,,intro_4,303644,,instruct,,,1,Next,,,,,,,,,,,,,,,,,,,,,
6224.4000000003725,,intro_5,309871,,instruct,,,1,Next,,,,,,,,,,,,,,,,,,,,,
14082.399999999441,,intro_6,323956,,instruct,,,1,Next,,,,,,,,,,,,,,,,,,,,,
4888.5,,intro_7,328847,,instruct,,,1,Next,,,,,,,,,,,,,,,,,,,,,
8769.5,,intro_8,337619,,instruct,,,1,Next,,,,,,,,,,,,,,,,,,,,,
3358.7000000001863,,intro_9,340980,,instruct,,,1,Next,,,,,,,,,,,,,,,,,,,,,
4411.200000000186,,intro_10,345394,,instruct,,,1,Next,,,,,,,,,,,,,,,,,,,,,
4363.5999999996275,,intro_11,349760,,instruct,,,1,Next,,,,,,,,,,,,,,,,,,,,,
10788.799999999814,,intro_12,360551,,instruct,,,1,Next,,,,,,,,,,,,,,,,,,,,,
null,,prac_atten_color_black,361402,,black_plus_sign,,,,,null,,,,,,,,,,,,,,,,,,,,
null,,prac_atten_color,361960,,prac_stop_color,,,,,null,,,,,,,,,,,,,,,,,,,,
94.80000000074506,,prac_atten_color_black,363963,,black_plus_sign,,,,,50,,,,,,,,,,,,,,,,,,,,
6046.5999999996275,,attentioncheck_help,370013,,instruct,,,,,32,,,,,,,,,,,,,,,,,,,,
null,,prac_atten_color_black,370862,,black_plus_sign,,,,,null,,,,,,,,,,,,,,,,,,,,
452.70000000018626,,prac_atten_color,371418,,prac_stop_color,,,,,50,,,,,,,,,,,,,,,,,,,,
null,,prac_atten_color_black,373421,,black_plus_sign,,,,,null,,,,,,,,,,,,,,,,,,,,
null,,prac_atten_color_black,374273,,black_plus_sign,,,,,null,,,,,,,,,,,,,,,,,,,,
null,,prac_atten_color,374707,,prac_stop_color,,,,,null,,,,,,,,,,,,,,,,,,,,
202.5,,prac_atten_color_black,376710,,black_plus_sign,,,,,50,,,,,,,,,,,,,,,,,,,,
null,,prac_atten_color_black,377684,,black_plus_sign,,,,,null,,,,,,,,,,,,,,,,,,,,
547.8000000007451,,prac_atten_color,378497,,prac_stop_color,,,,,49,,,,,,,,,,,,,,,,,,,,
null,,prac_atten_color_black,380500,,black_plus_sign,,,,,null,,,,,,,,,,,,,,,,,,,,
null,,prac_atten_color_black,381095,,black_plus_sign,,,,,null,,,,,,,,,,,,,,,,,,,,
429,,prac_atten_color,382037,,prac_stop_color,,,,,50,,,,,,,,,,,,,,,,,,,,
null,,prac_atten_color_black,384041,,black_plus_sign,,,,,null,,,,,,,,,,,,,,,,,,,,
null,,prac_atten_color_black,384504,,black_plus_sign,,,,,null,,,,,,,,,,,,,,,,,,,,
409.20000000018626,,prac_atten_color,385284,,prac_stop_color,,,,,50,,,,,,,,,,,,,,,,,,,,
null,,prac_atten_color_black,387287,,black_plus_sign,,,,,null,,,,,,,,,,,,,,,,,,,,
null,,prac_atten_color_black,387914,,black_plus_sign,,,,,null,,,,,,,,,,,,,,,,,,,,
335.20000000018626,,prac_atten_color,388635,,prac_stop_color,,,,,49,,,,,,,,,,,,,,,,,,,,
null,,prac_atten_color_black,390638,,black_plus_sign,,,,,null,,,,,,,,,,,,,,,,,,,,
null,,prac_atten_color_black,391325,,black_plus_sign,,,,,null,,,,,,,,,,,,,,,,,,,,
376.69999999925494,,prac_atten_color,391820,,prac_stop_color,,,,,50,,,,,,,,,,,,,,,,,,,,
null,,prac_atten_color_black,393823,,black_plus_sign,,,,,null,,,,,,,,,,,,,,,,,,,,
null,,prac_atten_color_black,394735,,black_plus_sign,,,,,null,,,,,,,,,,,,,,,,,,,,
475,,prac_atten_color,395750,,prac_stop_color,,,,,49,,,,,,,,,,,,,,,,,,,,
null,,prac_atten_color_black,397754,,black_plus_sign,,,,,null,,,,,,,,,,,,,,,,,,,,
null,,prac_atten_color_black,398146,,black_plus_sign,,,,,null,,,,,,,,,,,,,,,,,,,,
null,,prac_atten_color,398681,,prac_stop_color,,,,,null,,,,,,,,,,,,,,,,,,,,
11.299999999813735,,prac_atten_color_black,400684,,black_plus_sign,,,,,49,,,,,,,,,,,,,,,,,,,,
9381,,attentioncheck_feedback,410068,,cross_check_feedback,,,0,,,,,,,,,,,,,,,,,,,,,,
5248.299999999814,,last_instruct,415317,,instruct,,,,,32,,,,,,,,,,,,,,,,,,,,
null,,learn_phase(without_color),418330,,black_plus_sign,,,,,null,US_Cities_List/hat.png,US_Cities_List/basket.png,,,,,,,,,,,,,,,,,,
null,,black_cross(without_color),418886,,green,,,,,null,US_Cities_List/hat.png,US_Cities_List/basket.png,,,,,,,,,,,,,,,,,,
null,,rt_plussign_withcolor,419389,,green,,,,,null,US_Cities_List/hat.png,US_Cities_List/basket.png,,,,,,,,,,,,,,,,,,
856,,rt_thecrossant_black,420840,,black_plus_sign,,,,,50,,,1,1,,,,,,,,,,,,,,,,
null,,color_black,420944,,black_plus_sign,,,,,null,,,,,,,,,,,,,,,,,,,,
null,,learn_phase(without_color),423954,,black_plus_sign,,,,,null,US_Cities_List/soldier.png,US_Cities_List/globe.png,,,,,,,,,,,,,,,,,,
null,,black_cross(without_color),424524,,blue,,,,,null,US_Cities_List/soldier.png,US_Cities_List/globe.png,,,,,,,,,,,,,,,,,,
null,,rt_plussign_withcolor,425027,,blue,,,,,null,US_Cities_List/soldier.png,US_Cities_List/globe.png,,,,,,,,,,,,,,,,,,
871.3000000007451,,rt_thecrossant_black,426464,,black_plus_sign,,,,,49,,,1,1,,,,,,,,,,,,,,,,
null,,color_black,426567,,black_plus_sign,,,,,null,,,,,,,,,,,,,,,,,,,,
null,,learn_phase(without_color),429585,,black_plus_sign,,,,,null,US_Cities_List/basket.png,US_Cities_List/hat.png,,,,,,,,,,,,,,,,,,
null,,black_cross(without_color),430268,,blue,,,,,null,US_Cities_List/basket.png,US_Cities_List/hat.png,,,,,,,,,,,,,,,,,,
486.5,,rt_plussign_withcolor,430771,,blue,,,,,49,US_Cities_List/basket.png,US_Cities_List/hat.png,,,,,,,,,,,,,,,,,,
null,,rt_thecrossant_black,432093,,black_plus_sign,,,,,null,,,1,1,,,,,,,,,,,,,,,,
null,,color_black,432197,,black_plus_sign,,,,,null,,,,,,,,,,,,,,,,,,,,
null,,learn_phase(without_color),435209,,black_plus_sign,,,,,null,US_Cities_List/soldier.png,US_Cities_List/globe.png,,,,,,,,,,,,,,,,,,
null,,black_cross(without_color),436205,,green,,,,,null,US_Cities_List/soldier.png,US_Cities_List/globe.png,,,,,,,,,,,,,,,,,,
381.79999999981374,,rt_plussign_withcolor,436707,,green,,,,,50,US_Cities_List/soldier.png,US_Cities_List/globe.png,,,,,,,,,,,,,,,,,,
null,,rt_thecrossant_black,437718,,black_plus_sign,,,,,null,,,1,1,,,,,,,,,,,,,,,,
null,,color_black,437822,,black_plus_sign,,,,,null,,,,,,,,,,,,,,,,,,,,
null,,learn_phase(without_color),440834,,black_plus_sign,,,,,null,US_Cities_List/snail.png,US_Cities_List/paint.png,,,,,,,,,,,,,,,,,,
null,,black_cross(without_color),441886,,blue,,,,,null,US_Cities_List/snail.png,US_Cities_List/paint.png,,,,,,,,,,,,,,,,,,
396,,rt_plussign_withcolor,442388,,blue,,,,,49,US_Cities_List/snail.png,US_Cities_List/paint.png,,,,,,,,,,,,,,,,,,
null,,rt_thecrossant_black,443344,,black_plus_sign,,,,,null,,,1,1,,,,,,,,,,,,,,,,
null,,color_black,443446,,black_plus_sign,,,,,null,,,,,,,,,,,,,,,,,,,,
null,,learn_phase(without_color),446458,,black_plus_sign,,,,,null,US_Cities_List/soldier.png,US_Cities_List/globe.png,,,,,,,,,,,,,,,,,,
null,,black_cross(without_color),447310,,blue,,,,,null,US_Cities_List/soldier.png,US_Cities_List/globe.png,,,,,,,,,,,,,,,,,,
408.20000000018626,,rt_plussign_withcolor,447813,,blue,,,,,49,US_Cities_List/soldier.png,US_Cities_List/globe.png,,,,,,,,,,,,,,,,,,
null,,rt_thecrossant_black,448967,,black_plus_sign,,,,,null,,,1,1,,,,,,,,,,,,,,,,
null,,color_black,449070,,black_plus_sign,,,,,null,,,,,,,,,,,,,,,,,,,,
null,,learn_phase(without_color),452088,,black_plus_sign,,,,,null,US_Cities_List/teeth.png,US_Cities_List/camera.png,,,,,,,,,,,,,,,,,,
null,,black_cross(without_color),452834,,green,,,,,null,US_Cities_List/teeth.png,US_Cities_List/camera.png,,,,,,,,,,,,,,,,,,
null,,rt_plussign_withcolor,453338,,green,,,,,null,US_Cities_List/teeth.png,US_Cities_List/camera.png,,,,,,,,,,,,,,,,,,
1254.7000000001863,,rt_thecrossant_black,454598,,black_plus_sign,,,,,50,,,1,1,,,,,,,,,,,,,,,,
null,,color_black,454701,,black_plus_sign,,,,,null,,,,,,,,,,,,,,,,,,,,
null,,learn_phase(without_color),457714,,black_plus_sign,,,,,null,US_Cities_List/soldier.png,US_Cities_List/globe.png,,,,,,,,,,,,,,,,,,
null,,black_cross(without_color),458776,,green,,,,,null,US_Cities_List/soldier.png,US_Cities_List/globe.png,,,,,,,,,,,,,,,,,,
null,,rt_plussign_withcolor,459279,,green,,,,,null,US_Cities_List/soldier.png,US_Cities_List/globe.png,,,,,,,,,,,,,,,,,,
874.2000000001863,,rt_thecrossant_black,460224,,black_plus_sign,,,,,50,,,1,1,,,,,,,,,,,,,,,,
null,,color_black,460327,,black_plus_sign,,,,,null,,,,,,,,,,,,,,,,,,,,
null,,learn_phase(without_color),463345,,black_plus_sign,,,,,null,US_Cities_List/basket.png,US_Cities_List/hat.png,,,,,,,,,,,,,,,,,,
null,,black_cross(without_color),464293,,blue,,,,,null,US_Cities_List/basket.png,US_Cities_List/hat.png,,,,,,,,,,,,,,,,,,
null,,rt_plussign_withcolor,464797,,blue,,,,,null,US_Cities_List/basket.png,US_Cities_List/hat.png,,,,,,,,,,,,,,,,,,
1164.5,,rt_thecrossant_black,465854,,black_plus_sign,,,,,49,,,1,1,,,,,,,,,,,,,,,,
null,,color_black,465958,,black_plus_sign,,,,,null,,,,,,,,,,,,,,,,,,,,
null,,learn_phase(without_color),468971,,black_plus_sign,,,,,null,US_Cities_List/globe.png,US_Cities_List/soldier.png,,,,,,,,,,,,,,,,,,
null,,black_cross(without_color),469953,,green,,,,,null,US_Cities_List/globe.png,US_Cities_List/soldier.png,,,,,,,,,,,,,,,,,,
null,,rt_plussign_withcolor,470456,,green,,,,,null,US_Cities_List/globe.png,US_Cities_List/soldier.png,,,,,,,,,,,,,,,,,,
1285.5999999996275,,rt_thecrossant_black,471480,,black_plus_sign,,,,,50,,,1,1,,,,,,,,,,,,,,,,
null,,color_black,471584,,black_plus_sign,,,,,null,,,,,,,,,,,,,,,,,,,,
null,,learn_phase(without_color),474598,,black_plus_sign,,,,,null,US_Cities_List/teeth.png,US_Cities_List/camera.png,,,,,,,,,,,,,,,,,,
null,,black_cross(without_color),475221,,green,,,,,null,US_Cities_List/teeth.png,US_Cities_List/camera.png,,,,,,,,,,,,,,,,,,
null,,rt_plussign_withcolor,475724,,green,,,,,null,US_Cities_List/teeth.png,US_Cities_List/camera.png,,,,,,,,,,,,,,,,,,
1627.3999999994412,,rt_thecrossant_black,477108,,black_plus_sign,,,,,50,,,1,1,,,,,,,,,,,,,,,,
null,,color_black,477211,,black_plus_sign,,,,,null,,,,,,,,,,,,,,,,,,,,
null,,learn_phase(without_color),480225,,black_plus_sign,,,,,null,US_Cities_List/basket.png,US_Cities_List/hat.png,,,,,,,,,,,,,,,,,,
null,,black_cross(without_color),480710,,blue,,,,,null,US_Cities_List/basket.png,US_Cities_List/hat.png,,,,,,,,,,,,,,,,,,
null,,rt_plussign_withcolor,481213,,blue,,,,,null,US_Cities_List/basket.png,US_Cities_List/hat.png,,,,,,,,,,,,,,,,,,
1042.2000000001863,,rt_thecrossant_black,482734,,black_plus_sign,,,,,49,,,1,1,,,,,,,,,,,,,,,,
null,,color_black,482838,,black_plus_sign,,,,,null,,,,,,,,,,,,,,,,,,,,
null,,learn_phase(without_color),485848,,black_plus_sign,,,,,null,US_Cities_List/globe.png,US_Cities_List/soldier.png,,,,,,,,,,,,,,,,,,
null,,black_cross(without_color),486845,,blue,,,,,null,US_Cities_List/globe.png,US_Cities_List/soldier.png,,,,,,,,,,,,,,,,,,
null,,rt_plussign_withcolor,487347,,blue,,,,,null,US_Cities_List/globe.png,US_Cities_List/soldier.png,,,,,,,,,,,,,,,,,,
1099.2999999998137,,rt_thecrossant_black,488358,,black_plus_sign,,,,,49,,,1,1,,,,,,,,,,,,,,,,
null,,color_black,488461,,black_plus_sign,,,,,null,,,,,,,,,,,,,,,,,,,,
null,,learn_phase(without_color),491479,,black_plus_sign,,,,,null,US_Cities_List/teeth.png,US_Cities_List/camera.png,,,,,,,,,,,,,,,,,,
null,,black_cross(without_color),492395,,green,,,,,null,US_Cities_List/teeth.png,US_Cities_List/camera.png,,,,,,,,,,,,,,,,,,
423.1000000005588,,rt_plussign_withcolor,492898,,green,,,,,50,US_Cities_List/teeth.png,US_Cities_List/camera.png,,,,,,,,,,,,,,,,,,
null,,rt_thecrossant_black,493989,,black_plus_sign,,,,,null,,,1,1,,,,,,,,,,,,,,,,
null,,color_black,494093,,black_plus_sign,,,,,null,,,,,,,,,,,,,,,,,,,,
null,,learn_phase(without_color),497104,,black_plus_sign,,,,,null,US_Cities_List/soldier.png,US_Cities_List/globe.png,,,,,,,,,,,,,,,,,,
null,,black_cross(without_color),498195,,green,,,,,null,US_Cities_List/soldier.png,US_Cities_List/globe.png,,,,,,,,,,,,,,,,,,
null,,rt_plussign_withcolor,498698,,green,,,,,null,US_Cities_List/soldier.png,US_Cities_List/globe.png,,,,,,,,,,,,,,,,,,
1032.6000000005588,,rt_thecrossant_black,499613,,black_plus_sign,,,,,50,,,1,1,,,,,,,,,,,,,,,,
null,,color_black,499716,,black_plus_sign,,,,,null,,,,,,,,,,,,,,,,,,,,
null,,learn_phase(without_color),502729,,black_plus_sign,,,,,null,US_Cities_List/paint.png,US_Cities_List/snail.png,,,,,,,,,,,,,,,,,,
null,,black_cross(without_color),503411,,green,,,,,null,US_Cities_List/paint.png,US_Cities_List/snail.png,,,,,,,,,,,,,,,,,,
null,,rt_plussign_withcolor,503915,,green,,,,,null,US_Cities_List/paint.png,US_Cities_List/snail.png,,,,,,,,,,,,,,,,,,
1862.8999999994412,,rt_thecrossant_black,505240,,black_plus_sign,,,,,50,,,1,1,,,,,,,,,,,,,,,,
null,,color_black,505343,,black_plus_sign,,,,,null,,,,,,,,,,,,,,,,,,,,
null,,learn_phase(without_color),508359,,black_plus_sign,,,,,null,US_Cities_List/camera.png,US_Cities_List/teeth.png,,,,,,,,,,,,,,,,,,
null,,black_cross(without_color),509037,,green,,,,,null,US_Cities_List/camera.png,US_Cities_List/teeth.png,,,,,,,,,,,,,,,,,,
null,,rt_plussign_withcolor,509539,,green,,,,,null,US_Cities_List/camera.png,US_Cities_List/teeth.png,,,,,,,,,,,,,,,,,,
1110.800000000745,,rt_thecrossant_black,510868,,black_plus_sign,,,,,50,,,1,1,,,,,,,,,,,,,,,,
null,,color_black,510971,,black_plus_sign,,,,,null,,,,,,,,,,,,,,,,,,,,
null,,learn_phase(without_color),513985,,black_plus_sign,,,,,null,US_Cities_List/snail.png,US_Cities_List/paint.png,,,,,,,,,,,,,,,,,,
null,,black_cross(without_color),514743,,green,,,,,null,US_Cities_List/snail.png,US_Cities_List/paint.png,,,,,,,,,,,,,,,,,,
null,,rt_plussign_withcolor,515247,,green,,,,,null,US_Cities_List/snail.png,US_Cities_List/paint.png,,,,,,,,,,,,,,,,,,
1208.3999999994412,,rt_thecrossant_black,516495,,black_plus_sign,,,,,50,,,1,1,,,,,,,,,,,,,,,,
null,,color_black,516599,,black_plus_sign,,,,,null,,,,,,,,,,,,,,,,,,,,
null,,learn_phase(without_color),519614,,black_plus_sign,,,,,null,US_Cities_List/camera.png,US_Cities_List/teeth.png,,,,,,,,,,,,,,,,,,
null,,black_cross(without_color),520243,,blue,,,,,null,US_Cities_List/camera.png,US_Cities_List/teeth.png,,,,,,,,,,,,,,,,,,
481.79999999981374,,rt_plussign_withcolor,520746,,blue,,,,,49,US_Cities_List/camera.png,US_Cities_List/teeth.png,,,,,,,,,,,,,,,,,,
null,,rt_thecrossant_black,522124,,black_plus_sign,,,,,null,,,1,1,,,,,,,,,,,,,,,,
null,,color_black,522228,,black_plus_sign,,,,,null,,,,,,,,,,,,,,,,,,,,
null,,learn_phase(without_color),525242,,black_plus_sign,,,,,null,US_Cities_List/paint.png,US_Cities_List/snail.png,,,,,,,,,,,,,,,,,,
null,,black_cross(without_color),525706,,green,,,,,null,US_Cities_List/paint.png,US_Cities_List/snail.png,,,,,,,,,,,,,,,,,,
null,,rt_plussign_withcolor,526209,,green,,,,,null,US_Cities_List/paint.png,US_Cities_List/snail.png,,,,,,,,,,,,,,,,,,
1073.5999999996275,,rt_thecrossant_black,527752,,black_plus_sign,,,,,50,,,1,1,,,,,,,,,,,,,,,,
null,,color_black,527855,,black_plus_sign,,,,,null,,,,,,,,,,,,,,,,,,,,
null,,learn_phase(without_color),530869,,black_plus_sign,,,,,null,US_Cities_List/camera.png,US_Cities_List/teeth.png,,,,,,,,,,,,,,,,,,
null,,black_cross(without_color),531436,,blue,,,,,null,US_Cities_List/camera.png,US_Cities_List/teeth.png,,,,,,,,,,,,,,,,,,
null,,rt_plussign_withcolor,531939,,blue,,,,,null,US_Cities_List/camera.png,US_Cities_List/teeth.png,,,,,,,,,,,,,,,,,,
742.2000000001863,,rt_thecrossant_black,533379,,black_plus_sign,,,,,49,,,1,1,,,,,,,,,,,,,,,,
null,,color_black,533482,,black_plus_sign,,,,,null,,,,,,,,,,,,,,,,,,,,
null,,learn_phase(without_color),536496,,black_plus_sign,,,,,null,US_Cities_List/paint.png,US_Cities_List/snail.png,,,,,,,,,,,,,,,,,,
null,,black_cross(without_color),537441,,green,,,,,null,US_Cities_List/paint.png,US_Cities_List/snail.png,,,,,,,,,,,,,,,,,,
null,,rt_plussign_withcolor,537944,,green,,,,,null,US_Cities_List/paint.png,US_Cities_List/snail.png,,,,,,,,,,,,,,,,,,
984.0999999996275,,rt_thecrossant_black,539007,,black_plus_sign,,,,,50,,,1,1,,,,,,,,,,,,,,,,
null,,color_black,539111,,black_plus_sign,,,,,null,,,,,,,,,,,,,,,,,,,,
null,,learn_phase(without_color),542121,,black_plus_sign,,,,,null,US_Cities_List/globe.png,US_Cities_List/soldier.png,,,,,,,,,,,,,,,,,,
null,,black_cross(without_color),542957,,blue,,,,,null,US_Cities_List/globe.png,US_Cities_List/soldier.png,,,,,,,,,,,,,,,,,,
null,,rt_plussign_withcolor,543460,,blue,,,,,null,US_Cities_List/globe.png,US_Cities_List/soldier.png,,,,,,,,,,,,,,,,,,
1206.7000000001863,,rt_thecrossant_black,544631,,black_plus_sign,,,,,49,,,1,1,,,,,,,,,,,,,,,,
null,,color_black,544734,,black_plus_sign,,,,,null,,,,,,,,,,,,,,,,,,,,
null,,learn_phase(without_color),547752,,black_plus_sign,,,,,null,US_Cities_List/camera.png,US_Cities_List/teeth.png,,,,,,,,,,,,,,,,,,
null,,black_cross(without_color),548263,,green,,,,,null,US_Cities_List/camera.png,US_Cities_List/teeth.png,,,,,,,,,,,,,,,,,,
null,,rt_plussign_withcolor,548766,,green,,,,,null,US_Cities_List/camera.png,US_Cities_List/teeth.png,,,,,,,,,,,,,,,,,,
1200.6000000005588,,rt_thecrossant_black,550262,,black_plus_sign,,,,,50,,,1,1,,,,,,,,,,,,,,,,
null,,color_black,550365,,black_plus_sign,,,,,null,,,,,,,,,,,,,,,,,,,,
null,,learn_phase(without_color),553379,,black_plus_sign,,,,,null,US_Cities_List/basket.png,US_Cities_List/hat.png,,,,,,,,,,,,,,,,,,
null,,black_cross(without_color),554329,,green,,,,,null,US_Cities_List/basket.png,US_Cities_List/hat.png,,,,,,,,,,,,,,,,,,
null,,rt_plussign_withcolor,554832,,green,,,,,null,US_Cities_List/basket.png,US_Cities_List/hat.png,,,,,,,,,,,,,,,,,,
1081.5,,rt_thecrossant_black,555889,,black_plus_sign,,,,,50,,,1,1,,,,,,,,,,,,,,,,
null,,color_black,555992,,black_plus_sign,,,,,null,,,,,,,,,,,,,,,,,,,,
null,,learn_phase(without_color),559009,,black_plus_sign,,,,,null,US_Cities_List/camera.png,US_Cities_List/teeth.png,,,,,,,,,,,,,,,,,,
null,,black_cross(without_color),560055,,blue,,,,,null,US_Cities_List/camera.png,US_Cities_List/teeth.png,,,,,,,,,,,,,,,,,,
null,,rt_plussign_withcolor,560558,,blue,,,,,null,US_Cities_List/camera.png,US_Cities_List/teeth.png,,,,,,,,,,,,,,,,,,
1215.9000000003725,,rt_thecrossant_black,561519,,black_plus_sign,,,,,49,,,1,1,,,,,,,,,,,,,,,,
null,,color_black,561622,,black_plus_sign,,,,,null,,,,,,,,,,,,,,,,,,,,
null,,learn_phase(without_color),564639,,black_plus_sign,,,,,null,US_Cities_List/paint.png,US_Cities_List/snail.png,,,,,,,,,,,,,,,,,,
null,,black_cross(without_color),565730,,blue,,,,,null,US_Cities_List/paint.png,US_Cities_List/snail.png,,,,,,,,,,,,,,,,,,
null,,rt_plussign_withcolor,566233,,blue,,,,,null,US_Cities_List/paint.png,US_Cities_List/snail.png,,,,,,,,,,,,,,,,,,
1257.199999999255,,rt_thecrossant_black,567148,,black_plus_sign,,,,,49,,,1,1,,,,,,,,,,,,,,,,
null,,color_black,567251,,black_plus_sign,,,,,null,,,,,,,,,,,,,,,,,,,,
null,,learn_phase(without_color),570267,,black_plus_sign,,,,,null,US_Cities_List/basket.png,US_Cities_List/hat.png,,,,,,,,,,,,,,,,,,
null,,black_cross(without_color),571368,,blue,,,,,null,US_Cities_List/basket.png,US_Cities_List/hat.png,,,,,,,,,,,,,,,,,,
null,,rt_plussign_withcolor,571871,,blue,,,,,null,US_Cities_List/basket.png,US_Cities_List/hat.png,,,,,,,,,,,,,,,,,,
1907.4000000003725,,rt_thecrossant_black,572776,,black_plus_sign,,,,,49,,,1,1,,,,,,,,,,,,,,,,
null,,color_black,572879,,black_plus_sign,,,,,null,,,,,,,,,,,,,,,,,,,,
null,,learn_phase(without_color),575893,,black_plus_sign,,,,,null,US_Cities_List/paint.png,US_Cities_List/snail.png,,,,,,,,,,,,,,,,,,
null,,black_cross(without_color),576790,,blue,,,,,null,US_Cities_List/paint.png,US_Cities_List/snail.png,,,,,,,,,,,,,,,,,,
null,,rt_plussign_withcolor,577294,,blue,,,,,null,US_Cities_List/paint.png,US_Cities_List/snail.png,,,,,,,,,,,,,,,,,,
1248.6000000005588,,rt_thecrossant_black,578402,,black_plus_sign,,,,,49,,,1,1,,,,,,,,,,,,,,,,
null,,color_black,578506,,black_plus_sign,,,,,null,,,,,,,,,,,,,,,,,,,,
null,,learn_phase(without_color),581520,,black_plus_sign,,,,,null,US_Cities_List/hat.png,US_Cities_List/basket.png,,,,,,,,,,,,,,,,,,
null,,black_cross(without_color),582202,,green,,,,,null,US_Cities_List/hat.png,US_Cities_List/basket.png,,,,,,,,,,,,,,,,,,
null,,rt_plussign_withcolor,582705,,green,,,,,null,US_Cities_List/hat.png,US_Cities_List/basket.png,,,,,,,,,,,,,,,,,,
1136.7000000001863,,rt_thecrossant_black,584030,,black_plus_sign,,,,,50,,,1,1,,,,,,,,,,,,,,,,
null,,color_black,584133,,black_plus_sign,,,,,null,,,,,,,,,,,,,,,,,,,,
null,,learn_phase(without_color),587145,,black_plus_sign,,,,,null,US_Cities_List/snail.png,US_Cities_List/paint.png,,,,,,,,,,,,,,,,,,
null,,black_cross(without_color),587940,,blue,,,,,null,US_Cities_List/snail.png,US_Cities_List/paint.png,,,,,,,,,,,,,,,,,,
447.3999999994412,,rt_plussign_withcolor,588442,,blue,,,,,49,US_Cities_List/snail.png,US_Cities_List/paint.png,,,,,,,,,,,,,,,,,,
null,,rt_thecrossant_black,589654,,black_plus_sign,,,,,null,,,1,1,,,,,,,,,,,,,,,,
null,,color_black,589758,,black_plus_sign,,,,,null,,,,,,,,,,,,,,,,,,,,
null,,learn_phase(without_color),592776,,black_plus_sign,,,,,null,US_Cities_List/basket.png,US_Cities_List/hat.png,,,,,,,,,,,,,,,,,,
null,,black_cross(without_color),593300,,green,,,,,null,US_Cities_List/basket.png,US_Cities_List/hat.png,,,,,,,,,,,,,,,,,,
null,,rt_plussign_withcolor,593803,,green,,,,,null,US_Cities_List/basket.png,US_Cities_List/hat.png,,,,,,,,,,,,,,,,,,
1164,,rt_thecrossant_black,595287,,black_plus_sign,,,,,50,,,1,1,,,,,,,,,,,,,,,,
null,,color_black,595390,,black_plus_sign,,,,,null,,,,,,,,,,,,,,,,,,,,
null,,learn_phase(without_color),598407,,black_plus_sign,,,,,null,US_Cities_List/wheelchair.png,US_Cities_List/teeth.png,,,,,,,,,,,,,,,,,,
null,,black_cross(without_color),598886,,green,,,,,null,US_Cities_List/wheelchair.png,US_Cities_List/teeth.png,,,,,,,,,,,,,,,,,,
null,,rt_plussign_withcolor,599389,,green,,,,,null,US_Cities_List/wheelchair.png,US_Cities_List/teeth.png,,,,,,,,,,,,,,,,,,
823,,rt_thecrossant_black,600917,,black_plus_sign,,,,,50,,,1,1,,,,,,,,,,,,,,,,
null,,color_black,601021,,black_plus_sign,,,,,null,,,,,,,,,,,,,,,,,,,,
null,,learn_phase(without_color),604035,,black_plus_sign,,,,,null,US_Cities_List/gong.png,US_Cities_List/snail.png,,,,,,,,,,,,,,,,,,
null,,black_cross(without_color),604591,,green,,,,,null,US_Cities_List/gong.png,US_Cities_List/snail.png,,,,,,,,,,,,,,,,,,
481.8999999994412,,rt_plussign_withcolor,605094,,green,,,,,50,US_Cities_List/gong.png,US_Cities_List/snail.png,,,,,,,,,,,,,,,,,,
null,,rt_thecrossant_black,606545,,black_plus_sign,,,,,null,,,1,1,,,,,,,,,,,,,,,,
null,,color_black,606648,,black_plus_sign,,,,,null,,,,,,,,,,,,,,,,,,,,
null,,learn_phase(without_color),609658,,black_plus_sign,,,,,null,US_Cities_List/camera.png,US_Cities_List/dustpan.png,,,,,,,,,,,,,,,,,,
null,,black_cross(without_color),610258,,blue,,,,,null,US_Cities_List/camera.png,US_Cities_List/dustpan.png,,,,,,,,,,,,,,,,,,
null,,rt_plussign_withcolor,610761,,blue,,,,,null,US_Cities_List/camera.png,US_Cities_List/dustpan.png,,,,,,,,,,,,,,,,,,
938.8000000007451,,rt_thecrossant_black,612169,,black_plus_sign,,,,,49,,,1,1,,,,,,,,,,,,,,,,
null,,color_black,612272,,black_plus_sign,,,,,null,,,,,,,,,,,,,,,,,,,,
null,,learn_phase(without_color),615289,,black_plus_sign,,,,,null,US_Cities_List/wheelchair.png,US_Cities_List/teeth.png,,,,,,,,,,,,,,,,,,
null,,black_cross(without_color),615944,,blue,,,,,null,US_Cities_List/wheelchair.png,US_Cities_List/teeth.png,,,,,,,,,,,,,,,,,,
null,,rt_plussign_withcolor,616447,,blue,,,,,null,US_Cities_List/wheelchair.png,US_Cities_List/teeth.png,,,,,,,,,,,,,,,,,,
860.0999999996275,,rt_thecrossant_black,617800,,black_plus_sign,,,,,49,,,1,1,,,,,,,,,,,,,,,,
null,,color_black,617903,,black_plus_sign,,,,,null,,,,,,,,,,,,,,,,,,,,
null,,learn_phase(without_color),620915,,black_plus_sign,,,,,null,US_Cities_List/paint.png,US_Cities_List/soldier.png,,,,,,,,,,,,,,,,,,
null,,black_cross(without_color),621623,,green,,,,,null,US_Cities_List/paint.png,US_Cities_List/soldier.png,,,,,,,,,,,,,,,,,,
null,,rt_plussign_withcolor,622127,,green,,,,,null,US_Cities_List/paint.png,US_Cities_List/soldier.png,,,,,,,,,,,,,,,,,,
753.2000000001863,,rt_thecrossant_black,623427,,black_plus_sign,,,,,50,,,1,1,,,,,,,,,,,,,,,,
null,,color_black,623531,,black_plus_sign,,,,,null,,,,,,,,,,,,,,,,,,,,
null,,learn_phase(without_color),626550,,black_plus_sign,,,,,null,US_Cities_List/teeth.png,US_Cities_List/wheelchair.png,,,,,,,,,,,,,,,,,,
null,,black_cross(without_color),627166,,green,,,,,null,US_Cities_List/teeth.png,US_Cities_List/wheelchair.png,,,,,,,,,,,,,,,,,,
null,,rt_plussign_withcolor,627669,,green,,,,,null,US_Cities_List/teeth.png,US_Cities_List/wheelchair.png,,,,,,,,,,,,,,,,,,
1066.7000000001863,,rt_thecrossant_black,629060,,black_plus_sign,,,,,49,,,0,0.9736842105263158,,,,,,,,,,,,,,,,
null,,color_black,629163,,black_plus_sign,,,,,null,,,,,,,,,,,,,,,,,,,,
null,,learn_phase(without_color),632177,,black_plus_sign,,,,,null,US_Cities_List/dustpan.png,US_Cities_List/camera.png,,,,,,,,,,,,,,,,,,
null,,black_cross(without_color),633239,,blue,,,,,null,US_Cities_List/dustpan.png,US_Cities_List/camera.png,,,,,,,,,,,,,,,,,,
469.19999999925494,,rt_plussign_withcolor,633742,,blue,,,,,49,US_Cities_List/dustpan.png,US_Cities_List/camera.png,,,,,,,,,,,,,,,,,,
null,,rt_thecrossant_black,634686,,black_plus_sign,,,,,null,,,1,0.9743589743589743,,,,,,,,,,,,,,,,
null,,color_black,634789,,black_plus_sign,,,,,null,,,,,,,,,,,,,,,,,,,,
null,,learn_phase(without_color),637803,,black_plus_sign,,,,,null,US_Cities_List/teeth.png,US_Cities_List/wheelchair.png,,,,,,,,,,,,,,,,,,
null,,black_cross(without_color),638449,,blue,,,,,null,US_Cities_List/teeth.png,US_Cities_List/wheelchair.png,,,,,,,,,,,,,,,,,,
null,,rt_plussign_withcolor,638953,,blue,,,,,null,US_Cities_List/teeth.png,US_Cities_List/wheelchair.png,,,,,,,,,,,,,,,,,,
1583.7000000001863,,rt_thecrossant_black,640314,,black_plus_sign,,,,,49,,,1,0.975,,,,,,,,,,,,,,,,
null,,color_black,640417,,black_plus_sign,,,,,null,,,,,,,,,,,,,,,,,,,,
null,,learn_phase(without_color),643431,,black_plus_sign,,,,,null,US_Cities_List/gong.png,US_Cities_List/snail.png,,,,,,,,,,,,,,,,,,
null,,black_cross(without_color),644352,,green,,,,,null,US_Cities_List/gong.png,US_Cities_List/snail.png,,,,,,,,,,,,,,,,,,
null,,rt_plussign_withcolor,644855,,green,,,,,null,US_Cities_List/gong.png,US_Cities_List/snail.png,,,,,,,,,,,,,,,,,,
1120.3999999994412,,rt_thecrossant_black,645942,,black_plus_sign,,,,,50,,,1,0.975609756097561,,,,,,,,,,,,,,,,
null,,color_black,646046,,black_plus_sign,,,,,null,,,,,,,,,,,,,,,,,,,,
null,,learn_phase(without_color),649058,,black_plus_sign,,,,,null,US_Cities_List/camera.png,US_Cities_List/dustpan.png,,,,,,,,,,,,,,,,,,
null,,black_cross(without_color),649927,,blue,,,,,null,US_Cities_List/camera.png,US_Cities_List/dustpan.png,,,,,,,,,,,,,,,,,,
null,,rt_plussign_withcolor,650430,,blue,,,,,null,US_Cities_List/camera.png,US_Cities_List/dustpan.png,,,,,,,,,,,,,,,,,,
1207.4000000003725,,rt_thecrossant_black,651567,,black_plus_sign,,,,,49,,,1,0.9761904761904762,,,,,,,,,,,,,,,,
null,,color_black,651671,,black_plus_sign,,,,,null,,,,,,,,,,,,,,,,,,,,
null,,learn_phase(without_color),654688,,black_plus_sign,,,,,null,US_Cities_List/teeth.png,US_Cities_List/wheelchair.png,,,,,,,,,,,,,,,,,,
null,,black_cross(without_color),655587,,blue,,,,,null,US_Cities_List/teeth.png,US_Cities_List/wheelchair.png,,,,,,,,,,,,,,,,,,
null,,rt_plussign_withcolor,656089,,blue,,,,,null,US_Cities_List/teeth.png,US_Cities_List/wheelchair.png,,,,,,,,,,,,,,,,,,
1113.5999999996275,,rt_thecrossant_black,657198,,black_plus_sign,,,,,49,,,1,0.9767441860465116,,,,,,,,,,,,,,,,
null,,color_black,657301,,black_plus_sign,,,,,null,,,,,,,,,,,,,,,,,,,,
null,,learn_phase(without_color),660317,,black_plus_sign,,,,,null,US_Cities_List/snail.png,US_Cities_List/gong.png,,,,,,,,,,,,,,,,,,
null,,black_cross(without_color),661015,,blue,,,,,null,US_Cities_List/snail.png,US_Cities_List/gong.png,,,,,,,,,,,,,,,,,,
null,,rt_plussign_withcolor,661518,,blue,,,,,null,US_Cities_List/snail.png,US_Cities_List/gong.png,,,,,,,,,,,,,,,,,,
1254.199999999255,,rt_thecrossant_black,662827,,black_plus_sign,,,,,49,,,1,0.9772727272727273,,,,,,,,,,,,,,,,
null,,color_black,662930,,black_plus_sign,,,,,null,,,,,,,,,,,,,,,,,,,,
null,,learn_phase(without_color),665943,,black_plus_sign,,,,,null,US_Cities_List/camera.png,US_Cities_List/dustpan.png,,,,,,,,,,,,,,,,,,
null,,black_cross(without_color),666493,,blue,,,,,null,US_Cities_List/camera.png,US_Cities_List/dustpan.png,,,,,,,,,,,,,,,,,,
null,,rt_plussign_withcolor,666996,,blue,,,,,null,US_Cities_List/camera.png,US_Cities_List/dustpan.png,,,,,,,,,,,,,,,,,,
1091.2999999998137,,rt_thecrossant_black,668453,,black_plus_sign,,,,,49,,,1,0.9777777777777777,,,,,,,,,,,,,,,,
null,,color_black,668557,,black_plus_sign,,,,,null,,,,,,,,,,,,,,,,,,,,
null,,learn_phase(without_color),671574,,black_plus_sign,,,,,null,US_Cities_List/teeth.png,US_Cities_List/wheelchair.png,,,,,,,,,,,,,,,,,,
null,,black_cross(without_color),672155,,blue,,,,,null,US_Cities_List/teeth.png,US_Cities_List/wheelchair.png,,,,,,,,,,,,,,,,,,
null,,rt_plussign_withcolor,672658,,blue,,,,,null,US_Cities_List/teeth.png,US_Cities_List/wheelchair.png,,,,,,,,,,,,,,,,,,
1094.5,,rt_thecrossant_black,674082,,black_plus_sign,,,,,49,,,1,0.9782608695652174,,,,,,,,,,,,,,,,
null,,color_black,674185,,black_plus_sign,,,,,null,,,,,,,,,,,,,,,,,,,,
null,,learn_phase(without_color),677200,,black_plus_sign,,,,,null,US_Cities_List/gong.png,US_Cities_List/snail.png,,,,,,,,,,,,,,,,,,
null,,black_cross(without_color),678093,,green,,,,,null,US_Cities_List/gong.png,US_Cities_List/snail.png,,,,,,,,,,,,,,,,,,
null,,rt_plussign_withcolor,678597,,green,,,,,null,US_Cities_List/gong.png,US_Cities_List/snail.png,,,,,,,,,,,,,,,,,,
755.2000000001863,,rt_thecrossant_black,679709,,black_plus_sign,,,,,50,,,1,0.9787234042553191,,,,,,,,,,,,,,,,
null,,color_black,679812,,black_plus_sign,,,,,null,,,,,,,,,,,,,,,,,,,,
null,,learn_phase(without_color),682823,,black_plus_sign,,,,,null,US_Cities_List/soldier.png,US_Cities_List/paint.png,,,,,,,,,,,,,,,,,,
null,,black_cross(without_color),683504,,green,,,,,null,US_Cities_List/soldier.png,US_Cities_List/paint.png,,,,,,,,,,,,,,,,,,
null,,rt_plussign_withcolor,684008,,green,,,,,null,US_Cities_List/soldier.png,US_Cities_List/paint.png,,,,,,,,,,,,,,,,,,
1238.7000000001863,,rt_thecrossant_black,685333,,black_plus_sign,,,,,50,,,1,0.9791666666666666,,,,,,,,,,,,,,,,
null,,color_black,685437,,black_plus_sign,,,,,null,,,,,,,,,,,,,,,,,,,,
null,,learn_phase(without_color),688452,,black_plus_sign,,,,,null,US_Cities_List/wheelchair.png,US_Cities_List/teeth.png,,,,,,,,,,,,,,,,,,
null,,black_cross(without_color),689424,,green,,,,,null,US_Cities_List/wheelchair.png,US_Cities_List/teeth.png,,,,,,,,,,,,,,,,,,
null,,rt_plussign_withcolor,689928,,green,,,,,null,US_Cities_List/wheelchair.png,US_Cities_List/teeth.png,,,,,,,,,,,,,,,,,,
1464.5,,rt_thecrossant_black,690962,,black_plus_sign,,,,,50,,,1,0.9795918367346939,,,,,,,,,,,,,,,,
null,,color_black,691064,,black_plus_sign,,,,,null,,,,,,,,,,,,,,,,,,,,
null,,learn_phase(without_color),694076,,black_plus_sign,,,,,null,US_Cities_List/camera.png,US_Cities_List/dustpan.png,,,,,,,,,,,,,,,,,,
null,,black_cross(without_color),694712,,green,,,,,null,US_Cities_List/camera.png,US_Cities_List/dustpan.png,,,,,,,,,,,,,,,,,,
null,,rt_plussign_withcolor,695215,,green,,,,,null,US_Cities_List/camera.png,US_Cities_List/dustpan.png,,,,,,,,,,,,,,,,,,
1202,,rt_thecrossant_black,696586,,black_plus_sign,,,,,50,,,1,0.98,,,,,,,,,,,,,,,,
null,,color_black,696690,,black_plus_sign,,,,,null,,,,,,,,,,,,,,,,,,,,
null,,learn_phase(without_color),699705,,black_plus_sign,,,,,null,US_Cities_List/snail.png,US_Cities_List/gong.png,,,,,,,,,,,,,,,,,,
null,,black_cross(without_color),700296,,blue,,,,,null,US_Cities_List/snail.png,US_Cities_List/gong.png,,,,,,,,,,,,,,,,,,
null,,rt_plussign_withcolor,700799,,blue,,,,,null,US_Cities_List/snail.png,US_Cities_List/gong.png,,,,,,,,,,,,,,,,,,
1022.4000000003725,,rt_thecrossant_black,702214,,black_plus_sign,,,,,49,,,1,0.9803921568627451,,,,,,,,,,,,,,,,
null,,color_black,702318,,black_plus_sign,,,,,null,,,,,,,,,,,,,,,,,,,,
null,,learn_phase(without_color),705331,,black_plus_sign,,,,,null,US_Cities_List/soldier.png,US_Cities_List/paint.png,,,,,,,,,,,,,,,,,,
null,,black_cross(without_color),705784,,green,,,,,null,US_Cities_List/soldier.png,US_Cities_List/paint.png,,,,,,,,,,,,,,,,,,
null,,rt_plussign_withcolor,706287,,green,,,,,null,US_Cities_List/soldier.png,US_Cities_List/paint.png,,,,,,,,,,,,,,,,,,
794.2999999998137,,rt_thecrossant_black,707840,,black_plus_sign,,,,,50,,,1,0.9807692307692307,,,,,,,,,,,,,,,,
null,,color_black,707944,,black_plus_sign,,,,,null,,,,,,,,,,,,,,,,,,,,
null,,learn_phase(without_color),710957,,black_plus_sign,,,,,null,US_Cities_List/camera.png,US_Cities_List/dustpan.png,,,,,,,,,,,,,,,,,,
null,,black_cross(without_color),711513,,blue,,,,,null,US_Cities_List/camera.png,US_Cities_List/dustpan.png,,,,,,,,,,,,,,,,,,
null,,rt_plussign_withcolor,712016,,blue,,,,,null,US_Cities_List/camera.png,US_Cities_List/dustpan.png,,,,,,,,,,,,,,,,,,
777.5,,rt_thecrossant_black,713467,,black_plus_sign,,,,,49,,,1,0.9811320754716981,,,,,,,,,,,,,,,,
null,,color_black,713570,,black_plus_sign,,,,,null,,,,,,,,,,,,,,,,,,,,
null,,learn_phase(without_color),716586,,black_plus_sign,,,,,null,US_Cities_List/gong.png,US_Cities_List/snail.png,,,,,,,,,,,,,,,,,,
null,,black_cross(without_color),717194,,green,,,,,null,US_Cities_List/gong.png,US_Cities_List/snail.png,,,,,,,,,,,,,,,,,,
null,,rt_plussign_withcolor,717697,,green,,,,,null,US_Cities_List/gong.png,US_Cities_List/snail.png,,,,,,,,,,,,,,,,,,
844,,rt_thecrossant_black,719096,,black_plus_sign,,,,,50,,,1,0.9814814814814815,,,,,,,,,,,,,,,,
null,,color_black,719200,,black_plus_sign,,,,,null,,,,,,,,,,,,,,,,,,,,
null,,learn_phase(without_color),722212,,black_plus_sign,,,,,null,US_Cities_List/dustpan.png,US_Cities_List/camera.png,,,,,,,,,,,,,,,,,,
null,,black_cross(without_color),722768,,blue,,,,,null,US_Cities_List/dustpan.png,US_Cities_List/camera.png,,,,,,,,,,,,,,,,,,
null,,rt_plussign_withcolor,723271,,blue,,,,,null,US_Cities_List/dustpan.png,US_Cities_List/camera.png,,,,,,,,,,,,,,,,,,
1082.5999999996275,,rt_thecrossant_black,724721,,black_plus_sign,,,,,49,,,1,0.9818181818181818,,,,,,,,,,,,,,,,
null,,color_black,724824,,black_plus_sign,,,,,null,,,,,,,,,,,,,,,,,,,,
null,,learn_phase(without_color),727836,,black_plus_sign,,,,,null,US_Cities_List/paint.png,US_Cities_List/soldier.png,,,,,,,,,,,,,,,,,,
null,,black_cross(without_color),728660,,blue,,,,,null,US_Cities_List/paint.png,US_Cities_List/soldier.png,,,,,,,,,,,,,,,,,,
null,,rt_plussign_withcolor,729163,,blue,,,,,null,US_Cities_List/paint.png,US_Cities_List/soldier.png,,,,,,,,,,,,,,,,,,
701.3999999994412,,rt_thecrossant_black,730347,,black_plus_sign,,,,,49,,,1,0.9821428571428571,,,,,,,,,,,,,,,,
null,,color_black,730451,,black_plus_sign,,,,,null,,,,,,,,,,,,,,,,,,,,
null,,learn_phase(without_color),733461,,black_plus_sign,,,,,null,US_Cities_List/paint.png,US_Cities_List/soldier.png,,,,,,,,,,,,,,,,,,
null,,black_cross(without_color),734096,,green,,,,,null,US_Cities_List/paint.png,US_Cities_List/soldier.png,,,,,,,,,,,,,,,,,,
null,,rt_plussign_withcolor,734599,,green,,,,,null,US_Cities_List/paint.png,US_Cities_List/soldier.png,,,,,,,,,,,,,,,,,,
1135,,rt_thecrossant_black,735972,,black_plus_sign,,,,,50,,,1,0.9824561403508771,,,,,,,,,,,,,,,,
null,,color_black,736076,,black_plus_sign,,,,,null,,,,,,,,,,,,,,,,,,,,
null,,learn_phase(without_color),739090,,black_plus_sign,,,,,null,US_Cities_List/gong.png,US_Cities_List/snail.png,,,,,,,,,,,,,,,,,,
null,,black_cross(without_color),739803,,blue,,,,,null,US_Cities_List/gong.png,US_Cities_List/snail.png,,,,,,,,,,,,,,,,,,
null,,rt_plussign_withcolor,740307,,blue,,,,,null,US_Cities_List/gong.png,US_Cities_List/snail.png,,,,,,,,,,,,,,,,,,
858.0999999996275,,rt_thecrossant_black,741600,,black_plus_sign,,,,,49,,,1,0.9827586206896551,,,,,,,,,,,,,,,,
null,,color_black,741703,,black_plus_sign,,,,,null,,,,,,,,,,,,,,,,,,,,
null,,learn_phase(without_color),744712,,black_plus_sign,,,,,null,US_Cities_List/paint.png,US_Cities_List/soldier.png,,,,,,,,,,,,,,,,,,
null,,black_cross(without_color),745611,,blue,,,,,null,US_Cities_List/paint.png,US_Cities_List/soldier.png,,,,,,,,,,,,,,,,,,
null,,rt_plussign_withcolor,746114,,blue,,,,,null,US_Cities_List/paint.png,US_Cities_List/soldier.png,,,,,,,,,,,,,,,,,,
944.6000000014901,,rt_thecrossant_black,747222,,black_plus_sign,,,,,49,,,1,0.9830508474576272,,,,,,,,,,,,,,,,
null,,color_black,747325,,black_plus_sign,,,,,null,,,,,,,,,,,,,,,,,,,,
null,,learn_phase(without_color),750341,,black_plus_sign,,,,,null,US_Cities_List/teeth.png,US_Cities_List/wheelchair.png,,,,,,,,,,,,,,,,,,
null,,black_cross(without_color),751127,,green,,,,,null,US_Cities_List/teeth.png,US_Cities_List/wheelchair.png,,,,,,,,,,,,,,,,,,
null,,rt_plussign_withcolor,751631,,green,,,,,null,US_Cities_List/teeth.png,US_Cities_List/wheelchair.png,,,,,,,,,,,,,,,,,,
1495.7999999988824,,rt_thecrossant_black,752852,,black_plus_sign,,,,,50,,,1,0.9833333333333333,,,,,,,,,,,,,,,,
null,,color_black,752956,,black_plus_sign,,,,,null,,,,,,,,,,,,,,,,,,,,
null,,learn_phase(without_color),755967,,black_plus_sign,,,,,null,US_Cities_List/paint.png,US_Cities_List/soldier.png,,,,,,,,,,,,,,,,,,
null,,black_cross(without_color),756550,,blue,,,,,null,US_Cities_List/paint.png,US_Cities_List/soldier.png,,,,,,,,,,,,,,,,,,
null,,rt_plussign_withcolor,757053,,blue,,,,,null,US_Cities_List/paint.png,US_Cities_List/soldier.png,,,,,,,,,,,,,,,,,,
1084.199999999255,,rt_thecrossant_black,758478,,black_plus_sign,,,,,49,,,1,0.9836065573770492,,,,,,,,,,,,,,,,
null,,color_black,758581,,black_plus_sign,,,,,null,,,,,,,,,,,,,,,,,,,,
null,,learn_phase(without_color),761598,,black_plus_sign,,,,,null,US_Cities_List/snail.png,US_Cities_List/gong.png,,,,,,,,,,,,,,,,,,
null,,black_cross(without_color),762554,,blue,,,,,null,US_Cities_List/snail.png,US_Cities_List/gong.png,,,,,,,,,,,,,,,,,,
462.30000000074506,,rt_plussign_withcolor,763056,,blue,,,,,49,US_Cities_List/snail.png,US_Cities_List/gong.png,,,,,,,,,,,,,,,,,,
null,,rt_thecrossant_black,764106,,black_plus_sign,,,,,null,,,1,0.9838709677419355,,,,,,,,,,,,,,,,
null,,color_black,764210,,black_plus_sign,,,,,null,,,,,,,,,,,,,,,,,,,,
null,,learn_phase(without_color),767225,,black_plus_sign,,,,,null,US_Cities_List/paint.png,US_Cities_List/soldier.png,,,,,,,,,,,,,,,,,,
null,,black_cross(without_color),767725,,blue,,,,,null,US_Cities_List/paint.png,US_Cities_List/soldier.png,,,,,,,,,,,,,,,,,,
null,,rt_plussign_withcolor,768228,,blue,,,,,null,US_Cities_List/paint.png,US_Cities_List/soldier.png,,,,,,,,,,,,,,,,,,
1210.4000000003725,,rt_thecrossant_black,769735,,black_plus_sign,,,,,49,,,1,0.9841269841269841,,,,,,,,,,,,,,,,
null,,color_black,769838,,black_plus_sign,,,,,null,,,,,,,,,,,,,,,,,,,,
null,,learn_phase(without_color),772851,,black_plus_sign,,,,,null,US_Cities_List/dustpan.png,US_Cities_List/camera.png,,,,,,,,,,,,,,,,,,
null,,black_cross(without_color),773850,,green,,,,,null,US_Cities_List/dustpan.png,US_Cities_List/camera.png,,,,,,,,,,,,,,,,,,
501.80000000074506,,rt_plussign_withcolor,774354,,green,,,,,50,US_Cities_List/dustpan.png,US_Cities_List/camera.png,,,,,,,,,,,,,,,,,,
null,,rt_thecrossant_black,775362,,black_plus_sign,,,,,null,,,1,0.984375,,,,,,,,,,,,,,,,
null,,color_black,775465,,black_plus_sign,,,,,null,,,,,,,,,,,,,,,,,,,,
null,,learn_phase(without_color),778480,,black_plus_sign,,,,,null,US_Cities_List/snail.png,US_Cities_List/barrel.png,,,,,,,,,,,,,,,,,,
null,,black_cross(without_color),779191,,blue,,,,,null,US_Cities_List/snail.png,US_Cities_List/barrel.png,,,,,,,,,,,,,,,,,,
null,,rt_plussign_withcolor,779694,,blue,,,,,null,US_Cities_List/snail.png,US_Cities_List/barrel.png,,,,,,,,,,,,,,,,,,
1350.5999999996275,,rt_thecrossant_black,780991,,black_plus_sign,,,,,49,,,1,0.9846153846153847,,,,,,,,,,,,,,,,
null,,color_black,781094,,black_plus_sign,,,,,null,,,,,,,,,,,,,,,,,,,,
null,,learn_phase(without_color),784108,,black_plus_sign,,,,,null,US_Cities_List/globe.png,US_Cities_List/gong.png,,,,,,,,,,,,,,,,,,
null,,black_cross(without_color),784761,,blue,,,,,null,US_Cities_List/globe.png,US_Cities_List/gong.png,,,,,,,,,,,,,,,,,,
498.09999999962747,,rt_plussign_withcolor,785264,,blue,,,,,49,US_Cities_List/globe.png,US_Cities_List/gong.png,,,,,,,,,,,,,,,,,,
null,,rt_thecrossant_black,786618,,black_plus_sign,,,,,null,,,1,0.9848484848484849,,,,,,,,,,,,,,,,
null,,color_black,786722,,black_plus_sign,,,,,null,,,,,,,,,,,,,,,,,,,,
null,,learn_phase(without_color),789735,,black_plus_sign,,,,,null,US_Cities_List/basket.png,US_Cities_List/paint.png,,,,,,,,,,,,,,,,,,
null,,black_cross(without_color),790564,,blue,,,,,null,US_Cities_List/basket.png,US_Cities_List/paint.png,,,,,,,,,,,,,,,,,,
null,,rt_plussign_withcolor,791068,,blue,,,,,null,US_Cities_List/basket.png,US_Cities_List/paint.png,,,,,,,,,,,,,,,,,,
770.9000000003725,,rt_thecrossant_black,792245,,black_plus_sign,,,,,49,,,1,0.9850746268656716,,,,,,,,,,,,,,,,
null,,color_black,792349,,black_plus_sign,,,,,null,,,,,,,,,,,,,,,,,,,,
null,,learn_phase(without_color),795362,,black_plus_sign,,,,,null,US_Cities_List/gong.png,US_Cities_List/globe.png,,,,,,,,,,,,,,,,,,
null,,black_cross(without_color),796197,,green,,,,,null,US_Cities_List/gong.png,US_Cities_List/globe.png,,,,,,,,,,,,,,,,,,
null,,rt_plussign_withcolor,796700,,green,,,,,null,US_Cities_List/gong.png,US_Cities_List/globe.png,,,,,,,,,,,,,,,,,,
1094.0999999996275,,rt_thecrossant_black,797873,,black_plus_sign,,,,,49,,,0,0.9705882352941176,,,,,,,,,,,,,,,,
null,,color_black,797977,,black_plus_sign,,,,,null,,,,,,,,,,,,,,,,,,,,
null,,learn_phase(without_color),800991,,black_plus_sign,,,,,null,US_Cities_List/soldier.png,US_Cities_List/jukebox.png,,,,,,,,,,,,,,,,,,
null,,black_cross(without_color),802018,,green,,,,,null,US_Cities_List/soldier.png,US_Cities_List/jukebox.png,,,,,,,,,,,,,,,,,,
null,,rt_plussign_withcolor,802521,,green,,,,,null,US_Cities_List/soldier.png,US_Cities_List/jukebox.png,,,,,,,,,,,,,,,,,,
945,,rt_thecrossant_black,803503,,black_plus_sign,,,,,50,,,1,0.9710144927536232,,,,,,,,,,,,,,,,
null,,color_black,803607,,black_plus_sign,,,,,null,,,,,,,,,,,,,,,,,,,,
null,,learn_phase(without_color),806624,,black_plus_sign,,,,,null,US_Cities_List/globe.png,US_Cities_List/gong.png,,,,,,,,,,,,,,,,,,
null,,black_cross(without_color),807356,,blue,,,,,null,US_Cities_List/globe.png,US_Cities_List/gong.png,,,,,,,,,,,,,,,,,,
null,,rt_plussign_withcolor,807859,,blue,,,,,null,US_Cities_List/globe.png,US_Cities_List/gong.png,,,,,,,,,,,,,,,,,,
1349.7999999988824,,rt_thecrossant_black,809135,,black_plus_sign,,,,,49,,,1,0.9714285714285714,,,,,,,,,,,,,,,,
null,,color_black,809239,,black_plus_sign,,,,,null,,,,,,,,,,,,,,,,,,,,
null,,learn_phase(without_color),812256,,black_plus_sign,,,,,null,US_Cities_List/basket.png,US_Cities_List/paint.png,,,,,,,,,,,,,,,,,,
null,,black_cross(without_color),813315,,blue,,,,,null,US_Cities_List/basket.png,US_Cities_List/paint.png,,,,,,,,,,,,,,,,,,
null,,rt_plussign_withcolor,813818,,blue,,,,,null,US_Cities_List/basket.png,US_Cities_List/paint.png,,,,,,,,,,,,,,,,,,
980.5999999996275,,rt_thecrossant_black,814767,,black_plus_sign,,,,,49,,,1,0.971830985915493,,,,,,,,,,,,,,,,
null,,color_black,814871,,black_plus_sign,,,,,null,,,,,,,,,,,,,,,,,,,,
null,,learn_phase(without_color),817886,,black_plus_sign,,,,,null,US_Cities_List/snail.png,US_Cities_List/barrel.png,,,,,,,,,,,,,,,,,,
null,,black_cross(without_color),818813,,green,,,,,null,US_Cities_List/snail.png,US_Cities_List/barrel.png,,,,,,,,,,,,,,,,,,
null,,rt_plussign_withcolor,819317,,green,,,,,null,US_Cities_List/snail.png,US_Cities_List/barrel.png,,,,,,,,,,,,,,,,,,
1192.300000000745,,rt_thecrossant_black,820397,,black_plus_sign,,,,,50,,,1,0.9722222222222222,,,,,,,,,,,,,,,,
null,,color_black,820501,,black_plus_sign,,,,,null,,,,,,,,,,,,,,,,,,,,
null,,learn_phase(without_color),823517,,black_plus_sign,,,,,null,US_Cities_List/globe.png,US_Cities_List/gong.png,,,,,,,,,,,,,,,,,,
null,,black_cross(without_color),824294,,blue,,,,,null,US_Cities_List/globe.png,US_Cities_List/gong.png,,,,,,,,,,,,,,,,,,
null,,rt_plussign_withcolor,824798,,blue,,,,,null,US_Cities_List/globe.png,US_Cities_List/gong.png,,,,,,,,,,,,,,,,,,
1128.9000000003725,,rt_thecrossant_black,826028,,black_plus_sign,,,,,49,,,1,0.9726027397260274,,,,,,,,,,,,,,,,
null,,color_black,826131,,black_plus_sign,,,,,null,,,,,,,,,,,,,,,,,,,,
null,,learn_phase(without_color),829145,,black_plus_sign,,,,,null,US_Cities_List/jukebox.png,US_Cities_List/soldier.png,,,,,,,,,,,,,,,,,,
null,,black_cross(without_color),829579,,blue,,,,,null,US_Cities_List/jukebox.png,US_Cities_List/soldier.png,,,,,,,,,,,,,,,,,,
null,,rt_plussign_withcolor,830082,,blue,,,,,null,US_Cities_List/jukebox.png,US_Cities_List/soldier.png,,,,,,,,,,,,,,,,,,
1262.0999999996275,,rt_thecrossant_black,831656,,black_plus_sign,,,,,49,,,1,0.972972972972973,,,,,,,,,,,,,,,,
null,,color_black,831759,,black_plus_sign,,,,,null,,,,,,,,,,,,,,,,,,,,
null,,learn_phase(without_color),834774,,black_plus_sign,,,,,null,US_Cities_List/gong.png,US_Cities_List/globe.png,,,,,,,,,,,,,,,,,,
null,,black_cross(without_color),835623,,green,,,,,null,US_Cities_List/gong.png,US_Cities_List/globe.png,,,,,,,,,,,,,,,,,,
null,,rt_plussign_withcolor,836126,,green,,,,,null,US_Cities_List/gong.png,US_Cities_List/globe.png,,,,,,,,,,,,,,,,,,
800.3000000007451,,rt_thecrossant_black,837284,,black_plus_sign,,,,,50,,,1,0.9733333333333334,,,,,,,,,,,,,,,,
null,,color_black,837388,,black_plus_sign,,,,,null,,,,,,,,,,,,,,,,,,,,
null,,learn_phase(without_color),840403,,black_plus_sign,,,,,null,US_Cities_List/barrel.png,US_Cities_List/snail.png,,,,,,,,,,,,,,,,,,
null,,black_cross(without_color),841091,,green,,,,,null,US_Cities_List/barrel.png,US_Cities_List/snail.png,,,,,,,,,,,,,,,,,,
null,,rt_plussign_withcolor,841594,,green,,,,,null,US_Cities_List/barrel.png,US_Cities_List/snail.png,,,,,,,,,,,,,,,,,,
1517.199999999255,,rt_thecrossant_black,842913,,black_plus_sign,,,,,50,,,1,0.9736842105263158,,,,,,,,,,,,,,,,
null,,color_black,843017,,black_plus_sign,,,,,null,,,,,,,,,,,,,,,,,,,,
null,,learn_phase(without_color),846030,,black_plus_sign,,,,,null,US_Cities_List/basket.png,US_Cities_List/paint.png,,,,,,,,,,,,,,,,,,
null,,black_cross(without_color),846827,,blue,,,,,null,US_Cities_List/basket.png,US_Cities_List/paint.png,,,,,,,,,,,,,,,,,,
null,,rt_plussign_withcolor,847330,,blue,,,,,null,US_Cities_List/basket.png,US_Cities_List/paint.png,,,,,,,,,,,,,,,,,,
1041.699999999255,,rt_thecrossant_black,848541,,black_plus_sign,,,,,49,,,1,0.974025974025974,,,,,,,,,,,,,,,,
null,,color_black,848645,,black_plus_sign,,,,,null,,,,,,,,,,,,,,,,,,,,
null,,learn_phase(without_color),851658,,black_plus_sign,,,,,null,US_Cities_List/jukebox.png,US_Cities_List/soldier.png,,,,,,,,,,,,,,,,,,
null,,black_cross(without_color),852659,,blue,,,,,null,US_Cities_List/jukebox.png,US_Cities_List/soldier.png,,,,,,,,,,,,,,,,,,
null,,rt_plussign_withcolor,853162,,blue,,,,,null,US_Cities_List/jukebox.png,US_Cities_List/soldier.png,,,,,,,,,,,,,,,,,,
940.4000000003725,,rt_thecrossant_black,854167,,black_plus_sign,,,,,49,,,1,0.9743589743589743,,,,,,,,,,,,,,,,
null,,color_black,854270,,black_plus_sign,,,,,null,,,,,,,,,,,,,,,,,,,,
null,,learn_phase(without_color),857286,,black_plus_sign,,,,,null,US_Cities_List/snail.png,US_Cities_List/barrel.png,,,,,,,,,,,,,,,,,,
null,,black_cross(without_color),858119,,blue,,,,,null,US_Cities_List/snail.png,US_Cities_List/barrel.png,,,,,,,,,,,,,,,,,,
null,,rt_plussign_withcolor,858621,,blue,,,,,null,US_Cities_List/snail.png,US_Cities_List/barrel.png,,,,,,,,,,,,,,,,,,
1117.9000000003725,,rt_thecrossant_black,859796,,black_plus_sign,,,,,49,,,1,0.9746835443037974,,,,,,,,,,,,,,,,
null,,color_black,859900,,black_plus_sign,,,,,null,,,,,,,,,,,,,,,,,,,,
null,,learn_phase(without_color),862913,,black_plus_sign,,,,,null,US_Cities_List/globe.png,US_Cities_List/gong.png,,,,,,,,,,,,,,,,,,
null,,black_cross(without_color),863842,,blue,,,,,null,US_Cities_List/globe.png,US_Cities_List/gong.png,,,,,,,,,,,,,,,,,,
null,,rt_plussign_withcolor,864345,,blue,,,,,null,US_Cities_List/globe.png,US_Cities_List/gong.png,,,,,,,,,,,,,,,,,,
1344.300000000745,,rt_thecrossant_black,865424,,black_plus_sign,,,,,49,,,1,0.975,,,,,,,,,,,,,,,,
null,,color_black,865528,,black_plus_sign,,,,,null,,,,,,,,,,,,,,,,,,,,
null,,learn_phase(without_color),868543,,black_plus_sign,,,,,null,US_Cities_List/jukebox.png,US_Cities_List/soldier.png,,,,,,,,,,,,,,,,,,
null,,black_cross(without_color),869422,,blue,,,,,null,US_Cities_List/jukebox.png,US_Cities_List/soldier.png,,,,,,,,,,,,,,,,,,
null,,rt_plussign_withcolor,869925,,blue,,,,,null,US_Cities_List/jukebox.png,US_Cities_List/soldier.png,,,,,,,,,,,,,,,,,,
1406.5,,rt_thecrossant_black,871053,,black_plus_sign,,,,,49,,,1,0.9753086419753086,,,,,,,,,,,,,,,,
null,,color_black,871157,,black_plus_sign,,,,,null,,,,,,,,,,,,,,,,,,,,
null,,learn_phase(without_color),874176,,black_plus_sign,,,,,null,US_Cities_List/snail.png,US_Cities_List/barrel.png,,,,,,,,,,,,,,,,,,
null,,black_cross(without_color),875253,,blue,,,,,null,US_Cities_List/snail.png,US_Cities_List/barrel.png,,,,,,,,,,,,,,,,,,
null,,rt_plussign_withcolor,875756,,blue,,,,,null,US_Cities_List/snail.png,US_Cities_List/barrel.png,,,,,,,,,,,,,,,,,,
1118.699999999255,,rt_thecrossant_black,876687,,black_plus_sign,,,,,49,,,1,0.975609756097561,,,,,,,,,,,,,,,,
null,,color_black,876790,,black_plus_sign,,,,,null,,,,,,,,,,,,,,,,,,,,
null,,learn_phase(without_color),879807,,black_plus_sign,,,,,null,US_Cities_List/paint.png,US_Cities_List/basket.png,,,,,,,,,,,,,,,,,,
null,,black_cross(without_color),880576,,green,,,,,null,US_Cities_List/paint.png,US_Cities_List/basket.png,,,,,,,,,,,,,,,,,,
null,,rt_plussign_withcolor,881079,,green,,,,,null,US_Cities_List/paint.png,US_Cities_List/basket.png,,,,,,,,,,,,,,,,,,
1456.4000000003725,,rt_thecrossant_black,882317,,black_plus_sign,,,,,50,,,1,0.9759036144578314,,,,,,,,,,,,,,,,
null,,color_black,882420,,black_plus_sign,,,,,null,,,,,,,,,,,,,,,,,,,,
null,,learn_phase(without_color),885436,,black_plus_sign,,,,,null,US_Cities_List/soldier.png,US_Cities_List/jukebox.png,,,,,,,,,,,,,,,,,,
null,,black_cross(without_color),886172,,green,,,,,null,US_Cities_List/soldier.png,US_Cities_List/jukebox.png,,,,,,,,,,,,,,,,,,
null,,rt_plussign_withcolor,886676,,green,,,,,null,US_Cities_List/soldier.png,US_Cities_List/jukebox.png,,,,,,,,,,,,,,,,,,
1333.4000000003725,,rt_thecrossant_black,887947,,black_plus_sign,,,,,50,,,1,0.9761904761904762,,,,,,,,,,,,,,,,
null,,color_black,888051,,black_plus_sign,,,,,null,,,,,,,,,,,,,,,,,,,,
null,,learn_phase(without_color),891069,,black_plus_sign,,,,,null,US_Cities_List/snail.png,US_Cities_List/barrel.png,,,,,,,,,,,,,,,,,,
null,,black_cross(without_color),891561,,green,,,,,null,US_Cities_List/snail.png,US_Cities_List/barrel.png,,,,,,,,,,,,,,,,,,
null,,rt_plussign_withcolor,892065,,green,,,,,null,US_Cities_List/snail.png,US_Cities_List/barrel.png,,,,,,,,,,,,,,,,,,
1062.5999999996275,,rt_thecrossant_black,893579,,black_plus_sign,,,,,50,,,1,0.9764705882352941,,,,,,,,,,,,,,,,
null,,color_black,893683,,black_plus_sign,,,,,null,,,,,,,,,,,,,,,,,,,,
null,,learn_phase(without_color),896696,,black_plus_sign,,,,,null,US_Cities_List/basket.png,US_Cities_List/paint.png,,,,,,,,,,,,,,,,,,
null,,black_cross(without_color),897168,,blue,,,,,null,US_Cities_List/basket.png,US_Cities_List/paint.png,,,,,,,,,,,,,,,,,,
null,,rt_plussign_withcolor,897672,,blue,,,,,null,US_Cities_List/basket.png,US_Cities_List/paint.png,,,,,,,,,,,,,,,,,,
843.8999999985099,,rt_thecrossant_black,899208,,black_plus_sign,,,,,49,,,1,0.9767441860465116,,,,,,,,,,,,,,,,
null,,color_black,899312,,black_plus_sign,,,,,null,,,,,,,,,,,,,,,,,,,,
null,,learn_phase(without_color),902329,,black_plus_sign,,,,,null,US_Cities_List/barrel.png,US_Cities_List/snail.png,,,,,,,,,,,,,,,,,,
null,,black_cross(without_color),903146,,green,,,,,null,US_Cities_List/barrel.png,US_Cities_List/snail.png,,,,,,,,,,,,,,,,,,
null,,rt_plussign_withcolor,903650,,green,,,,,null,US_Cities_List/barrel.png,US_Cities_List/snail.png,,,,,,,,,,,,,,,,,,
588.4000000003725,,rt_thecrossant_black,904840,,black_plus_sign,,,,,50,,,1,0.9770114942528736,,,,,,,,,,,,,,,,
null,,color_black,904944,,black_plus_sign,,,,,null,,,,,,,,,,,,,,,,,,,,
null,,learn_phase(without_color),907960,,black_plus_sign,,,,,null,US_Cities_List/basket.png,US_Cities_List/paint.png,,,,,,,,,,,,,,,,,,
null,,black_cross(without_color),908579,,green,,,,,null,US_Cities_List/basket.png,US_Cities_List/paint.png,,,,,,,,,,,,,,,,,,
null,,rt_plussign_withcolor,909082,,green,,,,,null,US_Cities_List/basket.png,US_Cities_List/paint.png,,,,,,,,,,,,,,,,,,
1077.6000000014901,,rt_thecrossant_black,910471,,black_plus_sign,,,,,50,,,1,0.9772727272727273,,,,,,,,,,,,,,,,
null,,color_black,910574,,black_plus_sign,,,,,null,,,,,,,,,,,,,,,,,,,,
null,,learn_phase(without_color),913587,,black_plus_sign,,,,,null,US_Cities_List/soldier.png,US_Cities_List/jukebox.png,,,,,,,,,,,,,,,,,,
null,,black_cross(without_color),914653,,green,,,,,null,US_Cities_List/soldier.png,US_Cities_List/jukebox.png,,,,,,,,,,,,,,,,,,
null,,rt_plussign_withcolor,915156,,green,,,,,null,US_Cities_List/soldier.png,US_Cities_List/jukebox.png,,,,,,,,,,,,,,,,,,
857.3000000007451,,rt_thecrossant_black,916097,,black_plus_sign,,,,,50,,,1,0.9775280898876404,,,,,,,,,,,,,,,,
null,,color_black,916200,,black_plus_sign,,,,,null,,,,,,,,,,,,,,,,,,,,
null,,learn_phase(without_color),919218,,black_plus_sign,,,,,null,US_Cities_List/barrel.png,US_Cities_List/snail.png,,,,,,,,,,,,,,,,,,
null,,black_cross(without_color),919894,,green,,,,,null,US_Cities_List/barrel.png,US_Cities_List/snail.png,,,,,,,,,,,,,,,,,,
null,,rt_plussign_withcolor,920397,,green,,,,,null,US_Cities_List/barrel.png,US_Cities_List/snail.png,,,,,,,,,,,,,,,,,,
1316.2999999988824,,rt_thecrossant_black,921729,,black_plus_sign,,,,,50,,,1,0.9777777777777777,,,,,,,,,,,,,,,,
null,,color_black,921833,,black_plus_sign,,,,,null,,,,,,,,,,,,,,,,,,,,
null,,learn_phase(without_color),924847,,black_plus_sign,,,,,null,US_Cities_List/globe.png,US_Cities_List/gong.png,,,,,,,,,,,,,,,,,,
null,,black_cross(without_color),925656,,green,,,,,null,US_Cities_List/globe.png,US_Cities_List/gong.png,,,,,,,,,,,,,,,,,,
null,,rt_plussign_withcolor,926159,,green,,,,,null,US_Cities_List/globe.png,US_Cities_List/gong.png,,,,,,,,,,,,,,,,,,
1217.1000000014901,,rt_thecrossant_black,927358,,black_plus_sign,,,,,50,,,1,0.978021978021978,,,,,,,,,,,,,,,,
null,,color_black,927462,,black_plus_sign,,,,,null,,,,,,,,,,,,,,,,,,,,
null,,learn_phase(without_color),930479,,black_plus_sign,,,,,null,US_Cities_List/basket.png,US_Cities_List/paint.png,,,,,,,,,,,,,,,,,,
null,,black_cross(without_color),931035,,green,,,,,null,US_Cities_List/basket.png,US_Cities_List/paint.png,,,,,,,,,,,,,,,,,,
null,,rt_plussign_withcolor,931538,,green,,,,,null,US_Cities_List/basket.png,US_Cities_List/paint.png,,,,,,,,,,,,,,,,,,
975.5,,rt_thecrossant_black,932990,,black_plus_sign,,,,,50,,,1,0.9782608695652174,,,,,,,,,,,,,,,,
null,,color_black,933094,,black_plus_sign,,,,,null,,,,,,,,,,,,,,,,,,,,
null,,learn_phase(without_color),936109,,black_plus_sign,,,,,null,US_Cities_List/globe.png,US_Cities_List/gong.png,,,,,,,,,,,,,,,,,,
null,,black_cross(without_color),936906,,green,,,,,null,US_Cities_List/globe.png,US_Cities_List/gong.png,,,,,,,,,,,,,,,,,,
null,,rt_plussign_withcolor,937409,,green,,,,,null,US_Cities_List/globe.png,US_Cities_List/gong.png,,,,,,,,,,,,,,,,,,
994.2000000011176,,rt_thecrossant_black,938620,,black_plus_sign,,,,,50,,,1,0.978494623655914,,,,,,,,,,,,,,,,
null,,color_black,938724,,black_plus_sign,,,,,null,,,,,,,,,,,,,,,,,,,,
null,,learn_phase(without_color),941736,,black_plus_sign,,,,,null,US_Cities_List/soldier.png,US_Cities_List/jukebox.png,,,,,,,,,,,,,,,,,,
null,,black_cross(without_color),942290,,green,,,,,null,US_Cities_List/soldier.png,US_Cities_List/jukebox.png,,,,,,,,,,,,,,,,,,
null,,rt_plussign_withcolor,942794,,green,,,,,null,US_Cities_List/soldier.png,US_Cities_List/jukebox.png,,,,,,,,,,,,,,,,,,
984.5999999996275,,rt_thecrossant_black,944247,,black_plus_sign,,,,,50,,,1,0.9787234042553191,,,,,,,,,,,,,,,,
null,,color_black,944351,,black_plus_sign,,,,,null,,,,,,,,,,,,,,,,,,,,
null,,learn_phase(without_color),947364,,black_plus_sign,,,,,null,US_Cities_List/basket.png,US_Cities_List/paint.png,,,,,,,,,,,,,,,,,,
null,,black_cross(without_color),947836,,blue,,,,,null,US_Cities_List/basket.png,US_Cities_List/paint.png,,,,,,,,,,,,,,,,,,
null,,rt_plussign_withcolor,948339,,blue,,,,,null,US_Cities_List/basket.png,US_Cities_List/paint.png,,,,,,,,,,,,,,,,,,
977.3999999985099,,rt_thecrossant_black,949876,,black_plus_sign,,,,,49,,,1,0.9789473684210527,,,,,,,,,,,,,,,,
null,,color_black,949980,,black_plus_sign,,,,,null,,,,,,,,,,,,,,,,,,,,
null,,learn_phase(without_color),952994,,black_plus_sign,,,,,null,US_Cities_List/soldier.png,US_Cities_List/jukebox.png,,,,,,,,,,,,,,,,,,
null,,black_cross(without_color),953550,,blue,,,,,null,US_Cities_List/soldier.png,US_Cities_List/jukebox.png,,,,,,,,,,,,,,,,,,
null,,rt_plussign_withcolor,954054,,blue,,,,,null,US_Cities_List/soldier.png,US_Cities_List/jukebox.png,,,,,,,,,,,,,,,,,,
830.5,,rt_thecrossant_black,955506,,black_plus_sign,,,,,49,,,1,0.9791666666666666,,,,,,,,,,,,,,,,
null,,color_black,955610,,black_plus_sign,,,,,null,,,,,,,,,,,,,,,,,,,,
null,,learn_phase(without_color),958626,,black_plus_sign,,,,,null,US_Cities_List/teeth.png,US_Cities_List/barrel.png,,,,,,,,,,,,,,,,,,
null,,black_cross(without_color),959616,,blue,,,,,null,US_Cities_List/teeth.png,US_Cities_List/barrel.png,,,,,,,,,,,,,,,,,,
null,,rt_plussign_withcolor,960120,,blue,,,,,null,US_Cities_List/teeth.png,US_Cities_List/barrel.png,,,,,,,,,,,,,,,,,,
802.0999999996275,,rt_thecrossant_black,961137,,black_plus_sign,,,,,49,,,1,0.979381443298969,,,,,,,,,,,,,,,,
null,,color_black,961241,,black_plus_sign,,,,,null,,,,,,,,,,,,,,,,,,,,
null,,learn_phase(without_color),964255,,black_plus_sign,,,,,null,US_Cities_List/camera.png,US_Cities_List/gong.png,,,,,,,,,,,,,,,,,,
null,,black_cross(without_color),965177,,blue,,,,,null,US_Cities_List/camera.png,US_Cities_List/gong.png,,,,,,,,,,,,,,,,,,
null,,rt_plussign_withcolor,965681,,blue,,,,,null,US_Cities_List/camera.png,US_Cities_List/gong.png,,,,,,,,,,,,,,,,,,
1257.199999999255,,rt_thecrossant_black,966767,,black_plus_sign,,,,,49,,,1,0.9795918367346939,,,,,,,,,,,,,,,,
null,,color_black,966872,,black_plus_sign,,,,,null,,,,,,,,,,,,,,,,,,,,
null,,learn_phase(without_color),969891,,black_plus_sign,,,,,null,US_Cities_List/barrel.png,US_Cities_List/teeth.png,,,,,,,,,,,,,,,,,,
null,,black_cross(without_color),970383,,green,,,,,null,US_Cities_List/barrel.png,US_Cities_List/teeth.png,,,,,,,,,,,,,,,,,,
null,,rt_plussign_withcolor,970885,,green,,,,,null,US_Cities_List/barrel.png,US_Cities_List/teeth.png,,,,,,,,,,,,,,,,,,
1079.9000000003725,,rt_thecrossant_black,972402,,black_plus_sign,,,,,50,,,1,0.9797979797979798,,,,,,,,,,,,,,,,
null,,color_black,972506,,black_plus_sign,,,,,null,,,,,,,,,,,,,,,,,,,,
null,,learn_phase(without_color),975520,,black_plus_sign,,,,,null,US_Cities_List/basket.png,US_Cities_List/soldier.png,,,,,,,,,,,,,,,,,,
null,,black_cross(without_color),976410,,green,,,,,null,US_Cities_List/basket.png,US_Cities_List/soldier.png,,,,,,,,,,,,,,,,,,
null,,rt_plussign_withcolor,976913,,green,,,,,null,US_Cities_List/basket.png,US_Cities_List/soldier.png,,,,,,,,,,,,,,,,,,
758,,rt_thecrossant_black,978032,,black_plus_sign,,,,,50,,,1,0.98,,,,,,,,,,,,,,,,
null,,color_black,978136,,black_plus_sign,,,,,null,,,,,,,,,,,,,,,,,,,,
null,,learn_phase(without_color),981154,,black_plus_sign,,,,,null,US_Cities_List/barrel.png,US_Cities_List/teeth.png,,,,,,,,,,,,,,,,,,
null,,black_cross(without_color),982239,,green,,,,,null,US_Cities_List/barrel.png,US_Cities_List/teeth.png,,,,,,,,,,,,,,,,,,
null,,rt_plussign_withcolor,982742,,green,,,,,null,US_Cities_List/barrel.png,US_Cities_List/teeth.png,,,,,,,,,,,,,,,,,,
1239.5,,rt_thecrossant_black,983667,,black_plus_sign,,,,,50,,,1,0.9801980198019802,,,,,,,,,,,,,,,,
null,,color_black,983771,,black_plus_sign,,,,,null,,,,,,,,,,,,,,,,,,,,
null,,learn_phase(without_color),986788,,black_plus_sign,,,,,null,US_Cities_List/camera.png,US_Cities_List/gong.png,,,,,,,,,,,,,,,,,,
null,,black_cross(without_color),987376,,green,,,,,null,US_Cities_List/camera.png,US_Cities_List/gong.png,,,,,,,,,,,,,,,,,,
null,,rt_plussign_withcolor,987880,,green,,,,,null,US_Cities_List/camera.png,US_Cities_List/gong.png,,,,,,,,,,,,,,,,,,
1407.0999999996275,,rt_thecrossant_black,989299,,black_plus_sign,,,,,50,,,1,0.9803921568627451,,,,,,,,,,,,,,,,
null,,color_black,989403,,black_plus_sign,,,,,null,,,,,,,,,,,,,,,,,,,,
null,,learn_phase(without_color),992421,,black_plus_sign,,,,,null,US_Cities_List/teeth.png,US_Cities_List/barrel.png,,,,,,,,,,,,,,,,,,
null,,black_cross(without_color),993471,,green,,,,,null,US_Cities_List/teeth.png,US_Cities_List/barrel.png,,,,,,,,,,,,,,,,,,
null,,rt_plussign_withcolor,993974,,green,,,,,null,US_Cities_List/teeth.png,US_Cities_List/barrel.png,,,,,,,,,,,,,,,,,,
911,,rt_thecrossant_black,994931,,black_plus_sign,,,,,50,,,1,0.9805825242718447,,,,,,,,,,,,,,,,
null,,color_black,995035,,black_plus_sign,,,,,null,,,,,,,,,,,,,,,,,,,,
null,,learn_phase(without_color),998047,,black_plus_sign,,,,,null,US_Cities_List/soldier.png,US_Cities_List/basket.png,,,,,,,,,,,,,,,,,,
null,,black_cross(without_color),998906,,blue,,,,,null,US_Cities_List/soldier.png,US_Cities_List/basket.png,,,,,,,,,,,,,,,,,,
null,,rt_plussign_withcolor,999410,,blue,,,,,null,US_Cities_List/soldier.png,US_Cities_List/basket.png,,,,,,,,,,,,,,,,,,
1300.5,,rt_thecrossant_black,1000559,,black_plus_sign,,,,,49,,,1,0.9807692307692307,,,,,,,,,,,,,,,,
null,,color_black,1000663,,black_plus_sign,,,,,null,,,,,,,,,,,,,,,,,,,,
null,,learn_phase(without_color),1003683,,black_plus_sign,,,,,null,US_Cities_List/gong.png,US_Cities_List/camera.png,,,,,,,,,,,,,,,,,,
null,,black_cross(without_color),1004776,,green,,,,,null,US_Cities_List/gong.png,US_Cities_List/camera.png,,,,,,,,,,,,,,,,,,
null,,rt_plussign_withcolor,1005280,,green,,,,,null,US_Cities_List/gong.png,US_Cities_List/camera.png,,,,,,,,,,,,,,,,,,
1010.5999999996275,,rt_thecrossant_black,1006195,,black_plus_sign,,,,,50,,,1,0.9809523809523809,,,,,,,,,,,,,,,,
null,,color_black,1006299,,black_plus_sign,,,,,null,,,,,,,,,,,,,,,,,,,,
null,,learn_phase(without_color),1009320,,black_plus_sign,,,,,null,US_Cities_List/barrel.png,US_Cities_List/teeth.png,,,,,,,,,,,,,,,,,,
null,,black_cross(without_color),1009967,,blue,,,,,null,US_Cities_List/barrel.png,US_Cities_List/teeth.png,,,,,,,,,,,,,,,,,,
null,,rt_plussign_withcolor,1010470,,blue,,,,,null,US_Cities_List/barrel.png,US_Cities_List/teeth.png,,,,,,,,,,,,,,,,,,
1296.2999999988824,,rt_thecrossant_black,1011831,,black_plus_sign,,,,,49,,,1,0.9811320754716981,,,,,,,,,,,,,,,,
null,,color_black,1011936,,black_plus_sign,,,,,null,,,,,,,,,,,,,,,,,,,,
null,,learn_phase(without_color),1014952,,black_plus_sign,,,,,null,US_Cities_List/gong.png,US_Cities_List/camera.png,,,,,,,,,,,,,,,,,,
null,,black_cross(without_color),1015779,,blue,,,,,null,US_Cities_List/gong.png,US_Cities_List/camera.png,,,,,,,,,,,,,,,,,,
null,,rt_plussign_withcolor,1016282,,blue,,,,,null,US_Cities_List/gong.png,US_Cities_List/camera.png,,,,,,,,,,,,,,,,,,
820.3000000007451,,rt_thecrossant_black,1017463,,black_plus_sign,,,,,49,,,1,0.9813084112149533,,,,,,,,,,,,,,,,
null,,color_black,1017566,,black_plus_sign,,,,,null,,,,,,,,,,,,,,,,,,,,
null,,learn_phase(without_color),1020585,,black_plus_sign,,,,,null,US_Cities_List/teeth.png,US_Cities_List/barrel.png,,,,,,,,,,,,,,,,,,
null,,black_cross(without_color),1021182,,blue,,,,,null,US_Cities_List/teeth.png,US_Cities_List/barrel.png,,,,,,,,,,,,,,,,,,
436,,rt_plussign_withcolor,1021686,,blue,,,,,49,US_Cities_List/teeth.png,US_Cities_List/barrel.png,,,,,,,,,,,,,,,,,,
null,,rt_thecrossant_black,1023097,,black_plus_sign,,,,,null,,,1,0.9814814814814815,,,,,,,,,,,,,,,,
null,,color_black,1023201,,black_plus_sign,,,,,null,,,,,,,,,,,,,,,,,,,,
null,,learn_phase(without_color),1026219,,black_plus_sign,,,,,null,US_Cities_List/camera.png,US_Cities_List/gong.png,,,,,,,,,,,,,,,,,,
null,,black_cross(without_color),1027258,,blue,,,,,null,US_Cities_List/camera.png,US_Cities_List/gong.png,,,,,,,,,,,,,,,,,,
495.5,,rt_plussign_withcolor,1027761,,blue,,,,,49,US_Cities_List/camera.png,US_Cities_List/gong.png,,,,,,,,,,,,,,,,,,
null,,rt_thecrossant_black,1028728,,black_plus_sign,,,,,null,,,1,0.981651376146789,,,,,,,,,,,,,,,,
null,,color_black,1028830,,black_plus_sign,,,,,null,,,,,,,,,,,,,,,,,,,,
null,,learn_phase(without_color),1031844,,black_plus_sign,,,,,null,US_Cities_List/basket.png,US_Cities_List/soldier.png,,,,,,,,,,,,,,,,,,
null,,black_cross(without_color),1032657,,green,,,,,null,US_Cities_List/basket.png,US_Cities_List/soldier.png,,,,,,,,,,,,,,,,,,
492.1000000014901,,rt_plussign_withcolor,1033160,,green,,,,,50,US_Cities_List/basket.png,US_Cities_List/soldier.png,,,,,,,,,,,,,,,,,,
null,,rt_thecrossant_black,1034355,,black_plus_sign,,,,,null,,,1,0.9818181818181818,,,,,,,,,,,,,,,,
null,,color_black,1034459,,black_plus_sign,,,,,null,,,,,,,,,,,,,,,,,,,,
null,,learn_phase(without_color),1037472,,black_plus_sign,,,,,null,US_Cities_List/globe.png,US_Cities_List/paint.png,,,,,,,,,,,,,,,,,,
null,,black_cross(without_color),1038576,,green,,,,,null,US_Cities_List/globe.png,US_Cities_List/paint.png,,,,,,,,,,,,,,,,,,
null,,rt_plussign_withcolor,1039079,,green,,,,,null,US_Cities_List/globe.png,US_Cities_List/paint.png,,,,,,,,,,,,,,,,,,
970.3000000007451,,rt_thecrossant_black,1039983,,black_plus_sign,,,,,50,,,1,0.9819819819819819,,,,,,,,,,,,,,,,
null,,color_black,1040086,,black_plus_sign,,,,,null,,,,,,,,,,,,,,,,,,,,
null,,learn_phase(without_color),1043101,,black_plus_sign,,,,,null,US_Cities_List/soldier.png,US_Cities_List/basket.png,,,,,,,,,,,,,,,,,,
null,,black_cross(without_color),1043556,,blue,,,,,null,US_Cities_List/soldier.png,US_Cities_List/basket.png,,,,,,,,,,,,,,,,,,
null,,rt_plussign_withcolor,1044059,,blue,,,,,null,US_Cities_List/soldier.png,US_Cities_List/basket.png,,,,,,,,,,,,,,,,,,
1390.4000000003725,,rt_thecrossant_black,1045612,,black_plus_sign,,,,,49,,,1,0.9821428571428571,,,,,,,,,,,,,,,,
null,,color_black,1045716,,black_plus_sign,,,,,null,,,,,,,,,,,,,,,,,,,,
null,,learn_phase(without_color),1048729,,black_plus_sign,,,,,null,US_Cities_List/camera.png,US_Cities_List/gong.png,,,,,,,,,,,,,,,,,,
null,,black_cross(without_color),1049232,,blue,,,,,null,US_Cities_List/camera.png,US_Cities_List/gong.png,,,,,,,,,,,,,,,,,,
null,,rt_plussign_withcolor,1049735,,blue,,,,,null,US_Cities_List/camera.png,US_Cities_List/gong.png,,,,,,,,,,,,,,,,,,
1166.5999999996275,,rt_thecrossant_black,1051241,,black_plus_sign,,,,,49,,,1,0.9823008849557522,,,,,,,,,,,,,,,,
null,,color_black,1051344,,black_plus_sign,,,,,null,,,,,,,,,,,,,,,,,,,,
null,,learn_phase(without_color),1054357,,black_plus_sign,,,,,null,US_Cities_List/globe.png,US_Cities_List/paint.png,,,,,,,,,,,,,,,,,,
null,,black_cross(without_color),1055167,,blue,,,,,null,US_Cities_List/globe.png,US_Cities_List/paint.png,,,,,,,,,,,,,,,,,,
488.30000000074506,,rt_plussign_withcolor,1055671,,blue,,,,,49,US_Cities_List/globe.png,US_Cities_List/paint.png,,,,,,,,,,,,,,,,,,
null,,rt_thecrossant_black,1056867,,black_plus_sign,,,,,null,,,1,0.9824561403508771,,,,,,,,,,,,,,,,
null,,color_black,1056971,,black_plus_sign,,,,,null,,,,,,,,,,,,,,,,,,,,
null,,learn_phase(without_color),1059983,,black_plus_sign,,,,,null,US_Cities_List/soldier.png,US_Cities_List/basket.png,,,,,,,,,,,,,,,,,,
null,,black_cross(without_color),1060952,,blue,,,,,null,US_Cities_List/soldier.png,US_Cities_List/basket.png,,,,,,,,,,,,,,,,,,
null,,rt_plussign_withcolor,1061456,,blue,,,,,null,US_Cities_List/soldier.png,US_Cities_List/basket.png,,,,,,,,,,,,,,,,,,
923.4000000003725,,rt_thecrossant_black,1062495,,black_plus_sign,,,,,49,,,1,0.9826086956521739,,,,,,,,,,,,,,,,
null,,color_black,1062600,,black_plus_sign,,,,,null,,,,,,,,,,,,,,,,,,,,
null,,learn_phase(without_color),1065614,,black_plus_sign,,,,,null,US_Cities_List/gong.png,US_Cities_List/camera.png,,,,,,,,,,,,,,,,,,
null,,black_cross(without_color),1066229,,green,,,,,null,US_Cities_List/gong.png,US_Cities_List/camera.png,,,,,,,,,,,,,,,,,,
null,,rt_plussign_withcolor,1066732,,green,,,,,null,US_Cities_List/gong.png,US_Cities_List/camera.png,,,,,,,,,,,,,,,,,,
1238.5999999996275,,rt_thecrossant_black,1068126,,black_plus_sign,,,,,50,,,1,0.9827586206896551,,,,,,,,,,,,,,,,
null,,color_black,1068229,,black_plus_sign,,,,,null,,,,,,,,,,,,,,,,,,,,
null,,learn_phase(without_color),1071245,,black_plus_sign,,,,,null,US_Cities_List/globe.png,US_Cities_List/paint.png,,,,,,,,,,,,,,,,,,
null,,black_cross(without_color),1071840,,green,,,,,null,US_Cities_List/globe.png,US_Cities_List/paint.png,,,,,,,,,,,,,,,,,,
null,,rt_plussign_withcolor,1072344,,green,,,,,null,US_Cities_List/globe.png,US_Cities_List/paint.png,,,,,,,,,,,,,,,,,,
974.4000000003725,,rt_thecrossant_black,1073757,,black_plus_sign,,,,,50,,,1,0.9829059829059829,,,,,,,,,,,,,,,,
null,,color_black,1073861,,black_plus_sign,,,,,null,,,,,,,,,,,,,,,,,,,,
null,,learn_phase(without_color),1076876,,black_plus_sign,,,,,null,US_Cities_List/basket.png,US_Cities_List/soldier.png,,,,,,,,,,,,,,,,,,
null,,black_cross(without_color),1077291,,blue,,,,,null,US_Cities_List/basket.png,US_Cities_List/soldier.png,,,,,,,,,,,,,,,,,,
null,,rt_plussign_withcolor,1077794,,blue,,,,,null,US_Cities_List/basket.png,US_Cities_List/soldier.png,,,,,,,,,,,,,,,,,,
733.9000000003725,,rt_thecrossant_black,1079386,,black_plus_sign,,,,,49,,,1,0.9830508474576272,,,,,,,,,,,,,,,,
null,,color_black,1079490,,black_plus_sign,,,,,null,,,,,,,,,,,,,,,,,,,,
null,,learn_phase(without_color),1082506,,black_plus_sign,,,,,null,US_Cities_List/camera.png,US_Cities_List/gong.png,,,,,,,,,,,,,,,,,,
null,,black_cross(without_color),1082998,,green,,,,,null,US_Cities_List/camera.png,US_Cities_List/gong.png,,,,,,,,,,,,,,,,,,
null,,rt_plussign_withcolor,1083502,,green,,,,,null,US_Cities_List/camera.png,US_Cities_List/gong.png,,,,,,,,,,,,,,,,,,
531.6999999992549,,rt_thecrossant_black,1085018,,black_plus_sign,,,,,50,,,1,0.9831932773109243,,,,,,,,,,,,,,,,
null,,color_black,1085121,,black_plus_sign,,,,,null,,,,,,,,,,,,,,,,,,,,
null,,learn_phase(without_color),1088136,,black_plus_sign,,,,,null,US_Cities_List/basket.png,US_Cities_List/soldier.png,,,,,,,,,,,,,,,,,,
null,,black_cross(without_color),1088903,,green,,,,,null,US_Cities_List/basket.png,US_Cities_List/soldier.png,,,,,,,,,,,,,,,,,,
null,,rt_plussign_withcolor,1089406,,green,,,,,null,US_Cities_List/basket.png,US_Cities_List/soldier.png,,,,,,,,,,,,,,,,,,
652.6999999992549,,rt_thecrossant_black,1090647,,black_plus_sign,,,,,50,,,1,0.9833333333333333,,,,,,,,,,,,,,,,
null,,color_black,1090752,,black_plus_sign,,,,,null,,,,,,,,,,,,,,,,,,,,
null,,learn_phase(without_color),1093767,,black_plus_sign,,,,,null,US_Cities_List/paint.png,US_Cities_List/globe.png,,,,,,,,,,,,,,,,,,
null,,black_cross(without_color),1094608,,green,,,,,null,US_Cities_List/paint.png,US_Cities_List/globe.png,,,,,,,,,,,,,,,,,,
null,,rt_plussign_withcolor,1095111,,green,,,,,null,US_Cities_List/paint.png,US_Cities_List/globe.png,,,,,,,,,,,,,,,,,,
870.3999999985099,,rt_thecrossant_black,1096278,,black_plus_sign,,,,,50,,,1,0.9834710743801653,,,,,,,,,,,,,,,,
null,,color_black,1096381,,black_plus_sign,,,,,null,,,,,,,,,,,,,,,,,,,,
null,,learn_phase(without_color),1099397,,black_plus_sign,,,,,null,US_Cities_List/paint.png,US_Cities_List/globe.png,,,,,,,,,,,,,,,,,,
null,,black_cross(without_color),1099852,,blue,,,,,null,US_Cities_List/paint.png,US_Cities_List/globe.png,,,,,,,,,,,,,,,,,,
null,,rt_plussign_withcolor,1100355,,blue,,,,,null,US_Cities_List/paint.png,US_Cities_List/globe.png,,,,,,,,,,,,,,,,,,
1001.1999999992549,,rt_thecrossant_black,1101908,,black_plus_sign,,,,,49,,,1,0.9836065573770492,,,,,,,,,,,,,,,,
null,,color_black,1102013,,black_plus_sign,,,,,null,,,,,,,,,,,,,,,,,,,,
null,,learn_phase(without_color),1105028,,black_plus_sign,,,,,null,US_Cities_List/basket.png,US_Cities_List/soldier.png,,,,,,,,,,,,,,,,,,
null,,black_cross(without_color),1106064,,green,,,,,null,US_Cities_List/basket.png,US_Cities_List/soldier.png,,,,,,,,,,,,,,,,,,
null,,rt_plussign_withcolor,1106568,,green,,,,,null,US_Cities_List/basket.png,US_Cities_List/soldier.png,,,,,,,,,,,,,,,,,,
728.6999999992549,,rt_thecrossant_black,1107539,,black_plus_sign,,,,,50,,,1,0.983739837398374,,,,,,,,,,,,,,,,
null,,color_black,1107644,,black_plus_sign,,,,,null,,,,,,,,,,,,,,,,,,,,
null,,learn_phase(without_color),1110661,,black_plus_sign,,,,,null,US_Cities_List/paint.png,US_Cities_List/globe.png,,,,,,,,,,,,,,,,,,
null,,black_cross(without_color),1111500,,blue,,,,,null,US_Cities_List/paint.png,US_Cities_List/globe.png,,,,,,,,,,,,,,,,,,
null,,rt_plussign_withcolor,1112004,,blue,,,,,null,US_Cities_List/paint.png,US_Cities_List/globe.png,,,,,,,,,,,,,,,,,,
1186.5999999996275,,rt_thecrossant_black,1113173,,black_plus_sign,,,,,49,,,1,0.9838709677419355,,,,,,,,,,,,,,,,
null,,color_black,1113277,,black_plus_sign,,,,,null,,,,,,,,,,,,,,,,,,,,
null,,learn_phase(without_color),1116291,,black_plus_sign,,,,,null,US_Cities_List/globe.png,US_Cities_List/paint.png,,,,,,,,,,,,,,,,,,
null,,black_cross(without_color),1117187,,blue,,,,,null,US_Cities_List/globe.png,US_Cities_List/paint.png,,,,,,,,,,,,,,,,,,
null,,rt_plussign_withcolor,1117691,,blue,,,,,null,US_Cities_List/globe.png,US_Cities_List/paint.png,,,,,,,,,,,,,,,,,,
948.7000000011176,,rt_thecrossant_black,1118803,,black_plus_sign,,,,,49,,,1,0.984,,,,,,,,,,,,,,,,
null,,color_black,1118907,,black_plus_sign,,,,,null,,,,,,,,,,,,,,,,,,,,
null,,learn_phase(without_color),1121927,,black_plus_sign,,,,,null,US_Cities_List/teeth.png,US_Cities_List/barrel.png,,,,,,,,,,,,,,,,,,
null,,black_cross(without_color),1122690,,green,,,,,null,US_Cities_List/teeth.png,US_Cities_List/barrel.png,,,,,,,,,,,,,,,,,,
479.19999999925494,,rt_plussign_withcolor,1123194,,green,,,,,50,US_Cities_List/teeth.png,US_Cities_List/barrel.png,,,,,,,,,,,,,,,,,,
null,,rt_thecrossant_black,1124440,,black_plus_sign,,,,,null,,,1,0.9841269841269841,,,,,,,,,,,,,,,,
null,,color_black,1124544,,black_plus_sign,,,,,null,,,,,,,,,,,,,,,,,,,,
null,,learn_phase(without_color),1127558,,black_plus_sign,,,,,null,US_Cities_List/paint.png,US_Cities_List/globe.png,,,,,,,,,,,,,,,,,,
null,,black_cross(without_color),1128195,,blue,,,,,null,US_Cities_List/paint.png,US_Cities_List/globe.png,,,,,,,,,,,,,,,,,,
null,,rt_plussign_withcolor,1128699,,blue,,,,,null,US_Cities_List/paint.png,US_Cities_List/globe.png,,,,,,,,,,,,,,,,,,
862.7000000011176,,rt_thecrossant_black,1130070,,black_plus_sign,,,,,49,,,1,0.984251968503937,,,,,,,,,,,,,,,,
null,,color_black,1130174,,black_plus_sign,,,,,null,,,,,,,,,,,,,,,,,,,,
null,,learn_phase(without_color),1133194,,black_plus_sign,,,,,null,US_Cities_List/teeth.png,US_Cities_List/barrel.png,,,,,,,,,,,,,,,,,,
null,,black_cross(without_color),1134074,,blue,,,,,null,US_Cities_List/teeth.png,US_Cities_List/barrel.png,,,,,,,,,,,,,,,,,,
null,,rt_plussign_withcolor,1134577,,blue,,,,,null,US_Cities_List/teeth.png,US_Cities_List/barrel.png,,,,,,,,,,,,,,,,,,
765.9000000003725,,rt_thecrossant_black,1135704,,black_plus_sign,,,,,49,,,1,0.984375,,,,,,,,,,,,,,,,
null,,color_black,1135808,,black_plus_sign,,,,,null,,,,,,,,,,,,,,,,,,,,
9893.099999999627,,intro_1,1145706,,instruct,,,0,,,,,,,,,,,,,,,,,,,,,,
7203.5,,intro_2,1152913,,instruct,,,1,Next,,,,,,,,,,,,,,,,,,,,,
2778.5,,directmemory_phase,1155711,,../static/images/US_Cities_List/hat.png,,,,,49,,,1,1,../static/images/US_Cities_List/basket.png,../static/images/US_Cities_List/snail.png,../static/images/US_Cities_List/soldier.png,../static/images/US_Cities_List/basket.png,../static/images/US_Cities_List/soldier.png,../static/images/US_Cities_List/snail.png,1,,,,,,,,,
null,,html-keyboard-response,1156717,,<p></p>,,,,,null,,,,,,,,,,,,,,,,,,,,
2374.5,,directmemory_phase,1159111,,../static/images/US_Cities_List/soldier.png,,,,,51,,,0,0.5,../static/images/US_Cities_List/hat.png,../static/images/US_Cities_List/globe.png,../static/images/US_Cities_List/barrel.png,../static/images/US_Cities_List/globe.png,../static/images/US_Cities_List/hat.png,../static/images/US_Cities_List/barrel.png,0.5,closer,,,,,,,,
null,,html-keyboard-response,1160117,,<p></p>,,,,,null,,,,,,,,,,,,,,,,,,,,
2609,,directmemory_phase,1162744,,../static/images/US_Cities_List/camera.png,,,,,51,,,1,0.6666666666666666,../static/images/US_Cities_List/jukebox.png,../static/images/US_Cities_List/snail.png,../static/images/US_Cities_List/dustpan.png,../static/images/US_Cities_List/dustpan.png,../static/images/US_Cities_List/snail.png,../static/images/US_Cities_List/jukebox.png,1,,,,,,,,,
null,,html-keyboard-response,1163749,,<p></p>,,,,,null,,,,,,,,,,,,,,,,,,,,
2794.800000000745,,directmemory_phase,1166562,,../static/images/US_Cities_List/jukebox.png,,,,,51,,,1,0.75,../static/images/US_Cities_List/camera.png,../static/images/US_Cities_List/globe.png,../static/images/US_Cities_List/soldier.png,../static/images/US_Cities_List/soldier.png,../static/images/US_Cities_List/globe.png,../static/images/US_Cities_List/camera.png,1,,,,,,,,,
null,,html-keyboard-response,1167566,,<p></p>,,,,,null,,,,,,,,,,,,,,,,,,,,
2473.2999999988824,,directmemory_phase,1170060,,../static/images/US_Cities_List/barrel.png,,,,,49,,,1,0.8,../static/images/US_Cities_List/snail.png,../static/images/US_Cities_List/jukebox.png,../static/images/US_Cities_List/gong.png,../static/images/US_Cities_List/snail.png,../static/images/US_Cities_List/gong.png,../static/images/US_Cities_List/jukebox.png,1,,,,,,,,,
null,,html-keyboard-response,1171066,,<p></p>,,,,,null,,,,,,,,,,,,,,,,,,,,
3269.800000000745,,directmemory_phase,1174362,,../static/images/US_Cities_List/basket.png,,,,,51,,,1,0.8333333333333334,../static/images/US_Cities_List/teeth.png,../static/images/US_Cities_List/jukebox.png,../static/images/US_Cities_List/hat.png,../static/images/US_Cities_List/hat.png,../static/images/US_Cities_List/jukebox.png,../static/images/US_Cities_List/teeth.png,1,,,,,,,,,
null,,html-keyboard-response,1175367,,<p></p>,,,,,null,,,,,,,,,,,,,,,,,,,,
2892.4000000003725,,directmemory_phase,1178277,,../static/images/US_Cities_List/snail.png,,,,,51,,,1,0.8571428571428571,../static/images/US_Cities_List/wheelchair.png,../static/images/US_Cities_List/soldier.png,../static/images/US_Cities_List/paint.png,../static/images/US_Cities_List/paint.png,../static/images/US_Cities_List/soldier.png,../static/images/US_Cities_List/wheelchair.png,1,,,,,,,,,
null,,html-keyboard-response,1179283,,<p></p>,,,,,null,,,,,,,,,,,,,,,,,,,,
2334.5999999996275,,directmemory_phase,1181637,,../static/images/US_Cities_List/teeth.png,,,,,51,,,1,0.875,../static/images/US_Cities_List/basket.png,../static/images/US_Cities_List/gong.png,../static/images/US_Cities_List/barrel.png,../static/images/US_Cities_List/barrel.png,../static/images/US_Cities_List/gong.png,../static/images/US_Cities_List/basket.png,1,,,,,,,,,
null,,html-keyboard-response,1182644,,<p></p>,,,,,null,,,,,,,,,,,,,,,,,,,,
3010.300000000745,,directmemory_phase,1185672,,../static/images/US_Cities_List/dustpan.png,,,,,49,,,1,0.8888888888888888,../static/images/US_Cities_List/camera.png,../static/images/US_Cities_List/paint.png,../static/images/US_Cities_List/teeth.png,../static/images/US_Cities_List/camera.png,../static/images/US_Cities_List/teeth.png,../static/images/US_Cities_List/paint.png,1,,,,,,,,,
null,,html-keyboard-response,1186677,,<p></p>,,,,,null,,,,,,,,,,,,,,,,,,,,
3209.0999999996275,,directmemory_phase,1189901,,../static/images/US_Cities_List/soldier.png,,,,,51,,,1,0.9,../static/images/US_Cities_List/dustpan.png,../static/images/US_Cities_List/hat.png,../static/images/US_Cities_List/paint.png,../static/images/US_Cities_List/paint.png,../static/images/US_Cities_List/hat.png,../static/images/US_Cities_List/dustpan.png,1,,,,,,,,,
null,,html-keyboard-response,1190905,,<p></p>,,,,,null,,,,,,,,,,,,,,,,,,,,
3262.699999999255,,directmemory_phase,1194188,,../static/images/US_Cities_List/camera.png,,,,,49,,,1,0.9090909090909091,../static/images/US_Cities_List/teeth.png,../static/images/US_Cities_List/paint.png,../static/images/US_Cities_List/wheelchair.png,../static/images/US_Cities_List/teeth.png,../static/images/US_Cities_List/wheelchair.png,../static/images/US_Cities_List/paint.png,1,,,,,,,,,
null,,html-keyboard-response,1195193,,<p></p>,,,,,null,,,,,,,,,,,,,,,,,,,,
1606.4000000003725,,directmemory_phase,1196824,,../static/images/US_Cities_List/paint.png,,,,,49,,,1,0.9166666666666666,../static/images/US_Cities_List/basket.png,../static/images/US_Cities_List/wheelchair.png,../static/images/US_Cities_List/gong.png,../static/images/US_Cities_List/basket.png,../static/images/US_Cities_List/gong.png,../static/images/US_Cities_List/wheelchair.png,1,,,,,,,,,
null,,html-keyboard-response,1197829,,<p></p>,,,,,null,,,,,,,,,,,,,,,,,,,,
3781.5999999996275,,directmemory_phase,1201630,,../static/images/US_Cities_List/teeth.png,,,,,49,,,1,0.9230769230769231,../static/images/US_Cities_List/camera.png,../static/images/US_Cities_List/globe.png,../static/images/US_Cities_List/gong.png,../static/images/US_Cities_List/camera.png,../static/images/US_Cities_List/gong.png,../static/images/US_Cities_List/globe.png,1,,,,,,,,,
null,,html-keyboard-response,1202635,,<p></p>,,,,,null,,,,,,,,,,,,,,,,,,,,
2080.60000000149,,directmemory_phase,1204736,,../static/images/US_Cities_List/basket.png,,,,,51,,,1,0.9285714285714286,../static/images/US_Cities_List/teeth.png,../static/images/US_Cities_List/snail.png,../static/images/US_Cities_List/soldier.png,../static/images/US_Cities_List/soldier.png,../static/images/US_Cities_List/snail.png,../static/images/US_Cities_List/teeth.png,1,,,,,,,,,
null,,html-keyboard-response,1205742,,<p></p>,,,,,null,,,,,,,,,,,,,,,,,,,,
1948.0999999996275,,directmemory_phase,1207708,,../static/images/US_Cities_List/globe.png,,,,,49,,,1,0.9333333333333333,../static/images/US_Cities_List/paint.png,../static/images/US_Cities_List/barrel.png,../static/images/US_Cities_List/snail.png,../static/images/US_Cities_List/paint.png,../static/images/US_Cities_List/snail.png,../static/images/US_Cities_List/barrel.png,1,,,,,,,,,
null,,html-keyboard-response,1208714,,<p></p>,,,,,null,,,,,,,,,,,,,,,,,,,,
4077.699999999255,,directmemory_phase,1212808,,../static/images/US_Cities_List/teeth.png,,,,,51,,,1,0.9375,../static/images/US_Cities_List/paint.png,../static/images/US_Cities_List/dustpan.png,../static/images/US_Cities_List/wheelchair.png,../static/images/US_Cities_List/wheelchair.png,../static/images/US_Cities_List/dustpan.png,../static/images/US_Cities_List/paint.png,1,,,,,,,,,
null,,html-keyboard-response,1213813,,<p></p>,,,,,null,,,,,,,,,,,,,,,,,,,,
1421.300000000745,,directmemory_phase,1215254,,../static/images/US_Cities_List/gong.png,,,,,51,,,1,0.9411764705882353,../static/images/US_Cities_List/hat.png,../static/images/US_Cities_List/barrel.png,../static/images/US_Cities_List/globe.png,../static/images/US_Cities_List/globe.png,../static/images/US_Cities_List/barrel.png,../static/images/US_Cities_List/hat.png,1,,,,,,,,,
null,,html-keyboard-response,1216260,,<p></p>,,,,,null,,,,,,,,,,,,,,,,,,,,
3712.300000000745,,directmemory_phase,1219999,,../static/images/US_Cities_List/wheelchair.png,,,,,51,,,1,0.9444444444444444,../static/images/US_Cities_List/gong.png,../static/images/US_Cities_List/camera.png,../static/images/US_Cities_List/teeth.png,../static/images/US_Cities_List/teeth.png,../static/images/US_Cities_List/camera.png,../static/images/US_Cities_List/gong.png,1,,,,,,,,,
null,,html-keyboard-response,1221003,,<p></p>,,,,,null,,,,,,,,,,,,,,,,,,,,
3633.5999999996275,,directmemory_phase,1224653,,../static/images/US_Cities_List/camera.png,,,,,51,,,1,0.9473684210526315,../static/images/US_Cities_List/soldier.png,../static/images/US_Cities_List/barrel.png,../static/images/US_Cities_List/gong.png,../static/images/US_Cities_List/gong.png,../static/images/US_Cities_List/barrel.png,../static/images/US_Cities_List/soldier.png,1,,,,,,,,,
null,,html-keyboard-response,1225659,,<p></p>,,,,,null,,,,,,,,,,,,,,,,,,,,
3255.0999999996275,,directmemory_phase,1228937,,../static/images/US_Cities_List/basket.png,,,,,51,,,1,0.95,../static/images/US_Cities_List/camera.png,../static/images/US_Cities_List/jukebox.png,../static/images/US_Cities_List/paint.png,../static/images/US_Cities_List/paint.png,../static/images/US_Cities_List/jukebox.png,../static/images/US_Cities_List/camera.png,1,,,,,,,,,
null,,html-keyboard-response,1229943,,<p></p>,,,,,null,,,,,,,,,,,,,,,,,,,,
2825.699999999255,,directmemory_phase,1232785,,../static/images/US_Cities_List/gong.png,,,,,51,,,1,0.9523809523809523,../static/images/US_Cities_List/hat.png,../static/images/US_Cities_List/soldier.png,../static/images/US_Cities_List/snail.png,../static/images/US_Cities_List/snail.png,../static/images/US_Cities_List/soldier.png,../static/images/US_Cities_List/hat.png,1,,,,,,,,,
null,,html-keyboard-response,1233790,,<p></p>,,,,,null,,,,,,,,,,,,,,,,,,,,
2757.800000000745,,directmemory_phase,1236567,,../static/images/US_Cities_List/paint.png,,,,,50,,,1,0.9545454545454546,../static/images/US_Cities_List/jukebox.png,../static/images/US_Cities_List/globe.png,../static/images/US_Cities_List/wheelchair.png,../static/images/US_Cities_List/globe.png,../static/images/US_Cities_List/jukebox.png,../static/images/US_Cities_List/wheelchair.png,1,,,,,,,,,
null,,html-keyboard-response,1237573,,<p></p>,,,,,null,,,,,,,,,,,,,,,,,,,,
1733.199999999255,,directmemory_phase,1239324,,../static/images/US_Cities_List/snail.png,,,,,49,,,1,0.9565217391304348,../static/images/US_Cities_List/gong.png,../static/images/US_Cities_List/dustpan.png,../static/images/US_Cities_List/camera.png,../static/images/US_Cities_List/gong.png,../static/images/US_Cities_List/camera.png,../static/images/US_Cities_List/dustpan.png,1,,,,,,,,,
null,,html-keyboard-response,1240330,,<p></p>,,,,,null,,,,,,,,,,,,,,,,,,,,
2359,,directmemory_phase,1242708,,../static/images/US_Cities_List/soldier.png,,,,,51,,,1,0.9583333333333334,../static/images/US_Cities_List/teeth.png,../static/images/US_Cities_List/hat.png,../static/images/US_Cities_List/basket.png,../static/images/US_Cities_List/basket.png,../static/images/US_Cities_List/hat.png,../static/images/US_Cities_List/teeth.png,1,,,,,,,,,
null,,html-keyboard-response,1243715,,<p></p>,,,,,null,,,,,,,,,,,,,,,,,,,,
1999.7999999988824,,directmemory_phase,1245735,,../static/images/US_Cities_List/globe.png,,,,,49,,,1,0.96,../static/images/US_Cities_List/gong.png,../static/images/US_Cities_List/wheelchair.png,../static/images/US_Cities_List/jukebox.png,../static/images/US_Cities_List/gong.png,../static/images/US_Cities_List/jukebox.png,../static/images/US_Cities_List/wheelchair.png,1,,,,,,,,,
null,,html-keyboard-response,1246740,,<p></p>,,,,,null,,,,,,,,,,,,,,,,,,,,
2794.39999999851,,directmemory_phase,1249553,,../static/images/US_Cities_List/soldier.png,,,,,51,,,1,0.9615384615384616,../static/images/US_Cities_List/dustpan.png,../static/images/US_Cities_List/hat.png,../static/images/US_Cities_List/jukebox.png,../static/images/US_Cities_List/jukebox.png,../static/images/US_Cities_List/hat.png,../static/images/US_Cities_List/dustpan.png,1,,,,,,,,,
null,,html-keyboard-response,1250559,,<p></p>,,,,,null,,,,,,,,,,,,,,,,,,,,
4773.700000001118,,directmemory_phase,1255359,,../static/images/US_Cities_List/gong.png,,,,,49,,,1,0.9629629629629629,../static/images/US_Cities_List/camera.png,../static/images/US_Cities_List/wheelchair.png,../static/images/US_Cities_List/barrel.png,../static/images/US_Cities_List/camera.png,../static/images/US_Cities_List/barrel.png,../static/images/US_Cities_List/wheelchair.png,1,,,,,,,,,
null,,html-keyboard-response,1256365,,<p></p>,,,,,null,,,,,,,,,,,,,,,,,,,,
2753.2999999988824,,directmemory_phase,1259135,,../static/images/US_Cities_List/paint.png,,,,,49,,,1,0.9642857142857143,../static/images/US_Cities_List/snail.png,../static/images/US_Cities_List/teeth.png,../static/images/US_Cities_List/gong.png,../static/images/US_Cities_List/snail.png,../static/images/US_Cities_List/gong.png,../static/images/US_Cities_List/teeth.png,1,,,,,,,,,
null,,html-keyboard-response,1260141,,<p></p>,,,,,null,,,,,,,,,,,,,,,,,,,,
5695.700000001118,,directmemory_phase,1265853,,../static/images/US_Cities_List/globe.png,,,,,49,,,1,0.9655172413793104,../static/images/US_Cities_List/soldier.png,../static/images/US_Cities_List/barrel.png,../static/images/US_Cities_List/snail.png,../static/images/US_Cities_List/soldier.png,../static/images/US_Cities_List/snail.png,../static/images/US_Cities_List/barrel.png,1,,,,,,,,,
null,,html-keyboard-response,1266858,,<p></p>,,,,,null,,,,,,,,,,,,,,,,,,,,
1428.4000000003725,,directmemory_phase,1268310,,../static/images/US_Cities_List/snail.png,,,,,50,,,0,0.9333333333333333,../static/images/US_Cities_List/jukebox.png,../static/images/US_Cities_List/basket.png,../static/images/US_Cities_List/barrel.png,../static/images/US_Cities_List/barrel.png,../static/images/US_Cities_List/basket.png,../static/images/US_Cities_List/jukebox.png,0.5,closer,,,,,,,,
null,,html-keyboard-response,1269316,,<p></p>,,,,,null,,,,,,,,,,,,,,,,,,,,
4740,,directmemory_phase,1274071,,../static/images/US_Cities_List/paint.png,,,,,51,,,1,0.9354838709677419,../static/images/US_Cities_List/camera.png,../static/images/US_Cities_List/hat.png,../static/images/US_Cities_List/soldier.png,../static/images/US_Cities_List/soldier.png,../static/images/US_Cities_List/hat.png,../static/images/US_Cities_List/camera.png,1,,,,,,,,,
null,,html-keyboard-response,1275076,,<p></p>,,,,,null,,,,,,,,,,,,,,,,,,,,
4586.5999999996275,,directmemory_phase,1279685,,../static/images/US_Cities_List/barrel.png,,,,,51,,,1,0.9375,../static/images/US_Cities_List/jukebox.png,../static/images/US_Cities_List/gong.png,../static/images/US_Cities_List/teeth.png,../static/images/US_Cities_List/teeth.png,../static/images/US_Cities_List/gong.png,../static/images/US_Cities_List/jukebox.png,1,,,,,,,,,
null,,html-keyboard-response,1280689,,<p></p>,,,,,null,,,,,,,,,,,,,,,,,,,,
12805.5,,intro_1,1293498,,instruct,,,0,,,,,,,,,,,,,,,,,,,,,,
7777.699999999255,,intro_2,1301280,,instruct,,,1,Next,,,,,,,,,,,,,,,,,,,,,
2541.800000000745,,intro_3,1303826,,instruct,,,1,Next,,,,,,,,,,,,,,,,,,,,,
4233,,intro_4,1308064,,instruct,,,1,Next,,,,,,,,,,,,,,,,,,,,,
2630.0999999996275,,intro_5,1310699,,instruct,,,1,Next,,,,,,,,,,,,,,,,,,,,,
2605.4000000003725,,intro_6,1313308,,instruct,,,1,Next,,,,,,,,,,,,,,,,,,,,,
5064.4000000003725,,intro_7,1318377,,instruct,,,1,Next,,,,,,,,,,,,,,,,,,,,,
5152,,intro_8,1323532,,instruct,,,1,Next,,,,,,,,,,,,,,,,,,,,,
35506.5,,intro_9,1359043,,instruct,,,1,Next,,,,,,,,,,,,,,,,,,,,,
23124.800000000745,,intro_10,1382172,,instruct,,,1,Next,,,,,,,,,,,,,,,,,,,,,
4769,,intro_11,1386945,,instruct,,,1,Next,,,,,,,,,,,,,,,,,,,,,
7238.699999999255,,shortestpath_phase,1394203,,../static/images/US_Cities_List/barrel.png,,,,,49,../static/images/US_Cities_List/gong.png,../static/images/US_Cities_List/hat.png,1,1,,,,../static/images/US_Cities_List/gong.png,,,,,One Edge Diff,Five Edge Six Edge,,,,,,
null,,html-keyboard-response,1395208,,<p></p>,,,,,null,,,,,,,,,,,,,,,,,,,,
4438.4000000003725,,shortestpath_phase,1399662,,../static/images/US_Cities_List/basket.png,,,,,49,../static/images/US_Cities_List/wheelchair.png,../static/images/US_Cities_List/snail.png,0,0.5,,,,../static/images/US_Cities_List/snail.png,,,,,Two Edge Diff,Three Edge Five Edge,,,,,,
null,,html-keyboard-response,1400667,,<p></p>,,,,,null,,,,,,,,,,,,,,,,,,,,
5592.699999999255,,shortestpath_phase,1406276,,../static/images/US_Cities_List/dustpan.png,,,,,50,../static/images/US_Cities_List/teeth.png,../static/images/US_Cities_List/hat.png,0,0.3333333333333333,,,,../static/images/US_Cities_List/teeth.png,,,,,Two Edge Diff,Four Edge Six Edge,,,,,,
null,,html-keyboard-response,1407283,,<p></p>,,,,,null,,,,,,,,,,,,,,,,,,,,
6985.0999999996275,,shortestpath_phase,1414287,,../static/images/US_Cities_List/paint.png,,,,,50,../static/images/US_Cities_List/dustpan.png,../static/images/US_Cities_List/barrel.png,1,0.5,,,,../static/images/US_Cities_List/barrel.png,,,,,One Edge Diff,Five Edge Six Edge,,,,,,
null,,html-keyboard-response,1415293,,<p></p>,,,,,null,,,,,,,,,,,,,,,,,,,,
null,,shortestpath_phase,1422811,,../static/images/US_Cities_List/dustpan.png,,,,,null,../static/images/US_Cities_List/hat.png,../static/images/US_Cities_List/gong.png,0,0.4,,,,../static/images/US_Cities_List/gong.png,,,,,Two Edge Diff,Four Edge Six Edge,,,,,,
null,,html-keyboard-response,1423817,,<p></p>,,,,,null,,,,,,,,,,,,,,,,,,,,
2415.4000000003725,,shortestpath_phase,1426249,,../static/images/US_Cities_List/jukebox.png,,,,,49,../static/images/US_Cities_List/globe.png,../static/images/US_Cities_List/wheelchair.png,1,0.5,,,,../static/images/US_Cities_List/globe.png,,,,,Two Edge Diff,Four Edge Six Edge,,,,,,
null,,html-keyboard-response,1427255,,<p></p>,,,,,null,,,,,,,,,,,,,,,,,,,,
3387.5,,shortestpath_phase,1430661,,../static/images/US_Cities_List/hat.png,,,,,49,../static/images/US_Cities_List/teeth.png,../static/images/US_Cities_List/gong.png,0,0.42857142857142855,,,,../static/images/US_Cities_List/gong.png,,,,,One Edge Diff,Four Edge Five Edge,,,,,,
null,,html-keyboard-response,1431667,,<p></p>,,,,,null,,,,,,,,,,,,,,,,,,,,
2649.699999999255,,shortestpath_phase,1434335,,../static/images/US_Cities_List/jukebox.png,,,,,50,../static/images/US_Cities_List/teeth.png,../static/images/US_Cities_List/basket.png,1,0.5,,,,../static/images/US_Cities_List/basket.png,,,,,Two Edge Diff,Four Edge Six Edge,,,,,,
null,,html-keyboard-response,1435340,,<p></p>,,,,,null,,,,,,,,,,,,,,,,,,,,
3471.800000000745,,shortestpath_phase,1438829,,../static/images/US_Cities_List/wheelchair.png,,,,,49,../static/images/US_Cities_List/hat.png,../static/images/US_Cities_List/globe.png,0,0.4444444444444444,,,,../static/images/US_Cities_List/globe.png,,,,,One Edge Diff,Five Edge Six Edge,,,,,,
null,,html-keyboard-response,1439834,,<p></p>,,,,,null,,,,,,,,,,,,,,,,,,,,
3031.4000000003725,,shortestpath_phase,1442882,,../static/images/US_Cities_List/basket.png,,,,,49,../static/images/US_Cities_List/gong.png,../static/images/US_Cities_List/dustpan.png,1,0.5,,,,../static/images/US_Cities_List/gong.png,,,,,One Edge Diff,Five Edge Six Edge,,,,,,
null,,html-keyboard-response,1443887,,<p></p>,,,,,null,,,,,,,,,,,,,,,,,,,,
3674.0999999996275,,shortestpath_phase,1447577,,../static/images/US_Cities_List/teeth.png,,,,,50,../static/images/US_Cities_List/soldier.png,../static/images/US_Cities_List/paint.png,1,0.5454545454545454,,,,../static/images/US_Cities_List/paint.png,,,,,One Edge Diff,Three Edge Four Edge,,,,,,
null,,html-keyboard-response,1448582,,<p></p>,,,,,null,,,,,,,,,,,,,,,,,,,,
3102.5,,shortestpath_phase,1451702,,../static/images/US_Cities_List/hat.png,,,,,50,../static/images/US_Cities_List/wheelchair.png,../static/images/US_Cities_List/gong.png,1,0.5833333333333334,,,,../static/images/US_Cities_List/gong.png,,,,,One Edge Diff,Five Edge Six Edge,,,,,,
null,,html-keyboard-response,1452707,,<p></p>,,,,,null,,,,,,,,,,,,,,,,,,,,
1716.5,,shortestpath_phase,1454443,,../static/images/US_Cities_List/wheelchair.png,,,,,49,../static/images/US_Cities_List/basket.png,../static/images/US_Cities_List/hat.png,1,0.6153846153846154,,,,../static/images/US_Cities_List/basket.png,,,,,One Edge Diff,Five Edge Six Edge,,,,,,
null,,html-keyboard-response,1455449,,<p></p>,,,,,null,,,,,,,,,,,,,,,,,,,,
3839.199999999255,,shortestpath_phase,1459302,,../static/images/US_Cities_List/hat.png,,,,,50,../static/images/US_Cities_List/camera.png,../static/images/US_Cities_List/soldier.png,1,0.6428571428571429,,,,../static/images/US_Cities_List/soldier.png,,,,,Two Edge Diff,Four Edge Six Edge,,,,,,
null,,html-keyboard-response,1460307,,<p></p>,,,,,null,,,,,,,,,,,,,,,,,,,,
2503,,shortestpath_phase,1462826,,../static/images/US_Cities_List/basket.png,,,,,49,../static/images/US_Cities_List/teeth.png,../static/images/US_Cities_List/gong.png,0,0.6,,,,../static/images/US_Cities_List/gong.png,,,,,One Edge Diff,Three Edge Four Edge,,,,,,
null,,html-keyboard-response,1463831,,<p></p>,,,,,null,,,,,,,,,,,,,,,,,,,,
1978.0999999996275,,shortestpath_phase,1465823,,../static/images/US_Cities_List/jukebox.png,,,,,49,../static/images/US_Cities_List/paint.png,../static/images/US_Cities_List/dustpan.png,1,0.625,,,,../static/images/US_Cities_List/paint.png,,,,,Two Edge Diff,Three Edge Five Edge,,,,,,
null,,html-keyboard-response,1466828,,<p></p>,,,,,null,,,,,,,,,,,,,,,,,,,,
1446.6000000014901,,shortestpath_phase,1468290,,../static/images/US_Cities_List/barrel.png,,,,,49,../static/images/US_Cities_List/gong.png,../static/images/US_Cities_List/globe.png,1,0.6470588235294118,,,,../static/images/US_Cities_List/gong.png,,,,,One Edge Diff,Two Edge Three Edge,,,,,,
null,,html-keyboard-response,1469295,,<p></p>,,,,,null,,,,,,,,,,,,,,,,,,,,
2650.5999999996275,,shortestpath_phase,1471958,,../static/images/US_Cities_List/wheelchair.png,,,,,50,../static/images/US_Cities_List/soldier.png,../static/images/US_Cities_List/dustpan.png,1,0.6666666666666666,,,,../static/images/US_Cities_List/dustpan.png,,,,,One Edge Diff,Five Edge Six Edge,,,,,,
null,,html-keyboard-response,1472963,,<p></p>,,,,,null,,,,,,,,,,,,,,,,,,,,
3224.4000000003725,,shortestpath_phase,1476208,,../static/images/US_Cities_List/camera.png,,,,,49,../static/images/US_Cities_List/jukebox.png,../static/images/US_Cities_List/hat.png,1,0.6842105263157895,,,,../static/images/US_Cities_List/jukebox.png,,,,,One Edge Diff,Four Edge Five Edge,,,,,,
null,,html-keyboard-response,1477214,,<p></p>,,,,,null,,,,,,,,,,,,,,,,,,,,
4686.39999999851,,shortestpath_phase,1481915,,../static/images/US_Cities_List/gong.png,,,,,50,../static/images/US_Cities_List/dustpan.png,../static/images/US_Cities_List/basket.png,0,0.65,,,,../static/images/US_Cities_List/dustpan.png,,,,,One Edge Diff,Two Edge Three Edge,,,,,,
null,,html-keyboard-response,1482920,,<p></p>,,,,,null,,,,,,,,,,,,,,,,,,,,
2913.0999999996275,,shortestpath_phase,1485850,,../static/images/US_Cities_List/camera.png,,,,,50,../static/images/US_Cities_List/snail.png,../static/images/US_Cities_List/basket.png,0,0.6190476190476191,,,,../static/images/US_Cities_List/snail.png,,,,,One Edge Diff,Five Edge Six Edge,,,,,,
null,,html-keyboard-response,1486855,,<p></p>,,,,,null,,,,,,,,,,,,,,,,,,,,
3165,,shortestpath_phase,1490037,,../static/images/US_Cities_List/dustpan.png,,,,,49,../static/images/US_Cities_List/jukebox.png,../static/images/US_Cities_List/hat.png,1,0.6363636363636364,,,,../static/images/US_Cities_List/jukebox.png,,,,,One Edge Diff,Five Edge Six Edge,,,,,,
null,,html-keyboard-response,1491043,,<p></p>,,,,,null,,,,,,,,,,,,,,,,,,,,
