rt,responses,trial_type,time_elapsed,stimulus,cities,city_images,button_pressed,response,key_press,stimulus_left,stimulus_right,accuracy,cumulative_accuracy,stimulus_down_left,stimulus_down_mid,stimulus_down_right,stimulus_correct,stimulus_short,stimulus_far,weighted_accuracy,missedtrial,condition,specific_pairs,imgL_ID,imgR_ID,linedress,linedressed,image_position,unknowncity,testedstates,currentstate,otherstate,problems,smooth,distraction,strategies,easier,similar,comments,,
6809.3,{worker_id:57bb6878eb28030001f7ea94},id_enter,6868,intro,Cornwall; Racine; Boulder; Carmel; Shreveport; New Hope; Leesburg; Huntsville; Gatlinburg; Hanover; West Palm Beach; Peoria; Hot Springs,US_Cities_List/nat_cornwall.png; US_Cities_List/nat_racine.png; US_Cities_List/mm_boulder.png; US_Cities_List/nat_carmel.png; US_Cities_List/mm_shreveport.png; US_Cities_List/mm_newhope.png; US_Cities_List/mm_leesburg.png; US_Cities_List/nat_huntsville.png; US_Cities_List/mm_gatlinburg.png; US_Cities_List/nat_hanover.png; US_Cities_List/nat_westpalmbeach.png; US_Cities_List/nat_peoria.png; US_Cities_List/nat_hotsprings.png,,,,,,,,,,,,,,,,,,,,,,,,,,,,,,,,,,,
8393.200001,,fullscreen,15465,make_fullscreen,,,0,,,,,,,,,,,,,,,,,,,,,,,,,,,,,,,,,,
11441.5,,intro_1,27258,instruct,,,0,,,,,,,,,,,,,,,,,,,,,,,,,,,,,,,,,,
13945,,intro_2,41569,instruct,,,1,Next,,,,,,,,,,,,,,,,,,,,,,,,,,,,,,,,,
17504.1,,intro_3,59358,instruct,,,1,Next,,,,,,,,,,,,,,,,,,,,,,,,,,,,,,,,,
10250.5,,intro_4,69925,instruct,,,1,Next,,,,,,,,,,,,,,,,,,,,,,,,,,,,,,,,,
8789.7,,intro_5,79105,instruct,,,1,Next,,,,,,,,,,,,,,,,,,,,,,,,,,,,,,,,,
27479.3,,intro_6,106812,instruct,,,1,Next,,,,,,,,,,,,,,,,,,,,,,,,,,,,,,,,,
null,,prac_atten_color_black,107710,black_plus_sign,,,,,null,,,,,,,,,,,,,,,,,,,,,,,,,,,,,,,,
null,,prac_atten_color,108374,prac_stop_color,,,,,null,,,,,,,,,,,,,,,,,,,,,,,,,,,,,,,,
1038.700001,,prac_atten_color_black,110387,black_plus_sign,,,,,49,,,,,,,,,,,,,,,,,,,,,,,,,,,,,,,,
null,,prac_atten_color_black,111171,black_plus_sign,,,,,null,,,,,,,,,,,,,,,,,,,,,,,,,,,,,,,,
null,,prac_atten_color,112136,prac_stop_color,,,,,null,,,,,,,,,,,,,,,,,,,,,,,,,,,,,,,,
87.09999943,,prac_atten_color_black,114147,black_plus_sign,,,,,50,,,,,,,,,,,,,,,,,,,,,,,,,,,,,,,,
null,,prac_atten_color_black,114595,black_plus_sign,,,,,null,,,,,,,,,,,,,,,,,,,,,,,,,,,,,,,,
null,,prac_atten_color,115331,prac_stop_color,,,,,null,,,,,,,,,,,,,,,,,,,,,,,,,,,,,,,,
121,,prac_atten_color_black,117340,black_plus_sign,,,,,50,,,,,,,,,,,,,,,,,,,,,,,,,,,,,,,,
null,,prac_atten_color_black,118024,black_plus_sign,,,,,null,,,,,,,,,,,,,,,,,,,,,,,,,,,,,,,,
null,,prac_atten_color,118553,prac_stop_color,,,,,null,,,,,,,,,,,,,,,,,,,,,,,,,,,,,,,,
36.69999981,,prac_atten_color_black,120563,black_plus_sign,,,,,49,,,,,,,,,,,,,,,,,,,,,,,,,,,,,,,,
null,,prac_atten_color_black,121459,black_plus_sign,,,,,null,,,,,,,,,,,,,,,,,,,,,,,,,,,,,,,,
null,,prac_atten_color,121915,prac_stop_color,,,,,null,,,,,,,,,,,,,,,,,,,,,,,,,,,,,,,,
126.8000002,,prac_atten_color_black,123923,black_plus_sign,,,,,50,,,,,,,,,,,,,,,,,,,,,,,,,,,,,,,,
null,,prac_atten_color_black,124889,black_plus_sign,,,,,null,,,,,,,,,,,,,,,,,,,,,,,,,,,,,,,,
null,,prac_atten_color,125672,prac_stop_color,,,,,null,,,,,,,,,,,,,,,,,,,,,,,,,,,,,,,,
8.200000763,,prac_atten_color_black,127683,black_plus_sign,,,,,50,,,,,,,,,,,,,,,,,,,,,,,,,,,,,,,,
null,,prac_atten_color_black,128322,black_plus_sign,,,,,null,,,,,,,,,,,,,,,,,,,,,,,,,,,,,,,,
null,,prac_atten_color,128895,prac_stop_color,,,,,null,,,,,,,,,,,,,,,,,,,,,,,,,,,,,,,,
2.099999428,,prac_atten_color_black,130905,black_plus_sign,,,,,49,,,,,,,,,,,,,,,,,,,,,,,,,,,,,,,,
null,,prac_atten_color_black,131753,black_plus_sign,,,,,null,,,,,,,,,,,,,,,,,,,,,,,,,,,,,,,,
null,,prac_atten_color,132419,prac_stop_color,,,,,null,,,,,,,,,,,,,,,,,,,,,,,,,,,,,,,,
3.399999619,,prac_atten_color_black,134425,black_plus_sign,,,,,50,,,,,,,,,,,,,,,,,,,,,,,,,,,,,,,,
null,,prac_atten_color_black,135181,black_plus_sign,,,,,null,,,,,,,,,,,,,,,,,,,,,,,,,,,,,,,,
487.1999998,,prac_atten_color,135996,prac_stop_color,,,,,49,,,,,,,,,,,,,,,,,,,,,,,,,,,,,,,,
null,,prac_atten_color_black,138004,black_plus_sign,,,,,null,,,,,,,,,,,,,,,,,,,,,,,,,,,,,,,,
null,,prac_atten_color_black,138612,black_plus_sign,,,,,null,,,,,,,,,,,,,,,,,,,,,,,,,,,,,,,,
null,,prac_atten_color,139257,prac_stop_color,,,,,null,,,,,,,,,,,,,,,,,,,,,,,,,,,,,,,,
36.59999943,,prac_atten_color_black,141268,black_plus_sign,,,,,50,,,,,,,,,,,,,,,,,,,,,,,,,,,,,,,,
8541,,attentioncheck_feedback,149823,cross_check_feedback,,,0,,,,,,,,,,,,,,,,,,,,,,,,,,,,,,,,,,
17294.7,,last_instruct,167123,instruct,,,,,32,,,,,,,,,,,,,,,,,,,,,,,,,,,,,,,,
null,,learn_phase(without_color),169197,black_plus_sign,,,,,null,US_Cities_List/nat_huntsville.png,US_Cities_List/nat_hanover.png,,,,,,,,,,,,,,,,,,,,,,,,,,,,,,
null,,black_cross(without_color),169844,blue,,,,,null,US_Cities_List/nat_huntsville.png,US_Cities_List/nat_hanover.png,,,,,,,,,,,,,,,,,,,,,,,,,,,,,,
null,,rt_plussign_withcolor,170356,blue,,,,,null,US_Cities_List/nat_huntsville.png,US_Cities_List/nat_hanover.png,,,,,,,,,,,,,,,,,,,,,,,,,,,,,,
1546.7,,rt_thecrossant_black,171732,black_plus_sign,,,,,49,,,1,1,,,,,,,,,,,,,,,,,,,,,,,,,,,,
null,,color_black,171844,black_plus_sign,,,,,null,,,,,,,,,,,,,,,,,,,,,,,,,,,,,,,,
null,,learn_phase(without_color),174436,black_plus_sign,,,,,null,US_Cities_List/mm_leesburg.png,US_Cities_List/nat_huntsville.png,,,,,,,,,,,,,,,,,,,,,,,,,,,,,,
null,,black_cross(without_color),175371,blue,,,,,null,US_Cities_List/mm_leesburg.png,US_Cities_List/nat_huntsville.png,,,,,,,,,,,,,,,,,,,,,,,,,,,,,,
null,,rt_plussign_withcolor,175875,blue,,,,,null,US_Cities_List/mm_leesburg.png,US_Cities_List/nat_huntsville.png,,,,,,,,,,,,,,,,,,,,,,,,,,,,,,
1268.8,,rt_thecrossant_black,176964,black_plus_sign,,,,,49,,,1,1,,,,,,,,,,,,,,,,,,,,,,,,,,,,
null,,color_black,177076,black_plus_sign,,,,,null,,,,,,,,,,,,,,,,,,,,,,,,,,,,,,,,
null,,learn_phase(without_color),179636,black_plus_sign,,,,,null,US_Cities_List/nat_huntsville.png,US_Cities_List/nat_hanover.png,,,,,,,,,,,,,,,,,,,,,,,,,,,,,,
null,,black_cross(without_color),180212,blue,,,,,null,US_Cities_List/nat_huntsville.png,US_Cities_List/nat_hanover.png,,,,,,,,,,,,,,,,,,,,,,,,,,,,,,
473.3000002,,rt_plussign_withcolor,180724,blue,,,,,49,US_Cities_List/nat_huntsville.png,US_Cities_List/nat_hanover.png,,,,,,,,,,,,,,,,,,,,,,,,,,,,,,
null,,rt_thecrossant_black,182170,black_plus_sign,,,,,null,,,1,1,,,,,,,,,,,,,,,,,,,,,,,,,,,,
null,,color_black,182276,black_plus_sign,,,,,null,,,,,,,,,,,,,,,,,,,,,,,,,,,,,,,,
null,,learn_phase(without_color),184826,black_plus_sign,,,,,null,US_Cities_List/mm_leesburg.png,US_Cities_List/mm_gatlinburg.png,,,,,,,,,,,,,,,,,,,,,,,,,,,,,,
null,,black_cross(without_color),185437,green,,,,,null,US_Cities_List/mm_leesburg.png,US_Cities_List/mm_gatlinburg.png,,,,,,,,,,,,,,,,,,,,,,,,,,,,,,
null,,rt_plussign_withcolor,185948,green,,,,,null,US_Cities_List/mm_leesburg.png,US_Cities_List/mm_gatlinburg.png,,,,,,,,,,,,,,,,,,,,,,,,,,,,,,
796.6999998,,rt_thecrossant_black,187354,black_plus_sign,,,,,50,,,1,1,,,,,,,,,,,,,,,,,,,,,,,,,,,,
null,,color_black,187460,black_plus_sign,,,,,null,,,,,,,,,,,,,,,,,,,,,,,,,,,,,,,,
null,,learn_phase(without_color),190017,black_plus_sign,,,,,null,US_Cities_List/nat_racine.png,US_Cities_List/mm_boulder.png,,,,,,,,,,,,,,,,,,,,,,,,,,,,,,
null,,black_cross(without_color),190899,green,,,,,null,US_Cities_List/nat_racine.png,US_Cities_List/mm_boulder.png,,,,,,,,,,,,,,,,,,,,,,,,,,,,,,
null,,rt_plussign_withcolor,191402,green,,,,,null,US_Cities_List/nat_racine.png,US_Cities_List/mm_boulder.png,,,,,,,,,,,,,,,,,,,,,,,,,,,,,,
982.2000008,,rt_thecrossant_black,192533,black_plus_sign,,,,,50,,,1,1,,,,,,,,,,,,,,,,,,,,,,,,,,,,
null,,color_black,192645,black_plus_sign,,,,,null,,,,,,,,,,,,,,,,,,,,,,,,,,,,,,,,
null,,learn_phase(without_color),195196,black_plus_sign,,,,,null,US_Cities_List/mm_boulder.png,US_Cities_List/nat_westpalmbeach.png,,,,,,,,,,,,,,,,,,,,,,,,,,,,,,
null,,black_cross(without_color),196117,blue,,,,,null,US_Cities_List/mm_boulder.png,US_Cities_List/nat_westpalmbeach.png,,,,,,,,,,,,,,,,,,,,,,,,,,,,,,
null,,rt_plussign_withcolor,196629,blue,,,,,null,US_Cities_List/mm_boulder.png,US_Cities_List/nat_westpalmbeach.png,,,,,,,,,,,,,,,,,,,,,,,,,,,,,,
1179.4,,rt_thecrossant_black,197722,black_plus_sign,,,,,49,,,1,1,,,,,,,,,,,,,,,,,,,,,,,,,,,,
null,,color_black,197829,black_plus_sign,,,,,null,,,,,,,,,,,,,,,,,,,,,,,,,,,,,,,,
null,,learn_phase(without_color),200394,black_plus_sign,,,,,null,US_Cities_List/nat_carmel.png,US_Cities_List/mm_shreveport.png,,,,,,,,,,,,,,,,,,,,,,,,,,,,,,
null,,black_cross(without_color),201114,blue,,,,,null,US_Cities_List/nat_carmel.png,US_Cities_List/mm_shreveport.png,,,,,,,,,,,,,,,,,,,,,,,,,,,,,,
null,,rt_plussign_withcolor,201621,blue,,,,,null,US_Cities_List/nat_carmel.png,US_Cities_List/mm_shreveport.png,,,,,,,,,,,,,,,,,,,,,,,,,,,,,,
1221.6,,rt_thecrossant_black,202914,black_plus_sign,,,,,49,,,1,1,,,,,,,,,,,,,,,,,,,,,,,,,,,,
null,,color_black,203018,black_plus_sign,,,,,null,,,,,,,,,,,,,,,,,,,,,,,,,,,,,,,,
null,,learn_phase(without_color),205566,black_plus_sign,,,,,null,US_Cities_List/mm_gatlinburg.png,US_Cities_List/nat_westpalmbeach.png,,,,,,,,,,,,,,,,,,,,,,,,,,,,,,
null,,black_cross(without_color),206573,blue,,,,,null,US_Cities_List/mm_gatlinburg.png,US_Cities_List/nat_westpalmbeach.png,,,,,,,,,,,,,,,,,,,,,,,,,,,,,,
459.9000006,,rt_plussign_withcolor,207086,blue,,,,,49,US_Cities_List/mm_gatlinburg.png,US_Cities_List/nat_westpalmbeach.png,,,,,,,,,,,,,,,,,,,,,,,,,,,,,,
null,,rt_thecrossant_black,208101,black_plus_sign,,,,,null,,,1,1,,,,,,,,,,,,,,,,,,,,,,,,,,,,
null,,color_black,208213,black_plus_sign,,,,,null,,,,,,,,,,,,,,,,,,,,,,,,,,,,,,,,
null,,learn_phase(without_color),210764,black_plus_sign,,,,,null,US_Cities_List/nat_huntsville.png,US_Cities_List/mm_gatlinburg.png,,,,,,,,,,,,,,,,,,,,,,,,,,,,,,
null,,black_cross(without_color),211429,blue,,,,,null,US_Cities_List/nat_huntsville.png,US_Cities_List/mm_gatlinburg.png,,,,,,,,,,,,,,,,,,,,,,,,,,,,,,
null,,rt_plussign_withcolor,211941,blue,,,,,null,US_Cities_List/nat_huntsville.png,US_Cities_List/mm_gatlinburg.png,,,,,,,,,,,,,,,,,,,,,,,,,,,,,,
1213.3,,rt_thecrossant_black,213302,black_plus_sign,,,,,49,,,1,1,,,,,,,,,,,,,,,,,,,,,,,,,,,,
null,,color_black,213413,black_plus_sign,,,,,null,,,,,,,,,,,,,,,,,,,,,,,,,,,,,,,,
null,,learn_phase(without_color),215966,black_plus_sign,,,,,null,US_Cities_List/mm_newhope.png,US_Cities_List/mm_leesburg.png,,,,,,,,,,,,,,,,,,,,,,,,,,,,,,
null,,black_cross(without_color),216813,blue,,,,,null,US_Cities_List/mm_newhope.png,US_Cities_List/mm_leesburg.png,,,,,,,,,,,,,,,,,,,,,,,,,,,,,,
null,,rt_plussign_withcolor,217322,blue,,,,,null,US_Cities_List/mm_newhope.png,US_Cities_List/mm_leesburg.png,,,,,,,,,,,,,,,,,,,,,,,,,,,,,,
1002.5,,rt_thecrossant_black,218490,black_plus_sign,,,,,49,,,1,1,,,,,,,,,,,,,,,,,,,,,,,,,,,,
null,,color_black,218597,black_plus_sign,,,,,null,,,,,,,,,,,,,,,,,,,,,,,,,,,,,,,,
null,,learn_phase(without_color),221147,black_plus_sign,,,,,null,US_Cities_List/mm_leesburg.png,US_Cities_List/nat_hotsprings.png,,,,,,,,,,,,,,,,,,,,,,,,,,,,,,
null,,black_cross(without_color),221652,green,,,,,null,US_Cities_List/mm_leesburg.png,US_Cities_List/nat_hotsprings.png,,,,,,,,,,,,,,,,,,,,,,,,,,,,,,
490.5,,rt_plussign_withcolor,222154,green,,,,,50,US_Cities_List/mm_leesburg.png,US_Cities_List/nat_hotsprings.png,,,,,,,,,,,,,,,,,,,,,,,,,,,,,,
null,,rt_thecrossant_black,223658,black_plus_sign,,,,,null,,,1,1,,,,,,,,,,,,,,,,,,,,,,,,,,,,
null,,color_black,223762,black_plus_sign,,,,,null,,,,,,,,,,,,,,,,,,,,,,,,,,,,,,,,
null,,learn_phase(without_color),226298,black_plus_sign,,,,,null,US_Cities_List/mm_gatlinburg.png,US_Cities_List/nat_westpalmbeach.png,,,,,,,,,,,,,,,,,,,,,,,,,,,,,,
null,,black_cross(without_color),227253,green,,,,,null,US_Cities_List/mm_gatlinburg.png,US_Cities_List/nat_westpalmbeach.png,,,,,,,,,,,,,,,,,,,,,,,,,,,,,,
null,,rt_plussign_withcolor,227755,green,,,,,null,US_Cities_List/mm_gatlinburg.png,US_Cities_List/nat_westpalmbeach.png,,,,,,,,,,,,,,,,,,,,,,,,,,,,,,
1014.400001,,rt_thecrossant_black,228821,black_plus_sign,,,,,50,,,1,1,,,,,,,,,,,,,,,,,,,,,,,,,,,,
null,,color_black,228933,black_plus_sign,,,,,null,,,,,,,,,,,,,,,,,,,,,,,,,,,,,,,,
null,,learn_phase(without_color),231483,black_plus_sign,,,,,null,US_Cities_List/nat_westpalmbeach.png,US_Cities_List/nat_peoria.png,,,,,,,,,,,,,,,,,,,,,,,,,,,,,,
null,,black_cross(without_color),232004,green,,,,,null,US_Cities_List/nat_westpalmbeach.png,US_Cities_List/nat_peoria.png,,,,,,,,,,,,,,,,,,,,,,,,,,,,,,
null,,rt_plussign_withcolor,232507,green,,,,,null,US_Cities_List/nat_westpalmbeach.png,US_Cities_List/nat_peoria.png,,,,,,,,,,,,,,,,,,,,,,,,,,,,,,
1210.7,,rt_thecrossant_black,234005,black_plus_sign,,,,,49,,,0,0.923076923,,,,,,,,,,,,,,,,,,,,,,,,,,,,
null,,color_black,234117,black_plus_sign,,,,,null,,,,,,,,,,,,,,,,,,,,,,,,,,,,,,,,
null,,learn_phase(without_color),236667,black_plus_sign,,,,,null,US_Cities_List/nat_huntsville.png,US_Cities_List/mm_gatlinburg.png,,,,,,,,,,,,,,,,,,,,,,,,,,,,,,
null,,black_cross(without_color),237726,blue,,,,,null,US_Cities_List/nat_huntsville.png,US_Cities_List/mm_gatlinburg.png,,,,,,,,,,,,,,,,,,,,,,,,,,,,,,
null,,rt_plussign_withcolor,238237,blue,,,,,null,US_Cities_List/nat_huntsville.png,US_Cities_List/mm_gatlinburg.png,,,,,,,,,,,,,,,,,,,,,,,,,,,,,,
768.6999998,,rt_thecrossant_black,239195,black_plus_sign,,,,,49,,,1,0.928571429,,,,,,,,,,,,,,,,,,,,,,,,,,,,
null,,color_black,239300,black_plus_sign,,,,,null,,,,,,,,,,,,,,,,,,,,,,,,,,,,,,,,
null,,learn_phase(without_color),241851,black_plus_sign,,,,,null,US_Cities_List/nat_carmel.png,US_Cities_List/mm_shreveport.png,,,,,,,,,,,,,,,,,,,,,,,,,,,,,,
null,,black_cross(without_color),242886,blue,,,,,null,US_Cities_List/nat_carmel.png,US_Cities_List/mm_shreveport.png,,,,,,,,,,,,,,,,,,,,,,,,,,,,,,
null,,rt_plussign_withcolor,243397,blue,,,,,null,US_Cities_List/nat_carmel.png,US_Cities_List/mm_shreveport.png,,,,,,,,,,,,,,,,,,,,,,,,,,,,,,
1247.700001,,rt_thecrossant_black,244379,black_plus_sign,,,,,49,,,1,0.933333333,,,,,,,,,,,,,,,,,,,,,,,,,,,,
null,,color_black,244485,black_plus_sign,,,,,null,,,,,,,,,,,,,,,,,,,,,,,,,,,,,,,,
null,,learn_phase(without_color),247035,black_plus_sign,,,,,null,US_Cities_List/mm_boulder.png,US_Cities_List/mm_newhope.png,,,,,,,,,,,,,,,,,,,,,,,,,,,,,,
null,,black_cross(without_color),247685,blue,,,,,null,US_Cities_List/mm_boulder.png,US_Cities_List/mm_newhope.png,,,,,,,,,,,,,,,,,,,,,,,,,,,,,,
null,,rt_plussign_withcolor,248197,blue,,,,,null,US_Cities_List/mm_boulder.png,US_Cities_List/mm_newhope.png,,,,,,,,,,,,,,,,,,,,,,,,,,,,,,
1488,,rt_thecrossant_black,249563,black_plus_sign,,,,,49,,,1,0.9375,,,,,,,,,,,,,,,,,,,,,,,,,,,,
null,,color_black,249669,black_plus_sign,,,,,null,,,,,,,,,,,,,,,,,,,,,,,,,,,,,,,,
null,,learn_phase(without_color),252219,black_plus_sign,,,,,null,US_Cities_List/nat_racine.png,US_Cities_List/mm_boulder.png,,,,,,,,,,,,,,,,,,,,,,,,,,,,,,
null,,black_cross(without_color),253290,green,,,,,null,US_Cities_List/nat_racine.png,US_Cities_List/mm_boulder.png,,,,,,,,,,,,,,,,,,,,,,,,,,,,,,
null,,rt_plussign_withcolor,253797,green,,,,,null,US_Cities_List/nat_racine.png,US_Cities_List/mm_boulder.png,,,,,,,,,,,,,,,,,,,,,,,,,,,,,,
null,,rt_thecrossant_black,254742,black_plus_sign,,,,,null,,,,0.9375,,,,,,,,,,,,,,,,,,,,,,,,,,,,
null,,color_black,254854,black_plus_sign,,,,,null,,,,,,,,,,,,,,,,,,,,,,,,,,,,,,,,
null,,learn_phase(without_color),257407,black_plus_sign,,,,,null,US_Cities_List/mm_leesburg.png,US_Cities_List/nat_hotsprings.png,,,,,,,,,,,,,,,,,,,,,,,,,,,,,,
null,,black_cross(without_color),258043,blue,,,,,null,US_Cities_List/mm_leesburg.png,US_Cities_List/nat_hotsprings.png,,,,,,,,,,,,,,,,,,,,,,,,,,,,,,
null,,rt_plussign_withcolor,258549,blue,,,,,null,US_Cities_List/mm_leesburg.png,US_Cities_List/nat_hotsprings.png,,,,,,,,,,,,,,,,,,,,,,,,,,,,,,
1230.4,,rt_thecrossant_black,259926,black_plus_sign,,,,,49,,,1,0.941176471,,,,,,,,,,,,,,,,,,,,,,,,,,,,
null,,color_black,260037,black_plus_sign,,,,,null,,,,,,,,,,,,,,,,,,,,,,,,,,,,,,,,
null,,learn_phase(without_color),262581,black_plus_sign,,,,,null,US_Cities_List/mm_boulder.png,US_Cities_List/mm_newhope.png,,,,,,,,,,,,,,,,,,,,,,,,,,,,,,
null,,black_cross(without_color),263034,blue,,,,,null,US_Cities_List/mm_boulder.png,US_Cities_List/mm_newhope.png,,,,,,,,,,,,,,,,,,,,,,,,,,,,,,
null,,rt_plussign_withcolor,263542,blue,,,,,null,US_Cities_List/mm_boulder.png,US_Cities_List/mm_newhope.png,,,,,,,,,,,,,,,,,,,,,,,,,,,,,,
862.7000008,,rt_thecrossant_black,265110,black_plus_sign,,,,,49,,,1,0.944444444,,,,,,,,,,,,,,,,,,,,,,,,,,,,
null,,color_black,265222,black_plus_sign,,,,,null,,,,,,,,,,,,,,,,,,,,,,,,,,,,,,,,
null,,learn_phase(without_color),267771,black_plus_sign,,,,,null,US_Cities_List/nat_cornwall.png,US_Cities_List/nat_racine.png,,,,,,,,,,,,,,,,,,,,,,,,,,,,,,
null,,black_cross(without_color),268710,blue,,,,,null,US_Cities_List/nat_cornwall.png,US_Cities_List/nat_racine.png,,,,,,,,,,,,,,,,,,,,,,,,,,,,,,
null,,rt_plussign_withcolor,269222,blue,,,,,null,US_Cities_List/nat_cornwall.png,US_Cities_List/nat_racine.png,,,,,,,,,,,,,,,,,,,,,,,,,,,,,,
669.1999998,,rt_thecrossant_black,270302,black_plus_sign,,,,,49,,,1,0.947368421,,,,,,,,,,,,,,,,,,,,,,,,,,,,
null,,color_black,270411,black_plus_sign,,,,,null,,,,,,,,,,,,,,,,,,,,,,,,,,,,,,,,
null,,learn_phase(without_color),272966,black_plus_sign,,,,,null,US_Cities_List/mm_leesburg.png,US_Cities_List/nat_hotsprings.png,,,,,,,,,,,,,,,,,,,,,,,,,,,,,,
null,,black_cross(without_color),273500,green,,,,,null,US_Cities_List/mm_leesburg.png,US_Cities_List/nat_hotsprings.png,,,,,,,,,,,,,,,,,,,,,,,,,,,,,,
null,,rt_plussign_withcolor,274006,green,,,,,null,US_Cities_List/mm_leesburg.png,US_Cities_List/nat_hotsprings.png,,,,,,,,,,,,,,,,,,,,,,,,,,,,,,
1227.8,,rt_thecrossant_black,275483,black_plus_sign,,,,,50,,,1,0.95,,,,,,,,,,,,,,,,,,,,,,,,,,,,
null,,color_black,275590,black_plus_sign,,,,,null,,,,,,,,,,,,,,,,,,,,,,,,,,,,,,,,
null,,learn_phase(without_color),278134,black_plus_sign,,,,,null,US_Cities_List/mm_gatlinburg.png,US_Cities_List/nat_westpalmbeach.png,,,,,,,,,,,,,,,,,,,,,,,,,,,,,,
null,,black_cross(without_color),278539,blue,,,,,null,US_Cities_List/mm_gatlinburg.png,US_Cities_List/nat_westpalmbeach.png,,,,,,,,,,,,,,,,,,,,,,,,,,,,,,
null,,rt_plussign_withcolor,279046,blue,,,,,null,US_Cities_List/mm_gatlinburg.png,US_Cities_List/nat_westpalmbeach.png,,,,,,,,,,,,,,,,,,,,,,,,,,,,,,
887.3999996,,rt_thecrossant_black,280654,black_plus_sign,,,,,49,,,1,0.952380952,,,,,,,,,,,,,,,,,,,,,,,,,,,,
null,,color_black,280764,black_plus_sign,,,,,null,,,,,,,,,,,,,,,,,,,,,,,,,,,,,,,,
null,,learn_phase(without_color),283318,black_plus_sign,,,,,null,US_Cities_List/nat_cornwall.png,US_Cities_List/nat_racine.png,,,,,,,,,,,,,,,,,,,,,,,,,,,,,,
null,,black_cross(without_color),283915,green,,,,,null,US_Cities_List/nat_cornwall.png,US_Cities_List/nat_racine.png,,,,,,,,,,,,,,,,,,,,,,,,,,,,,,
null,,rt_plussign_withcolor,284422,green,,,,,null,US_Cities_List/nat_cornwall.png,US_Cities_List/nat_racine.png,,,,,,,,,,,,,,,,,,,,,,,,,,,,,,
563.3999996,,rt_thecrossant_black,285835,black_plus_sign,,,,,50,,,1,0.954545455,,,,,,,,,,,,,,,,,,,,,,,,,,,,
null,,color_black,285942,black_plus_sign,,,,,null,,,,,,,,,,,,,,,,,,,,,,,,,,,,,,,,
null,,learn_phase(without_color),288486,black_plus_sign,,,,,null,US_Cities_List/mm_newhope.png,US_Cities_List/mm_gatlinburg.png,,,,,,,,,,,,,,,,,,,,,,,,,,,,,,
null,,black_cross(without_color),289499,green,,,,,null,US_Cities_List/mm_newhope.png,US_Cities_List/mm_gatlinburg.png,,,,,,,,,,,,,,,,,,,,,,,,,,,,,,
null,,rt_plussign_withcolor,290006,green,,,,,null,US_Cities_List/mm_newhope.png,US_Cities_List/mm_gatlinburg.png,,,,,,,,,,,,,,,,,,,,,,,,,,,,,,
957.6000004,,rt_thecrossant_black,291006,black_plus_sign,,,,,50,,,1,0.956521739,,,,,,,,,,,,,,,,,,,,,,,,,,,,
null,,color_black,291116,black_plus_sign,,,,,null,,,,,,,,,,,,,,,,,,,,,,,,,,,,,,,,
null,,learn_phase(without_color),293670,black_plus_sign,,,,,null,US_Cities_List/nat_huntsville.png,US_Cities_List/nat_hanover.png,,,,,,,,,,,,,,,,,,,,,,,,,,,,,,
null,,black_cross(without_color),294139,blue,,,,,null,US_Cities_List/nat_huntsville.png,US_Cities_List/nat_hanover.png,,,,,,,,,,,,,,,,,,,,,,,,,,,,,,
null,,rt_plussign_withcolor,294646,blue,,,,,null,US_Cities_List/nat_huntsville.png,US_Cities_List/nat_hanover.png,,,,,,,,,,,,,,,,,,,,,,,,,,,,,,
1202.1,,rt_thecrossant_black,296188,black_plus_sign,,,,,49,,,1,0.958333333,,,,,,,,,,,,,,,,,,,,,,,,,,,,
null,,color_black,296294,black_plus_sign,,,,,null,,,,,,,,,,,,,,,,,,,,,,,,,,,,,,,,
null,,learn_phase(without_color),298838,black_plus_sign,,,,,null,US_Cities_List/mm_boulder.png,US_Cities_List/nat_westpalmbeach.png,,,,,,,,,,,,,,,,,,,,,,,,,,,,,,
null,,black_cross(without_color),299350,green,,,,,null,US_Cities_List/mm_boulder.png,US_Cities_List/nat_westpalmbeach.png,,,,,,,,,,,,,,,,,,,,,,,,,,,,,,
null,,rt_plussign_withcolor,299862,green,,,,,null,US_Cities_List/mm_boulder.png,US_Cities_List/nat_westpalmbeach.png,,,,,,,,,,,,,,,,,,,,,,,,,,,,,,
649.5,,rt_thecrossant_black,301367,black_plus_sign,,,,,50,,,1,0.96,,,,,,,,,,,,,,,,,,,,,,,,,,,,
null,,color_black,301478,black_plus_sign,,,,,null,,,,,,,,,,,,,,,,,,,,,,,,,,,,,,,,
null,,learn_phase(without_color),304038,black_plus_sign,,,,,null,US_Cities_List/mm_boulder.png,US_Cities_List/mm_newhope.png,,,,,,,,,,,,,,,,,,,,,,,,,,,,,,
null,,black_cross(without_color),304790,blue,,,,,null,US_Cities_List/mm_boulder.png,US_Cities_List/mm_newhope.png,,,,,,,,,,,,,,,,,,,,,,,,,,,,,,
null,,rt_plussign_withcolor,305302,blue,,,,,null,US_Cities_List/mm_boulder.png,US_Cities_List/mm_newhope.png,,,,,,,,,,,,,,,,,,,,,,,,,,,,,,
670.0999994,,rt_thecrossant_black,306566,black_plus_sign,,,,,49,,,1,0.961538462,,,,,,,,,,,,,,,,,,,,,,,,,,,,
null,,color_black,306680,black_plus_sign,,,,,null,,,,,,,,,,,,,,,,,,,,,,,,,,,,,,,,
null,,learn_phase(without_color),309228,black_plus_sign,,,,,null,US_Cities_List/mm_newhope.png,US_Cities_List/mm_leesburg.png,,,,,,,,,,,,,,,,,,,,,,,,,,,,,,
null,,black_cross(without_color),309884,green,,,,,null,US_Cities_List/mm_newhope.png,US_Cities_List/mm_leesburg.png,,,,,,,,,,,,,,,,,,,,,,,,,,,,,,
null,,rt_plussign_withcolor,310391,green,,,,,null,US_Cities_List/mm_newhope.png,US_Cities_List/mm_leesburg.png,,,,,,,,,,,,,,,,,,,,,,,,,,,,,,
949.5999994,,rt_thecrossant_black,311750,black_plus_sign,,,,,50,,,1,0.962962963,,,,,,,,,,,,,,,,,,,,,,,,,,,,
null,,color_black,311863,black_plus_sign,,,,,null,,,,,,,,,,,,,,,,,,,,,,,,,,,,,,,,
null,,learn_phase(without_color),314413,black_plus_sign,,,,,null,US_Cities_List/nat_racine.png,US_Cities_List/nat_carmel.png,,,,,,,,,,,,,,,,,,,,,,,,,,,,,,
null,,black_cross(without_color),314908,green,,,,,null,US_Cities_List/nat_racine.png,US_Cities_List/nat_carmel.png,,,,,,,,,,,,,,,,,,,,,,,,,,,,,,
456.2000008,,rt_plussign_withcolor,315415,green,,,,,49,US_Cities_List/nat_racine.png,US_Cities_List/nat_carmel.png,,,,,,,,,,,,,,,,,,,,,,,,,,,,,,
null,,rt_thecrossant_black,316940,black_plus_sign,,,,,null,,,0,0.928571429,,,,,,,,,,,,,,,,,,,,,,,,,,,,
null,,color_black,317047,black_plus_sign,,,,,null,,,,,,,,,,,,,,,,,,,,,,,,,,,,,,,,
null,,learn_phase(without_color),319591,black_plus_sign,,,,,null,US_Cities_List/nat_carmel.png,US_Cities_List/nat_peoria.png,,,,,,,,,,,,,,,,,,,,,,,,,,,,,,
null,,black_cross(without_color),320396,blue,,,,,null,US_Cities_List/nat_carmel.png,US_Cities_List/nat_peoria.png,,,,,,,,,,,,,,,,,,,,,,,,,,,,,,
null,,rt_plussign_withcolor,320903,blue,,,,,null,US_Cities_List/nat_carmel.png,US_Cities_List/nat_peoria.png,,,,,,,,,,,,,,,,,,,,,,,,,,,,,,
842.8000002,,rt_thecrossant_black,322118,black_plus_sign,,,,,49,,,1,0.931034483,,,,,,,,,,,,,,,,,,,,,,,,,,,,
null,,color_black,322230,black_plus_sign,,,,,null,,,,,,,,,,,,,,,,,,,,,,,,,,,,,,,,
null,,learn_phase(without_color),324775,black_plus_sign,,,,,null,US_Cities_List/mm_leesburg.png,US_Cities_List/mm_gatlinburg.png,,,,,,,,,,,,,,,,,,,,,,,,,,,,,,
null,,black_cross(without_color),325783,green,,,,,null,US_Cities_List/mm_leesburg.png,US_Cities_List/mm_gatlinburg.png,,,,,,,,,,,,,,,,,,,,,,,,,,,,,,
null,,rt_plussign_withcolor,326295,green,,,,,null,US_Cities_List/mm_leesburg.png,US_Cities_List/mm_gatlinburg.png,,,,,,,,,,,,,,,,,,,,,,,,,,,,,,
900.3000002,,rt_thecrossant_black,327302,black_plus_sign,,,,,50,,,1,0.933333333,,,,,,,,,,,,,,,,,,,,,,,,,,,,
null,,color_black,327415,black_plus_sign,,,,,null,,,,,,,,,,,,,,,,,,,,,,,,,,,,,,,,
null,,learn_phase(without_color),329959,black_plus_sign,,,,,null,US_Cities_List/mm_gatlinburg.png,US_Cities_List/nat_westpalmbeach.png,,,,,,,,,,,,,,,,,,,,,,,,,,,,,,
null,,black_cross(without_color),330727,blue,,,,,null,US_Cities_List/mm_gatlinburg.png,US_Cities_List/nat_westpalmbeach.png,,,,,,,,,,,,,,,,,,,,,,,,,,,,,,
462,,rt_plussign_withcolor,331239,blue,,,,,49,US_Cities_List/mm_gatlinburg.png,US_Cities_List/nat_westpalmbeach.png,,,,,,,,,,,,,,,,,,,,,,,,,,,,,,
null,,rt_thecrossant_black,332487,black_plus_sign,,,,,null,,,1,0.935483871,,,,,,,,,,,,,,,,,,,,,,,,,,,,
null,,color_black,332599,black_plus_sign,,,,,null,,,,,,,,,,,,,,,,,,,,,,,,,,,,,,,,
null,,learn_phase(without_color),335150,black_plus_sign,,,,,null,US_Cities_List/nat_carmel.png,US_Cities_List/nat_peoria.png,,,,,,,,,,,,,,,,,,,,,,,,,,,,,,
null,,black_cross(without_color),335820,blue,,,,,null,US_Cities_List/nat_carmel.png,US_Cities_List/nat_peoria.png,,,,,,,,,,,,,,,,,,,,,,,,,,,,,,
null,,rt_plussign_withcolor,336327,blue,,,,,null,US_Cities_List/nat_carmel.png,US_Cities_List/nat_peoria.png,,,,,,,,,,,,,,,,,,,,,,,,,,,,,,
974.6999998,,rt_thecrossant_black,337671,black_plus_sign,,,,,49,,,1,0.9375,,,,,,,,,,,,,,,,,,,,,,,,,,,,
null,,color_black,337783,black_plus_sign,,,,,null,,,,,,,,,,,,,,,,,,,,,,,,,,,,,,,,
null,,learn_phase(without_color),340334,black_plus_sign,,,,,null,US_Cities_List/nat_westpalmbeach.png,US_Cities_List/nat_peoria.png,,,,,,,,,,,,,,,,,,,,,,,,,,,,,,
null,,black_cross(without_color),340887,green,,,,,null,US_Cities_List/nat_westpalmbeach.png,US_Cities_List/nat_peoria.png,,,,,,,,,,,,,,,,,,,,,,,,,,,,,,
null,,rt_plussign_withcolor,341399,green,,,,,null,US_Cities_List/nat_westpalmbeach.png,US_Cities_List/nat_peoria.png,,,,,,,,,,,,,,,,,,,,,,,,,,,,,,
1009.7,,rt_thecrossant_black,342871,black_plus_sign,,,,,50,,,1,0.939393939,,,,,,,,,,,,,,,,,,,,,,,,,,,,
null,,color_black,342983,black_plus_sign,,,,,null,,,,,,,,,,,,,,,,,,,,,,,,,,,,,,,,
null,,learn_phase(without_color),345526,black_plus_sign,,,,,null,US_Cities_List/nat_cornwall.png,US_Cities_List/nat_racine.png,,,,,,,,,,,,,,,,,,,,,,,,,,,,,,
null,,black_cross(without_color),346412,blue,,,,,null,US_Cities_List/nat_cornwall.png,US_Cities_List/nat_racine.png,,,,,,,,,,,,,,,,,,,,,,,,,,,,,,
null,,rt_plussign_withcolor,346918,blue,,,,,null,US_Cities_List/nat_cornwall.png,US_Cities_List/nat_racine.png,,,,,,,,,,,,,,,,,,,,,,,,,,,,,,
712.1999998,,rt_thecrossant_black,348044,black_plus_sign,,,,,49,,,1,0.941176471,,,,,,,,,,,,,,,,,,,,,,,,,,,,
null,,color_black,348151,black_plus_sign,,,,,null,,,,,,,,,,,,,,,,,,,,,,,,,,,,,,,,
null,,learn_phase(without_color),350711,black_plus_sign,,,,,null,US_Cities_List/nat_carmel.png,US_Cities_List/mm_shreveport.png,,,,,,,,,,,,,,,,,,,,,,,,,,,,,,
null,,black_cross(without_color),351469,green,,,,,null,US_Cities_List/nat_carmel.png,US_Cities_List/mm_shreveport.png,,,,,,,,,,,,,,,,,,,,,,,,,,,,,,
null,,rt_plussign_withcolor,351975,green,,,,,null,US_Cities_List/nat_carmel.png,US_Cities_List/mm_shreveport.png,,,,,,,,,,,,,,,,,,,,,,,,,,,,,,
1074,,rt_thecrossant_black,353228,black_plus_sign,,,,,50,,,1,0.942857143,,,,,,,,,,,,,,,,,,,,,,,,,,,,
null,,color_black,353335,black_plus_sign,,,,,null,,,,,,,,,,,,,,,,,,,,,,,,,,,,,,,,
null,,learn_phase(without_color),355888,black_plus_sign,,,,,null,US_Cities_List/nat_racine.png,US_Cities_List/mm_boulder.png,,,,,,,,,,,,,,,,,,,,,,,,,,,,,,
null,,black_cross(without_color),356543,blue,,,,,null,US_Cities_List/nat_racine.png,US_Cities_List/mm_boulder.png,,,,,,,,,,,,,,,,,,,,,,,,,,,,,,
null,,rt_plussign_withcolor,357047,blue,,,,,null,US_Cities_List/nat_racine.png,US_Cities_List/mm_boulder.png,,,,,,,,,,,,,,,,,,,,,,,,,,,,,,
1146,,rt_thecrossant_black,358413,black_plus_sign,,,,,49,,,1,0.944444444,,,,,,,,,,,,,,,,,,,,,,,,,,,,
null,,color_black,358519,black_plus_sign,,,,,null,,,,,,,,,,,,,,,,,,,,,,,,,,,,,,,,
null,,learn_phase(without_color),361068,black_plus_sign,,,,,null,US_Cities_List/mm_leesburg.png,US_Cities_List/nat_huntsville.png,,,,,,,,,,,,,,,,,,,,,,,,,,,,,,
null,,black_cross(without_color),361831,blue,,,,,null,US_Cities_List/mm_leesburg.png,US_Cities_List/nat_huntsville.png,,,,,,,,,,,,,,,,,,,,,,,,,,,,,,
null,,rt_plussign_withcolor,362343,blue,,,,,null,US_Cities_List/mm_leesburg.png,US_Cities_List/nat_huntsville.png,,,,,,,,,,,,,,,,,,,,,,,,,,,,,,
879.5999994,,rt_thecrossant_black,363597,black_plus_sign,,,,,49,,,1,0.945945946,,,,,,,,,,,,,,,,,,,,,,,,,,,,
null,,color_black,363704,black_plus_sign,,,,,null,,,,,,,,,,,,,,,,,,,,,,,,,,,,,,,,
null,,learn_phase(without_color),366244,black_plus_sign,,,,,null,US_Cities_List/nat_carmel.png,US_Cities_List/nat_peoria.png,,,,,,,,,,,,,,,,,,,,,,,,,,,,,,
null,,black_cross(without_color),366927,blue,,,,,null,US_Cities_List/nat_carmel.png,US_Cities_List/nat_peoria.png,,,,,,,,,,,,,,,,,,,,,,,,,,,,,,
null,,rt_plussign_withcolor,367437,blue,,,,,null,US_Cities_List/nat_carmel.png,US_Cities_List/nat_peoria.png,,,,,,,,,,,,,,,,,,,,,,,,,,,,,,
957.9000006,,rt_thecrossant_black,368775,black_plus_sign,,,,,49,,,1,0.947368421,,,,,,,,,,,,,,,,,,,,,,,,,,,,
null,,color_black,368887,black_plus_sign,,,,,null,,,,,,,,,,,,,,,,,,,,,,,,,,,,,,,,
null,,learn_phase(without_color),371437,black_plus_sign,,,,,null,US_Cities_List/nat_racine.png,US_Cities_List/nat_carmel.png,,,,,,,,,,,,,,,,,,,,,,,,,,,,,,
null,,black_cross(without_color),372360,blue,,,,,null,US_Cities_List/nat_racine.png,US_Cities_List/nat_carmel.png,,,,,,,,,,,,,,,,,,,,,,,,,,,,,,
null,,rt_plussign_withcolor,372872,blue,,,,,null,US_Cities_List/nat_racine.png,US_Cities_List/nat_carmel.png,,,,,,,,,,,,,,,,,,,,,,,,,,,,,,
860.1999998,,rt_thecrossant_black,373969,black_plus_sign,,,,,49,,,1,0.948717949,,,,,,,,,,,,,,,,,,,,,,,,,,,,
null,,color_black,374081,black_plus_sign,,,,,null,,,,,,,,,,,,,,,,,,,,,,,,,,,,,,,,
null,,learn_phase(without_color),376632,black_plus_sign,,,,,null,US_Cities_List/mm_newhope.png,US_Cities_List/mm_leesburg.png,,,,,,,,,,,,,,,,,,,,,,,,,,,,,,
null,,black_cross(without_color),377565,blue,,,,,null,US_Cities_List/mm_newhope.png,US_Cities_List/mm_leesburg.png,,,,,,,,,,,,,,,,,,,,,,,,,,,,,,
null,,rt_plussign_withcolor,378072,blue,,,,,null,US_Cities_List/mm_newhope.png,US_Cities_List/mm_leesburg.png,,,,,,,,,,,,,,,,,,,,,,,,,,,,,,
1097.3,,rt_thecrossant_black,379157,black_plus_sign,,,,,49,,,1,0.95,,,,,,,,,,,,,,,,,,,,,,,,,,,,
null,,color_black,379264,black_plus_sign,,,,,null,,,,,,,,,,,,,,,,,,,,,,,,,,,,,,,,
null,,learn_phase(without_color),381817,black_plus_sign,,,,,null,US_Cities_List/nat_carmel.png,US_Cities_List/nat_peoria.png,,,,,,,,,,,,,,,,,,,,,,,,,,,,,,
null,,black_cross(without_color),382607,blue,,,,,null,US_Cities_List/nat_carmel.png,US_Cities_List/nat_peoria.png,,,,,,,,,,,,,,,,,,,,,,,,,,,,,,
null,,rt_plussign_withcolor,383112,blue,,,,,null,US_Cities_List/nat_carmel.png,US_Cities_List/nat_peoria.png,,,,,,,,,,,,,,,,,,,,,,,,,,,,,,
1113.200001,,rt_thecrossant_black,384344,black_plus_sign,,,,,49,,,1,0.951219512,,,,,,,,,,,,,,,,,,,,,,,,,,,,
null,,color_black,384456,black_plus_sign,,,,,null,,,,,,,,,,,,,,,,,,,,,,,,,,,,,,,,
null,,learn_phase(without_color),387007,black_plus_sign,,,,,null,US_Cities_List/mm_leesburg.png,US_Cities_List/nat_huntsville.png,,,,,,,,,,,,,,,,,,,,,,,,,,,,,,
null,,black_cross(without_color),387911,blue,,,,,null,US_Cities_List/mm_leesburg.png,US_Cities_List/nat_huntsville.png,,,,,,,,,,,,,,,,,,,,,,,,,,,,,,
null,,rt_plussign_withcolor,388413,blue,,,,,null,US_Cities_List/mm_leesburg.png,US_Cities_List/nat_huntsville.png,,,,,,,,,,,,,,,,,,,,,,,,,,,,,,
981.8000002,,rt_thecrossant_black,389528,black_plus_sign,,,,,49,,,1,0.952380952,,,,,,,,,,,,,,,,,,,,,,,,,,,,
null,,color_black,389640,black_plus_sign,,,,,null,,,,,,,,,,,,,,,,,,,,,,,,,,,,,,,,
null,,learn_phase(without_color),392189,black_plus_sign,,,,,null,US_Cities_List/mm_newhope.png,US_Cities_List/mm_leesburg.png,,,,,,,,,,,,,,,,,,,,,,,,,,,,,,
null,,black_cross(without_color),392824,blue,,,,,null,US_Cities_List/mm_newhope.png,US_Cities_List/mm_leesburg.png,,,,,,,,,,,,,,,,,,,,,,,,,,,,,,
null,,rt_plussign_withcolor,393336,blue,,,,,null,US_Cities_List/mm_newhope.png,US_Cities_List/mm_leesburg.png,,,,,,,,,,,,,,,,,,,,,,,,,,,,,,
1031.5,,rt_thecrossant_black,394717,black_plus_sign,,,,,49,,,1,0.953488372,,,,,,,,,,,,,,,,,,,,,,,,,,,,
null,,color_black,394824,black_plus_sign,,,,,null,,,,,,,,,,,,,,,,,,,,,,,,,,,,,,,,
null,,learn_phase(without_color),397364,black_plus_sign,,,,,null,US_Cities_List/nat_racine.png,US_Cities_List/nat_carmel.png,,,,,,,,,,,,,,,,,,,,,,,,,,,,,,
null,,black_cross(without_color),398200,blue,,,,,null,US_Cities_List/nat_racine.png,US_Cities_List/nat_carmel.png,,,,,,,,,,,,,,,,,,,,,,,,,,,,,,
null,,rt_plussign_withcolor,398712,blue,,,,,null,US_Cities_List/nat_racine.png,US_Cities_List/nat_carmel.png,,,,,,,,,,,,,,,,,,,,,,,,,,,,,,
851,,rt_thecrossant_black,399902,black_plus_sign,,,,,49,,,1,0.954545455,,,,,,,,,,,,,,,,,,,,,,,,,,,,
null,,color_black,400013,black_plus_sign,,,,,null,,,,,,,,,,,,,,,,,,,,,,,,,,,,,,,,
null,,learn_phase(without_color),402568,black_plus_sign,,,,,null,US_Cities_List/nat_huntsville.png,US_Cities_List/mm_gatlinburg.png,,,,,,,,,,,,,,,,,,,,,,,,,,,,,,
null,,black_cross(without_color),403590,green,,,,,null,US_Cities_List/nat_huntsville.png,US_Cities_List/mm_gatlinburg.png,,,,,,,,,,,,,,,,,,,,,,,,,,,,,,
null,,rt_plussign_withcolor,404096,green,,,,,null,US_Cities_List/nat_huntsville.png,US_Cities_List/mm_gatlinburg.png,,,,,,,,,,,,,,,,,,,,,,,,,,,,,,
965.1999998,,rt_thecrossant_black,405088,black_plus_sign,,,,,50,,,1,0.955555556,,,,,,,,,,,,,,,,,,,,,,,,,,,,
null,,color_black,405197,black_plus_sign,,,,,null,,,,,,,,,,,,,,,,,,,,,,,,,,,,,,,,
null,,learn_phase(without_color),407752,black_plus_sign,,,,,null,US_Cities_List/nat_racine.png,US_Cities_List/nat_carmel.png,,,,,,,,,,,,,,,,,,,,,,,,,,,,,,
null,,black_cross(without_color),408456,blue,,,,,null,US_Cities_List/nat_racine.png,US_Cities_List/nat_carmel.png,,,,,,,,,,,,,,,,,,,,,,,,,,,,,,
null,,rt_plussign_withcolor,408966,blue,,,,,null,US_Cities_List/nat_racine.png,US_Cities_List/nat_carmel.png,,,,,,,,,,,,,,,,,,,,,,,,,,,,,,
1277,,rt_thecrossant_black,410279,black_plus_sign,,,,,49,,,1,0.956521739,,,,,,,,,,,,,,,,,,,,,,,,,,,,
null,,color_black,410392,black_plus_sign,,,,,null,,,,,,,,,,,,,,,,,,,,,,,,,,,,,,,,
null,,learn_phase(without_color),412942,black_plus_sign,,,,,null,US_Cities_List/mm_leesburg.png,US_Cities_List/mm_gatlinburg.png,,,,,,,,,,,,,,,,,,,,,,,,,,,,,,
null,,black_cross(without_color),413512,blue,,,,,null,US_Cities_List/mm_leesburg.png,US_Cities_List/mm_gatlinburg.png,,,,,,,,,,,,,,,,,,,,,,,,,,,,,,
null,,rt_plussign_withcolor,414024,blue,,,,,null,US_Cities_List/mm_leesburg.png,US_Cities_List/mm_gatlinburg.png,,,,,,,,,,,,,,,,,,,,,,,,,,,,,,
1072.9,,rt_thecrossant_black,415480,black_plus_sign,,,,,49,,,1,0.957446809,,,,,,,,,,,,,,,,,,,,,,,,,,,,
null,,color_black,415592,black_plus_sign,,,,,null,,,,,,,,,,,,,,,,,,,,,,,,,,,,,,,,
null,,learn_phase(without_color),418150,black_plus_sign,,,,,null,US_Cities_List/nat_huntsville.png,US_Cities_List/mm_gatlinburg.png,,,,,,,,,,,,,,,,,,,,,,,,,,,,,,
null,,black_cross(without_color),418814,green,,,,,null,US_Cities_List/nat_huntsville.png,US_Cities_List/mm_gatlinburg.png,,,,,,,,,,,,,,,,,,,,,,,,,,,,,,
null,,rt_plussign_withcolor,419320,green,,,,,null,US_Cities_List/nat_huntsville.png,US_Cities_List/mm_gatlinburg.png,,,,,,,,,,,,,,,,,,,,,,,,,,,,,,
949.1999998,,rt_thecrossant_black,420670,black_plus_sign,,,,,49,,,0,0.9375,,,,,,,,,,,,,,,,,,,,,,,,,,,,
null,,color_black,420776,black_plus_sign,,,,,null,,,,,,,,,,,,,,,,,,,,,,,,,,,,,,,,
null,,learn_phase(without_color),423321,black_plus_sign,,,,,null,US_Cities_List/nat_huntsville.png,US_Cities_List/nat_hanover.png,,,,,,,,,,,,,,,,,,,,,,,,,,,,,,
null,,black_cross(without_color),423832,blue,,,,,null,US_Cities_List/nat_huntsville.png,US_Cities_List/nat_hanover.png,,,,,,,,,,,,,,,,,,,,,,,,,,,,,,
null,,rt_plussign_withcolor,424334,blue,,,,,null,US_Cities_List/nat_huntsville.png,US_Cities_List/nat_hanover.png,,,,,,,,,,,,,,,,,,,,,,,,,,,,,,
798.4000006,,rt_thecrossant_black,425848,black_plus_sign,,,,,49,,,1,0.93877551,,,,,,,,,,,,,,,,,,,,,,,,,,,,
null,,color_black,425961,black_plus_sign,,,,,null,,,,,,,,,,,,,,,,,,,,,,,,,,,,,,,,
null,,learn_phase(without_color),428505,black_plus_sign,,,,,null,US_Cities_List/mm_boulder.png,US_Cities_List/nat_westpalmbeach.png,,,,,,,,,,,,,,,,,,,,,,,,,,,,,,
null,,black_cross(without_color),429176,green,,,,,null,US_Cities_List/mm_boulder.png,US_Cities_List/nat_westpalmbeach.png,,,,,,,,,,,,,,,,,,,,,,,,,,,,,,
495.5999994,,rt_plussign_withcolor,429687,green,,,,,50,US_Cities_List/mm_boulder.png,US_Cities_List/nat_westpalmbeach.png,,,,,,,,,,,,,,,,,,,,,,,,,,,,,,
null,,rt_thecrossant_black,431033,black_plus_sign,,,,,null,,,1,0.94,,,,,,,,,,,,,,,,,,,,,,,,,,,,
null,,color_black,431144,black_plus_sign,,,,,null,,,,,,,,,,,,,,,,,,,,,,,,,,,,,,,,
null,,learn_phase(without_color),433705,black_plus_sign,,,,,null,US_Cities_List/nat_huntsville.png,US_Cities_List/nat_hanover.png,,,,,,,,,,,,,,,,,,,,,,,,,,,,,,
null,,black_cross(without_color),434685,blue,,,,,null,US_Cities_List/nat_huntsville.png,US_Cities_List/nat_hanover.png,,,,,,,,,,,,,,,,,,,,,,,,,,,,,,
null,,rt_plussign_withcolor,435193,blue,,,,,null,US_Cities_List/nat_huntsville.png,US_Cities_List/nat_hanover.png,,,,,,,,,,,,,,,,,,,,,,,,,,,,,,
876.5,,rt_thecrossant_black,436222,black_plus_sign,,,,,49,,,1,0.941176471,,,,,,,,,,,,,,,,,,,,,,,,,,,,
null,,color_black,436326,black_plus_sign,,,,,null,,,,,,,,,,,,,,,,,,,,,,,,,,,,,,,,
null,,learn_phase(without_color),438878,black_plus_sign,,,,,null,US_Cities_List/nat_huntsville.png,US_Cities_List/mm_gatlinburg.png,,,,,,,,,,,,,,,,,,,,,,,,,,,,,,
null,,black_cross(without_color),439574,green,,,,,null,US_Cities_List/nat_huntsville.png,US_Cities_List/mm_gatlinburg.png,,,,,,,,,,,,,,,,,,,,,,,,,,,,,,
null,,rt_plussign_withcolor,440080,green,,,,,null,US_Cities_List/nat_huntsville.png,US_Cities_List/mm_gatlinburg.png,,,,,,,,,,,,,,,,,,,,,,,,,,,,,,
1182.8,,rt_thecrossant_black,441398,black_plus_sign,,,,,50,,,1,0.942307692,,,,,,,,,,,,,,,,,,,,,,,,,,,,
null,,color_black,441512,black_plus_sign,,,,,null,,,,,,,,,,,,,,,,,,,,,,,,,,,,,,,,
null,,learn_phase(without_color),444062,black_plus_sign,,,,,null,US_Cities_List/mm_boulder.png,US_Cities_List/nat_westpalmbeach.png,,,,,,,,,,,,,,,,,,,,,,,,,,,,,,
null,,black_cross(without_color),445041,green,,,,,null,US_Cities_List/mm_boulder.png,US_Cities_List/nat_westpalmbeach.png,,,,,,,,,,,,,,,,,,,,,,,,,,,,,,
null,,rt_plussign_withcolor,445550,green,,,,,null,US_Cities_List/mm_boulder.png,US_Cities_List/nat_westpalmbeach.png,,,,,,,,,,,,,,,,,,,,,,,,,,,,,,
883.1999998,,rt_thecrossant_black,446590,black_plus_sign,,,,,50,,,1,0.943396226,,,,,,,,,,,,,,,,,,,,,,,,,,,,
null,,color_black,446697,black_plus_sign,,,,,null,,,,,,,,,,,,,,,,,,,,,,,,,,,,,,,,
null,,learn_phase(without_color),449241,black_plus_sign,,,,,null,US_Cities_List/mm_leesburg.png,US_Cities_List/mm_gatlinburg.png,,,,,,,,,,,,,,,,,,,,,,,,,,,,,,
null,,black_cross(without_color),449697,blue,,,,,null,US_Cities_List/mm_leesburg.png,US_Cities_List/mm_gatlinburg.png,,,,,,,,,,,,,,,,,,,,,,,,,,,,,,
null,,rt_plussign_withcolor,450208,blue,,,,,null,US_Cities_List/mm_leesburg.png,US_Cities_List/mm_gatlinburg.png,,,,,,,,,,,,,,,,,,,,,,,,,,,,,,
1311.5,,rt_thecrossant_black,451769,black_plus_sign,,,,,49,,,1,0.944444444,,,,,,,,,,,,,,,,,,,,,,,,,,,,
null,,color_black,451881,black_plus_sign,,,,,null,,,,,,,,,,,,,,,,,,,,,,,,,,,,,,,,
null,,learn_phase(without_color),454425,black_plus_sign,,,,,null,US_Cities_List/mm_leesburg.png,US_Cities_List/nat_hotsprings.png,,,,,,,,,,,,,,,,,,,,,,,,,,,,,,
null,,black_cross(without_color),455000,green,,,,,null,US_Cities_List/mm_leesburg.png,US_Cities_List/nat_hotsprings.png,,,,,,,,,,,,,,,,,,,,,,,,,,,,,,
null,,rt_plussign_withcolor,455504,green,,,,,null,US_Cities_List/mm_leesburg.png,US_Cities_List/nat_hotsprings.png,,,,,,,,,,,,,,,,,,,,,,,,,,,,,,
685.9000006,,rt_thecrossant_black,456942,black_plus_sign,,,,,50,,,1,0.945454545,,,,,,,,,,,,,,,,,,,,,,,,,,,,
null,,color_black,457048,black_plus_sign,,,,,null,,,,,,,,,,,,,,,,,,,,,,,,,,,,,,,,
null,,learn_phase(without_color),459593,black_plus_sign,,,,,null,US_Cities_List/nat_cornwall.png,US_Cities_List/nat_racine.png,,,,,,,,,,,,,,,,,,,,,,,,,,,,,,
null,,black_cross(without_color),460654,blue,,,,,null,US_Cities_List/nat_cornwall.png,US_Cities_List/nat_racine.png,,,,,,,,,,,,,,,,,,,,,,,,,,,,,,
null,,rt_plussign_withcolor,461161,blue,,,,,null,US_Cities_List/nat_cornwall.png,US_Cities_List/nat_racine.png,,,,,,,,,,,,,,,,,,,,,,,,,,,,,,
833.6000004,,rt_thecrossant_black,462121,black_plus_sign,,,,,49,,,1,0.946428571,,,,,,,,,,,,,,,,,,,,,,,,,,,,
null,,color_black,462233,black_plus_sign,,,,,null,,,,,,,,,,,,,,,,,,,,,,,,,,,,,,,,
null,,learn_phase(without_color),464783,black_plus_sign,,,,,null,US_Cities_List/mm_leesburg.png,US_Cities_List/nat_huntsville.png,,,,,,,,,,,,,,,,,,,,,,,,,,,,,,
null,,black_cross(without_color),465616,blue,,,,,null,US_Cities_List/mm_leesburg.png,US_Cities_List/nat_huntsville.png,,,,,,,,,,,,,,,,,,,,,,,,,,,,,,
null,,rt_plussign_withcolor,466121,blue,,,,,null,US_Cities_List/mm_leesburg.png,US_Cities_List/nat_huntsville.png,,,,,,,,,,,,,,,,,,,,,,,,,,,,,,
1318.8,,rt_thecrossant_black,467310,black_plus_sign,,,,,49,,,1,0.947368421,,,,,,,,,,,,,,,,,,,,,,,,,,,,
null,,color_black,467417,black_plus_sign,,,,,null,,,,,,,,,,,,,,,,,,,,,,,,,,,,,,,,
null,,learn_phase(without_color),469977,black_plus_sign,,,,,null,US_Cities_List/nat_cornwall.png,US_Cities_List/nat_racine.png,,,,,,,,,,,,,,,,,,,,,,,,,,,,,,
null,,black_cross(without_color),470431,green,,,,,null,US_Cities_List/nat_cornwall.png,US_Cities_List/nat_racine.png,,,,,,,,,,,,,,,,,,,,,,,,,,,,,,
null,,rt_plussign_withcolor,470937,green,,,,,null,US_Cities_List/nat_cornwall.png,US_Cities_List/nat_racine.png,,,,,,,,,,,,,,,,,,,,,,,,,,,,,,
1119.200001,,rt_thecrossant_black,472505,black_plus_sign,,,,,50,,,1,0.948275862,,,,,,,,,,,,,,,,,,,,,,,,,,,,
null,,color_black,472617,black_plus_sign,,,,,null,,,,,,,,,,,,,,,,,,,,,,,,,,,,,,,,
null,,learn_phase(without_color),475171,black_plus_sign,,,,,null,US_Cities_List/mm_leesburg.png,US_Cities_List/nat_huntsville.png,,,,,,,,,,,,,,,,,,,,,,,,,,,,,,
null,,black_cross(without_color),476098,blue,,,,,null,US_Cities_List/mm_leesburg.png,US_Cities_List/nat_huntsville.png,,,,,,,,,,,,,,,,,,,,,,,,,,,,,,
null,,rt_plussign_withcolor,476607,blue,,,,,null,US_Cities_List/mm_leesburg.png,US_Cities_List/nat_huntsville.png,,,,,,,,,,,,,,,,,,,,,,,,,,,,,,
608,,rt_thecrossant_black,477705,black_plus_sign,,,,,49,,,1,0.949152542,,,,,,,,,,,,,,,,,,,,,,,,,,,,
null,,color_black,477817,black_plus_sign,,,,,null,,,,,,,,,,,,,,,,,,,,,,,,,,,,,,,,
null,,learn_phase(without_color),480361,black_plus_sign,,,,,null,US_Cities_List/mm_gatlinburg.png,US_Cities_List/nat_westpalmbeach.png,,,,,,,,,,,,,,,,,,,,,,,,,,,,,,
null,,black_cross(without_color),481215,blue,,,,,null,US_Cities_List/mm_gatlinburg.png,US_Cities_List/nat_westpalmbeach.png,,,,,,,,,,,,,,,,,,,,,,,,,,,,,,
null,,rt_plussign_withcolor,481720,blue,,,,,null,US_Cities_List/mm_gatlinburg.png,US_Cities_List/nat_westpalmbeach.png,,,,,,,,,,,,,,,,,,,,,,,,,,,,,,
1179.5,,rt_thecrossant_black,482890,black_plus_sign,,,,,49,,,1,0.95,,,,,,,,,,,,,,,,,,,,,,,,,,,,
null,,color_black,483001,black_plus_sign,,,,,null,,,,,,,,,,,,,,,,,,,,,,,,,,,,,,,,
null,,learn_phase(without_color),485546,black_plus_sign,,,,,null,US_Cities_List/mm_leesburg.png,US_Cities_List/nat_hotsprings.png,,,,,,,,,,,,,,,,,,,,,,,,,,,,,,
null,,black_cross(without_color),486186,green,,,,,null,US_Cities_List/mm_leesburg.png,US_Cities_List/nat_hotsprings.png,,,,,,,,,,,,,,,,,,,,,,,,,,,,,,
null,,rt_plussign_withcolor,486698,green,,,,,null,US_Cities_List/mm_leesburg.png,US_Cities_List/nat_hotsprings.png,,,,,,,,,,,,,,,,,,,,,,,,,,,,,,
1094.400001,,rt_thecrossant_black,488081,black_plus_sign,,,,,50,,,1,0.950819672,,,,,,,,,,,,,,,,,,,,,,,,,,,,
null,,color_black,488192,black_plus_sign,,,,,null,,,,,,,,,,,,,,,,,,,,,,,,,,,,,,,,
null,,learn_phase(without_color),490745,black_plus_sign,,,,,null,US_Cities_List/nat_racine.png,US_Cities_List/mm_boulder.png,,,,,,,,,,,,,,,,,,,,,,,,,,,,,,
null,,black_cross(without_color),491486,blue,,,,,null,US_Cities_List/nat_racine.png,US_Cities_List/mm_boulder.png,,,,,,,,,,,,,,,,,,,,,,,,,,,,,,
null,,rt_plussign_withcolor,491993,blue,,,,,null,US_Cities_List/nat_racine.png,US_Cities_List/mm_boulder.png,,,,,,,,,,,,,,,,,,,,,,,,,,,,,,
791,,rt_thecrossant_black,493263,black_plus_sign,,,,,49,,,1,0.951612903,,,,,,,,,,,,,,,,,,,,,,,,,,,,
null,,color_black,493369,black_plus_sign,,,,,null,,,,,,,,,,,,,,,,,,,,,,,,,,,,,,,,
null,,learn_phase(without_color),495919,black_plus_sign,,,,,null,US_Cities_List/nat_huntsville.png,US_Cities_List/mm_gatlinburg.png,,,,,,,,,,,,,,,,,,,,,,,,,,,,,,
null,,black_cross(without_color),497002,blue,,,,,null,US_Cities_List/nat_huntsville.png,US_Cities_List/mm_gatlinburg.png,,,,,,,,,,,,,,,,,,,,,,,,,,,,,,
null,,rt_plussign_withcolor,497514,blue,,,,,null,US_Cities_List/nat_huntsville.png,US_Cities_List/mm_gatlinburg.png,,,,,,,,,,,,,,,,,,,,,,,,,,,,,,
958.4000006,,rt_thecrossant_black,498458,black_plus_sign,,,,,49,,,1,0.952380952,,,,,,,,,,,,,,,,,,,,,,,,,,,,
null,,color_black,498570,black_plus_sign,,,,,null,,,,,,,,,,,,,,,,,,,,,,,,,,,,,,,,
null,,learn_phase(without_color),501114,black_plus_sign,,,,,null,US_Cities_List/mm_newhope.png,US_Cities_List/mm_gatlinburg.png,,,,,,,,,,,,,,,,,,,,,,,,,,,,,,
null,,black_cross(without_color),501818,green,,,,,null,US_Cities_List/mm_newhope.png,US_Cities_List/mm_gatlinburg.png,,,,,,,,,,,,,,,,,,,,,,,,,,,,,,
null,,rt_plussign_withcolor,502330,green,,,,,null,US_Cities_List/mm_newhope.png,US_Cities_List/mm_gatlinburg.png,,,,,,,,,,,,,,,,,,,,,,,,,,,,,,
1245.900001,,rt_thecrossant_black,503642,black_plus_sign,,,,,50,,,1,0.953125,,,,,,,,,,,,,,,,,,,,,,,,,,,,
null,,color_black,503754,black_plus_sign,,,,,null,,,,,,,,,,,,,,,,,,,,,,,,,,,,,,,,
null,,learn_phase(without_color),506296,black_plus_sign,,,,,null,US_Cities_List/nat_westpalmbeach.png,US_Cities_List/nat_peoria.png,,,,,,,,,,,,,,,,,,,,,,,,,,,,,,
null,,black_cross(without_color),506911,green,,,,,null,US_Cities_List/nat_westpalmbeach.png,US_Cities_List/nat_peoria.png,,,,,,,,,,,,,,,,,,,,,,,,,,,,,,
null,,rt_plussign_withcolor,507418,green,,,,,null,US_Cities_List/nat_westpalmbeach.png,US_Cities_List/nat_peoria.png,,,,,,,,,,,,,,,,,,,,,,,,,,,,,,
943.0999994,,rt_thecrossant_black,508826,black_plus_sign,,,,,50,,,1,0.953846154,,,,,,,,,,,,,,,,,,,,,,,,,,,,
null,,color_black,508935,black_plus_sign,,,,,null,,,,,,,,,,,,,,,,,,,,,,,,,,,,,,,,
null,,learn_phase(without_color),511475,black_plus_sign,,,,,null,US_Cities_List/mm_boulder.png,US_Cities_List/nat_westpalmbeach.png,,,,,,,,,,,,,,,,,,,,,,,,,,,,,,
null,,black_cross(without_color),512298,green,,,,,null,US_Cities_List/mm_boulder.png,US_Cities_List/nat_westpalmbeach.png,,,,,,,,,,,,,,,,,,,,,,,,,,,,,,
null,,rt_plussign_withcolor,512810,green,,,,,null,US_Cities_List/mm_boulder.png,US_Cities_List/nat_westpalmbeach.png,,,,,,,,,,,,,,,,,,,,,,,,,,,,,,
918.4000006,,rt_thecrossant_black,514010,black_plus_sign,,,,,50,,,1,0.954545455,,,,,,,,,,,,,,,,,,,,,,,,,,,,
null,,color_black,514122,black_plus_sign,,,,,null,,,,,,,,,,,,,,,,,,,,,,,,,,,,,,,,
null,,learn_phase(without_color),516666,black_plus_sign,,,,,null,US_Cities_List/mm_newhope.png,US_Cities_List/mm_gatlinburg.png,,,,,,,,,,,,,,,,,,,,,,,,,,,,,,
null,,black_cross(without_color),517226,blue,,,,,null,US_Cities_List/mm_newhope.png,US_Cities_List/mm_gatlinburg.png,,,,,,,,,,,,,,,,,,,,,,,,,,,,,,
null,,rt_plussign_withcolor,517738,blue,,,,,null,US_Cities_List/mm_newhope.png,US_Cities_List/mm_gatlinburg.png,,,,,,,,,,,,,,,,,,,,,,,,,,,,,,
1147.8,,rt_thecrossant_black,519202,black_plus_sign,,,,,49,,,1,0.955223881,,,,,,,,,,,,,,,,,,,,,,,,,,,,
null,,color_black,519311,black_plus_sign,,,,,null,,,,,,,,,,,,,,,,,,,,,,,,,,,,,,,,
null,,learn_phase(without_color),521866,black_plus_sign,,,,,null,US_Cities_List/nat_racine.png,US_Cities_List/mm_boulder.png,,,,,,,,,,,,,,,,,,,,,,,,,,,,,,
null,,black_cross(without_color),522859,green,,,,,null,US_Cities_List/nat_racine.png,US_Cities_List/mm_boulder.png,,,,,,,,,,,,,,,,,,,,,,,,,,,,,,
null,,rt_plussign_withcolor,523370,green,,,,,null,US_Cities_List/nat_racine.png,US_Cities_List/mm_boulder.png,,,,,,,,,,,,,,,,,,,,,,,,,,,,,,
755.3999996,,rt_thecrossant_black,524404,black_plus_sign,,,,,50,,,1,0.955882353,,,,,,,,,,,,,,,,,,,,,,,,,,,,
null,,color_black,524511,black_plus_sign,,,,,null,,,,,,,,,,,,,,,,,,,,,,,,,,,,,,,,
null,,learn_phase(without_color),527056,black_plus_sign,,,,,null,US_Cities_List/nat_carmel.png,US_Cities_List/nat_peoria.png,,,,,,,,,,,,,,,,,,,,,,,,,,,,,,
null,,black_cross(without_color),527498,green,,,,,null,US_Cities_List/nat_carmel.png,US_Cities_List/nat_peoria.png,,,,,,,,,,,,,,,,,,,,,,,,,,,,,,
null,,rt_plussign_withcolor,528010,green,,,,,null,US_Cities_List/nat_carmel.png,US_Cities_List/nat_peoria.png,,,,,,,,,,,,,,,,,,,,,,,,,,,,,,
1227.900001,,rt_thecrossant_black,529594,black_plus_sign,,,,,50,,,1,0.956521739,,,,,,,,,,,,,,,,,,,,,,,,,,,,
null,,color_black,529706,black_plus_sign,,,,,null,,,,,,,,,,,,,,,,,,,,,,,,,,,,,,,,
null,,learn_phase(without_color),532256,black_plus_sign,,,,,null,US_Cities_List/mm_newhope.png,US_Cities_List/mm_gatlinburg.png,,,,,,,,,,,,,,,,,,,,,,,,,,,,,,
null,,black_cross(without_color),533135,blue,,,,,null,US_Cities_List/mm_newhope.png,US_Cities_List/mm_gatlinburg.png,,,,,,,,,,,,,,,,,,,,,,,,,,,,,,
null,,rt_plussign_withcolor,533642,blue,,,,,null,US_Cities_List/mm_newhope.png,US_Cities_List/mm_gatlinburg.png,,,,,,,,,,,,,,,,,,,,,,,,,,,,,,
732.3000002,,rt_thecrossant_black,534778,black_plus_sign,,,,,49,,,1,0.957142857,,,,,,,,,,,,,,,,,,,,,,,,,,,,
null,,color_black,534889,black_plus_sign,,,,,null,,,,,,,,,,,,,,,,,,,,,,,,,,,,,,,,
null,,learn_phase(without_color),537434,black_plus_sign,,,,,null,US_Cities_List/mm_newhope.png,US_Cities_List/mm_leesburg.png,,,,,,,,,,,,,,,,,,,,,,,,,,,,,,
null,,black_cross(without_color),538538,green,,,,,null,US_Cities_List/mm_newhope.png,US_Cities_List/mm_leesburg.png,,,,,,,,,,,,,,,,,,,,,,,,,,,,,,
null,,rt_plussign_withcolor,539050,green,,,,,null,US_Cities_List/mm_newhope.png,US_Cities_List/mm_leesburg.png,,,,,,,,,,,,,,,,,,,,,,,,,,,,,,
1118.400001,,rt_thecrossant_black,539968,black_plus_sign,,,,,50,,,1,0.957746479,,,,,,,,,,,,,,,,,,,,,,,,,,,,
null,,color_black,540074,black_plus_sign,,,,,null,,,,,,,,,,,,,,,,,,,,,,,,,,,,,,,,
null,,learn_phase(without_color),542625,black_plus_sign,,,,,null,US_Cities_List/mm_leesburg.png,US_Cities_List/nat_huntsville.png,,,,,,,,,,,,,,,,,,,,,,,,,,,,,,
null,,black_cross(without_color),543523,blue,,,,,null,US_Cities_List/mm_leesburg.png,US_Cities_List/nat_huntsville.png,,,,,,,,,,,,,,,,,,,,,,,,,,,,,,
null,,rt_plussign_withcolor,544032,blue,,,,,null,US_Cities_List/mm_leesburg.png,US_Cities_List/nat_huntsville.png,,,,,,,,,,,,,,,,,,,,,,,,,,,,,,
1343,,rt_thecrossant_black,545152,black_plus_sign,,,,,49,,,1,0.958333333,,,,,,,,,,,,,,,,,,,,,,,,,,,,
null,,color_black,545259,black_plus_sign,,,,,null,,,,,,,,,,,,,,,,,,,,,,,,,,,,,,,,
null,,learn_phase(without_color),547820,black_plus_sign,,,,,null,US_Cities_List/nat_carmel.png,US_Cities_List/mm_shreveport.png,,,,,,,,,,,,,,,,,,,,,,,,,,,,,,
null,,black_cross(without_color),548507,blue,,,,,null,US_Cities_List/nat_carmel.png,US_Cities_List/mm_shreveport.png,,,,,,,,,,,,,,,,,,,,,,,,,,,,,,
null,,rt_plussign_withcolor,549019,blue,,,,,null,US_Cities_List/nat_carmel.png,US_Cities_List/mm_shreveport.png,,,,,,,,,,,,,,,,,,,,,,,,,,,,,,
1076,,rt_thecrossant_black,550352,black_plus_sign,,,,,49,,,1,0.95890411,,,,,,,,,,,,,,,,,,,,,,,,,,,,
null,,color_black,550458,black_plus_sign,,,,,null,,,,,,,,,,,,,,,,,,,,,,,,,,,,,,,,
null,,learn_phase(without_color),553008,black_plus_sign,,,,,null,US_Cities_List/nat_racine.png,US_Cities_List/mm_boulder.png,,,,,,,,,,,,,,,,,,,,,,,,,,,,,,
null,,black_cross(without_color),553809,blue,,,,,null,US_Cities_List/nat_racine.png,US_Cities_List/mm_boulder.png,,,,,,,,,,,,,,,,,,,,,,,,,,,,,,
null,,rt_plussign_withcolor,554314,blue,,,,,null,US_Cities_List/nat_racine.png,US_Cities_List/mm_boulder.png,,,,,,,,,,,,,,,,,,,,,,,,,,,,,,
1047.9,,rt_thecrossant_black,555531,black_plus_sign,,,,,49,,,1,0.959459459,,,,,,,,,,,,,,,,,,,,,,,,,,,,
null,,color_black,555643,black_plus_sign,,,,,null,,,,,,,,,,,,,,,,,,,,,,,,,,,,,,,,
null,,learn_phase(without_color),558188,black_plus_sign,,,,,null,US_Cities_List/mm_newhope.png,US_Cities_List/mm_leesburg.png,,,,,,,,,,,,,,,,,,,,,,,,,,,,,,
null,,black_cross(without_color),559168,blue,,,,,null,US_Cities_List/mm_newhope.png,US_Cities_List/mm_leesburg.png,,,,,,,,,,,,,,,,,,,,,,,,,,,,,,
null,,rt_plussign_withcolor,559675,blue,,,,,null,US_Cities_List/mm_newhope.png,US_Cities_List/mm_leesburg.png,,,,,,,,,,,,,,,,,,,,,,,,,,,,,,
976,,rt_thecrossant_black,560713,black_plus_sign,,,,,49,,,1,0.96,,,,,,,,,,,,,,,,,,,,,,,,,,,,
null,,color_black,560827,black_plus_sign,,,,,null,,,,,,,,,,,,,,,,,,,,,,,,,,,,,,,,
null,,learn_phase(without_color),563376,black_plus_sign,,,,,null,US_Cities_List/nat_racine.png,US_Cities_List/nat_carmel.png,,,,,,,,,,,,,,,,,,,,,,,,,,,,,,
null,,black_cross(without_color),564283,blue,,,,,null,US_Cities_List/nat_racine.png,US_Cities_List/nat_carmel.png,,,,,,,,,,,,,,,,,,,,,,,,,,,,,,
null,,rt_plussign_withcolor,564795,blue,,,,,null,US_Cities_List/nat_racine.png,US_Cities_List/nat_carmel.png,,,,,,,,,,,,,,,,,,,,,,,,,,,,,,
1117.3,,rt_thecrossant_black,565914,black_plus_sign,,,,,49,,,1,0.960526316,,,,,,,,,,,,,,,,,,,,,,,,,,,,
null,,color_black,566027,black_plus_sign,,,,,null,,,,,,,,,,,,,,,,,,,,,,,,,,,,,,,,
null,,learn_phase(without_color),568587,black_plus_sign,,,,,null,US_Cities_List/nat_racine.png,US_Cities_List/mm_boulder.png,,,,,,,,,,,,,,,,,,,,,,,,,,,,,,
null,,black_cross(without_color),569000,blue,,,,,null,US_Cities_List/nat_racine.png,US_Cities_List/mm_boulder.png,,,,,,,,,,,,,,,,,,,,,,,,,,,,,,
null,,rt_plussign_withcolor,569504,blue,,,,,null,US_Cities_List/nat_racine.png,US_Cities_List/mm_boulder.png,,,,,,,,,,,,,,,,,,,,,,,,,,,,,,
1099.6,,rt_thecrossant_black,571104,black_plus_sign,,,,,49,,,1,0.961038961,,,,,,,,,,,,,,,,,,,,,,,,,,,,
null,,color_black,571209,black_plus_sign,,,,,null,,,,,,,,,,,,,,,,,,,,,,,,,,,,,,,,
null,,learn_phase(without_color),573746,black_plus_sign,,,,,null,US_Cities_List/mm_boulder.png,US_Cities_List/nat_westpalmbeach.png,,,,,,,,,,,,,,,,,,,,,,,,,,,,,,
null,,black_cross(without_color),574288,blue,,,,,null,US_Cities_List/mm_boulder.png,US_Cities_List/nat_westpalmbeach.png,,,,,,,,,,,,,,,,,,,,,,,,,,,,,,
null,,rt_plussign_withcolor,574796,blue,,,,,null,US_Cities_List/mm_boulder.png,US_Cities_List/nat_westpalmbeach.png,,,,,,,,,,,,,,,,,,,,,,,,,,,,,,
592,,rt_thecrossant_black,576272,black_plus_sign,,,,,49,,,1,0.961538462,,,,,,,,,,,,,,,,,,,,,,,,,,,,
null,,color_black,576381,black_plus_sign,,,,,null,,,,,,,,,,,,,,,,,,,,,,,,,,,,,,,,
null,,learn_phase(without_color),578923,black_plus_sign,,,,,null,US_Cities_List/mm_leesburg.png,US_Cities_List/mm_gatlinburg.png,,,,,,,,,,,,,,,,,,,,,,,,,,,,,,
null,,black_cross(without_color),579936,green,,,,,null,US_Cities_List/mm_leesburg.png,US_Cities_List/mm_gatlinburg.png,,,,,,,,,,,,,,,,,,,,,,,,,,,,,,
null,,rt_plussign_withcolor,580443,green,,,,,null,US_Cities_List/mm_leesburg.png,US_Cities_List/mm_gatlinburg.png,,,,,,,,,,,,,,,,,,,,,,,,,,,,,,
654.5,,rt_thecrossant_black,581440,black_plus_sign,,,,,50,,,1,0.962025316,,,,,,,,,,,,,,,,,,,,,,,,,,,,
null,,color_black,581547,black_plus_sign,,,,,null,,,,,,,,,,,,,,,,,,,,,,,,,,,,,,,,
null,,learn_phase(without_color),584097,black_plus_sign,,,,,null,US_Cities_List/nat_cornwall.png,US_Cities_List/nat_racine.png,,,,,,,,,,,,,,,,,,,,,,,,,,,,,,
null,,black_cross(without_color),584961,blue,,,,,null,US_Cities_List/nat_cornwall.png,US_Cities_List/nat_racine.png,,,,,,,,,,,,,,,,,,,,,,,,,,,,,,
null,,rt_plussign_withcolor,585467,blue,,,,,null,US_Cities_List/nat_cornwall.png,US_Cities_List/nat_racine.png,,,,,,,,,,,,,,,,,,,,,,,,,,,,,,
1190.799999,,rt_thecrossant_black,586624,black_plus_sign,,,,,49,,,1,0.9625,,,,,,,,,,,,,,,,,,,,,,,,,,,,
null,,color_black,586731,black_plus_sign,,,,,null,,,,,,,,,,,,,,,,,,,,,,,,,,,,,,,,
null,,learn_phase(without_color),589275,black_plus_sign,,,,,null,US_Cities_List/mm_newhope.png,US_Cities_List/mm_gatlinburg.png,,,,,,,,,,,,,,,,,,,,,,,,,,,,,,
null,,black_cross(without_color),590145,blue,,,,,null,US_Cities_List/mm_newhope.png,US_Cities_List/mm_gatlinburg.png,,,,,,,,,,,,,,,,,,,,,,,,,,,,,,
null,,rt_plussign_withcolor,590651,blue,,,,,null,US_Cities_List/mm_newhope.png,US_Cities_List/mm_gatlinburg.png,,,,,,,,,,,,,,,,,,,,,,,,,,,,,,
1234.7,,rt_thecrossant_black,591803,black_plus_sign,,,,,49,,,1,0.962962963,,,,,,,,,,,,,,,,,,,,,,,,,,,,
null,,color_black,591914,black_plus_sign,,,,,null,,,,,,,,,,,,,,,,,,,,,,,,,,,,,,,,
null,,learn_phase(without_color),594459,black_plus_sign,,,,,null,US_Cities_List/nat_westpalmbeach.png,US_Cities_List/nat_peoria.png,,,,,,,,,,,,,,,,,,,,,,,,,,,,,,
null,,black_cross(without_color),594972,blue,,,,,null,US_Cities_List/nat_westpalmbeach.png,US_Cities_List/nat_peoria.png,,,,,,,,,,,,,,,,,,,,,,,,,,,,,,
null,,rt_plussign_withcolor,595476,blue,,,,,null,US_Cities_List/nat_westpalmbeach.png,US_Cities_List/nat_peoria.png,,,,,,,,,,,,,,,,,,,,,,,,,,,,,,
1037.8,,rt_thecrossant_black,596988,black_plus_sign,,,,,49,,,1,0.963414634,,,,,,,,,,,,,,,,,,,,,,,,,,,,
null,,color_black,597099,black_plus_sign,,,,,null,,,,,,,,,,,,,,,,,,,,,,,,,,,,,,,,
null,,learn_phase(without_color),599649,black_plus_sign,,,,,null,US_Cities_List/mm_leesburg.png,US_Cities_List/nat_hotsprings.png,,,,,,,,,,,,,,,,,,,,,,,,,,,,,,
null,,black_cross(without_color),600068,green,,,,,null,US_Cities_List/mm_leesburg.png,US_Cities_List/nat_hotsprings.png,,,,,,,,,,,,,,,,,,,,,,,,,,,,,,
null,,rt_plussign_withcolor,600576,green,,,,,null,US_Cities_List/mm_leesburg.png,US_Cities_List/nat_hotsprings.png,,,,,,,,,,,,,,,,,,,,,,,,,,,,,,
727.8000002,,rt_thecrossant_black,602173,black_plus_sign,,,,,50,,,1,0.963855422,,,,,,,,,,,,,,,,,,,,,,,,,,,,
null,,color_black,602284,black_plus_sign,,,,,null,,,,,,,,,,,,,,,,,,,,,,,,,,,,,,,,
null,,learn_phase(without_color),604833,black_plus_sign,,,,,null,US_Cities_List/mm_newhope.png,US_Cities_List/mm_leesburg.png,,,,,,,,,,,,,,,,,,,,,,,,,,,,,,
null,,black_cross(without_color),605708,blue,,,,,null,US_Cities_List/mm_newhope.png,US_Cities_List/mm_leesburg.png,,,,,,,,,,,,,,,,,,,,,,,,,,,,,,
null,,rt_plussign_withcolor,606220,blue,,,,,null,US_Cities_List/mm_newhope.png,US_Cities_List/mm_leesburg.png,,,,,,,,,,,,,,,,,,,,,,,,,,,,,,
622.6999998,,rt_thecrossant_black,607371,black_plus_sign,,,,,49,,,1,0.964285714,,,,,,,,,,,,,,,,,,,,,,,,,,,,
null,,color_black,607483,black_plus_sign,,,,,null,,,,,,,,,,,,,,,,,,,,,,,,,,,,,,,,
null,,learn_phase(without_color),610028,black_plus_sign,,,,,null,US_Cities_List/mm_gatlinburg.png,US_Cities_List/nat_westpalmbeach.png,,,,,,,,,,,,,,,,,,,,,,,,,,,,,,
null,,black_cross(without_color),610764,green,,,,,null,US_Cities_List/mm_gatlinburg.png,US_Cities_List/nat_westpalmbeach.png,,,,,,,,,,,,,,,,,,,,,,,,,,,,,,
null,,rt_plussign_withcolor,611274,green,,,,,null,US_Cities_List/mm_gatlinburg.png,US_Cities_List/nat_westpalmbeach.png,,,,,,,,,,,,,,,,,,,,,,,,,,,,,,
991.6999998,,rt_thecrossant_black,612565,black_plus_sign,,,,,50,,,1,0.964705882,,,,,,,,,,,,,,,,,,,,,,,,,,,,
null,,color_black,612676,black_plus_sign,,,,,null,,,,,,,,,,,,,,,,,,,,,,,,,,,,,,,,
null,,learn_phase(without_color),615227,black_plus_sign,,,,,null,US_Cities_List/nat_carmel.png,US_Cities_List/mm_shreveport.png,,,,,,,,,,,,,,,,,,,,,,,,,,,,,,
null,,black_cross(without_color),616033,blue,,,,,null,US_Cities_List/nat_carmel.png,US_Cities_List/mm_shreveport.png,,,,,,,,,,,,,,,,,,,,,,,,,,,,,,
null,,rt_plussign_withcolor,616540,blue,,,,,null,US_Cities_List/nat_carmel.png,US_Cities_List/mm_shreveport.png,,,,,,,,,,,,,,,,,,,,,,,,,,,,,,
847.8999996,,rt_thecrossant_black,617756,black_plus_sign,,,,,49,,,1,0.965116279,,,,,,,,,,,,,,,,,,,,,,,,,,,,
null,,color_black,617868,black_plus_sign,,,,,null,,,,,,,,,,,,,,,,,,,,,,,,,,,,,,,,
null,,learn_phase(without_color),620412,black_plus_sign,,,,,null,US_Cities_List/mm_newhope.png,US_Cities_List/mm_gatlinburg.png,,,,,,,,,,,,,,,,,,,,,,,,,,,,,,
null,,black_cross(without_color),620827,blue,,,,,null,US_Cities_List/mm_newhope.png,US_Cities_List/mm_gatlinburg.png,,,,,,,,,,,,,,,,,,,,,,,,,,,,,,
null,,rt_plussign_withcolor,621333,blue,,,,,null,US_Cities_List/mm_newhope.png,US_Cities_List/mm_gatlinburg.png,,,,,,,,,,,,,,,,,,,,,,,,,,,,,,
974.5,,rt_thecrossant_black,622941,black_plus_sign,,,,,49,,,1,0.965517241,,,,,,,,,,,,,,,,,,,,,,,,,,,,
null,,color_black,623052,black_plus_sign,,,,,null,,,,,,,,,,,,,,,,,,,,,,,,,,,,,,,,
null,,learn_phase(without_color),625594,black_plus_sign,,,,,null,US_Cities_List/mm_leesburg.png,US_Cities_List/nat_hotsprings.png,,,,,,,,,,,,,,,,,,,,,,,,,,,,,,
null,,black_cross(without_color),626012,blue,,,,,null,US_Cities_List/mm_leesburg.png,US_Cities_List/nat_hotsprings.png,,,,,,,,,,,,,,,,,,,,,,,,,,,,,,
null,,rt_plussign_withcolor,626524,blue,,,,,null,US_Cities_List/mm_leesburg.png,US_Cities_List/nat_hotsprings.png,,,,,,,,,,,,,,,,,,,,,,,,,,,,,,
731.3000002,,rt_thecrossant_black,628124,black_plus_sign,,,,,49,,,1,0.965909091,,,,,,,,,,,,,,,,,,,,,,,,,,,,
null,,color_black,628236,black_plus_sign,,,,,null,,,,,,,,,,,,,,,,,,,,,,,,,,,,,,,,
null,,learn_phase(without_color),630780,black_plus_sign,,,,,null,US_Cities_List/mm_boulder.png,US_Cities_List/mm_newhope.png,,,,,,,,,,,,,,,,,,,,,,,,,,,,,,
null,,black_cross(without_color),631868,green,,,,,null,US_Cities_List/mm_boulder.png,US_Cities_List/mm_newhope.png,,,,,,,,,,,,,,,,,,,,,,,,,,,,,,
null,,rt_plussign_withcolor,632380,green,,,,,null,US_Cities_List/mm_boulder.png,US_Cities_List/mm_newhope.png,,,,,,,,,,,,,,,,,,,,,,,,,,,,,,
630.3999996,,rt_thecrossant_black,633307,black_plus_sign,,,,,50,,,1,0.966292135,,,,,,,,,,,,,,,,,,,,,,,,,,,,
null,,color_black,633420,black_plus_sign,,,,,null,,,,,,,,,,,,,,,,,,,,,,,,,,,,,,,,
null,,learn_phase(without_color),635977,black_plus_sign,,,,,null,US_Cities_List/nat_carmel.png,US_Cities_List/mm_shreveport.png,,,,,,,,,,,,,,,,,,,,,,,,,,,,,,
null,,black_cross(without_color),637045,green,,,,,null,US_Cities_List/nat_carmel.png,US_Cities_List/mm_shreveport.png,,,,,,,,,,,,,,,,,,,,,,,,,,,,,,
null,,rt_plussign_withcolor,637557,green,,,,,null,US_Cities_List/nat_carmel.png,US_Cities_List/mm_shreveport.png,,,,,,,,,,,,,,,,,,,,,,,,,,,,,,
1189,,rt_thecrossant_black,638507,black_plus_sign,,,,,50,,,1,0.966666667,,,,,,,,,,,,,,,,,,,,,,,,,,,,
null,,color_black,638620,black_plus_sign,,,,,null,,,,,,,,,,,,,,,,,,,,,,,,,,,,,,,,
null,,learn_phase(without_color),641170,black_plus_sign,,,,,null,US_Cities_List/mm_leesburg.png,US_Cities_List/nat_huntsville.png,,,,,,,,,,,,,,,,,,,,,,,,,,,,,,
null,,black_cross(without_color),642066,green,,,,,null,US_Cities_List/mm_leesburg.png,US_Cities_List/nat_huntsville.png,,,,,,,,,,,,,,,,,,,,,,,,,,,,,,
null,,rt_plussign_withcolor,642572,green,,,,,null,US_Cities_List/mm_leesburg.png,US_Cities_List/nat_huntsville.png,,,,,,,,,,,,,,,,,,,,,,,,,,,,,,
1289.099999,,rt_thecrossant_black,643692,black_plus_sign,,,,,50,,,1,0.967032967,,,,,,,,,,,,,,,,,,,,,,,,,,,,
null,,color_black,643804,black_plus_sign,,,,,null,,,,,,,,,,,,,,,,,,,,,,,,,,,,,,,,
null,,learn_phase(without_color),646364,black_plus_sign,,,,,null,US_Cities_List/mm_boulder.png,US_Cities_List/mm_newhope.png,,,,,,,,,,,,,,,,,,,,,,,,,,,,,,
null,,black_cross(without_color),647036,blue,,,,,null,US_Cities_List/mm_boulder.png,US_Cities_List/mm_newhope.png,,,,,,,,,,,,,,,,,,,,,,,,,,,,,,
null,,rt_plussign_withcolor,647548,blue,,,,,null,US_Cities_List/mm_boulder.png,US_Cities_List/mm_newhope.png,,,,,,,,,,,,,,,,,,,,,,,,,,,,,,
1059.400001,,rt_thecrossant_black,648892,black_plus_sign,,,,,49,,,1,0.967391304,,,,,,,,,,,,,,,,,,,,,,,,,,,,
null,,color_black,649004,black_plus_sign,,,,,null,,,,,,,,,,,,,,,,,,,,,,,,,,,,,,,,
null,,learn_phase(without_color),651555,black_plus_sign,,,,,null,US_Cities_List/nat_huntsville.png,US_Cities_List/mm_gatlinburg.png,,,,,,,,,,,,,,,,,,,,,,,,,,,,,,
null,,black_cross(without_color),652641,green,,,,,null,US_Cities_List/nat_huntsville.png,US_Cities_List/mm_gatlinburg.png,,,,,,,,,,,,,,,,,,,,,,,,,,,,,,
487,,rt_plussign_withcolor,653145,green,,,,,50,US_Cities_List/nat_huntsville.png,US_Cities_List/mm_gatlinburg.png,,,,,,,,,,,,,,,,,,,,,,,,,,,,,,
null,,rt_thecrossant_black,654073,black_plus_sign,,,,,null,,,1,0.967741935,,,,,,,,,,,,,,,,,,,,,,,,,,,,
null,,color_black,654178,black_plus_sign,,,,,null,,,,,,,,,,,,,,,,,,,,,,,,,,,,,,,,
null,,learn_phase(without_color),656726,black_plus_sign,,,,,null,US_Cities_List/nat_carmel.png,US_Cities_List/nat_peoria.png,,,,,,,,,,,,,,,,,,,,,,,,,,,,,,
null,,black_cross(without_color),657491,blue,,,,,null,US_Cities_List/nat_carmel.png,US_Cities_List/nat_peoria.png,,,,,,,,,,,,,,,,,,,,,,,,,,,,,,
null,,rt_plussign_withcolor,657996,blue,,,,,null,US_Cities_List/nat_carmel.png,US_Cities_List/nat_peoria.png,,,,,,,,,,,,,,,,,,,,,,,,,,,,,,
1482.599999,,rt_thecrossant_black,659250,black_plus_sign,,,,,49,,,1,0.968085106,,,,,,,,,,,,,,,,,,,,,,,,,,,,
null,,color_black,659357,black_plus_sign,,,,,null,,,,,,,,,,,,,,,,,,,,,,,,,,,,,,,,
null,,learn_phase(without_color),661906,black_plus_sign,,,,,null,US_Cities_List/nat_racine.png,US_Cities_List/nat_carmel.png,,,,,,,,,,,,,,,,,,,,,,,,,,,,,,
null,,black_cross(without_color),663010,green,,,,,null,US_Cities_List/nat_racine.png,US_Cities_List/nat_carmel.png,,,,,,,,,,,,,,,,,,,,,,,,,,,,,,
null,,rt_plussign_withcolor,663517,green,,,,,null,US_Cities_List/nat_racine.png,US_Cities_List/nat_carmel.png,,,,,,,,,,,,,,,,,,,,,,,,,,,,,,
966.8000002,,rt_thecrossant_black,664429,black_plus_sign,,,,,50,,,1,0.968421053,,,,,,,,,,,,,,,,,,,,,,,,,,,,
null,,color_black,664541,black_plus_sign,,,,,null,,,,,,,,,,,,,,,,,,,,,,,,,,,,,,,,
null,,learn_phase(without_color),667085,black_plus_sign,,,,,null,US_Cities_List/mm_boulder.png,US_Cities_List/nat_westpalmbeach.png,,,,,,,,,,,,,,,,,,,,,,,,,,,,,,
null,,black_cross(without_color),667612,blue,,,,,null,US_Cities_List/mm_boulder.png,US_Cities_List/nat_westpalmbeach.png,,,,,,,,,,,,,,,,,,,,,,,,,,,,,,
null,,rt_plussign_withcolor,668114,blue,,,,,null,US_Cities_List/mm_boulder.png,US_Cities_List/nat_westpalmbeach.png,,,,,,,,,,,,,,,,,,,,,,,,,,,,,,
1205.099999,,rt_thecrossant_black,669602,black_plus_sign,,,,,49,,,1,0.96875,,,,,,,,,,,,,,,,,,,,,,,,,,,,
null,,color_black,669709,black_plus_sign,,,,,null,,,,,,,,,,,,,,,,,,,,,,,,,,,,,,,,
null,,learn_phase(without_color),672250,black_plus_sign,,,,,null,US_Cities_List/nat_westpalmbeach.png,US_Cities_List/nat_peoria.png,,,,,,,,,,,,,,,,,,,,,,,,,,,,,,
null,,black_cross(without_color),673106,green,,,,,null,US_Cities_List/nat_westpalmbeach.png,US_Cities_List/nat_peoria.png,,,,,,,,,,,,,,,,,,,,,,,,,,,,,,
null,,rt_plussign_withcolor,673613,green,,,,,null,US_Cities_List/nat_westpalmbeach.png,US_Cities_List/nat_peoria.png,,,,,,,,,,,,,,,,,,,,,,,,,,,,,,
817.5,,rt_thecrossant_black,674772,black_plus_sign,,,,,50,,,1,0.969072165,,,,,,,,,,,,,,,,,,,,,,,,,,,,
null,,color_black,674882,black_plus_sign,,,,,null,,,,,,,,,,,,,,,,,,,,,,,,,,,,,,,,
null,,learn_phase(without_color),677437,black_plus_sign,,,,,null,US_Cities_List/nat_carmel.png,US_Cities_List/mm_shreveport.png,,,,,,,,,,,,,,,,,,,,,,,,,,,,,,
null,,black_cross(without_color),678147,blue,,,,,null,US_Cities_List/nat_carmel.png,US_Cities_List/mm_shreveport.png,,,,,,,,,,,,,,,,,,,,,,,,,,,,,,
null,,rt_plussign_withcolor,678653,blue,,,,,null,US_Cities_List/nat_carmel.png,US_Cities_List/mm_shreveport.png,,,,,,,,,,,,,,,,,,,,,,,,,,,,,,
1359.7,,rt_thecrossant_black,679965,black_plus_sign,,,,,49,,,1,0.969387755,,,,,,,,,,,,,,,,,,,,,,,,,,,,
null,,color_black,680077,black_plus_sign,,,,,null,,,,,,,,,,,,,,,,,,,,,,,,,,,,,,,,
null,,learn_phase(without_color),682626,black_plus_sign,,,,,null,US_Cities_List/nat_racine.png,US_Cities_List/mm_boulder.png,,,,,,,,,,,,,,,,,,,,,,,,,,,,,,
null,,black_cross(without_color),683314,blue,,,,,null,US_Cities_List/nat_racine.png,US_Cities_List/mm_boulder.png,,,,,,,,,,,,,,,,,,,,,,,,,,,,,,
null,,rt_plussign_withcolor,683821,blue,,,,,null,US_Cities_List/nat_racine.png,US_Cities_List/mm_boulder.png,,,,,,,,,,,,,,,,,,,,,,,,,,,,,,
916.3000002,,rt_thecrossant_black,685154,black_plus_sign,,,,,49,,,1,0.96969697,,,,,,,,,,,,,,,,,,,,,,,,,,,,
null,,color_black,685261,black_plus_sign,,,,,null,,,,,,,,,,,,,,,,,,,,,,,,,,,,,,,,
null,,learn_phase(without_color),687805,black_plus_sign,,,,,null,US_Cities_List/nat_westpalmbeach.png,US_Cities_List/nat_peoria.png,,,,,,,,,,,,,,,,,,,,,,,,,,,,,,
null,,black_cross(without_color),688594,blue,,,,,null,US_Cities_List/nat_westpalmbeach.png,US_Cities_List/nat_peoria.png,,,,,,,,,,,,,,,,,,,,,,,,,,,,,,
null,,rt_plussign_withcolor,689101,blue,,,,,null,US_Cities_List/nat_westpalmbeach.png,US_Cities_List/nat_peoria.png,,,,,,,,,,,,,,,,,,,,,,,,,,,,,,
1161.3,,rt_thecrossant_black,690325,black_plus_sign,,,,,49,,,1,0.97,,,,,,,,,,,,,,,,,,,,,,,,,,,,
null,,color_black,690438,black_plus_sign,,,,,null,,,,,,,,,,,,,,,,,,,,,,,,,,,,,,,,
null,,learn_phase(without_color),692989,black_plus_sign,,,,,null,US_Cities_List/nat_huntsville.png,US_Cities_List/mm_gatlinburg.png,,,,,,,,,,,,,,,,,,,,,,,,,,,,,,
null,,black_cross(without_color),693810,blue,,,,,null,US_Cities_List/nat_huntsville.png,US_Cities_List/mm_gatlinburg.png,,,,,,,,,,,,,,,,,,,,,,,,,,,,,,
null,,rt_plussign_withcolor,694317,blue,,,,,null,US_Cities_List/nat_huntsville.png,US_Cities_List/mm_gatlinburg.png,,,,,,,,,,,,,,,,,,,,,,,,,,,,,,
940.8999996,,rt_thecrossant_black,695506,black_plus_sign,,,,,49,,,1,0.97029703,,,,,,,,,,,,,,,,,,,,,,,,,,,,
null,,color_black,695614,black_plus_sign,,,,,null,,,,,,,,,,,,,,,,,,,,,,,,,,,,,,,,
null,,learn_phase(without_color),698163,black_plus_sign,,,,,null,US_Cities_List/nat_carmel.png,US_Cities_List/nat_peoria.png,,,,,,,,,,,,,,,,,,,,,,,,,,,,,,
null,,black_cross(without_color),699117,green,,,,,null,US_Cities_List/nat_carmel.png,US_Cities_List/nat_peoria.png,,,,,,,,,,,,,,,,,,,,,,,,,,,,,,
null,,rt_plussign_withcolor,699625,green,,,,,null,US_Cities_List/nat_carmel.png,US_Cities_List/nat_peoria.png,,,,,,,,,,,,,,,,,,,,,,,,,,,,,,
1035.099999,,rt_thecrossant_black,700689,black_plus_sign,,,,,50,,,1,0.970588235,,,,,,,,,,,,,,,,,,,,,,,,,,,,
null,,color_black,700797,black_plus_sign,,,,,null,,,,,,,,,,,,,,,,,,,,,,,,,,,,,,,,
null,,learn_phase(without_color),703347,black_plus_sign,,,,,null,US_Cities_List/nat_cornwall.png,US_Cities_List/nat_racine.png,,,,,,,,,,,,,,,,,,,,,,,,,,,,,,
null,,black_cross(without_color),704114,green,,,,,null,US_Cities_List/nat_cornwall.png,US_Cities_List/nat_racine.png,,,,,,,,,,,,,,,,,,,,,,,,,,,,,,
null,,rt_plussign_withcolor,704621,green,,,,,null,US_Cities_List/nat_cornwall.png,US_Cities_List/nat_racine.png,,,,,,,,,,,,,,,,,,,,,,,,,,,,,,
1066.099999,,rt_thecrossant_black,705875,black_plus_sign,,,,,50,,,1,0.970873786,,,,,,,,,,,,,,,,,,,,,,,,,,,,
null,,color_black,705990,black_plus_sign,,,,,null,,,,,,,,,,,,,,,,,,,,,,,,,,,,,,,,
null,,learn_phase(without_color),708541,black_plus_sign,,,,,null,US_Cities_List/mm_leesburg.png,US_Cities_List/mm_gatlinburg.png,,,,,,,,,,,,,,,,,,,,,,,,,,,,,,
null,,black_cross(without_color),709597,green,,,,,null,US_Cities_List/mm_leesburg.png,US_Cities_List/mm_gatlinburg.png,,,,,,,,,,,,,,,,,,,,,,,,,,,,,,
null,,rt_plussign_withcolor,710110,green,,,,,null,US_Cities_List/mm_leesburg.png,US_Cities_List/mm_gatlinburg.png,,,,,,,,,,,,,,,,,,,,,,,,,,,,,,
1045.4,,rt_thecrossant_black,711069,black_plus_sign,,,,,50,,,1,0.971153846,,,,,,,,,,,,,,,,,,,,,,,,,,,,
null,,color_black,711181,black_plus_sign,,,,,null,,,,,,,,,,,,,,,,,,,,,,,,,,,,,,,,
null,,learn_phase(without_color),713725,black_plus_sign,,,,,null,US_Cities_List/nat_westpalmbeach.png,US_Cities_List/nat_peoria.png,,,,,,,,,,,,,,,,,,,,,,,,,,,,,,
null,,black_cross(without_color),714565,green,,,,,null,US_Cities_List/nat_westpalmbeach.png,US_Cities_List/nat_peoria.png,,,,,,,,,,,,,,,,,,,,,,,,,,,,,,
null,,rt_plussign_withcolor,715069,green,,,,,null,US_Cities_List/nat_westpalmbeach.png,US_Cities_List/nat_peoria.png,,,,,,,,,,,,,,,,,,,,,,,,,,,,,,
1202.400001,,rt_thecrossant_black,716253,black_plus_sign,,,,,50,,,1,0.971428571,,,,,,,,,,,,,,,,,,,,,,,,,,,,
null,,color_black,716365,black_plus_sign,,,,,null,,,,,,,,,,,,,,,,,,,,,,,,,,,,,,,,
null,,learn_phase(without_color),718915,black_plus_sign,,,,,null,US_Cities_List/mm_newhope.png,US_Cities_List/mm_gatlinburg.png,,,,,,,,,,,,,,,,,,,,,,,,,,,,,,
null,,black_cross(without_color),719779,blue,,,,,null,US_Cities_List/mm_newhope.png,US_Cities_List/mm_gatlinburg.png,,,,,,,,,,,,,,,,,,,,,,,,,,,,,,
null,,rt_plussign_withcolor,720285,blue,,,,,null,US_Cities_List/mm_newhope.png,US_Cities_List/mm_gatlinburg.png,,,,,,,,,,,,,,,,,,,,,,,,,,,,,,
931,,rt_thecrossant_black,721443,black_plus_sign,,,,,49,,,1,0.971698113,,,,,,,,,,,,,,,,,,,,,,,,,,,,
null,,color_black,721550,black_plus_sign,,,,,null,,,,,,,,,,,,,,,,,,,,,,,,,,,,,,,,
null,,learn_phase(without_color),724094,black_plus_sign,,,,,null,US_Cities_List/mm_leesburg.png,US_Cities_List/mm_gatlinburg.png,,,,,,,,,,,,,,,,,,,,,,,,,,,,,,
null,,black_cross(without_color),724695,green,,,,,null,US_Cities_List/mm_leesburg.png,US_Cities_List/mm_gatlinburg.png,,,,,,,,,,,,,,,,,,,,,,,,,,,,,,
null,,rt_plussign_withcolor,725202,green,,,,,null,US_Cities_List/mm_leesburg.png,US_Cities_List/mm_gatlinburg.png,,,,,,,,,,,,,,,,,,,,,,,,,,,,,,
1213.5,,rt_thecrossant_black,726620,black_plus_sign,,,,,50,,,1,0.971962617,,,,,,,,,,,,,,,,,,,,,,,,,,,,
null,,color_black,726733,black_plus_sign,,,,,null,,,,,,,,,,,,,,,,,,,,,,,,,,,,,,,,
null,,learn_phase(without_color),729286,black_plus_sign,,,,,null,US_Cities_List/mm_leesburg.png,US_Cities_List/nat_hotsprings.png,,,,,,,,,,,,,,,,,,,,,,,,,,,,,,
null,,black_cross(without_color),730333,blue,,,,,null,US_Cities_List/mm_leesburg.png,US_Cities_List/nat_hotsprings.png,,,,,,,,,,,,,,,,,,,,,,,,,,,,,,
null,,rt_plussign_withcolor,730846,blue,,,,,null,US_Cities_List/mm_leesburg.png,US_Cities_List/nat_hotsprings.png,,,,,,,,,,,,,,,,,,,,,,,,,,,,,,
767.9000006,,rt_thecrossant_black,731818,black_plus_sign,,,,,49,,,1,0.972222222,,,,,,,,,,,,,,,,,,,,,,,,,,,,
null,,color_black,731923,black_plus_sign,,,,,null,,,,,,,,,,,,,,,,,,,,,,,,,,,,,,,,
null,,learn_phase(without_color),734478,black_plus_sign,,,,,null,US_Cities_List/mm_newhope.png,US_Cities_List/mm_leesburg.png,,,,,,,,,,,,,,,,,,,,,,,,,,,,,,
null,,black_cross(without_color),735470,blue,,,,,null,US_Cities_List/mm_newhope.png,US_Cities_List/mm_leesburg.png,,,,,,,,,,,,,,,,,,,,,,,,,,,,,,
null,,rt_plussign_withcolor,735982,blue,,,,,null,US_Cities_List/mm_newhope.png,US_Cities_List/mm_leesburg.png,,,,,,,,,,,,,,,,,,,,,,,,,,,,,,
1539,,rt_thecrossant_black,737014,black_plus_sign,,,,,49,,,1,0.972477064,,,,,,,,,,,,,,,,,,,,,,,,,,,,
null,,color_black,737123,black_plus_sign,,,,,null,,,,,,,,,,,,,,,,,,,,,,,,,,,,,,,,
null,,learn_phase(without_color),739678,black_plus_sign,,,,,null,US_Cities_List/nat_huntsville.png,US_Cities_List/nat_hanover.png,,,,,,,,,,,,,,,,,,,,,,,,,,,,,,
null,,black_cross(without_color),740307,green,,,,,null,US_Cities_List/nat_huntsville.png,US_Cities_List/nat_hanover.png,,,,,,,,,,,,,,,,,,,,,,,,,,,,,,
null,,rt_plussign_withcolor,740812,green,,,,,null,US_Cities_List/nat_huntsville.png,US_Cities_List/nat_hanover.png,,,,,,,,,,,,,,,,,,,,,,,,,,,,,,
1093.8,,rt_thecrossant_black,742206,black_plus_sign,,,,,50,,,1,0.972727273,,,,,,,,,,,,,,,,,,,,,,,,,,,,
null,,color_black,742318,black_plus_sign,,,,,null,,,,,,,,,,,,,,,,,,,,,,,,,,,,,,,,
null,,learn_phase(without_color),744867,black_plus_sign,,,,,null,US_Cities_List/nat_carmel.png,US_Cities_List/mm_shreveport.png,,,,,,,,,,,,,,,,,,,,,,,,,,,,,,
null,,black_cross(without_color),745742,green,,,,,null,US_Cities_List/nat_carmel.png,US_Cities_List/mm_shreveport.png,,,,,,,,,,,,,,,,,,,,,,,,,,,,,,
null,,rt_plussign_withcolor,746254,green,,,,,null,US_Cities_List/nat_carmel.png,US_Cities_List/mm_shreveport.png,,,,,,,,,,,,,,,,,,,,,,,,,,,,,,
733.8999996,,rt_thecrossant_black,747395,black_plus_sign,,,,,50,,,1,0.972972973,,,,,,,,,,,,,,,,,,,,,,,,,,,,
null,,color_black,747502,black_plus_sign,,,,,null,,,,,,,,,,,,,,,,,,,,,,,,,,,,,,,,
null,,learn_phase(without_color),750051,black_plus_sign,,,,,null,US_Cities_List/nat_westpalmbeach.png,US_Cities_List/nat_peoria.png,,,,,,,,,,,,,,,,,,,,,,,,,,,,,,
null,,black_cross(without_color),750846,blue,,,,,null,US_Cities_List/nat_westpalmbeach.png,US_Cities_List/nat_peoria.png,,,,,,,,,,,,,,,,,,,,,,,,,,,,,,
null,,rt_plussign_withcolor,751358,blue,,,,,null,US_Cities_List/nat_westpalmbeach.png,US_Cities_List/nat_peoria.png,,,,,,,,,,,,,,,,,,,,,,,,,,,,,,
1160.5,,rt_thecrossant_black,752581,black_plus_sign,,,,,49,,,1,0.973214286,,,,,,,,,,,,,,,,,,,,,,,,,,,,
null,,color_black,752692,black_plus_sign,,,,,null,,,,,,,,,,,,,,,,,,,,,,,,,,,,,,,,
null,,learn_phase(without_color),755236,black_plus_sign,,,,,null,US_Cities_List/mm_boulder.png,US_Cities_List/nat_westpalmbeach.png,,,,,,,,,,,,,,,,,,,,,,,,,,,,,,
null,,black_cross(without_color),756094,green,,,,,null,US_Cities_List/mm_boulder.png,US_Cities_List/nat_westpalmbeach.png,,,,,,,,,,,,,,,,,,,,,,,,,,,,,,
null,,rt_plussign_withcolor,756607,green,,,,,null,US_Cities_List/mm_boulder.png,US_Cities_List/nat_westpalmbeach.png,,,,,,,,,,,,,,,,,,,,,,,,,,,,,,
984.6999998,,rt_thecrossant_black,757764,black_plus_sign,,,,,50,,,1,0.973451327,,,,,,,,,,,,,,,,,,,,,,,,,,,,
null,,color_black,757875,black_plus_sign,,,,,null,,,,,,,,,,,,,,,,,,,,,,,,,,,,,,,,
null,,learn_phase(without_color),760429,black_plus_sign,,,,,null,US_Cities_List/nat_racine.png,US_Cities_List/nat_carmel.png,,,,,,,,,,,,,,,,,,,,,,,,,,,,,,
null,,black_cross(without_color),761134,blue,,,,,null,US_Cities_List/nat_racine.png,US_Cities_List/nat_carmel.png,,,,,,,,,,,,,,,,,,,,,,,,,,,,,,
null,,rt_plussign_withcolor,761646,blue,,,,,null,US_Cities_List/nat_racine.png,US_Cities_List/nat_carmel.png,,,,,,,,,,,,,,,,,,,,,,,,,,,,,,
1126.599999,,rt_thecrossant_black,762968,black_plus_sign,,,,,49,,,1,0.973684211,,,,,,,,,,,,,,,,,,,,,,,,,,,,
null,,color_black,763075,black_plus_sign,,,,,null,,,,,,,,,,,,,,,,,,,,,,,,,,,,,,,,
null,,learn_phase(without_color),765620,black_plus_sign,,,,,null,US_Cities_List/mm_gatlinburg.png,US_Cities_List/nat_westpalmbeach.png,,,,,,,,,,,,,,,,,,,,,,,,,,,,,,
null,,black_cross(without_color),766636,green,,,,,null,US_Cities_List/mm_gatlinburg.png,US_Cities_List/nat_westpalmbeach.png,,,,,,,,,,,,,,,,,,,,,,,,,,,,,,
null,,rt_plussign_withcolor,767143,green,,,,,null,US_Cities_List/mm_gatlinburg.png,US_Cities_List/nat_westpalmbeach.png,,,,,,,,,,,,,,,,,,,,,,,,,,,,,,
1215.2,,rt_thecrossant_black,768142,black_plus_sign,,,,,50,,,1,0.973913043,,,,,,,,,,,,,,,,,,,,,,,,,,,,
null,,color_black,768254,black_plus_sign,,,,,null,,,,,,,,,,,,,,,,,,,,,,,,,,,,,,,,
null,,learn_phase(without_color),770804,black_plus_sign,,,,,null,US_Cities_List/mm_boulder.png,US_Cities_List/mm_newhope.png,,,,,,,,,,,,,,,,,,,,,,,,,,,,,,
null,,black_cross(without_color),771236,blue,,,,,null,US_Cities_List/mm_boulder.png,US_Cities_List/mm_newhope.png,,,,,,,,,,,,,,,,,,,,,,,,,,,,,,
null,,rt_plussign_withcolor,771742,blue,,,,,null,US_Cities_List/mm_boulder.png,US_Cities_List/mm_newhope.png,,,,,,,,,,,,,,,,,,,,,,,,,,,,,,
1147.3,,rt_thecrossant_black,773326,black_plus_sign,,,,,49,,,1,0.974137931,,,,,,,,,,,,,,,,,,,,,,,,,,,,
null,,color_black,773438,black_plus_sign,,,,,null,,,,,,,,,,,,,,,,,,,,,,,,,,,,,,,,
null,,learn_phase(without_color),775991,black_plus_sign,,,,,null,US_Cities_List/mm_leesburg.png,US_Cities_List/mm_gatlinburg.png,,,,,,,,,,,,,,,,,,,,,,,,,,,,,,
null,,black_cross(without_color),776686,blue,,,,,null,US_Cities_List/mm_leesburg.png,US_Cities_List/mm_gatlinburg.png,,,,,,,,,,,,,,,,,,,,,,,,,,,,,,
null,,rt_plussign_withcolor,777199,blue,,,,,null,US_Cities_List/mm_leesburg.png,US_Cities_List/mm_gatlinburg.png,,,,,,,,,,,,,,,,,,,,,,,,,,,,,,
637.1999998,,rt_thecrossant_black,778526,black_plus_sign,,,,,49,,,1,0.974358974,,,,,,,,,,,,,,,,,,,,,,,,,,,,
null,,color_black,778639,black_plus_sign,,,,,null,,,,,,,,,,,,,,,,,,,,,,,,,,,,,,,,
null,,learn_phase(without_color),781189,black_plus_sign,,,,,null,US_Cities_List/mm_leesburg.png,US_Cities_List/nat_huntsville.png,,,,,,,,,,,,,,,,,,,,,,,,,,,,,,
null,,black_cross(without_color),781902,blue,,,,,null,US_Cities_List/mm_leesburg.png,US_Cities_List/nat_huntsville.png,,,,,,,,,,,,,,,,,,,,,,,,,,,,,,
null,,rt_plussign_withcolor,782415,blue,,,,,null,US_Cities_List/mm_leesburg.png,US_Cities_List/nat_huntsville.png,,,,,,,,,,,,,,,,,,,,,,,,,,,,,,
875,,rt_thecrossant_black,783727,black_plus_sign,,,,,49,,,1,0.974576271,,,,,,,,,,,,,,,,,,,,,,,,,,,,
null,,color_black,783839,black_plus_sign,,,,,null,,,,,,,,,,,,,,,,,,,,,,,,,,,,,,,,
null,,learn_phase(without_color),786383,black_plus_sign,,,,,null,US_Cities_List/mm_boulder.png,US_Cities_List/mm_newhope.png,,,,,,,,,,,,,,,,,,,,,,,,,,,,,,
null,,black_cross(without_color),786991,blue,,,,,null,US_Cities_List/mm_boulder.png,US_Cities_List/mm_newhope.png,,,,,,,,,,,,,,,,,,,,,,,,,,,,,,
null,,rt_plussign_withcolor,787504,blue,,,,,null,US_Cities_List/mm_boulder.png,US_Cities_List/mm_newhope.png,,,,,,,,,,,,,,,,,,,,,,,,,,,,,,
880.5,,rt_thecrossant_black,788916,black_plus_sign,,,,,49,,,1,0.974789916,,,,,,,,,,,,,,,,,,,,,,,,,,,,
null,,color_black,789022,black_plus_sign,,,,,null,,,,,,,,,,,,,,,,,,,,,,,,,,,,,,,,
null,,learn_phase(without_color),791567,black_plus_sign,,,,,null,US_Cities_List/mm_gatlinburg.png,US_Cities_List/nat_westpalmbeach.png,,,,,,,,,,,,,,,,,,,,,,,,,,,,,,
null,,black_cross(without_color),792293,blue,,,,,null,US_Cities_List/mm_gatlinburg.png,US_Cities_List/nat_westpalmbeach.png,,,,,,,,,,,,,,,,,,,,,,,,,,,,,,
null,,rt_plussign_withcolor,792799,blue,,,,,null,US_Cities_List/mm_gatlinburg.png,US_Cities_List/nat_westpalmbeach.png,,,,,,,,,,,,,,,,,,,,,,,,,,,,,,
753.5999994,,rt_thecrossant_black,794091,black_plus_sign,,,,,49,,,1,0.975,,,,,,,,,,,,,,,,,,,,,,,,,,,,
null,,color_black,794200,black_plus_sign,,,,,null,,,,,,,,,,,,,,,,,,,,,,,,,,,,,,,,
null,,learn_phase(without_color),796756,black_plus_sign,,,,,null,US_Cities_List/mm_newhope.png,US_Cities_List/mm_gatlinburg.png,,,,,,,,,,,,,,,,,,,,,,,,,,,,,,
null,,black_cross(without_color),797278,blue,,,,,null,US_Cities_List/mm_newhope.png,US_Cities_List/mm_gatlinburg.png,,,,,,,,,,,,,,,,,,,,,,,,,,,,,,
486.3999996,,rt_plussign_withcolor,797780,blue,,,,,49,US_Cities_List/mm_newhope.png,US_Cities_List/mm_gatlinburg.png,,,,,,,,,,,,,,,,,,,,,,,,,,,,,,
null,,rt_thecrossant_black,799279,black_plus_sign,,,,,null,,,1,0.975206612,,,,,,,,,,,,,,,,,,,,,,,,,,,,
null,,color_black,799391,black_plus_sign,,,,,null,,,,,,,,,,,,,,,,,,,,,,,,,,,,,,,,
null,,learn_phase(without_color),801941,black_plus_sign,,,,,null,US_Cities_List/nat_huntsville.png,US_Cities_List/nat_hanover.png,,,,,,,,,,,,,,,,,,,,,,,,,,,,,,
null,,black_cross(without_color),802655,green,,,,,null,US_Cities_List/nat_huntsville.png,US_Cities_List/nat_hanover.png,,,,,,,,,,,,,,,,,,,,,,,,,,,,,,
null,,rt_plussign_withcolor,803167,green,,,,,null,US_Cities_List/nat_huntsville.png,US_Cities_List/nat_hanover.png,,,,,,,,,,,,,,,,,,,,,,,,,,,,,,
838.2999992,,rt_thecrossant_black,804468,black_plus_sign,,,,,50,,,1,0.975409836,,,,,,,,,,,,,,,,,,,,,,,,,,,,
null,,color_black,804575,black_plus_sign,,,,,null,,,,,,,,,,,,,,,,,,,,,,,,,,,,,,,,
null,,learn_phase(without_color),807124,black_plus_sign,,,,,null,US_Cities_List/nat_cornwall.png,US_Cities_List/nat_racine.png,,,,,,,,,,,,,,,,,,,,,,,,,,,,,,
null,,black_cross(without_color),807748,blue,,,,,null,US_Cities_List/nat_cornwall.png,US_Cities_List/nat_racine.png,,,,,,,,,,,,,,,,,,,,,,,,,,,,,,
null,,rt_plussign_withcolor,808252,blue,,,,,null,US_Cities_List/nat_cornwall.png,US_Cities_List/nat_racine.png,,,,,,,,,,,,,,,,,,,,,,,,,,,,,,
888.8000002,,rt_thecrossant_black,809647,black_plus_sign,,,,,49,,,1,0.975609756,,,,,,,,,,,,,,,,,,,,,,,,,,,,
null,,color_black,809759,black_plus_sign,,,,,null,,,,,,,,,,,,,,,,,,,,,,,,,,,,,,,,
null,,learn_phase(without_color),812303,black_plus_sign,,,,,null,US_Cities_List/nat_carmel.png,US_Cities_List/nat_peoria.png,,,,,,,,,,,,,,,,,,,,,,,,,,,,,,
null,,black_cross(without_color),813039,green,,,,,null,US_Cities_List/nat_carmel.png,US_Cities_List/nat_peoria.png,,,,,,,,,,,,,,,,,,,,,,,,,,,,,,
null,,rt_plussign_withcolor,813551,green,,,,,null,US_Cities_List/nat_carmel.png,US_Cities_List/nat_peoria.png,,,,,,,,,,,,,,,,,,,,,,,,,,,,,,
942.3999996,,rt_thecrossant_black,814837,black_plus_sign,,,,,50,,,1,0.975806452,,,,,,,,,,,,,,,,,,,,,,,,,,,,
null,,color_black,814941,black_plus_sign,,,,,null,,,,,,,,,,,,,,,,,,,,,,,,,,,,,,,,
null,,learn_phase(without_color),817494,black_plus_sign,,,,,null,US_Cities_List/nat_racine.png,US_Cities_List/nat_carmel.png,,,,,,,,,,,,,,,,,,,,,,,,,,,,,,
null,,black_cross(without_color),818431,blue,,,,,null,US_Cities_List/nat_racine.png,US_Cities_List/nat_carmel.png,,,,,,,,,,,,,,,,,,,,,,,,,,,,,,
null,,rt_plussign_withcolor,818942,blue,,,,,null,US_Cities_List/nat_racine.png,US_Cities_List/nat_carmel.png,,,,,,,,,,,,,,,,,,,,,,,,,,,,,,
1172.5,,rt_thecrossant_black,820021,black_plus_sign,,,,,49,,,1,0.976,,,,,,,,,,,,,,,,,,,,,,,,,,,,
null,,color_black,820133,black_plus_sign,,,,,null,,,,,,,,,,,,,,,,,,,,,,,,,,,,,,,,
null,,learn_phase(without_color),822676,black_plus_sign,,,,,null,US_Cities_List/mm_boulder.png,US_Cities_List/mm_newhope.png,,,,,,,,,,,,,,,,,,,,,,,,,,,,,,
null,,black_cross(without_color),823317,blue,,,,,null,US_Cities_List/mm_boulder.png,US_Cities_List/mm_newhope.png,,,,,,,,,,,,,,,,,,,,,,,,,,,,,,
null,,rt_plussign_withcolor,823823,blue,,,,,null,US_Cities_List/mm_boulder.png,US_Cities_List/mm_newhope.png,,,,,,,,,,,,,,,,,,,,,,,,,,,,,,
1118.299999,,rt_thecrossant_black,825206,black_plus_sign,,,,,49,,,1,0.976190476,,,,,,,,,,,,,,,,,,,,,,,,,,,,
null,,color_black,825318,black_plus_sign,,,,,null,,,,,,,,,,,,,,,,,,,,,,,,,,,,,,,,
null,,learn_phase(without_color),827879,black_plus_sign,,,,,null,US_Cities_List/nat_huntsville.png,US_Cities_List/nat_hanover.png,,,,,,,,,,,,,,,,,,,,,,,,,,,,,,
null,,black_cross(without_color),828325,green,,,,,null,US_Cities_List/nat_huntsville.png,US_Cities_List/nat_hanover.png,,,,,,,,,,,,,,,,,,,,,,,,,,,,,,
null,,rt_plussign_withcolor,828831,green,,,,,null,US_Cities_List/nat_huntsville.png,US_Cities_List/nat_hanover.png,,,,,,,,,,,,,,,,,,,,,,,,,,,,,,
1019.5,,rt_thecrossant_black,830405,black_plus_sign,,,,,50,,,1,0.976377953,,,,,,,,,,,,,,,,,,,,,,,,,,,,
null,,color_black,830509,black_plus_sign,,,,,null,,,,,,,,,,,,,,,,,,,,,,,,,,,,,,,,
7708.9,,intro_1,838223,instruct,,,0,,,,,,,,,,,,,,,,,,,,,,,,,,,,,,,,,,
16886.7,,intro_2,855118,instruct,,,1,Next,,,,,,,,,,,,,,,,,,,,,,,,,,,,,,,,,
5308.5,,directmemory_phase,860544,../static/images/US_Cities_List/mm_newhope.png,,,,,49,,,1,1,../static/images/US_Cities_List/mm_gatlinburg.png,../static/images/US_Cities_List/nat_carmel.png,../static/images/US_Cities_List/nat_hotsprings.png,../static/images/US_Cities_List/mm_gatlinburg.png,../static/images/US_Cities_List/nat_hotsprings.png,../static/images/US_Cities_List/nat_carmel.png,1,,,,,,,,,,,,,,,,,,,,,
null,,html-keyboard-response,861561,<p></p>,,,,,null,,,,,,,,,,,,,,,,,,,,,,,,,,,,,,,,
447,,directmemory_phase,862080,../static/images/US_Cities_List/nat_racine.png,,,,,51,,,1,1,../static/images/US_Cities_List/mm_gatlinburg.png,../static/images/US_Cities_List/mm_shreveport.png,../static/images/US_Cities_List/mm_boulder.png,../static/images/US_Cities_List/mm_boulder.png,../static/images/US_Cities_List/mm_shreveport.png,../static/images/US_Cities_List/mm_gatlinburg.png,1,,,,,,,,,,,,,,,,,,,,,
null,,html-keyboard-response,863094,<p></p>,,,,,null,,,,,,,,,,,,,,,,,,,,,,,,,,,,,,,,
1082.8,,directmemory_phase,864243,../static/images/US_Cities_List/nat_hanover.png,,,,,49,,,1,1,../static/images/US_Cities_List/nat_huntsville.png,../static/images/US_Cities_List/nat_hotsprings.png,../static/images/US_Cities_List/mm_gatlinburg.png,../static/images/US_Cities_List/nat_huntsville.png,../static/images/US_Cities_List/mm_gatlinburg.png,../static/images/US_Cities_List/nat_hotsprings.png,1,,,,,,,,,,,,,,,,,,,,,
null,,html-keyboard-response,865253,<p></p>,,,,,null,,,,,,,,,,,,,,,,,,,,,,,,,,,,,,,,
1584.3,,directmemory_phase,866907,../static/images/US_Cities_List/nat_racine.png,,,,,49,,,0,0.75,../static/images/US_Cities_List/mm_leesburg.png,../static/images/US_Cities_List/nat_peoria.png,../static/images/US_Cities_List/nat_carmel.png,../static/images/US_Cities_List/nat_carmel.png,../static/images/US_Cities_List/nat_peoria.png,../static/images/US_Cities_List/mm_leesburg.png,0.5,closer,,,,,,,,,,,,,,,,,,,,
null,,html-keyboard-response,867924,<p></p>,,,,,null,,,,,,,,,,,,,,,,,,,,,,,,,,,,,,,,
2928.9,,directmemory_phase,870925,../static/images/US_Cities_List/nat_huntsville.png,,,,,51,,,1,0.8,../static/images/US_Cities_List/nat_carmel.png,../static/images/US_Cities_List/nat_hotsprings.png,../static/images/US_Cities_List/nat_hanover.png,../static/images/US_Cities_List/nat_hanover.png,../static/images/US_Cities_List/nat_hotsprings.png,../static/images/US_Cities_List/nat_carmel.png,1,,,,,,,,,,,,,,,,,,,,,
null,,html-keyboard-response,871941,<p></p>,,,,,null,,,,,,,,,,,,,,,,,,,,,,,,,,,,,,,,
2971.5,,directmemory_phase,874980,../static/images/US_Cities_List/nat_westpalmbeach.png,,,,,49,,,0,0.666666667,../static/images/US_Cities_List/nat_hotsprings.png,../static/images/US_Cities_List/nat_huntsville.png,../static/images/US_Cities_List/nat_peoria.png,../static/images/US_Cities_List/nat_peoria.png,../static/images/US_Cities_List/nat_huntsville.png,../static/images/US_Cities_List/nat_hotsprings.png,0.5,closer,,,,,,,,,,,,,,,,,,,,
null,,html-keyboard-response,876001,<p></p>,,,,,null,,,,,,,,,,,,,,,,,,,,,,,,,,,,,,,,
3717.2,,directmemory_phase,879786,../static/images/US_Cities_List/nat_huntsville.png,,,,,50,,,1,0.714285714,../static/images/US_Cities_List/nat_westpalmbeach.png,../static/images/US_Cities_List/mm_gatlinburg.png,../static/images/US_Cities_List/mm_boulder.png,../static/images/US_Cities_List/mm_gatlinburg.png,../static/images/US_Cities_List/nat_westpalmbeach.png,../static/images/US_Cities_List/mm_boulder.png,1,,,,,,,,,,,,,,,,,,,,,
null,,html-keyboard-response,880806,<p></p>,,,,,null,,,,,,,,,,,,,,,,,,,,,,,,,,,,,,,,
1932.099999,,directmemory_phase,882808,../static/images/US_Cities_List/nat_cornwall.png,,,,,49,,,0,0.625,../static/images/US_Cities_List/nat_peoria.png,../static/images/US_Cities_List/nat_carmel.png,../static/images/US_Cities_List/nat_racine.png,../static/images/US_Cities_List/nat_racine.png,../static/images/US_Cities_List/nat_carmel.png,../static/images/US_Cities_List/nat_peoria.png,0.5,closer,,,,,,,,,,,,,,,,,,,,
null,,html-keyboard-response,883824,<p></p>,,,,,null,,,,,,,,,,,,,,,,,,,,,,,,,,,,,,,,
3073.8,,directmemory_phase,886966,../static/images/US_Cities_List/mm_leesburg.png,,,,,51,,,1,0.666666667,../static/images/US_Cities_List/nat_peoria.png,../static/images/US_Cities_List/nat_hanover.png,../static/images/US_Cities_List/nat_hotsprings.png,../static/images/US_Cities_List/nat_hotsprings.png,../static/images/US_Cities_List/nat_hanover.png,../static/images/US_Cities_List/nat_peoria.png,1,,,,,,,,,,,,,,,,,,,,,
null,,html-keyboard-response,887984,<p></p>,,,,,null,,,,,,,,,,,,,,,,,,,,,,,,,,,,,,,,
1725.4,,directmemory_phase,889773,../static/images/US_Cities_List/mm_boulder.png,,,,,49,,,1,0.7,../static/images/US_Cities_List/mm_newhope.png,../static/images/US_Cities_List/nat_hotsprings.png,../static/images/US_Cities_List/mm_leesburg.png,../static/images/US_Cities_List/mm_newhope.png,../static/images/US_Cities_List/mm_leesburg.png,../static/images/US_Cities_List/nat_hotsprings.png,1,,,,,,,,,,,,,,,,,,,,,
null,,html-keyboard-response,890793,<p></p>,,,,,null,,,,,,,,,,,,,,,,,,,,,,,,,,,,,,,,
2708.8,,directmemory_phase,893573,../static/images/US_Cities_List/nat_westpalmbeach.png,,,,,49,,,0,0.636363636,../static/images/US_Cities_List/mm_shreveport.png,../static/images/US_Cities_List/nat_carmel.png,../static/images/US_Cities_List/mm_gatlinburg.png,../static/images/US_Cities_List/mm_gatlinburg.png,../static/images/US_Cities_List/nat_carmel.png,../static/images/US_Cities_List/mm_shreveport.png,0.5,closer,,,,,,,,,,,,,,,,,,,,
null,,html-keyboard-response,894593,<p></p>,,,,,null,,,,,,,,,,,,,,,,,,,,,,,,,,,,,,,,
2908.5,,directmemory_phase,897563,../static/images/US_Cities_List/mm_newhope.png,,,,,50,,,1,0.666666667,../static/images/US_Cities_List/nat_huntsville.png,../static/images/US_Cities_List/mm_leesburg.png,../static/images/US_Cities_List/nat_hanover.png,../static/images/US_Cities_List/mm_leesburg.png,../static/images/US_Cities_List/nat_huntsville.png,../static/images/US_Cities_List/nat_hanover.png,1,,,,,,,,,,,,,,,,,,,,,
null,,html-keyboard-response,898576,<p></p>,,,,,null,,,,,,,,,,,,,,,,,,,,,,,,,,,,,,,,
2253.4,,directmemory_phase,900892,../static/images/US_Cities_List/mm_boulder.png,,,,,49,,,1,0.692307692,../static/images/US_Cities_List/nat_westpalmbeach.png,../static/images/US_Cities_List/nat_hotsprings.png,../static/images/US_Cities_List/mm_leesburg.png,../static/images/US_Cities_List/nat_westpalmbeach.png,../static/images/US_Cities_List/mm_leesburg.png,../static/images/US_Cities_List/nat_hotsprings.png,1,,,,,,,,,,,,,,,,,,,,,
null,,html-keyboard-response,901912,<p></p>,,,,,null,,,,,,,,,,,,,,,,,,,,,,,,,,,,,,,,
3961.6,,directmemory_phase,905946,../static/images/US_Cities_List/nat_hotsprings.png,,,,,51,,,0,0.642857143,../static/images/US_Cities_List/mm_leesburg.png,../static/images/US_Cities_List/nat_peoria.png,../static/images/US_Cities_List/mm_gatlinburg.png,../static/images/US_Cities_List/mm_leesburg.png,../static/images/US_Cities_List/mm_gatlinburg.png,../static/images/US_Cities_List/nat_peoria.png,0.5,closer,,,,,,,,,,,,,,,,,,,,
null,,html-keyboard-response,906961,<p></p>,,,,,null,,,,,,,,,,,,,,,,,,,,,,,,,,,,,,,,
2804.2,,directmemory_phase,909832,../static/images/US_Cities_List/nat_peoria.png,,,,,49,,,0,0.6,../static/images/US_Cities_List/nat_hotsprings.png,../static/images/US_Cities_List/nat_racine.png,../static/images/US_Cities_List/nat_carmel.png,../static/images/US_Cities_List/nat_carmel.png,../static/images/US_Cities_List/nat_racine.png,../static/images/US_Cities_List/nat_hotsprings.png,0.5,closer,,,,,,,,,,,,,,,,,,,,
null,,html-keyboard-response,910849,<p></p>,,,,,null,,,,,,,,,,,,,,,,,,,,,,,,,,,,,,,,
3124.1,,directmemory_phase,914043,../static/images/US_Cities_List/mm_newhope.png,,,,,51,,,1,0.625,../static/images/US_Cities_List/nat_hanover.png,../static/images/US_Cities_List/nat_westpalmbeach.png,../static/images/US_Cities_List/mm_boulder.png,../static/images/US_Cities_List/mm_boulder.png,../static/images/US_Cities_List/nat_westpalmbeach.png,../static/images/US_Cities_List/nat_hanover.png,1,,,,,,,,,,,,,,,,,,,,,
null,,html-keyboard-response,915057,<p></p>,,,,,null,,,,,,,,,,,,,,,,,,,,,,,,,,,,,,,,
3212.9,,directmemory_phase,918358,../static/images/US_Cities_List/nat_racine.png,,,,,51,,,1,0.647058824,../static/images/US_Cities_List/nat_huntsville.png,../static/images/US_Cities_List/mm_shreveport.png,../static/images/US_Cities_List/nat_cornwall.png,../static/images/US_Cities_List/nat_cornwall.png,../static/images/US_Cities_List/mm_shreveport.png,../static/images/US_Cities_List/nat_huntsville.png,1,,,,,,,,,,,,,,,,,,,,,
null,,html-keyboard-response,919377,<p></p>,,,,,null,,,,,,,,,,,,,,,,,,,,,,,,,,,,,,,,
2675.799999,,directmemory_phase,922118,../static/images/US_Cities_List/nat_westpalmbeach.png,,,,,51,,,1,0.666666667,../static/images/US_Cities_List/nat_cornwall.png,../static/images/US_Cities_List/nat_racine.png,../static/images/US_Cities_List/mm_boulder.png,../static/images/US_Cities_List/mm_boulder.png,../static/images/US_Cities_List/nat_racine.png,../static/images/US_Cities_List/nat_cornwall.png,1,,,,,,,,,,,,,,,,,,,,,
null,,html-keyboard-response,923136,<p></p>,,,,,null,,,,,,,,,,,,,,,,,,,,,,,,,,,,,,,,
2070.2,,directmemory_phase,925265,../static/images/US_Cities_List/mm_leesburg.png,,,,,49,,,0,0.631578947,../static/images/US_Cities_List/nat_cornwall.png,../static/images/US_Cities_List/nat_hanover.png,../static/images/US_Cities_List/mm_newhope.png,../static/images/US_Cities_List/mm_newhope.png,../static/images/US_Cities_List/nat_hanover.png,../static/images/US_Cities_List/nat_cornwall.png,0.5,closer,,,,,,,,,,,,,,,,,,,,
null,,html-keyboard-response,926278,<p></p>,,,,,null,,,,,,,,,,,,,,,,,,,,,,,,,,,,,,,,
2885.5,,directmemory_phase,929231,../static/images/US_Cities_List/mm_boulder.png,,,,,50,,,0,0.6,../static/images/US_Cities_List/nat_hotsprings.png,../static/images/US_Cities_List/nat_carmel.png,../static/images/US_Cities_List/nat_racine.png,../static/images/US_Cities_List/nat_racine.png,../static/images/US_Cities_List/nat_carmel.png,../static/images/US_Cities_List/nat_hotsprings.png,0.5,closer,,,,,,,,,,,,,,,,,,,,
null,,html-keyboard-response,930246,<p></p>,,,,,null,,,,,,,,,,,,,,,,,,,,,,,,,,,,,,,,
2663.700001,,directmemory_phase,932975,../static/images/US_Cities_List/mm_gatlinburg.png,,,,,49,,,1,0.619047619,../static/images/US_Cities_List/nat_westpalmbeach.png,../static/images/US_Cities_List/nat_carmel.png,../static/images/US_Cities_List/nat_hanover.png,../static/images/US_Cities_List/nat_westpalmbeach.png,../static/images/US_Cities_List/nat_hanover.png,../static/images/US_Cities_List/nat_carmel.png,1,,,,,,,,,,,,,,,,,,,,,
null,,html-keyboard-response,933991,<p></p>,,,,,null,,,,,,,,,,,,,,,,,,,,,,,,,,,,,,,,
3540.9,,directmemory_phase,937599,../static/images/US_Cities_List/nat_carmel.png,,,,,49,,,0,0.590909091,../static/images/US_Cities_List/mm_newhope.png,../static/images/US_Cities_List/nat_cornwall.png,../static/images/US_Cities_List/nat_racine.png,../static/images/US_Cities_List/nat_racine.png,../static/images/US_Cities_List/nat_cornwall.png,../static/images/US_Cities_List/mm_newhope.png,0.5,closer,,,,,,,,,,,,,,,,,,,,
null,,html-keyboard-response,938618,<p></p>,,,,,null,,,,,,,,,,,,,,,,,,,,,,,,,,,,,,,,
2306.7,,directmemory_phase,940990,../static/images/US_Cities_List/mm_leesburg.png,,,,,51,,,1,0.608695652,../static/images/US_Cities_List/nat_cornwall.png,../static/images/US_Cities_List/nat_hanover.png,../static/images/US_Cities_List/mm_gatlinburg.png,../static/images/US_Cities_List/mm_gatlinburg.png,../static/images/US_Cities_List/nat_hanover.png,../static/images/US_Cities_List/nat_cornwall.png,1,,,,,,,,,,,,,,,,,,,,,
null,,html-keyboard-response,942009,<p></p>,,,,,null,,,,,,,,,,,,,,,,,,,,,,,,,,,,,,,,
2502.7,,directmemory_phase,944579,../static/images/US_Cities_List/nat_carmel.png,,,,,50,,,0,0.583333333,../static/images/US_Cities_List/nat_peoria.png,../static/images/US_Cities_List/mm_leesburg.png,../static/images/US_Cities_List/nat_westpalmbeach.png,../static/images/US_Cities_List/nat_peoria.png,../static/images/US_Cities_List/nat_westpalmbeach.png,../static/images/US_Cities_List/mm_leesburg.png,0.5,closer,,,,,,,,,,,,,,,,,,,,
null,,html-keyboard-response,945601,<p></p>,,,,,null,,,,,,,,,,,,,,,,,,,,,,,,,,,,,,,,
2281.5,,directmemory_phase,947956,../static/images/US_Cities_List/nat_huntsville.png,,,,,50,,,1,0.6,../static/images/US_Cities_List/mm_newhope.png,../static/images/US_Cities_List/mm_leesburg.png,../static/images/US_Cities_List/nat_racine.png,../static/images/US_Cities_List/mm_leesburg.png,../static/images/US_Cities_List/mm_newhope.png,../static/images/US_Cities_List/nat_racine.png,1,,,,,,,,,,,,,,,,,,,,,
null,,html-keyboard-response,948968,<p></p>,,,,,null,,,,,,,,,,,,,,,,,,,,,,,,,,,,,,,,
4389.2,,directmemory_phase,953428,../static/images/US_Cities_List/mm_gatlinburg.png,,,,,50,,,0,0.576923077,../static/images/US_Cities_List/nat_carmel.png,../static/images/US_Cities_List/nat_hotsprings.png,../static/images/US_Cities_List/mm_newhope.png,../static/images/US_Cities_List/mm_newhope.png,../static/images/US_Cities_List/nat_hotsprings.png,../static/images/US_Cities_List/nat_carmel.png,0.5,closer,,,,,,,,,,,,,,,,,,,,
