rt,responses,trial_type,time_elapsed,stimulus,cities,city_images,button_pressed,response,key_press,stimulus_left,stimulus_right,cumulative_accuracy,accuracy,stimulus_down_left,stimulus_down_mid,stimulus_down_right,stimulus_correct,stimulus_short,stimulus_far,weighted_accuracy,missedtrial,condition,specific_pairs,imgL_ID,imgR_ID,linedress,linedressed,image_position,unknowncity,testedstates,currentstate,otherstate,problems,smooth,distraction,strategies,easier,similar,comments,,
6187.9,{worker_id:5cba50bf114fa5001aac5570},id_enter,6190,intro,Shreveport; Leesburg; Boulder; Hanover; Cornwall; New Hope; Hot Springs; Racine; Gatlinburg; Carmel; West Palm Beach; Peoria; Huntsville,US_Cities_List/nat_shreveport.png; US_Cities_List/nat_leesburg.png; US_Cities_List/mm_boulder.png; US_Cities_List/nat_hanover.png; US_Cities_List/mm_cornwall.png; US_Cities_List/nat_newhope.png; US_Cities_List/nat_hotsprings.png; US_Cities_List/mm_racine.png; US_Cities_List/nat_gatlinburg.png; US_Cities_List/mm_carmel.png; US_Cities_List/mm_westpalmbeach.png; US_Cities_List/nat_peoria.png; US_Cities_List/mm_huntsville.png,,,,,,,,,,,,,,,,,,,,,,,,,,,,,,,,,,,
10192.8,,fullscreen,16386,make_fullscreen,,,0,,,,,,,,,,,,,,,,,,,,,,,,,,,,,,,,,,
12793.7,,intro_1,29181,instruct,,,0,,,,,,,,,,,,,,,,,,,,,,,,,,,,,,,,,,
13258.9,,intro_2,42441,instruct,,,1,Next,,,,,,,,,,,,,,,,,,,,,,,,,,,,,,,,,
11140,,intro_3,53582,instruct,,,1,Next,,,,,,,,,,,,,,,,,,,,,,,,,,,,,,,,,
8286,,intro_4,61869,instruct,,,1,Next,,,,,,,,,,,,,,,,,,,,,,,,,,,,,,,,,
5752.3,,intro_5,67622,instruct,,,1,Next,,,,,,,,,,,,,,,,,,,,,,,,,,,,,,,,,
27476.2,,intro_6,95099,instruct,,,1,Next,,,,,,,,,,,,,,,,,,,,,,,,,,,,,,,,,
null,,prac_atten_color_black,95567,black_plus_sign,,,,,null,,,,,,,,,,,,,,,,,,,,,,,,,,,,,,,,
781.6999999,,prac_atten_color,96503,prac_stop_color,,,,,49,,,,,,,,,,,,,,,,,,,,,,,,,,,,,,,,
null,,prac_atten_color_black,98505,black_plus_sign,,,,,null,,,,,,,,,,,,,,,,,,,,,,,,,,,,,,,,
null,,prac_atten_color_black,98972,black_plus_sign,,,,,null,,,,,,,,,,,,,,,,,,,,,,,,,,,,,,,,
null,,prac_atten_color,99492,prac_stop_color,,,,,null,,,,,,,,,,,,,,,,,,,,,,,,,,,,,,,,
231.1999999,,prac_atten_color_black,101493,black_plus_sign,,,,,50,,,,,,,,,,,,,,,,,,,,,,,,,,,,,,,,
null,,prac_atten_color_black,102378,black_plus_sign,,,,,null,,,,,,,,,,,,,,,,,,,,,,,,,,,,,,,,
476.1999999,,prac_atten_color,103140,prac_stop_color,,,,,50,,,,,,,,,,,,,,,,,,,,,,,,,,,,,,,,
null,,prac_atten_color_black,105141,black_plus_sign,,,,,null,,,,,,,,,,,,,,,,,,,,,,,,,,,,,,,,
null,,prac_atten_color_black,105781,black_plus_sign,,,,,null,,,,,,,,,,,,,,,,,,,,,,,,,,,,,,,,
572,,prac_atten_color,106774,prac_stop_color,,,,,49,,,,,,,,,,,,,,,,,,,,,,,,,,,,,,,,
null,,prac_atten_color_black,108777,black_plus_sign,,,,,null,,,,,,,,,,,,,,,,,,,,,,,,,,,,,,,,
null,,prac_atten_color_black,109187,black_plus_sign,,,,,null,,,,,,,,,,,,,,,,,,,,,,,,,,,,,,,,
null,,prac_atten_color,109610,prac_stop_color,,,,,null,,,,,,,,,,,,,,,,,,,,,,,,,,,,,,,,
99.39999998,,prac_atten_color_black,111612,black_plus_sign,,,,,50,,,,,,,,,,,,,,,,,,,,,,,,,,,,,,,,
null,,prac_atten_color_black,112603,black_plus_sign,,,,,null,,,,,,,,,,,,,,,,,,,,,,,,,,,,,,,,
424.9,,prac_atten_color,113677,prac_stop_color,,,,,50,,,,,,,,,,,,,,,,,,,,,,,,,,,,,,,,
null,,prac_atten_color_black,115678,black_plus_sign,,,,,null,,,,,,,,,,,,,,,,,,,,,,,,,,,,,,,,
null,,prac_atten_color_black,116008,black_plus_sign,,,,,null,,,,,,,,,,,,,,,,,,,,,,,,,,,,,,,,
573.3000001,,prac_atten_color,116847,prac_stop_color,,,,,49,,,,,,,,,,,,,,,,,,,,,,,,,,,,,,,,
null,,prac_atten_color_black,118848,black_plus_sign,,,,,null,,,,,,,,,,,,,,,,,,,,,,,,,,,,,,,,
null,,prac_atten_color_black,119414,black_plus_sign,,,,,null,,,,,,,,,,,,,,,,,,,,,,,,,,,,,,,,
null,,prac_atten_color,119870,prac_stop_color,,,,,null,,,,,,,,,,,,,,,,,,,,,,,,,,,,,,,,
84.39999998,,prac_atten_color_black,121872,black_plus_sign,,,,,49,,,,,,,,,,,,,,,,,,,,,,,,,,,,,,,,
11612.2,,attentioncheck_help,133485,instruct,,,,,32,,,,,,,,,,,,,,,,,,,,,,,,,,,,,,,,
null,,prac_atten_color_black,134432,black_plus_sign,,,,,null,,,,,,,,,,,,,,,,,,,,,,,,,,,,,,,,
null,,prac_atten_color,135102,prac_stop_color,,,,,null,,,,,,,,,,,,,,,,,,,,,,,,,,,,,,,,
484.4,,prac_atten_color_black,137103,black_plus_sign,,,,,49,,,,,,,,,,,,,,,,,,,,,,,,,,,,,,,,
null,,prac_atten_color_black,137836,black_plus_sign,,,,,null,,,,,,,,,,,,,,,,,,,,,,,,,,,,,,,,
null,,prac_atten_color,138584,prac_stop_color,,,,,null,,,,,,,,,,,,,,,,,,,,,,,,,,,,,,,,
18.29999995,,prac_atten_color_black,140585,black_plus_sign,,,,,49,,,,,,,,,,,,,,,,,,,,,,,,,,,,,,,,
6961.3,,attentioncheck_feedback,147547,cross_check_feedback,,,0,,,,,,,,,,,,,,,,,,,,,,,,,,,,,,,,,,
10633.4,,last_instruct,158181,instruct,,,,,32,,,,,,,,,,,,,,,,,,,,,,,,,,,,,,,,
null,,learn_phase(without_color),160198,black_plus_sign,,,,,null,US_Cities_List/nat_shreveport.png,US_Cities_List/nat_leesburg.png,,,,,,,,,,,,,,,,,,,,,,,,,,,,,,
null,,black_cross(without_color),161134,blue,,,,,null,US_Cities_List/nat_shreveport.png,US_Cities_List/nat_leesburg.png,,,,,,,,,,,,,,,,,,,,,,,,,,,,,,
null,,rt_plussign_withcolor,161636,blue,,,,,null,US_Cities_List/nat_shreveport.png,US_Cities_List/nat_leesburg.png,,,,,,,,,,,,,,,,,,,,,,,,,,,,,,
null,,rt_thecrossant_black,162703,black_plus_sign,,,,,null,,,NaN,,,,,,,,,,,,,,,,,,,,,,,,,,,,,
null,,color_black,162805,black_plus_sign,,,,,null,,,,,,,,,,,,,,,,,,,,,,,,,,,,,,,,
null,,learn_phase(without_color),165327,black_plus_sign,,,,,null,US_Cities_List/mm_westpalmbeach.png,US_Cities_List/nat_peoria.png,,,,,,,,,,,,,,,,,,,,,,,,,,,,,,
null,,black_cross(without_color),166121,green,,,,,null,US_Cities_List/mm_westpalmbeach.png,US_Cities_List/nat_peoria.png,,,,,,,,,,,,,,,,,,,,,,,,,,,,,,
null,,rt_plussign_withcolor,166622,green,,,,,null,US_Cities_List/mm_westpalmbeach.png,US_Cities_List/nat_peoria.png,,,,,,,,,,,,,,,,,,,,,,,,,,,,,,
1574,,rt_thecrossant_black,167832,black_plus_sign,,,,,50,,,1,1,,,,,,,,,,,,,,,,,,,,,,,,,,,,
null,,color_black,167934,black_plus_sign,,,,,null,,,,,,,,,,,,,,,,,,,,,,,,,,,,,,,,
null,,learn_phase(without_color),170454,black_plus_sign,,,,,null,US_Cities_List/mm_boulder.png,US_Cities_List/nat_newhope.png,,,,,,,,,,,,,,,,,,,,,,,,,,,,,,
null,,black_cross(without_color),171147,blue,,,,,null,US_Cities_List/mm_boulder.png,US_Cities_List/nat_newhope.png,,,,,,,,,,,,,,,,,,,,,,,,,,,,,,
null,,rt_plussign_withcolor,171649,blue,,,,,null,US_Cities_List/mm_boulder.png,US_Cities_List/nat_newhope.png,,,,,,,,,,,,,,,,,,,,,,,,,,,,,,
1490.3,,rt_thecrossant_black,172960,black_plus_sign,,,,,49,,,1,1,,,,,,,,,,,,,,,,,,,,,,,,,,,,
null,,color_black,173061,black_plus_sign,,,,,null,,,,,,,,,,,,,,,,,,,,,,,,,,,,,,,,
null,,learn_phase(without_color),175586,black_plus_sign,,,,,null,US_Cities_List/nat_newhope.png,US_Cities_List/nat_gatlinburg.png,,,,,,,,,,,,,,,,,,,,,,,,,,,,,,
null,,black_cross(without_color),175996,green,,,,,null,US_Cities_List/nat_newhope.png,US_Cities_List/nat_gatlinburg.png,,,,,,,,,,,,,,,,,,,,,,,,,,,,,,
null,,rt_plussign_withcolor,176498,green,,,,,null,US_Cities_List/nat_newhope.png,US_Cities_List/nat_gatlinburg.png,,,,,,,,,,,,,,,,,,,,,,,,,,,,,,
942.1999999,,rt_thecrossant_black,178091,black_plus_sign,,,,,50,,,1,1,,,,,,,,,,,,,,,,,,,,,,,,,,,,
null,,color_black,178198,black_plus_sign,,,,,null,,,,,,,,,,,,,,,,,,,,,,,,,,,,,,,,
null,,learn_phase(without_color),180723,black_plus_sign,,,,,null,US_Cities_List/nat_shreveport.png,US_Cities_List/nat_leesburg.png,,,,,,,,,,,,,,,,,,,,,,,,,,,,,,
null,,black_cross(without_color),181469,blue,,,,,null,US_Cities_List/nat_shreveport.png,US_Cities_List/nat_leesburg.png,,,,,,,,,,,,,,,,,,,,,,,,,,,,,,
null,,rt_plussign_withcolor,181971,blue,,,,,null,US_Cities_List/nat_shreveport.png,US_Cities_List/nat_leesburg.png,,,,,,,,,,,,,,,,,,,,,,,,,,,,,,
868.1,,rt_thecrossant_black,183229,black_plus_sign,,,,,49,,,1,1,,,,,,,,,,,,,,,,,,,,,,,,,,,,
null,,color_black,183330,black_plus_sign,,,,,null,,,,,,,,,,,,,,,,,,,,,,,,,,,,,,,,
null,,learn_phase(without_color),185849,black_plus_sign,,,,,null,US_Cities_List/nat_hanover.png,US_Cities_List/mm_cornwall.png,,,,,,,,,,,,,,,,,,,,,,,,,,,,,,
null,,black_cross(without_color),186646,blue,,,,,null,US_Cities_List/nat_hanover.png,US_Cities_List/mm_cornwall.png,,,,,,,,,,,,,,,,,,,,,,,,,,,,,,
null,,rt_plussign_withcolor,187148,blue,,,,,null,US_Cities_List/nat_hanover.png,US_Cities_List/mm_cornwall.png,,,,,,,,,,,,,,,,,,,,,,,,,,,,,,
1155.1,,rt_thecrossant_black,188355,black_plus_sign,,,,,49,,,1,1,,,,,,,,,,,,,,,,,,,,,,,,,,,,
null,,color_black,188457,black_plus_sign,,,,,null,,,,,,,,,,,,,,,,,,,,,,,,,,,,,,,,
null,,learn_phase(without_color),190974,black_plus_sign,,,,,null,US_Cities_List/nat_hotsprings.png,US_Cities_List/mm_huntsville.png,,,,,,,,,,,,,,,,,,,,,,,,,,,,,,
null,,black_cross(without_color),191810,green,,,,,null,US_Cities_List/nat_hotsprings.png,US_Cities_List/mm_huntsville.png,,,,,,,,,,,,,,,,,,,,,,,,,,,,,,
null,,rt_plussign_withcolor,192322,green,,,,,null,US_Cities_List/nat_hotsprings.png,US_Cities_List/mm_huntsville.png,,,,,,,,,,,,,,,,,,,,,,,,,,,,,,
1222.4,,rt_thecrossant_black,193489,black_plus_sign,,,,,50,,,1,1,,,,,,,,,,,,,,,,,,,,,,,,,,,,
null,,color_black,193602,black_plus_sign,,,,,null,,,,,,,,,,,,,,,,,,,,,,,,,,,,,,,,
null,,learn_phase(without_color),196131,black_plus_sign,,,,,null,US_Cities_List/mm_boulder.png,US_Cities_List/mm_westpalmbeach.png,,,,,,,,,,,,,,,,,,,,,,,,,,,,,,
null,,black_cross(without_color),196735,green,,,,,null,US_Cities_List/mm_boulder.png,US_Cities_List/mm_westpalmbeach.png,,,,,,,,,,,,,,,,,,,,,,,,,,,,,,
null,,rt_plussign_withcolor,197237,green,,,,,null,US_Cities_List/mm_boulder.png,US_Cities_List/mm_westpalmbeach.png,,,,,,,,,,,,,,,,,,,,,,,,,,,,,,
1052.1,,rt_thecrossant_black,198651,black_plus_sign,,,,,50,,,1,1,,,,,,,,,,,,,,,,,,,,,,,,,,,,
null,,color_black,198753,black_plus_sign,,,,,null,,,,,,,,,,,,,,,,,,,,,,,,,,,,,,,,
null,,learn_phase(without_color),201280,black_plus_sign,,,,,null,US_Cities_List/nat_newhope.png,US_Cities_List/nat_gatlinburg.png,,,,,,,,,,,,,,,,,,,,,,,,,,,,,,
null,,black_cross(without_color),201890,green,,,,,null,US_Cities_List/nat_newhope.png,US_Cities_List/nat_gatlinburg.png,,,,,,,,,,,,,,,,,,,,,,,,,,,,,,
null,,rt_plussign_withcolor,202392,green,,,,,null,US_Cities_List/nat_newhope.png,US_Cities_List/nat_gatlinburg.png,,,,,,,,,,,,,,,,,,,,,,,,,,,,,,
868.1,,rt_thecrossant_black,203784,black_plus_sign,,,,,50,,,1,1,,,,,,,,,,,,,,,,,,,,,,,,,,,,
null,,color_black,203886,black_plus_sign,,,,,null,,,,,,,,,,,,,,,,,,,,,,,,,,,,,,,,
null,,learn_phase(without_color),206409,black_plus_sign,,,,,null,US_Cities_List/nat_newhope.png,US_Cities_List/nat_hotsprings.png,,,,,,,,,,,,,,,,,,,,,,,,,,,,,,
null,,black_cross(without_color),207041,green,,,,,null,US_Cities_List/nat_newhope.png,US_Cities_List/nat_hotsprings.png,,,,,,,,,,,,,,,,,,,,,,,,,,,,,,
null,,rt_plussign_withcolor,207548,green,,,,,null,US_Cities_List/nat_newhope.png,US_Cities_List/nat_hotsprings.png,,,,,,,,,,,,,,,,,,,,,,,,,,,,,,
815.3000001,,rt_thecrossant_black,208929,black_plus_sign,,,,,50,,,1,1,,,,,,,,,,,,,,,,,,,,,,,,,,,,
null,,color_black,209029,black_plus_sign,,,,,null,,,,,,,,,,,,,,,,,,,,,,,,,,,,,,,,
null,,learn_phase(without_color),211549,black_plus_sign,,,,,null,US_Cities_List/mm_racine.png,US_Cities_List/nat_gatlinburg.png,,,,,,,,,,,,,,,,,,,,,,,,,,,,,,
null,,black_cross(without_color),211959,green,,,,,null,US_Cities_List/mm_racine.png,US_Cities_List/nat_gatlinburg.png,,,,,,,,,,,,,,,,,,,,,,,,,,,,,,
null,,rt_plussign_withcolor,212461,green,,,,,null,US_Cities_List/mm_racine.png,US_Cities_List/nat_gatlinburg.png,,,,,,,,,,,,,,,,,,,,,,,,,,,,,,
836,,rt_thecrossant_black,214054,black_plus_sign,,,,,50,,,1,1,,,,,,,,,,,,,,,,,,,,,,,,,,,,
null,,color_black,214156,black_plus_sign,,,,,null,,,,,,,,,,,,,,,,,,,,,,,,,,,,,,,,
null,,learn_phase(without_color),216678,black_plus_sign,,,,,null,US_Cities_List/mm_racine.png,US_Cities_List/mm_carmel.png,,,,,,,,,,,,,,,,,,,,,,,,,,,,,,
null,,black_cross(without_color),217456,blue,,,,,null,US_Cities_List/mm_racine.png,US_Cities_List/mm_carmel.png,,,,,,,,,,,,,,,,,,,,,,,,,,,,,,
null,,rt_plussign_withcolor,217957,blue,,,,,null,US_Cities_List/mm_racine.png,US_Cities_List/mm_carmel.png,,,,,,,,,,,,,,,,,,,,,,,,,,,,,,
854.4,,rt_thecrossant_black,219181,black_plus_sign,,,,,49,,,1,1,,,,,,,,,,,,,,,,,,,,,,,,,,,,
null,,color_black,219283,black_plus_sign,,,,,null,,,,,,,,,,,,,,,,,,,,,,,,,,,,,,,,
null,,learn_phase(without_color),221805,black_plus_sign,,,,,null,US_Cities_List/mm_westpalmbeach.png,US_Cities_List/nat_peoria.png,,,,,,,,,,,,,,,,,,,,,,,,,,,,,,
null,,black_cross(without_color),222697,green,,,,,null,US_Cities_List/mm_westpalmbeach.png,US_Cities_List/nat_peoria.png,,,,,,,,,,,,,,,,,,,,,,,,,,,,,,
438.3,,rt_plussign_withcolor,223199,green,,,,,50,US_Cities_List/mm_westpalmbeach.png,US_Cities_List/nat_peoria.png,,,,,,,,,,,,,,,,,,,,,,,,,,,,,,
null,,rt_thecrossant_black,224311,black_plus_sign,,,,,null,,,1,1,,,,,,,,,,,,,,,,,,,,,,,,,,,,
null,,color_black,224413,black_plus_sign,,,,,null,,,,,,,,,,,,,,,,,,,,,,,,,,,,,,,,
null,,learn_phase(without_color),226934,black_plus_sign,,,,,null,US_Cities_List/nat_hanover.png,US_Cities_List/nat_peoria.png,,,,,,,,,,,,,,,,,,,,,,,,,,,,,,
null,,black_cross(without_color),227348,blue,,,,,null,US_Cities_List/nat_hanover.png,US_Cities_List/nat_peoria.png,,,,,,,,,,,,,,,,,,,,,,,,,,,,,,
null,,rt_plussign_withcolor,227849,blue,,,,,null,US_Cities_List/nat_hanover.png,US_Cities_List/nat_peoria.png,,,,,,,,,,,,,,,,,,,,,,,,,,,,,,
1242.1,,rt_thecrossant_black,229439,black_plus_sign,,,,,49,,,1,1,,,,,,,,,,,,,,,,,,,,,,,,,,,,
null,,color_black,229541,black_plus_sign,,,,,null,,,,,,,,,,,,,,,,,,,,,,,,,,,,,,,,
null,,learn_phase(without_color),232064,black_plus_sign,,,,,null,US_Cities_List/nat_gatlinburg.png,US_Cities_List/mm_westpalmbeach.png,,,,,,,,,,,,,,,,,,,,,,,,,,,,,,
null,,black_cross(without_color),232902,green,,,,,null,US_Cities_List/nat_gatlinburg.png,US_Cities_List/mm_westpalmbeach.png,,,,,,,,,,,,,,,,,,,,,,,,,,,,,,
null,,rt_plussign_withcolor,233404,green,,,,,null,US_Cities_List/nat_gatlinburg.png,US_Cities_List/mm_westpalmbeach.png,,,,,,,,,,,,,,,,,,,,,,,,,,,,,,
712.4,,rt_thecrossant_black,234568,black_plus_sign,,,,,50,,,1,1,,,,,,,,,,,,,,,,,,,,,,,,,,,,
null,,color_black,234670,black_plus_sign,,,,,null,,,,,,,,,,,,,,,,,,,,,,,,,,,,,,,,
null,,learn_phase(without_color),237197,black_plus_sign,,,,,null,US_Cities_List/mm_westpalmbeach.png,US_Cities_List/nat_peoria.png,,,,,,,,,,,,,,,,,,,,,,,,,,,,,,
null,,black_cross(without_color),238277,blue,,,,,null,US_Cities_List/mm_westpalmbeach.png,US_Cities_List/nat_peoria.png,,,,,,,,,,,,,,,,,,,,,,,,,,,,,,
null,,rt_plussign_withcolor,238779,blue,,,,,null,US_Cities_List/mm_westpalmbeach.png,US_Cities_List/nat_peoria.png,,,,,,,,,,,,,,,,,,,,,,,,,,,,,,
1283.2,,rt_thecrossant_black,239702,black_plus_sign,,,,,49,,,1,1,,,,,,,,,,,,,,,,,,,,,,,,,,,,
null,,color_black,239803,black_plus_sign,,,,,null,,,,,,,,,,,,,,,,,,,,,,,,,,,,,,,,
null,,learn_phase(without_color),242333,black_plus_sign,,,,,null,US_Cities_List/nat_gatlinburg.png,US_Cities_List/mm_westpalmbeach.png,,,,,,,,,,,,,,,,,,,,,,,,,,,,,,
null,,black_cross(without_color),242822,blue,,,,,null,US_Cities_List/nat_gatlinburg.png,US_Cities_List/mm_westpalmbeach.png,,,,,,,,,,,,,,,,,,,,,,,,,,,,,,
null,,rt_plussign_withcolor,243323,blue,,,,,null,US_Cities_List/nat_gatlinburg.png,US_Cities_List/mm_westpalmbeach.png,,,,,,,,,,,,,,,,,,,,,,,,,,,,,,
1365.6,,rt_thecrossant_black,244838,black_plus_sign,,,,,49,,,1,1,,,,,,,,,,,,,,,,,,,,,,,,,,,,
null,,color_black,244940,black_plus_sign,,,,,null,,,,,,,,,,,,,,,,,,,,,,,,,,,,,,,,
null,,learn_phase(without_color),247458,black_plus_sign,,,,,null,US_Cities_List/nat_hanover.png,US_Cities_List/mm_cornwall.png,,,,,,,,,,,,,,,,,,,,,,,,,,,,,,
null,,black_cross(without_color),248272,green,,,,,null,US_Cities_List/nat_hanover.png,US_Cities_List/mm_cornwall.png,,,,,,,,,,,,,,,,,,,,,,,,,,,,,,
null,,rt_plussign_withcolor,248774,green,,,,,null,US_Cities_List/nat_hanover.png,US_Cities_List/mm_cornwall.png,,,,,,,,,,,,,,,,,,,,,,,,,,,,,,
691.3000001,,rt_thecrossant_black,249963,black_plus_sign,,,,,50,,,1,1,,,,,,,,,,,,,,,,,,,,,,,,,,,,
null,,color_black,250065,black_plus_sign,,,,,null,,,,,,,,,,,,,,,,,,,,,,,,,,,,,,,,
null,,learn_phase(without_color),252581,black_plus_sign,,,,,null,US_Cities_List/nat_hotsprings.png,US_Cities_List/mm_huntsville.png,,,,,,,,,,,,,,,,,,,,,,,,,,,,,,
null,,black_cross(without_color),253607,blue,,,,,null,US_Cities_List/nat_hotsprings.png,US_Cities_List/mm_huntsville.png,,,,,,,,,,,,,,,,,,,,,,,,,,,,,,
null,,rt_plussign_withcolor,254109,blue,,,,,null,US_Cities_List/nat_hotsprings.png,US_Cities_List/mm_huntsville.png,,,,,,,,,,,,,,,,,,,,,,,,,,,,,,
1481.3,,rt_thecrossant_black,255088,black_plus_sign,,,,,49,,,1,1,,,,,,,,,,,,,,,,,,,,,,,,,,,,
null,,color_black,255190,black_plus_sign,,,,,null,,,,,,,,,,,,,,,,,,,,,,,,,,,,,,,,
null,,learn_phase(without_color),257708,black_plus_sign,,,,,null,US_Cities_List/nat_hanover.png,US_Cities_List/mm_cornwall.png,,,,,,,,,,,,,,,,,,,,,,,,,,,,,,
null,,black_cross(without_color),258770,green,,,,,null,US_Cities_List/nat_hanover.png,US_Cities_List/mm_cornwall.png,,,,,,,,,,,,,,,,,,,,,,,,,,,,,,
null,,rt_plussign_withcolor,259272,green,,,,,null,US_Cities_List/nat_hanover.png,US_Cities_List/mm_cornwall.png,,,,,,,,,,,,,,,,,,,,,,,,,,,,,,
1549.3,,rt_thecrossant_black,260214,black_plus_sign,,,,,50,,,1,1,,,,,,,,,,,,,,,,,,,,,,,,,,,,
null,,color_black,260316,black_plus_sign,,,,,null,,,,,,,,,,,,,,,,,,,,,,,,,,,,,,,,
null,,learn_phase(without_color),262835,black_plus_sign,,,,,null,US_Cities_List/nat_newhope.png,US_Cities_List/nat_hotsprings.png,,,,,,,,,,,,,,,,,,,,,,,,,,,,,,
null,,black_cross(without_color),263282,blue,,,,,null,US_Cities_List/nat_newhope.png,US_Cities_List/nat_hotsprings.png,,,,,,,,,,,,,,,,,,,,,,,,,,,,,,
null,,rt_plussign_withcolor,263784,blue,,,,,null,US_Cities_List/nat_newhope.png,US_Cities_List/nat_hotsprings.png,,,,,,,,,,,,,,,,,,,,,,,,,,,,,,
1626.8,,rt_thecrossant_black,265341,black_plus_sign,,,,,49,,,1,1,,,,,,,,,,,,,,,,,,,,,,,,,,,,
null,,color_black,265443,black_plus_sign,,,,,null,,,,,,,,,,,,,,,,,,,,,,,,,,,,,,,,
null,,learn_phase(without_color),267966,black_plus_sign,,,,,null,US_Cities_List/nat_hotsprings.png,US_Cities_List/nat_gatlinburg.png,,,,,,,,,,,,,,,,,,,,,,,,,,,,,,
null,,black_cross(without_color),268814,green,,,,,null,US_Cities_List/nat_hotsprings.png,US_Cities_List/nat_gatlinburg.png,,,,,,,,,,,,,,,,,,,,,,,,,,,,,,
null,,rt_plussign_withcolor,269316,green,,,,,null,US_Cities_List/nat_hotsprings.png,US_Cities_List/nat_gatlinburg.png,,,,,,,,,,,,,,,,,,,,,,,,,,,,,,
769.6,,rt_thecrossant_black,270484,black_plus_sign,,,,,50,,,1,1,,,,,,,,,,,,,,,,,,,,,,,,,,,,
null,,color_black,270586,black_plus_sign,,,,,null,,,,,,,,,,,,,,,,,,,,,,,,,,,,,,,,
null,,learn_phase(without_color),273107,black_plus_sign,,,,,null,US_Cities_List/nat_hotsprings.png,US_Cities_List/mm_racine.png,,,,,,,,,,,,,,,,,,,,,,,,,,,,,,
null,,black_cross(without_color),273695,green,,,,,null,US_Cities_List/nat_hotsprings.png,US_Cities_List/mm_racine.png,,,,,,,,,,,,,,,,,,,,,,,,,,,,,,
null,,rt_plussign_withcolor,274197,green,,,,,null,US_Cities_List/nat_hotsprings.png,US_Cities_List/mm_racine.png,,,,,,,,,,,,,,,,,,,,,,,,,,,,,,
1148.6,,rt_thecrossant_black,275612,black_plus_sign,,,,,50,,,1,1,,,,,,,,,,,,,,,,,,,,,,,,,,,,
null,,color_black,275714,black_plus_sign,,,,,null,,,,,,,,,,,,,,,,,,,,,,,,,,,,,,,,
null,,learn_phase(without_color),278241,black_plus_sign,,,,,null,US_Cities_List/mm_racine.png,US_Cities_List/nat_gatlinburg.png,,,,,,,,,,,,,,,,,,,,,,,,,,,,,,
null,,black_cross(without_color),279041,green,,,,,null,US_Cities_List/mm_racine.png,US_Cities_List/nat_gatlinburg.png,,,,,,,,,,,,,,,,,,,,,,,,,,,,,,
null,,rt_plussign_withcolor,279542,green,,,,,null,US_Cities_List/mm_racine.png,US_Cities_List/nat_gatlinburg.png,,,,,,,,,,,,,,,,,,,,,,,,,,,,,,
841.6,,rt_thecrossant_black,280746,black_plus_sign,,,,,50,,,1,1,,,,,,,,,,,,,,,,,,,,,,,,,,,,
null,,color_black,280849,black_plus_sign,,,,,null,,,,,,,,,,,,,,,,,,,,,,,,,,,,,,,,
null,,learn_phase(without_color),283366,black_plus_sign,,,,,null,US_Cities_List/nat_leesburg.png,US_Cities_List/nat_hanover.png,,,,,,,,,,,,,,,,,,,,,,,,,,,,,,
null,,black_cross(without_color),284435,green,,,,,null,US_Cities_List/nat_leesburg.png,US_Cities_List/nat_hanover.png,,,,,,,,,,,,,,,,,,,,,,,,,,,,,,
null,,rt_plussign_withcolor,284937,green,,,,,null,US_Cities_List/nat_leesburg.png,US_Cities_List/nat_hanover.png,,,,,,,,,,,,,,,,,,,,,,,,,,,,,,
990.4000001,,rt_thecrossant_black,285872,black_plus_sign,,,,,50,,,1,1,,,,,,,,,,,,,,,,,,,,,,,,,,,,
null,,color_black,285973,black_plus_sign,,,,,null,,,,,,,,,,,,,,,,,,,,,,,,,,,,,,,,
null,,learn_phase(without_color),288493,black_plus_sign,,,,,null,US_Cities_List/nat_hotsprings.png,US_Cities_List/nat_gatlinburg.png,,,,,,,,,,,,,,,,,,,,,,,,,,,,,,
null,,black_cross(without_color),289444,green,,,,,null,US_Cities_List/nat_hotsprings.png,US_Cities_List/nat_gatlinburg.png,,,,,,,,,,,,,,,,,,,,,,,,,,,,,,
480.4,,rt_plussign_withcolor,289945,green,,,,,50,US_Cities_List/nat_hotsprings.png,US_Cities_List/nat_gatlinburg.png,,,,,,,,,,,,,,,,,,,,,,,,,,,,,,
null,,rt_thecrossant_black,290997,black_plus_sign,,,,,null,,,1,1,,,,,,,,,,,,,,,,,,,,,,,,,,,,
null,,color_black,291098,black_plus_sign,,,,,null,,,,,,,,,,,,,,,,,,,,,,,,,,,,,,,,
null,,learn_phase(without_color),293618,black_plus_sign,,,,,null,US_Cities_List/nat_shreveport.png,US_Cities_List/nat_leesburg.png,,,,,,,,,,,,,,,,,,,,,,,,,,,,,,
null,,black_cross(without_color),294223,blue,,,,,null,US_Cities_List/nat_shreveport.png,US_Cities_List/nat_leesburg.png,,,,,,,,,,,,,,,,,,,,,,,,,,,,,,
null,,rt_plussign_withcolor,294725,blue,,,,,null,US_Cities_List/nat_shreveport.png,US_Cities_List/nat_leesburg.png,,,,,,,,,,,,,,,,,,,,,,,,,,,,,,
1132.9,,rt_thecrossant_black,296125,black_plus_sign,,,,,49,,,1,1,,,,,,,,,,,,,,,,,,,,,,,,,,,,
null,,color_black,296227,black_plus_sign,,,,,null,,,,,,,,,,,,,,,,,,,,,,,,,,,,,,,,
null,,learn_phase(without_color),298750,black_plus_sign,,,,,null,US_Cities_List/nat_leesburg.png,US_Cities_List/nat_hanover.png,,,,,,,,,,,,,,,,,,,,,,,,,,,,,,
null,,black_cross(without_color),299311,blue,,,,,null,US_Cities_List/nat_leesburg.png,US_Cities_List/nat_hanover.png,,,,,,,,,,,,,,,,,,,,,,,,,,,,,,
null,,rt_plussign_withcolor,299827,blue,,,,,null,US_Cities_List/nat_leesburg.png,US_Cities_List/nat_hanover.png,,,,,,,,,,,,,,,,,,,,,,,,,,,,,,
731.4000001,,rt_thecrossant_black,301269,black_plus_sign,,,,,49,,,1,1,,,,,,,,,,,,,,,,,,,,,,,,,,,,
null,,color_black,301371,black_plus_sign,,,,,null,,,,,,,,,,,,,,,,,,,,,,,,,,,,,,,,
null,,learn_phase(without_color),303891,black_plus_sign,,,,,null,US_Cities_List/nat_leesburg.png,US_Cities_List/mm_boulder.png,,,,,,,,,,,,,,,,,,,,,,,,,,,,,,
null,,black_cross(without_color),304742,blue,,,,,null,US_Cities_List/nat_leesburg.png,US_Cities_List/mm_boulder.png,,,,,,,,,,,,,,,,,,,,,,,,,,,,,,
null,,rt_plussign_withcolor,305244,blue,,,,,null,US_Cities_List/nat_leesburg.png,US_Cities_List/mm_boulder.png,,,,,,,,,,,,,,,,,,,,,,,,,,,,,,
900.3,,rt_thecrossant_black,306396,black_plus_sign,,,,,49,,,1,1,,,,,,,,,,,,,,,,,,,,,,,,,,,,
null,,color_black,306498,black_plus_sign,,,,,null,,,,,,,,,,,,,,,,,,,,,,,,,,,,,,,,
null,,learn_phase(without_color),309020,black_plus_sign,,,,,null,US_Cities_List/nat_newhope.png,US_Cities_List/nat_hotsprings.png,,,,,,,,,,,,,,,,,,,,,,,,,,,,,,
null,,black_cross(without_color),309514,green,,,,,null,US_Cities_List/nat_newhope.png,US_Cities_List/nat_hotsprings.png,,,,,,,,,,,,,,,,,,,,,,,,,,,,,,
null,,rt_plussign_withcolor,310015,green,,,,,null,US_Cities_List/nat_newhope.png,US_Cities_List/nat_hotsprings.png,,,,,,,,,,,,,,,,,,,,,,,,,,,,,,
1116.2,,rt_thecrossant_black,311525,black_plus_sign,,,,,50,,,1,1,,,,,,,,,,,,,,,,,,,,,,,,,,,,
null,,color_black,311627,black_plus_sign,,,,,null,,,,,,,,,,,,,,,,,,,,,,,,,,,,,,,,
null,,learn_phase(without_color),314149,black_plus_sign,,,,,null,US_Cities_List/mm_boulder.png,US_Cities_List/nat_newhope.png,,,,,,,,,,,,,,,,,,,,,,,,,,,,,,
null,,black_cross(without_color),315197,green,,,,,null,US_Cities_List/mm_boulder.png,US_Cities_List/nat_newhope.png,,,,,,,,,,,,,,,,,,,,,,,,,,,,,,
null,,rt_plussign_withcolor,315699,green,,,,,null,US_Cities_List/mm_boulder.png,US_Cities_List/nat_newhope.png,,,,,,,,,,,,,,,,,,,,,,,,,,,,,,
775.4,,rt_thecrossant_black,316654,black_plus_sign,,,,,50,,,1,1,,,,,,,,,,,,,,,,,,,,,,,,,,,,
null,,color_black,316756,black_plus_sign,,,,,null,,,,,,,,,,,,,,,,,,,,,,,,,,,,,,,,
null,,learn_phase(without_color),319278,black_plus_sign,,,,,null,US_Cities_List/mm_westpalmbeach.png,US_Cities_List/nat_peoria.png,,,,,,,,,,,,,,,,,,,,,,,,,,,,,,
null,,black_cross(without_color),320115,blue,,,,,null,US_Cities_List/mm_westpalmbeach.png,US_Cities_List/nat_peoria.png,,,,,,,,,,,,,,,,,,,,,,,,,,,,,,
null,,rt_plussign_withcolor,320617,blue,,,,,null,US_Cities_List/mm_westpalmbeach.png,US_Cities_List/nat_peoria.png,,,,,,,,,,,,,,,,,,,,,,,,,,,,,,
1539.4,,rt_thecrossant_black,321782,black_plus_sign,,,,,49,,,1,1,,,,,,,,,,,,,,,,,,,,,,,,,,,,
null,,color_black,321884,black_plus_sign,,,,,null,,,,,,,,,,,,,,,,,,,,,,,,,,,,,,,,
null,,learn_phase(without_color),324410,black_plus_sign,,,,,null,US_Cities_List/mm_boulder.png,US_Cities_List/mm_westpalmbeach.png,,,,,,,,,,,,,,,,,,,,,,,,,,,,,,
null,,black_cross(without_color),325322,green,,,,,null,US_Cities_List/mm_boulder.png,US_Cities_List/mm_westpalmbeach.png,,,,,,,,,,,,,,,,,,,,,,,,,,,,,,
null,,rt_plussign_withcolor,325823,green,,,,,null,US_Cities_List/mm_boulder.png,US_Cities_List/mm_westpalmbeach.png,,,,,,,,,,,,,,,,,,,,,,,,,,,,,,
1080.5,,rt_thecrossant_black,326916,black_plus_sign,,,,,50,,,1,1,,,,,,,,,,,,,,,,,,,,,,,,,,,,
null,,color_black,327018,black_plus_sign,,,,,null,,,,,,,,,,,,,,,,,,,,,,,,,,,,,,,,
null,,learn_phase(without_color),329539,black_plus_sign,,,,,null,US_Cities_List/nat_newhope.png,US_Cities_List/nat_gatlinburg.png,,,,,,,,,,,,,,,,,,,,,,,,,,,,,,
null,,black_cross(without_color),330312,blue,,,,,null,US_Cities_List/nat_newhope.png,US_Cities_List/nat_gatlinburg.png,,,,,,,,,,,,,,,,,,,,,,,,,,,,,,
null,,rt_plussign_withcolor,330814,blue,,,,,null,US_Cities_List/nat_newhope.png,US_Cities_List/nat_gatlinburg.png,,,,,,,,,,,,,,,,,,,,,,,,,,,,,,
1352.5,,rt_thecrossant_black,332052,black_plus_sign,,,,,49,,,1,1,,,,,,,,,,,,,,,,,,,,,,,,,,,,
null,,color_black,332154,black_plus_sign,,,,,null,,,,,,,,,,,,,,,,,,,,,,,,,,,,,,,,
null,,learn_phase(without_color),334677,black_plus_sign,,,,,null,US_Cities_List/nat_newhope.png,US_Cities_List/nat_hotsprings.png,,,,,,,,,,,,,,,,,,,,,,,,,,,,,,
null,,black_cross(without_color),335283,blue,,,,,null,US_Cities_List/nat_newhope.png,US_Cities_List/nat_hotsprings.png,,,,,,,,,,,,,,,,,,,,,,,,,,,,,,
null,,rt_plussign_withcolor,335799,blue,,,,,null,US_Cities_List/nat_newhope.png,US_Cities_List/nat_hotsprings.png,,,,,,,,,,,,,,,,,,,,,,,,,,,,,,
1070.8,,rt_thecrossant_black,337197,black_plus_sign,,,,,49,,,1,1,,,,,,,,,,,,,,,,,,,,,,,,,,,,
null,,color_black,337299,black_plus_sign,,,,,null,,,,,,,,,,,,,,,,,,,,,,,,,,,,,,,,
null,,learn_phase(without_color),339826,black_plus_sign,,,,,null,US_Cities_List/nat_hotsprings.png,US_Cities_List/nat_gatlinburg.png,,,,,,,,,,,,,,,,,,,,,,,,,,,,,,
null,,black_cross(without_color),340535,blue,,,,,null,US_Cities_List/nat_hotsprings.png,US_Cities_List/nat_gatlinburg.png,,,,,,,,,,,,,,,,,,,,,,,,,,,,,,
null,,rt_plussign_withcolor,341037,blue,,,,,null,US_Cities_List/nat_hotsprings.png,US_Cities_List/nat_gatlinburg.png,,,,,,,,,,,,,,,,,,,,,,,,,,,,,,
774.1,,rt_thecrossant_black,342331,black_plus_sign,,,,,49,,,1,1,,,,,,,,,,,,,,,,,,,,,,,,,,,,
null,,color_black,342433,black_plus_sign,,,,,null,,,,,,,,,,,,,,,,,,,,,,,,,,,,,,,,
null,,learn_phase(without_color),344951,black_plus_sign,,,,,null,US_Cities_List/nat_hotsprings.png,US_Cities_List/mm_huntsville.png,,,,,,,,,,,,,,,,,,,,,,,,,,,,,,
null,,black_cross(without_color),345914,green,,,,,null,US_Cities_List/nat_hotsprings.png,US_Cities_List/mm_huntsville.png,,,,,,,,,,,,,,,,,,,,,,,,,,,,,,
null,,rt_plussign_withcolor,346422,green,,,,,null,US_Cities_List/nat_hotsprings.png,US_Cities_List/mm_huntsville.png,,,,,,,,,,,,,,,,,,,,,,,,,,,,,,
880.2,,rt_thecrossant_black,347463,black_plus_sign,,,,,50,,,1,1,,,,,,,,,,,,,,,,,,,,,,,,,,,,
null,,color_black,347565,black_plus_sign,,,,,null,,,,,,,,,,,,,,,,,,,,,,,,,,,,,,,,
null,,learn_phase(without_color),350089,black_plus_sign,,,,,null,US_Cities_List/nat_gatlinburg.png,US_Cities_List/mm_westpalmbeach.png,,,,,,,,,,,,,,,,,,,,,,,,,,,,,,
null,,black_cross(without_color),350802,blue,,,,,null,US_Cities_List/nat_gatlinburg.png,US_Cities_List/mm_westpalmbeach.png,,,,,,,,,,,,,,,,,,,,,,,,,,,,,,
null,,rt_plussign_withcolor,351304,blue,,,,,null,US_Cities_List/nat_gatlinburg.png,US_Cities_List/mm_westpalmbeach.png,,,,,,,,,,,,,,,,,,,,,,,,,,,,,,
1556.2,,rt_thecrossant_black,352595,black_plus_sign,,,,,49,,,1,1,,,,,,,,,,,,,,,,,,,,,,,,,,,,
null,,color_black,352697,black_plus_sign,,,,,null,,,,,,,,,,,,,,,,,,,,,,,,,,,,,,,,
null,,learn_phase(without_color),355228,black_plus_sign,,,,,null,US_Cities_List/nat_hotsprings.png,US_Cities_List/nat_gatlinburg.png,,,,,,,,,,,,,,,,,,,,,,,,,,,,,,
null,,black_cross(without_color),356071,blue,,,,,null,US_Cities_List/nat_hotsprings.png,US_Cities_List/nat_gatlinburg.png,,,,,,,,,,,,,,,,,,,,,,,,,,,,,,
null,,rt_plussign_withcolor,356572,blue,,,,,null,US_Cities_List/nat_hotsprings.png,US_Cities_List/nat_gatlinburg.png,,,,,,,,,,,,,,,,,,,,,,,,,,,,,,
925.1,,rt_thecrossant_black,357732,black_plus_sign,,,,,49,,,1,1,,,,,,,,,,,,,,,,,,,,,,,,,,,,
null,,color_black,357834,black_plus_sign,,,,,null,,,,,,,,,,,,,,,,,,,,,,,,,,,,,,,,
null,,learn_phase(without_color),360352,black_plus_sign,,,,,null,US_Cities_List/nat_hanover.png,US_Cities_List/nat_peoria.png,,,,,,,,,,,,,,,,,,,,,,,,,,,,,,
null,,black_cross(without_color),361200,green,,,,,null,US_Cities_List/nat_hanover.png,US_Cities_List/nat_peoria.png,,,,,,,,,,,,,,,,,,,,,,,,,,,,,,
null,,rt_plussign_withcolor,361702,green,,,,,null,US_Cities_List/nat_hanover.png,US_Cities_List/nat_peoria.png,,,,,,,,,,,,,,,,,,,,,,,,,,,,,,
1079.3,,rt_thecrossant_black,362871,black_plus_sign,,,,,50,,,1,1,,,,,,,,,,,,,,,,,,,,,,,,,,,,
null,,color_black,362973,black_plus_sign,,,,,null,,,,,,,,,,,,,,,,,,,,,,,,,,,,,,,,
null,,learn_phase(without_color),365504,black_plus_sign,,,,,null,US_Cities_List/nat_gatlinburg.png,US_Cities_List/mm_westpalmbeach.png,,,,,,,,,,,,,,,,,,,,,,,,,,,,,,
null,,black_cross(without_color),366173,green,,,,,null,US_Cities_List/nat_gatlinburg.png,US_Cities_List/mm_westpalmbeach.png,,,,,,,,,,,,,,,,,,,,,,,,,,,,,,
null,,rt_plussign_withcolor,366679,green,,,,,null,US_Cities_List/nat_gatlinburg.png,US_Cities_List/mm_westpalmbeach.png,,,,,,,,,,,,,,,,,,,,,,,,,,,,,,
1030.1,,rt_thecrossant_black,368015,black_plus_sign,,,,,50,,,1,1,,,,,,,,,,,,,,,,,,,,,,,,,,,,
null,,color_black,368117,black_plus_sign,,,,,null,,,,,,,,,,,,,,,,,,,,,,,,,,,,,,,,
null,,learn_phase(without_color),370645,black_plus_sign,,,,,null,US_Cities_List/nat_hotsprings.png,US_Cities_List/nat_gatlinburg.png,,,,,,,,,,,,,,,,,,,,,,,,,,,,,,
null,,black_cross(without_color),371207,blue,,,,,null,US_Cities_List/nat_hotsprings.png,US_Cities_List/nat_gatlinburg.png,,,,,,,,,,,,,,,,,,,,,,,,,,,,,,
null,,rt_plussign_withcolor,371709,blue,,,,,null,US_Cities_List/nat_hotsprings.png,US_Cities_List/nat_gatlinburg.png,,,,,,,,,,,,,,,,,,,,,,,,,,,,,,
982.1,,rt_thecrossant_black,373151,black_plus_sign,,,,,49,,,1,1,,,,,,,,,,,,,,,,,,,,,,,,,,,,
null,,color_black,373255,black_plus_sign,,,,,null,,,,,,,,,,,,,,,,,,,,,,,,,,,,,,,,
null,,learn_phase(without_color),375776,black_plus_sign,,,,,null,US_Cities_List/nat_hotsprings.png,US_Cities_List/mm_racine.png,,,,,,,,,,,,,,,,,,,,,,,,,,,,,,
null,,black_cross(without_color),376846,blue,,,,,null,US_Cities_List/nat_hotsprings.png,US_Cities_List/mm_racine.png,,,,,,,,,,,,,,,,,,,,,,,,,,,,,,
null,,rt_plussign_withcolor,377348,blue,,,,,null,US_Cities_List/nat_hotsprings.png,US_Cities_List/mm_racine.png,,,,,,,,,,,,,,,,,,,,,,,,,,,,,,
873.2,,rt_thecrossant_black,378282,black_plus_sign,,,,,49,,,1,1,,,,,,,,,,,,,,,,,,,,,,,,,,,,
null,,color_black,378384,black_plus_sign,,,,,null,,,,,,,,,,,,,,,,,,,,,,,,,,,,,,,,
null,,learn_phase(without_color),380902,black_plus_sign,,,,,null,US_Cities_List/nat_leesburg.png,US_Cities_List/mm_boulder.png,,,,,,,,,,,,,,,,,,,,,,,,,,,,,,
null,,black_cross(without_color),381758,green,,,,,null,US_Cities_List/nat_leesburg.png,US_Cities_List/mm_boulder.png,,,,,,,,,,,,,,,,,,,,,,,,,,,,,,
null,,rt_plussign_withcolor,382260,green,,,,,null,US_Cities_List/nat_leesburg.png,US_Cities_List/mm_boulder.png,,,,,,,,,,,,,,,,,,,,,,,,,,,,,,
1168.1,,rt_thecrossant_black,383408,black_plus_sign,,,,,50,,,1,1,,,,,,,,,,,,,,,,,,,,,,,,,,,,
null,,color_black,383515,black_plus_sign,,,,,null,,,,,,,,,,,,,,,,,,,,,,,,,,,,,,,,
null,,learn_phase(without_color),386036,black_plus_sign,,,,,null,US_Cities_List/nat_hotsprings.png,US_Cities_List/mm_huntsville.png,,,,,,,,,,,,,,,,,,,,,,,,,,,,,,
null,,black_cross(without_color),387121,green,,,,,null,US_Cities_List/nat_hotsprings.png,US_Cities_List/mm_huntsville.png,,,,,,,,,,,,,,,,,,,,,,,,,,,,,,
null,,rt_plussign_withcolor,387623,green,,,,,null,US_Cities_List/nat_hotsprings.png,US_Cities_List/mm_huntsville.png,,,,,,,,,,,,,,,,,,,,,,,,,,,,,,
1058.3,,rt_thecrossant_black,388542,black_plus_sign,,,,,50,,,1,1,,,,,,,,,,,,,,,,,,,,,,,,,,,,
null,,color_black,388644,black_plus_sign,,,,,null,,,,,,,,,,,,,,,,,,,,,,,,,,,,,,,,
null,,learn_phase(without_color),391167,black_plus_sign,,,,,null,US_Cities_List/nat_leesburg.png,US_Cities_List/mm_boulder.png,,,,,,,,,,,,,,,,,,,,,,,,,,,,,,
null,,black_cross(without_color),392112,blue,,,,,null,US_Cities_List/nat_leesburg.png,US_Cities_List/mm_boulder.png,,,,,,,,,,,,,,,,,,,,,,,,,,,,,,
null,,rt_plussign_withcolor,392614,blue,,,,,null,US_Cities_List/nat_leesburg.png,US_Cities_List/mm_boulder.png,,,,,,,,,,,,,,,,,,,,,,,,,,,,,,
1406.2,,rt_thecrossant_black,393673,black_plus_sign,,,,,49,,,1,1,,,,,,,,,,,,,,,,,,,,,,,,,,,,
null,,color_black,393775,black_plus_sign,,,,,null,,,,,,,,,,,,,,,,,,,,,,,,,,,,,,,,
null,,learn_phase(without_color),396300,black_plus_sign,,,,,null,US_Cities_List/mm_racine.png,US_Cities_List/nat_gatlinburg.png,,,,,,,,,,,,,,,,,,,,,,,,,,,,,,
null,,black_cross(without_color),397359,green,,,,,null,US_Cities_List/mm_racine.png,US_Cities_List/nat_gatlinburg.png,,,,,,,,,,,,,,,,,,,,,,,,,,,,,,
null,,rt_plussign_withcolor,397861,green,,,,,null,US_Cities_List/mm_racine.png,US_Cities_List/nat_gatlinburg.png,,,,,,,,,,,,,,,,,,,,,,,,,,,,,,
1235.4,,rt_thecrossant_black,398807,black_plus_sign,,,,,50,,,1,1,,,,,,,,,,,,,,,,,,,,,,,,,,,,
null,,color_black,398909,black_plus_sign,,,,,null,,,,,,,,,,,,,,,,,,,,,,,,,,,,,,,,
null,,learn_phase(without_color),401434,black_plus_sign,,,,,null,US_Cities_List/nat_newhope.png,US_Cities_List/nat_gatlinburg.png,,,,,,,,,,,,,,,,,,,,,,,,,,,,,,
null,,black_cross(without_color),402010,blue,,,,,null,US_Cities_List/nat_newhope.png,US_Cities_List/nat_gatlinburg.png,,,,,,,,,,,,,,,,,,,,,,,,,,,,,,
null,,rt_plussign_withcolor,402511,blue,,,,,null,US_Cities_List/nat_newhope.png,US_Cities_List/nat_gatlinburg.png,,,,,,,,,,,,,,,,,,,,,,,,,,,,,,
1307.2,,rt_thecrossant_black,403937,black_plus_sign,,,,,50,,,0.978723404,0,,,,,,,,,,,,,,,,,,,,,,,,,,,,
null,,color_black,404039,black_plus_sign,,,,,null,,,,,,,,,,,,,,,,,,,,,,,,,,,,,,,,
null,,learn_phase(without_color),406556,black_plus_sign,,,,,null,US_Cities_List/nat_hanover.png,US_Cities_List/nat_peoria.png,,,,,,,,,,,,,,,,,,,,,,,,,,,,,,
null,,black_cross(without_color),407504,green,,,,,null,US_Cities_List/nat_hanover.png,US_Cities_List/nat_peoria.png,,,,,,,,,,,,,,,,,,,,,,,,,,,,,,
null,,rt_plussign_withcolor,408006,green,,,,,null,US_Cities_List/nat_hanover.png,US_Cities_List/nat_peoria.png,,,,,,,,,,,,,,,,,,,,,,,,,,,,,,
780.2,,rt_thecrossant_black,409062,black_plus_sign,,,,,50,,,0.979166667,1,,,,,,,,,,,,,,,,,,,,,,,,,,,,
null,,color_black,409164,black_plus_sign,,,,,null,,,,,,,,,,,,,,,,,,,,,,,,,,,,,,,,
null,,learn_phase(without_color),411681,black_plus_sign,,,,,null,US_Cities_List/nat_leesburg.png,US_Cities_List/nat_hanover.png,,,,,,,,,,,,,,,,,,,,,,,,,,,,,,
null,,black_cross(without_color),412294,green,,,,,null,US_Cities_List/nat_leesburg.png,US_Cities_List/nat_hanover.png,,,,,,,,,,,,,,,,,,,,,,,,,,,,,,
null,,rt_plussign_withcolor,412796,green,,,,,null,US_Cities_List/nat_leesburg.png,US_Cities_List/nat_hanover.png,,,,,,,,,,,,,,,,,,,,,,,,,,,,,,
1230.1,,rt_thecrossant_black,414187,black_plus_sign,,,,,50,,,0.979591837,1,,,,,,,,,,,,,,,,,,,,,,,,,,,,
null,,color_black,414289,black_plus_sign,,,,,null,,,,,,,,,,,,,,,,,,,,,,,,,,,,,,,,
null,,learn_phase(without_color),416810,black_plus_sign,,,,,null,US_Cities_List/nat_leesburg.png,US_Cities_List/mm_boulder.png,,,,,,,,,,,,,,,,,,,,,,,,,,,,,,
null,,black_cross(without_color),417529,green,,,,,null,US_Cities_List/nat_leesburg.png,US_Cities_List/mm_boulder.png,,,,,,,,,,,,,,,,,,,,,,,,,,,,,,
null,,rt_plussign_withcolor,418030,green,,,,,null,US_Cities_List/nat_leesburg.png,US_Cities_List/mm_boulder.png,,,,,,,,,,,,,,,,,,,,,,,,,,,,,,
886.1999999,,rt_thecrossant_black,419314,black_plus_sign,,,,,50,,,0.98,1,,,,,,,,,,,,,,,,,,,,,,,,,,,,
null,,color_black,419416,black_plus_sign,,,,,null,,,,,,,,,,,,,,,,,,,,,,,,,,,,,,,,
null,,learn_phase(without_color),421938,black_plus_sign,,,,,null,US_Cities_List/nat_newhope.png,US_Cities_List/nat_gatlinburg.png,,,,,,,,,,,,,,,,,,,,,,,,,,,,,,
null,,black_cross(without_color),422870,blue,,,,,null,US_Cities_List/nat_newhope.png,US_Cities_List/nat_gatlinburg.png,,,,,,,,,,,,,,,,,,,,,,,,,,,,,,
null,,rt_plussign_withcolor,423372,blue,,,,,null,US_Cities_List/nat_newhope.png,US_Cities_List/nat_gatlinburg.png,,,,,,,,,,,,,,,,,,,,,,,,,,,,,,
975.3000001,,rt_thecrossant_black,424444,black_plus_sign,,,,,49,,,0.980392157,1,,,,,,,,,,,,,,,,,,,,,,,,,,,,
null,,color_black,424546,black_plus_sign,,,,,null,,,,,,,,,,,,,,,,,,,,,,,,,,,,,,,,
null,,learn_phase(without_color),427066,black_plus_sign,,,,,null,US_Cities_List/nat_shreveport.png,US_Cities_List/nat_leesburg.png,,,,,,,,,,,,,,,,,,,,,,,,,,,,,,
null,,black_cross(without_color),427698,blue,,,,,null,US_Cities_List/nat_shreveport.png,US_Cities_List/nat_leesburg.png,,,,,,,,,,,,,,,,,,,,,,,,,,,,,,
null,,rt_plussign_withcolor,428200,blue,,,,,null,US_Cities_List/nat_shreveport.png,US_Cities_List/nat_leesburg.png,,,,,,,,,,,,,,,,,,,,,,,,,,,,,,
1316.2,,rt_thecrossant_black,429572,black_plus_sign,,,,,49,,,0.980769231,1,,,,,,,,,,,,,,,,,,,,,,,,,,,,
null,,color_black,429674,black_plus_sign,,,,,null,,,,,,,,,,,,,,,,,,,,,,,,,,,,,,,,
null,,learn_phase(without_color),432196,black_plus_sign,,,,,null,US_Cities_List/nat_leesburg.png,US_Cities_List/nat_hanover.png,,,,,,,,,,,,,,,,,,,,,,,,,,,,,,
null,,black_cross(without_color),432935,blue,,,,,null,US_Cities_List/nat_leesburg.png,US_Cities_List/nat_hanover.png,,,,,,,,,,,,,,,,,,,,,,,,,,,,,,
null,,rt_plussign_withcolor,433437,blue,,,,,null,US_Cities_List/nat_leesburg.png,US_Cities_List/nat_hanover.png,,,,,,,,,,,,,,,,,,,,,,,,,,,,,,
799.4,,rt_thecrossant_black,434702,black_plus_sign,,,,,49,,,0.981132075,1,,,,,,,,,,,,,,,,,,,,,,,,,,,,
null,,color_black,434804,black_plus_sign,,,,,null,,,,,,,,,,,,,,,,,,,,,,,,,,,,,,,,
null,,learn_phase(without_color),437329,black_plus_sign,,,,,null,US_Cities_List/mm_boulder.png,US_Cities_List/nat_newhope.png,,,,,,,,,,,,,,,,,,,,,,,,,,,,,,
null,,black_cross(without_color),438374,green,,,,,null,US_Cities_List/mm_boulder.png,US_Cities_List/nat_newhope.png,,,,,,,,,,,,,,,,,,,,,,,,,,,,,,
null,,rt_plussign_withcolor,438876,green,,,,,null,US_Cities_List/mm_boulder.png,US_Cities_List/nat_newhope.png,,,,,,,,,,,,,,,,,,,,,,,,,,,,,,
934.1999999,,rt_thecrossant_black,439834,black_plus_sign,,,,,50,,,0.981481481,1,,,,,,,,,,,,,,,,,,,,,,,,,,,,
null,,color_black,439936,black_plus_sign,,,,,null,,,,,,,,,,,,,,,,,,,,,,,,,,,,,,,,
null,,learn_phase(without_color),442460,black_plus_sign,,,,,null,US_Cities_List/mm_boulder.png,US_Cities_List/mm_westpalmbeach.png,,,,,,,,,,,,,,,,,,,,,,,,,,,,,,
null,,black_cross(without_color),443052,blue,,,,,null,US_Cities_List/mm_boulder.png,US_Cities_List/mm_westpalmbeach.png,,,,,,,,,,,,,,,,,,,,,,,,,,,,,,
null,,rt_plussign_withcolor,443554,blue,,,,,null,US_Cities_List/mm_boulder.png,US_Cities_List/mm_westpalmbeach.png,,,,,,,,,,,,,,,,,,,,,,,,,,,,,,
1170.1,,rt_thecrossant_black,444965,black_plus_sign,,,,,49,,,0.981818182,1,,,,,,,,,,,,,,,,,,,,,,,,,,,,
null,,color_black,445066,black_plus_sign,,,,,null,,,,,,,,,,,,,,,,,,,,,,,,,,,,,,,,
null,,learn_phase(without_color),447585,black_plus_sign,,,,,null,US_Cities_List/mm_racine.png,US_Cities_List/mm_carmel.png,,,,,,,,,,,,,,,,,,,,,,,,,,,,,,
null,,black_cross(without_color),448521,green,,,,,null,US_Cities_List/mm_racine.png,US_Cities_List/mm_carmel.png,,,,,,,,,,,,,,,,,,,,,,,,,,,,,,
null,,rt_plussign_withcolor,449023,green,,,,,null,US_Cities_List/mm_racine.png,US_Cities_List/mm_carmel.png,,,,,,,,,,,,,,,,,,,,,,,,,,,,,,
744,,rt_thecrossant_black,450091,black_plus_sign,,,,,50,,,0.982142857,1,,,,,,,,,,,,,,,,,,,,,,,,,,,,
null,,color_black,450194,black_plus_sign,,,,,null,,,,,,,,,,,,,,,,,,,,,,,,,,,,,,,,
null,,learn_phase(without_color),452715,black_plus_sign,,,,,null,US_Cities_List/nat_newhope.png,US_Cities_List/nat_gatlinburg.png,,,,,,,,,,,,,,,,,,,,,,,,,,,,,,
null,,black_cross(without_color),453753,blue,,,,,null,US_Cities_List/nat_newhope.png,US_Cities_List/nat_gatlinburg.png,,,,,,,,,,,,,,,,,,,,,,,,,,,,,,
null,,rt_plussign_withcolor,454269,blue,,,,,null,US_Cities_List/nat_newhope.png,US_Cities_List/nat_gatlinburg.png,,,,,,,,,,,,,,,,,,,,,,,,,,,,,,
1289.6,,rt_thecrossant_black,455236,black_plus_sign,,,,,49,,,0.98245614,1,,,,,,,,,,,,,,,,,,,,,,,,,,,,
null,,color_black,455338,black_plus_sign,,,,,null,,,,,,,,,,,,,,,,,,,,,,,,,,,,,,,,
null,,learn_phase(without_color),457863,black_plus_sign,,,,,null,US_Cities_List/mm_racine.png,US_Cities_List/mm_carmel.png,,,,,,,,,,,,,,,,,,,,,,,,,,,,,,
null,,black_cross(without_color),458480,green,,,,,null,US_Cities_List/mm_racine.png,US_Cities_List/mm_carmel.png,,,,,,,,,,,,,,,,,,,,,,,,,,,,,,
null,,rt_plussign_withcolor,458982,green,,,,,null,US_Cities_List/mm_racine.png,US_Cities_List/mm_carmel.png,,,,,,,,,,,,,,,,,,,,,,,,,,,,,,
1341.2,,rt_thecrossant_black,460368,black_plus_sign,,,,,50,,,0.982758621,1,,,,,,,,,,,,,,,,,,,,,,,,,,,,
null,,color_black,460470,black_plus_sign,,,,,null,,,,,,,,,,,,,,,,,,,,,,,,,,,,,,,,
null,,learn_phase(without_color),462988,black_plus_sign,,,,,null,US_Cities_List/nat_leesburg.png,US_Cities_List/nat_hanover.png,,,,,,,,,,,,,,,,,,,,,,,,,,,,,,
null,,black_cross(without_color),463807,green,,,,,null,US_Cities_List/nat_leesburg.png,US_Cities_List/nat_hanover.png,,,,,,,,,,,,,,,,,,,,,,,,,,,,,,
null,,rt_plussign_withcolor,464309,green,,,,,null,US_Cities_List/nat_leesburg.png,US_Cities_List/nat_hanover.png,,,,,,,,,,,,,,,,,,,,,,,,,,,,,,
792.4000001,,rt_thecrossant_black,465493,black_plus_sign,,,,,50,,,0.983050847,1,,,,,,,,,,,,,,,,,,,,,,,,,,,,
null,,color_black,465594,black_plus_sign,,,,,null,,,,,,,,,,,,,,,,,,,,,,,,,,,,,,,,
null,,learn_phase(without_color),468116,black_plus_sign,,,,,null,US_Cities_List/nat_hanover.png,US_Cities_List/mm_cornwall.png,,,,,,,,,,,,,,,,,,,,,,,,,,,,,,
null,,black_cross(without_color),468890,green,,,,,null,US_Cities_List/nat_hanover.png,US_Cities_List/mm_cornwall.png,,,,,,,,,,,,,,,,,,,,,,,,,,,,,,
null,,rt_plussign_withcolor,469392,green,,,,,null,US_Cities_List/nat_hanover.png,US_Cities_List/mm_cornwall.png,,,,,,,,,,,,,,,,,,,,,,,,,,,,,,
994.4,,rt_thecrossant_black,470622,black_plus_sign,,,,,50,,,0.983333333,1,,,,,,,,,,,,,,,,,,,,,,,,,,,,
null,,color_black,470724,black_plus_sign,,,,,null,,,,,,,,,,,,,,,,,,,,,,,,,,,,,,,,
null,,learn_phase(without_color),473246,black_plus_sign,,,,,null,US_Cities_List/nat_hanover.png,US_Cities_List/nat_peoria.png,,,,,,,,,,,,,,,,,,,,,,,,,,,,,,
null,,black_cross(without_color),474223,blue,,,,,null,US_Cities_List/nat_hanover.png,US_Cities_List/nat_peoria.png,,,,,,,,,,,,,,,,,,,,,,,,,,,,,,
null,,rt_plussign_withcolor,474725,blue,,,,,null,US_Cities_List/nat_hanover.png,US_Cities_List/nat_peoria.png,,,,,,,,,,,,,,,,,,,,,,,,,,,,,,
1055.9,,rt_thecrossant_black,475751,black_plus_sign,,,,,49,,,0.983606557,1,,,,,,,,,,,,,,,,,,,,,,,,,,,,
null,,color_black,475852,black_plus_sign,,,,,null,,,,,,,,,,,,,,,,,,,,,,,,,,,,,,,,
null,,learn_phase(without_color),478374,black_plus_sign,,,,,null,US_Cities_List/nat_shreveport.png,US_Cities_List/nat_leesburg.png,,,,,,,,,,,,,,,,,,,,,,,,,,,,,,
null,,black_cross(without_color),479077,blue,,,,,null,US_Cities_List/nat_shreveport.png,US_Cities_List/nat_leesburg.png,,,,,,,,,,,,,,,,,,,,,,,,,,,,,,
null,,rt_plussign_withcolor,479578,blue,,,,,null,US_Cities_List/nat_shreveport.png,US_Cities_List/nat_leesburg.png,,,,,,,,,,,,,,,,,,,,,,,,,,,,,,
1301.8,,rt_thecrossant_black,480879,black_plus_sign,,,,,49,,,0.983870968,1,,,,,,,,,,,,,,,,,,,,,,,,,,,,
null,,color_black,480981,black_plus_sign,,,,,null,,,,,,,,,,,,,,,,,,,,,,,,,,,,,,,,
null,,learn_phase(without_color),483501,black_plus_sign,,,,,null,US_Cities_List/mm_boulder.png,US_Cities_List/nat_newhope.png,,,,,,,,,,,,,,,,,,,,,,,,,,,,,,
null,,black_cross(without_color),484009,green,,,,,null,US_Cities_List/mm_boulder.png,US_Cities_List/nat_newhope.png,,,,,,,,,,,,,,,,,,,,,,,,,,,,,,
null,,rt_plussign_withcolor,484511,green,,,,,null,US_Cities_List/mm_boulder.png,US_Cities_List/nat_newhope.png,,,,,,,,,,,,,,,,,,,,,,,,,,,,,,
881.3000001,,rt_thecrossant_black,486006,black_plus_sign,,,,,50,,,0.984126984,1,,,,,,,,,,,,,,,,,,,,,,,,,,,,
null,,color_black,486108,black_plus_sign,,,,,null,,,,,,,,,,,,,,,,,,,,,,,,,,,,,,,,
null,,learn_phase(without_color),488626,black_plus_sign,,,,,null,US_Cities_List/nat_hotsprings.png,US_Cities_List/mm_racine.png,,,,,,,,,,,,,,,,,,,,,,,,,,,,,,
null,,black_cross(without_color),489058,green,,,,,null,US_Cities_List/nat_hotsprings.png,US_Cities_List/mm_racine.png,,,,,,,,,,,,,,,,,,,,,,,,,,,,,,
null,,rt_plussign_withcolor,489564,green,,,,,null,US_Cities_List/nat_hotsprings.png,US_Cities_List/mm_racine.png,,,,,,,,,,,,,,,,,,,,,,,,,,,,,,
751.5,,rt_thecrossant_black,491136,black_plus_sign,,,,,50,,,0.984375,1,,,,,,,,,,,,,,,,,,,,,,,,,,,,
null,,color_black,491238,black_plus_sign,,,,,null,,,,,,,,,,,,,,,,,,,,,,,,,,,,,,,,
null,,learn_phase(without_color),493761,black_plus_sign,,,,,null,US_Cities_List/nat_gatlinburg.png,US_Cities_List/mm_westpalmbeach.png,,,,,,,,,,,,,,,,,,,,,,,,,,,,,,
null,,black_cross(without_color),494723,blue,,,,,null,US_Cities_List/nat_gatlinburg.png,US_Cities_List/mm_westpalmbeach.png,,,,,,,,,,,,,,,,,,,,,,,,,,,,,,
null,,rt_plussign_withcolor,495224,blue,,,,,null,US_Cities_List/nat_gatlinburg.png,US_Cities_List/mm_westpalmbeach.png,,,,,,,,,,,,,,,,,,,,,,,,,,,,,,
732.7,,rt_thecrossant_black,496267,black_plus_sign,,,,,49,,,0.984615385,1,,,,,,,,,,,,,,,,,,,,,,,,,,,,
null,,color_black,496369,black_plus_sign,,,,,null,,,,,,,,,,,,,,,,,,,,,,,,,,,,,,,,
null,,learn_phase(without_color),498886,black_plus_sign,,,,,null,US_Cities_List/nat_leesburg.png,US_Cities_List/mm_boulder.png,,,,,,,,,,,,,,,,,,,,,,,,,,,,,,
null,,black_cross(without_color),499871,green,,,,,null,US_Cities_List/nat_leesburg.png,US_Cities_List/mm_boulder.png,,,,,,,,,,,,,,,,,,,,,,,,,,,,,,
null,,rt_plussign_withcolor,500373,green,,,,,null,US_Cities_List/nat_leesburg.png,US_Cities_List/mm_boulder.png,,,,,,,,,,,,,,,,,,,,,,,,,,,,,,
1304.3,,rt_thecrossant_black,501392,black_plus_sign,,,,,50,,,0.984848485,1,,,,,,,,,,,,,,,,,,,,,,,,,,,,
null,,color_black,501494,black_plus_sign,,,,,null,,,,,,,,,,,,,,,,,,,,,,,,,,,,,,,,
null,,learn_phase(without_color),504020,black_plus_sign,,,,,null,US_Cities_List/nat_hotsprings.png,US_Cities_List/nat_gatlinburg.png,,,,,,,,,,,,,,,,,,,,,,,,,,,,,,
null,,black_cross(without_color),504846,green,,,,,null,US_Cities_List/nat_hotsprings.png,US_Cities_List/nat_gatlinburg.png,,,,,,,,,,,,,,,,,,,,,,,,,,,,,,
null,,rt_plussign_withcolor,505348,green,,,,,null,US_Cities_List/nat_hotsprings.png,US_Cities_List/nat_gatlinburg.png,,,,,,,,,,,,,,,,,,,,,,,,,,,,,,
1363.3,,rt_thecrossant_black,506524,black_plus_sign,,,,,50,,,0.985074627,1,,,,,,,,,,,,,,,,,,,,,,,,,,,,
null,,color_black,506626,black_plus_sign,,,,,null,,,,,,,,,,,,,,,,,,,,,,,,,,,,,,,,
null,,learn_phase(without_color),509145,black_plus_sign,,,,,null,US_Cities_List/nat_hanover.png,US_Cities_List/mm_cornwall.png,,,,,,,,,,,,,,,,,,,,,,,,,,,,,,
null,,black_cross(without_color),510129,blue,,,,,null,US_Cities_List/nat_hanover.png,US_Cities_List/mm_cornwall.png,,,,,,,,,,,,,,,,,,,,,,,,,,,,,,
null,,rt_plussign_withcolor,510631,blue,,,,,null,US_Cities_List/nat_hanover.png,US_Cities_List/mm_cornwall.png,,,,,,,,,,,,,,,,,,,,,,,,,,,,,,
1103.5,,rt_thecrossant_black,511652,black_plus_sign,,,,,49,,,0.985294118,1,,,,,,,,,,,,,,,,,,,,,,,,,,,,
null,,color_black,511754,black_plus_sign,,,,,null,,,,,,,,,,,,,,,,,,,,,,,,,,,,,,,,
null,,learn_phase(without_color),514278,black_plus_sign,,,,,null,US_Cities_List/nat_hotsprings.png,US_Cities_List/mm_racine.png,,,,,,,,,,,,,,,,,,,,,,,,,,,,,,
null,,black_cross(without_color),515114,blue,,,,,null,US_Cities_List/nat_hotsprings.png,US_Cities_List/mm_racine.png,,,,,,,,,,,,,,,,,,,,,,,,,,,,,,
null,,rt_plussign_withcolor,515616,blue,,,,,null,US_Cities_List/nat_hotsprings.png,US_Cities_List/mm_racine.png,,,,,,,,,,,,,,,,,,,,,,,,,,,,,,
1241.4,,rt_thecrossant_black,516784,black_plus_sign,,,,,49,,,0.985507246,1,,,,,,,,,,,,,,,,,,,,,,,,,,,,
null,,color_black,516886,black_plus_sign,,,,,null,,,,,,,,,,,,,,,,,,,,,,,,,,,,,,,,
null,,learn_phase(without_color),519409,black_plus_sign,,,,,null,US_Cities_List/nat_hanover.png,US_Cities_List/mm_cornwall.png,,,,,,,,,,,,,,,,,,,,,,,,,,,,,,
null,,black_cross(without_color),520044,green,,,,,null,US_Cities_List/nat_hanover.png,US_Cities_List/mm_cornwall.png,,,,,,,,,,,,,,,,,,,,,,,,,,,,,,
null,,rt_plussign_withcolor,520557,green,,,,,null,US_Cities_List/nat_hanover.png,US_Cities_List/mm_cornwall.png,,,,,,,,,,,,,,,,,,,,,,,,,,,,,,
1021.5,,rt_thecrossant_black,521926,black_plus_sign,,,,,50,,,0.985714286,1,,,,,,,,,,,,,,,,,,,,,,,,,,,,
null,,color_black,522028,black_plus_sign,,,,,null,,,,,,,,,,,,,,,,,,,,,,,,,,,,,,,,
null,,learn_phase(without_color),524549,black_plus_sign,,,,,null,US_Cities_List/nat_newhope.png,US_Cities_List/nat_gatlinburg.png,,,,,,,,,,,,,,,,,,,,,,,,,,,,,,
null,,black_cross(without_color),525064,blue,,,,,null,US_Cities_List/nat_newhope.png,US_Cities_List/nat_gatlinburg.png,,,,,,,,,,,,,,,,,,,,,,,,,,,,,,
null,,rt_plussign_withcolor,525566,blue,,,,,null,US_Cities_List/nat_newhope.png,US_Cities_List/nat_gatlinburg.png,,,,,,,,,,,,,,,,,,,,,,,,,,,,,,
936,,rt_thecrossant_black,527055,black_plus_sign,,,,,49,,,0.985915493,1,,,,,,,,,,,,,,,,,,,,,,,,,,,,
null,,color_black,527157,black_plus_sign,,,,,null,,,,,,,,,,,,,,,,,,,,,,,,,,,,,,,,
null,,learn_phase(without_color),529675,black_plus_sign,,,,,null,US_Cities_List/nat_hotsprings.png,US_Cities_List/mm_racine.png,,,,,,,,,,,,,,,,,,,,,,,,,,,,,,
null,,black_cross(without_color),530138,green,,,,,null,US_Cities_List/nat_hotsprings.png,US_Cities_List/mm_racine.png,,,,,,,,,,,,,,,,,,,,,,,,,,,,,,
null,,rt_plussign_withcolor,530640,green,,,,,null,US_Cities_List/nat_hotsprings.png,US_Cities_List/mm_racine.png,,,,,,,,,,,,,,,,,,,,,,,,,,,,,,
692.6,,rt_thecrossant_black,532180,black_plus_sign,,,,,50,,,0.986111111,1,,,,,,,,,,,,,,,,,,,,,,,,,,,,
null,,color_black,532289,black_plus_sign,,,,,null,,,,,,,,,,,,,,,,,,,,,,,,,,,,,,,,
null,,learn_phase(without_color),534807,black_plus_sign,,,,,null,US_Cities_List/nat_hanover.png,US_Cities_List/nat_peoria.png,,,,,,,,,,,,,,,,,,,,,,,,,,,,,,
null,,black_cross(without_color),535714,blue,,,,,null,US_Cities_List/nat_hanover.png,US_Cities_List/nat_peoria.png,,,,,,,,,,,,,,,,,,,,,,,,,,,,,,
null,,rt_plussign_withcolor,536216,blue,,,,,null,US_Cities_List/nat_hanover.png,US_Cities_List/nat_peoria.png,,,,,,,,,,,,,,,,,,,,,,,,,,,,,,
952.3000001,,rt_thecrossant_black,537312,black_plus_sign,,,,,49,,,0.98630137,1,,,,,,,,,,,,,,,,,,,,,,,,,,,,
null,,color_black,537414,black_plus_sign,,,,,null,,,,,,,,,,,,,,,,,,,,,,,,,,,,,,,,
null,,learn_phase(without_color),539934,black_plus_sign,,,,,null,US_Cities_List/mm_boulder.png,US_Cities_List/nat_newhope.png,,,,,,,,,,,,,,,,,,,,,,,,,,,,,,
null,,black_cross(without_color),540563,blue,,,,,null,US_Cities_List/mm_boulder.png,US_Cities_List/nat_newhope.png,,,,,,,,,,,,,,,,,,,,,,,,,,,,,,
null,,rt_plussign_withcolor,541065,blue,,,,,null,US_Cities_List/mm_boulder.png,US_Cities_List/nat_newhope.png,,,,,,,,,,,,,,,,,,,,,,,,,,,,,,
1352.5,,rt_thecrossant_black,542439,black_plus_sign,,,,,49,,,0.986486486,1,,,,,,,,,,,,,,,,,,,,,,,,,,,,
null,,color_black,542541,black_plus_sign,,,,,null,,,,,,,,,,,,,,,,,,,,,,,,,,,,,,,,
null,,learn_phase(without_color),545064,black_plus_sign,,,,,null,US_Cities_List/mm_racine.png,US_Cities_List/mm_carmel.png,,,,,,,,,,,,,,,,,,,,,,,,,,,,,,
null,,black_cross(without_color),545928,blue,,,,,null,US_Cities_List/mm_racine.png,US_Cities_List/mm_carmel.png,,,,,,,,,,,,,,,,,,,,,,,,,,,,,,
null,,rt_plussign_withcolor,546430,blue,,,,,null,US_Cities_List/mm_racine.png,US_Cities_List/mm_carmel.png,,,,,,,,,,,,,,,,,,,,,,,,,,,,,,
890.2,,rt_thecrossant_black,547569,black_plus_sign,,,,,49,,,0.986666667,1,,,,,,,,,,,,,,,,,,,,,,,,,,,,
null,,color_black,547673,black_plus_sign,,,,,null,,,,,,,,,,,,,,,,,,,,,,,,,,,,,,,,
null,,learn_phase(without_color),550198,black_plus_sign,,,,,null,US_Cities_List/nat_hotsprings.png,US_Cities_List/mm_racine.png,,,,,,,,,,,,,,,,,,,,,,,,,,,,,,
null,,black_cross(without_color),550738,green,,,,,null,US_Cities_List/nat_hotsprings.png,US_Cities_List/mm_racine.png,,,,,,,,,,,,,,,,,,,,,,,,,,,,,,
null,,rt_plussign_withcolor,551240,green,,,,,null,US_Cities_List/nat_hotsprings.png,US_Cities_List/mm_racine.png,,,,,,,,,,,,,,,,,,,,,,,,,,,,,,
1056.9,,rt_thecrossant_black,552704,black_plus_sign,,,,,50,,,0.986842105,1,,,,,,,,,,,,,,,,,,,,,,,,,,,,
null,,color_black,552806,black_plus_sign,,,,,null,,,,,,,,,,,,,,,,,,,,,,,,,,,,,,,,
null,,learn_phase(without_color),555331,black_plus_sign,,,,,null,US_Cities_List/mm_racine.png,US_Cities_List/mm_carmel.png,,,,,,,,,,,,,,,,,,,,,,,,,,,,,,
null,,black_cross(without_color),556216,green,,,,,null,US_Cities_List/mm_racine.png,US_Cities_List/mm_carmel.png,,,,,,,,,,,,,,,,,,,,,,,,,,,,,,
null,,rt_plussign_withcolor,556718,green,,,,,null,US_Cities_List/mm_racine.png,US_Cities_List/mm_carmel.png,,,,,,,,,,,,,,,,,,,,,,,,,,,,,,
911.5,,rt_thecrossant_black,557838,black_plus_sign,,,,,50,,,0.987012987,1,,,,,,,,,,,,,,,,,,,,,,,,,,,,
null,,color_black,557940,black_plus_sign,,,,,null,,,,,,,,,,,,,,,,,,,,,,,,,,,,,,,,
null,,learn_phase(without_color),560466,black_plus_sign,,,,,null,US_Cities_List/mm_westpalmbeach.png,US_Cities_List/nat_peoria.png,,,,,,,,,,,,,,,,,,,,,,,,,,,,,,
null,,black_cross(without_color),561363,green,,,,,null,US_Cities_List/mm_westpalmbeach.png,US_Cities_List/nat_peoria.png,,,,,,,,,,,,,,,,,,,,,,,,,,,,,,
null,,rt_plussign_withcolor,561865,green,,,,,null,US_Cities_List/mm_westpalmbeach.png,US_Cities_List/nat_peoria.png,,,,,,,,,,,,,,,,,,,,,,,,,,,,,,
1028.9,,rt_thecrossant_black,562969,black_plus_sign,,,,,50,,,0.987179487,1,,,,,,,,,,,,,,,,,,,,,,,,,,,,
null,,color_black,563070,black_plus_sign,,,,,null,,,,,,,,,,,,,,,,,,,,,,,,,,,,,,,,
null,,learn_phase(without_color),565599,black_plus_sign,,,,,null,US_Cities_List/mm_boulder.png,US_Cities_List/mm_westpalmbeach.png,,,,,,,,,,,,,,,,,,,,,,,,,,,,,,
null,,black_cross(without_color),566269,green,,,,,null,US_Cities_List/mm_boulder.png,US_Cities_List/mm_westpalmbeach.png,,,,,,,,,,,,,,,,,,,,,,,,,,,,,,
null,,rt_plussign_withcolor,566771,green,,,,,null,US_Cities_List/mm_boulder.png,US_Cities_List/mm_westpalmbeach.png,,,,,,,,,,,,,,,,,,,,,,,,,,,,,,
1095,,rt_thecrossant_black,568104,black_plus_sign,,,,,50,,,0.987341772,1,,,,,,,,,,,,,,,,,,,,,,,,,,,,
null,,color_black,568206,black_plus_sign,,,,,null,,,,,,,,,,,,,,,,,,,,,,,,,,,,,,,,
null,,learn_phase(without_color),570731,black_plus_sign,,,,,null,US_Cities_List/mm_boulder.png,US_Cities_List/nat_newhope.png,,,,,,,,,,,,,,,,,,,,,,,,,,,,,,
null,,black_cross(without_color),571473,blue,,,,,null,US_Cities_List/mm_boulder.png,US_Cities_List/nat_newhope.png,,,,,,,,,,,,,,,,,,,,,,,,,,,,,,
null,,rt_plussign_withcolor,571975,blue,,,,,null,US_Cities_List/mm_boulder.png,US_Cities_List/nat_newhope.png,,,,,,,,,,,,,,,,,,,,,,,,,,,,,,
852.1999999,,rt_thecrossant_black,573237,black_plus_sign,,,,,49,,,0.9875,1,,,,,,,,,,,,,,,,,,,,,,,,,,,,
null,,color_black,573338,black_plus_sign,,,,,null,,,,,,,,,,,,,,,,,,,,,,,,,,,,,,,,
null,,learn_phase(without_color),575858,black_plus_sign,,,,,null,US_Cities_List/nat_hotsprings.png,US_Cities_List/mm_huntsville.png,,,,,,,,,,,,,,,,,,,,,,,,,,,,,,
null,,black_cross(without_color),576584,green,,,,,null,US_Cities_List/nat_hotsprings.png,US_Cities_List/mm_huntsville.png,,,,,,,,,,,,,,,,,,,,,,,,,,,,,,
null,,rt_plussign_withcolor,577097,green,,,,,null,US_Cities_List/nat_hotsprings.png,US_Cities_List/mm_huntsville.png,,,,,,,,,,,,,,,,,,,,,,,,,,,,,,
1073.1,,rt_thecrossant_black,578373,black_plus_sign,,,,,50,,,0.987654321,1,,,,,,,,,,,,,,,,,,,,,,,,,,,,
null,,color_black,578474,black_plus_sign,,,,,null,,,,,,,,,,,,,,,,,,,,,,,,,,,,,,,,
null,,learn_phase(without_color),580994,black_plus_sign,,,,,null,US_Cities_List/nat_leesburg.png,US_Cities_List/nat_hanover.png,,,,,,,,,,,,,,,,,,,,,,,,,,,,,,
null,,black_cross(without_color),581957,green,,,,,null,US_Cities_List/nat_leesburg.png,US_Cities_List/nat_hanover.png,,,,,,,,,,,,,,,,,,,,,,,,,,,,,,
null,,rt_plussign_withcolor,582459,green,,,,,null,US_Cities_List/nat_leesburg.png,US_Cities_List/nat_hanover.png,,,,,,,,,,,,,,,,,,,,,,,,,,,,,,
975.8,,rt_thecrossant_black,583500,black_plus_sign,,,,,50,,,0.987804878,1,,,,,,,,,,,,,,,,,,,,,,,,,,,,
null,,color_black,583613,black_plus_sign,,,,,null,,,,,,,,,,,,,,,,,,,,,,,,,,,,,,,,
null,,learn_phase(without_color),586135,black_plus_sign,,,,,null,US_Cities_List/mm_racine.png,US_Cities_List/nat_gatlinburg.png,,,,,,,,,,,,,,,,,,,,,,,,,,,,,,
null,,black_cross(without_color),586627,green,,,,,null,US_Cities_List/mm_racine.png,US_Cities_List/nat_gatlinburg.png,,,,,,,,,,,,,,,,,,,,,,,,,,,,,,
null,,rt_plussign_withcolor,587129,green,,,,,null,US_Cities_List/mm_racine.png,US_Cities_List/nat_gatlinburg.png,,,,,,,,,,,,,,,,,,,,,,,,,,,,,,
1185.4,,rt_thecrossant_black,588640,black_plus_sign,,,,,50,,,0.987951807,1,,,,,,,,,,,,,,,,,,,,,,,,,,,,
null,,color_black,588743,black_plus_sign,,,,,null,,,,,,,,,,,,,,,,,,,,,,,,,,,,,,,,
null,,learn_phase(without_color),591263,black_plus_sign,,,,,null,US_Cities_List/mm_boulder.png,US_Cities_List/nat_newhope.png,,,,,,,,,,,,,,,,,,,,,,,,,,,,,,
null,,black_cross(without_color),592040,blue,,,,,null,US_Cities_List/mm_boulder.png,US_Cities_List/nat_newhope.png,,,,,,,,,,,,,,,,,,,,,,,,,,,,,,
502.3000001,,rt_plussign_withcolor,592543,blue,,,,,49,US_Cities_List/mm_boulder.png,US_Cities_List/nat_newhope.png,,,,,,,,,,,,,,,,,,,,,,,,,,,,,,
null,,rt_thecrossant_black,593770,black_plus_sign,,,,,null,,,0.988095238,1,,,,,,,,,,,,,,,,,,,,,,,,,,,,
null,,color_black,593872,black_plus_sign,,,,,null,,,,,,,,,,,,,,,,,,,,,,,,,,,,,,,,
null,,learn_phase(without_color),596392,black_plus_sign,,,,,null,US_Cities_List/mm_racine.png,US_Cities_List/nat_gatlinburg.png,,,,,,,,,,,,,,,,,,,,,,,,,,,,,,
null,,black_cross(without_color),596919,green,,,,,null,US_Cities_List/mm_racine.png,US_Cities_List/nat_gatlinburg.png,,,,,,,,,,,,,,,,,,,,,,,,,,,,,,
null,,rt_plussign_withcolor,597421,green,,,,,null,US_Cities_List/mm_racine.png,US_Cities_List/nat_gatlinburg.png,,,,,,,,,,,,,,,,,,,,,,,,,,,,,,
1078.4,,rt_thecrossant_black,598912,black_plus_sign,,,,,50,,,0.988235294,1,,,,,,,,,,,,,,,,,,,,,,,,,,,,
null,,color_black,599014,black_plus_sign,,,,,null,,,,,,,,,,,,,,,,,,,,,,,,,,,,,,,,
null,,learn_phase(without_color),601533,black_plus_sign,,,,,null,US_Cities_List/nat_shreveport.png,US_Cities_List/nat_leesburg.png,,,,,,,,,,,,,,,,,,,,,,,,,,,,,,
null,,black_cross(without_color),602447,green,,,,,null,US_Cities_List/nat_shreveport.png,US_Cities_List/nat_leesburg.png,,,,,,,,,,,,,,,,,,,,,,,,,,,,,,
null,,rt_plussign_withcolor,602949,green,,,,,null,US_Cities_List/nat_shreveport.png,US_Cities_List/nat_leesburg.png,,,,,,,,,,,,,,,,,,,,,,,,,,,,,,
708.7,,rt_thecrossant_black,604037,black_plus_sign,,,,,50,,,0.988372093,1,,,,,,,,,,,,,,,,,,,,,,,,,,,,
null,,color_black,604139,black_plus_sign,,,,,null,,,,,,,,,,,,,,,,,,,,,,,,,,,,,,,,
null,,learn_phase(without_color),606663,black_plus_sign,,,,,null,US_Cities_List/nat_newhope.png,US_Cities_List/nat_hotsprings.png,,,,,,,,,,,,,,,,,,,,,,,,,,,,,,
null,,black_cross(without_color),607340,blue,,,,,null,US_Cities_List/nat_newhope.png,US_Cities_List/nat_hotsprings.png,,,,,,,,,,,,,,,,,,,,,,,,,,,,,,
null,,rt_plussign_withcolor,607842,blue,,,,,null,US_Cities_List/nat_newhope.png,US_Cities_List/nat_hotsprings.png,,,,,,,,,,,,,,,,,,,,,,,,,,,,,,
1102.9,,rt_thecrossant_black,609175,black_plus_sign,,,,,49,,,0.988505747,1,,,,,,,,,,,,,,,,,,,,,,,,,,,,
null,,color_black,609277,black_plus_sign,,,,,null,,,,,,,,,,,,,,,,,,,,,,,,,,,,,,,,
null,,learn_phase(without_color),611797,black_plus_sign,,,,,null,US_Cities_List/nat_leesburg.png,US_Cities_List/nat_hanover.png,,,,,,,,,,,,,,,,,,,,,,,,,,,,,,
null,,black_cross(without_color),612327,blue,,,,,null,US_Cities_List/nat_leesburg.png,US_Cities_List/nat_hanover.png,,,,,,,,,,,,,,,,,,,,,,,,,,,,,,
null,,rt_plussign_withcolor,612829,blue,,,,,null,US_Cities_List/nat_leesburg.png,US_Cities_List/nat_hanover.png,,,,,,,,,,,,,,,,,,,,,,,,,,,,,,
979.2,,rt_thecrossant_black,614304,black_plus_sign,,,,,49,,,0.988636364,1,,,,,,,,,,,,,,,,,,,,,,,,,,,,
null,,color_black,614406,black_plus_sign,,,,,null,,,,,,,,,,,,,,,,,,,,,,,,,,,,,,,,
null,,learn_phase(without_color),616930,black_plus_sign,,,,,null,US_Cities_List/nat_shreveport.png,US_Cities_List/nat_leesburg.png,,,,,,,,,,,,,,,,,,,,,,,,,,,,,,
null,,black_cross(without_color),617653,blue,,,,,null,US_Cities_List/nat_shreveport.png,US_Cities_List/nat_leesburg.png,,,,,,,,,,,,,,,,,,,,,,,,,,,,,,
null,,rt_plussign_withcolor,618155,blue,,,,,null,US_Cities_List/nat_shreveport.png,US_Cities_List/nat_leesburg.png,,,,,,,,,,,,,,,,,,,,,,,,,,,,,,
748.4,,rt_thecrossant_black,619436,black_plus_sign,,,,,49,,,0.988764045,1,,,,,,,,,,,,,,,,,,,,,,,,,,,,
null,,color_black,619537,black_plus_sign,,,,,null,,,,,,,,,,,,,,,,,,,,,,,,,,,,,,,,
null,,learn_phase(without_color),622056,black_plus_sign,,,,,null,US_Cities_List/nat_hotsprings.png,US_Cities_List/mm_huntsville.png,,,,,,,,,,,,,,,,,,,,,,,,,,,,,,
null,,black_cross(without_color),622622,green,,,,,null,US_Cities_List/nat_hotsprings.png,US_Cities_List/mm_huntsville.png,,,,,,,,,,,,,,,,,,,,,,,,,,,,,,
null,,rt_plussign_withcolor,623134,green,,,,,null,US_Cities_List/nat_hotsprings.png,US_Cities_List/mm_huntsville.png,,,,,,,,,,,,,,,,,,,,,,,,,,,,,,
1028.7,,rt_thecrossant_black,624571,black_plus_sign,,,,,50,,,0.988888889,1,,,,,,,,,,,,,,,,,,,,,,,,,,,,
null,,color_black,624673,black_plus_sign,,,,,null,,,,,,,,,,,,,,,,,,,,,,,,,,,,,,,,
null,,learn_phase(without_color),627198,black_plus_sign,,,,,null,US_Cities_List/mm_boulder.png,US_Cities_List/mm_westpalmbeach.png,,,,,,,,,,,,,,,,,,,,,,,,,,,,,,
null,,black_cross(without_color),627763,blue,,,,,null,US_Cities_List/mm_boulder.png,US_Cities_List/mm_westpalmbeach.png,,,,,,,,,,,,,,,,,,,,,,,,,,,,,,
null,,rt_plussign_withcolor,628264,blue,,,,,null,US_Cities_List/mm_boulder.png,US_Cities_List/mm_westpalmbeach.png,,,,,,,,,,,,,,,,,,,,,,,,,,,,,,
1119.1,,rt_thecrossant_black,629703,black_plus_sign,,,,,49,,,0.989010989,1,,,,,,,,,,,,,,,,,,,,,,,,,,,,
null,,color_black,629805,black_plus_sign,,,,,null,,,,,,,,,,,,,,,,,,,,,,,,,,,,,,,,
null,,learn_phase(without_color),632331,black_plus_sign,,,,,null,US_Cities_List/mm_racine.png,US_Cities_List/nat_gatlinburg.png,,,,,,,,,,,,,,,,,,,,,,,,,,,,,,
null,,black_cross(without_color),632795,blue,,,,,null,US_Cities_List/mm_racine.png,US_Cities_List/nat_gatlinburg.png,,,,,,,,,,,,,,,,,,,,,,,,,,,,,,
null,,rt_plussign_withcolor,633297,blue,,,,,null,US_Cities_List/mm_racine.png,US_Cities_List/nat_gatlinburg.png,,,,,,,,,,,,,,,,,,,,,,,,,,,,,,
783.4,,rt_thecrossant_black,634839,black_plus_sign,,,,,49,,,0.989130435,1,,,,,,,,,,,,,,,,,,,,,,,,,,,,
null,,color_black,634941,black_plus_sign,,,,,null,,,,,,,,,,,,,,,,,,,,,,,,,,,,,,,,
null,,learn_phase(without_color),637459,black_plus_sign,,,,,null,US_Cities_List/nat_shreveport.png,US_Cities_List/nat_leesburg.png,,,,,,,,,,,,,,,,,,,,,,,,,,,,,,
null,,black_cross(without_color),638439,blue,,,,,null,US_Cities_List/nat_shreveport.png,US_Cities_List/nat_leesburg.png,,,,,,,,,,,,,,,,,,,,,,,,,,,,,,
409.4,,rt_plussign_withcolor,638941,blue,,,,,49,US_Cities_List/nat_shreveport.png,US_Cities_List/nat_leesburg.png,,,,,,,,,,,,,,,,,,,,,,,,,,,,,,
null,,rt_thecrossant_black,639965,black_plus_sign,,,,,null,,,0.989247312,1,,,,,,,,,,,,,,,,,,,,,,,,,,,,
null,,color_black,640067,black_plus_sign,,,,,null,,,,,,,,,,,,,,,,,,,,,,,,,,,,,,,,
null,,learn_phase(without_color),642586,black_plus_sign,,,,,null,US_Cities_List/mm_boulder.png,US_Cities_List/nat_newhope.png,,,,,,,,,,,,,,,,,,,,,,,,,,,,,,
null,,black_cross(without_color),643528,blue,,,,,null,US_Cities_List/mm_boulder.png,US_Cities_List/nat_newhope.png,,,,,,,,,,,,,,,,,,,,,,,,,,,,,,
null,,rt_plussign_withcolor,644031,blue,,,,,null,US_Cities_List/mm_boulder.png,US_Cities_List/nat_newhope.png,,,,,,,,,,,,,,,,,,,,,,,,,,,,,,
1121.7,,rt_thecrossant_black,645090,black_plus_sign,,,,,49,,,0.989361702,1,,,,,,,,,,,,,,,,,,,,,,,,,,,,
null,,color_black,645206,black_plus_sign,,,,,null,,,,,,,,,,,,,,,,,,,,,,,,,,,,,,,,
null,,learn_phase(without_color),647728,black_plus_sign,,,,,null,US_Cities_List/mm_racine.png,US_Cities_List/mm_carmel.png,,,,,,,,,,,,,,,,,,,,,,,,,,,,,,
null,,black_cross(without_color),648435,green,,,,,null,US_Cities_List/mm_racine.png,US_Cities_List/mm_carmel.png,,,,,,,,,,,,,,,,,,,,,,,,,,,,,,
489.3,,rt_plussign_withcolor,648937,green,,,,,50,US_Cities_List/mm_racine.png,US_Cities_List/mm_carmel.png,,,,,,,,,,,,,,,,,,,,,,,,,,,,,,
null,,rt_thecrossant_black,650233,black_plus_sign,,,,,null,,,0.989473684,1,,,,,,,,,,,,,,,,,,,,,,,,,,,,
null,,color_black,650335,black_plus_sign,,,,,null,,,,,,,,,,,,,,,,,,,,,,,,,,,,,,,,
null,,learn_phase(without_color),652853,black_plus_sign,,,,,null,US_Cities_List/nat_hanover.png,US_Cities_List/nat_peoria.png,,,,,,,,,,,,,,,,,,,,,,,,,,,,,,
null,,black_cross(without_color),653672,blue,,,,,null,US_Cities_List/nat_hanover.png,US_Cities_List/nat_peoria.png,,,,,,,,,,,,,,,,,,,,,,,,,,,,,,
null,,rt_plussign_withcolor,654174,blue,,,,,null,US_Cities_List/nat_hanover.png,US_Cities_List/nat_peoria.png,,,,,,,,,,,,,,,,,,,,,,,,,,,,,,
942.9,,rt_thecrossant_black,655359,black_plus_sign,,,,,49,,,0.989583333,1,,,,,,,,,,,,,,,,,,,,,,,,,,,,
null,,color_black,655474,black_plus_sign,,,,,null,,,,,,,,,,,,,,,,,,,,,,,,,,,,,,,,
null,,learn_phase(without_color),657996,black_plus_sign,,,,,null,US_Cities_List/nat_hanover.png,US_Cities_List/mm_cornwall.png,,,,,,,,,,,,,,,,,,,,,,,,,,,,,,
null,,black_cross(without_color),658495,green,,,,,null,US_Cities_List/nat_hanover.png,US_Cities_List/mm_cornwall.png,,,,,,,,,,,,,,,,,,,,,,,,,,,,,,
null,,rt_plussign_withcolor,658997,green,,,,,null,US_Cities_List/nat_hanover.png,US_Cities_List/mm_cornwall.png,,,,,,,,,,,,,,,,,,,,,,,,,,,,,,
1295.4,,rt_thecrossant_black,660500,black_plus_sign,,,,,50,,,0.989690722,1,,,,,,,,,,,,,,,,,,,,,,,,,,,,
null,,color_black,660601,black_plus_sign,,,,,null,,,,,,,,,,,,,,,,,,,,,,,,,,,,,,,,
null,,learn_phase(without_color),663127,black_plus_sign,,,,,null,US_Cities_List/mm_racine.png,US_Cities_List/mm_carmel.png,,,,,,,,,,,,,,,,,,,,,,,,,,,,,,
null,,black_cross(without_color),664194,green,,,,,null,US_Cities_List/mm_racine.png,US_Cities_List/mm_carmel.png,,,,,,,,,,,,,,,,,,,,,,,,,,,,,,
null,,rt_plussign_withcolor,664709,green,,,,,null,US_Cities_List/mm_racine.png,US_Cities_List/mm_carmel.png,,,,,,,,,,,,,,,,,,,,,,,,,,,,,,
723.5,,rt_thecrossant_black,665646,black_plus_sign,,,,,50,,,0.989795918,1,,,,,,,,,,,,,,,,,,,,,,,,,,,,
null,,color_black,665748,black_plus_sign,,,,,null,,,,,,,,,,,,,,,,,,,,,,,,,,,,,,,,
null,,learn_phase(without_color),668273,black_plus_sign,,,,,null,US_Cities_List/mm_westpalmbeach.png,US_Cities_List/nat_peoria.png,,,,,,,,,,,,,,,,,,,,,,,,,,,,,,
null,,black_cross(without_color),669074,green,,,,,null,US_Cities_List/mm_westpalmbeach.png,US_Cities_List/nat_peoria.png,,,,,,,,,,,,,,,,,,,,,,,,,,,,,,
null,,rt_plussign_withcolor,669576,green,,,,,null,US_Cities_List/mm_westpalmbeach.png,US_Cities_List/nat_peoria.png,,,,,,,,,,,,,,,,,,,,,,,,,,,,,,
1335.4,,rt_thecrossant_black,670778,black_plus_sign,,,,,50,,,0.98989899,1,,,,,,,,,,,,,,,,,,,,,,,,,,,,
null,,color_black,670880,black_plus_sign,,,,,null,,,,,,,,,,,,,,,,,,,,,,,,,,,,,,,,
null,,learn_phase(without_color),673403,black_plus_sign,,,,,null,US_Cities_List/nat_leesburg.png,US_Cities_List/nat_hanover.png,,,,,,,,,,,,,,,,,,,,,,,,,,,,,,
null,,black_cross(without_color),674332,green,,,,,null,US_Cities_List/nat_leesburg.png,US_Cities_List/nat_hanover.png,,,,,,,,,,,,,,,,,,,,,,,,,,,,,,
null,,rt_plussign_withcolor,674835,green,,,,,null,US_Cities_List/nat_leesburg.png,US_Cities_List/nat_hanover.png,,,,,,,,,,,,,,,,,,,,,,,,,,,,,,
1143.7,,rt_thecrossant_black,675909,black_plus_sign,,,,,50,,,0.99,1,,,,,,,,,,,,,,,,,,,,,,,,,,,,
null,,color_black,676012,black_plus_sign,,,,,null,,,,,,,,,,,,,,,,,,,,,,,,,,,,,,,,
null,,learn_phase(without_color),678537,black_plus_sign,,,,,null,US_Cities_List/mm_racine.png,US_Cities_List/nat_gatlinburg.png,,,,,,,,,,,,,,,,,,,,,,,,,,,,,,
null,,black_cross(without_color),679076,blue,,,,,null,US_Cities_List/mm_racine.png,US_Cities_List/nat_gatlinburg.png,,,,,,,,,,,,,,,,,,,,,,,,,,,,,,
null,,rt_plussign_withcolor,679578,blue,,,,,null,US_Cities_List/mm_racine.png,US_Cities_List/nat_gatlinburg.png,,,,,,,,,,,,,,,,,,,,,,,,,,,,,,
1387.5,,rt_thecrossant_black,681042,black_plus_sign,,,,,49,,,0.99009901,1,,,,,,,,,,,,,,,,,,,,,,,,,,,,
null,,color_black,681144,black_plus_sign,,,,,null,,,,,,,,,,,,,,,,,,,,,,,,,,,,,,,,
null,,learn_phase(without_color),683669,black_plus_sign,,,,,null,US_Cities_List/nat_newhope.png,US_Cities_List/nat_hotsprings.png,,,,,,,,,,,,,,,,,,,,,,,,,,,,,,
null,,black_cross(without_color),684684,blue,,,,,null,US_Cities_List/nat_newhope.png,US_Cities_List/nat_hotsprings.png,,,,,,,,,,,,,,,,,,,,,,,,,,,,,,
null,,rt_plussign_withcolor,685185,blue,,,,,null,US_Cities_List/nat_newhope.png,US_Cities_List/nat_hotsprings.png,,,,,,,,,,,,,,,,,,,,,,,,,,,,,,
902.1999999,,rt_thecrossant_black,686179,black_plus_sign,,,,,49,,,0.990196078,1,,,,,,,,,,,,,,,,,,,,,,,,,,,,
null,,color_black,686281,black_plus_sign,,,,,null,,,,,,,,,,,,,,,,,,,,,,,,,,,,,,,,
null,,learn_phase(without_color),688803,black_plus_sign,,,,,null,US_Cities_List/mm_boulder.png,US_Cities_List/mm_westpalmbeach.png,,,,,,,,,,,,,,,,,,,,,,,,,,,,,,
null,,black_cross(without_color),689726,blue,,,,,null,US_Cities_List/mm_boulder.png,US_Cities_List/mm_westpalmbeach.png,,,,,,,,,,,,,,,,,,,,,,,,,,,,,,
null,,rt_plussign_withcolor,690229,blue,,,,,null,US_Cities_List/mm_boulder.png,US_Cities_List/mm_westpalmbeach.png,,,,,,,,,,,,,,,,,,,,,,,,,,,,,,
1330.3,,rt_thecrossant_black,691321,black_plus_sign,,,,,49,,,0.990291262,1,,,,,,,,,,,,,,,,,,,,,,,,,,,,
null,,color_black,691423,black_plus_sign,,,,,null,,,,,,,,,,,,,,,,,,,,,,,,,,,,,,,,
null,,learn_phase(without_color),693941,black_plus_sign,,,,,null,US_Cities_List/nat_hanover.png,US_Cities_List/nat_peoria.png,,,,,,,,,,,,,,,,,,,,,,,,,,,,,,
null,,black_cross(without_color),694616,blue,,,,,null,US_Cities_List/nat_hanover.png,US_Cities_List/nat_peoria.png,,,,,,,,,,,,,,,,,,,,,,,,,,,,,,
null,,rt_plussign_withcolor,695118,blue,,,,,null,US_Cities_List/nat_hanover.png,US_Cities_List/nat_peoria.png,,,,,,,,,,,,,,,,,,,,,,,,,,,,,,
1265.9,,rt_thecrossant_black,696447,black_plus_sign,,,,,49,,,0.990384615,1,,,,,,,,,,,,,,,,,,,,,,,,,,,,
null,,color_black,696549,black_plus_sign,,,,,null,,,,,,,,,,,,,,,,,,,,,,,,,,,,,,,,
null,,learn_phase(without_color),699069,black_plus_sign,,,,,null,US_Cities_List/mm_racine.png,US_Cities_List/nat_gatlinburg.png,,,,,,,,,,,,,,,,,,,,,,,,,,,,,,
null,,black_cross(without_color),699576,green,,,,,null,US_Cities_List/mm_racine.png,US_Cities_List/nat_gatlinburg.png,,,,,,,,,,,,,,,,,,,,,,,,,,,,,,
null,,rt_plussign_withcolor,700093,green,,,,,null,US_Cities_List/mm_racine.png,US_Cities_List/nat_gatlinburg.png,,,,,,,,,,,,,,,,,,,,,,,,,,,,,,
859.6999999,,rt_thecrossant_black,701589,black_plus_sign,,,,,50,,,0.99047619,1,,,,,,,,,,,,,,,,,,,,,,,,,,,,
null,,color_black,701691,black_plus_sign,,,,,null,,,,,,,,,,,,,,,,,,,,,,,,,,,,,,,,
null,,learn_phase(without_color),704215,black_plus_sign,,,,,null,US_Cities_List/nat_newhope.png,US_Cities_List/nat_gatlinburg.png,,,,,,,,,,,,,,,,,,,,,,,,,,,,,,
null,,black_cross(without_color),704949,blue,,,,,null,US_Cities_List/nat_newhope.png,US_Cities_List/nat_gatlinburg.png,,,,,,,,,,,,,,,,,,,,,,,,,,,,,,
null,,rt_plussign_withcolor,705451,blue,,,,,null,US_Cities_List/nat_newhope.png,US_Cities_List/nat_gatlinburg.png,,,,,,,,,,,,,,,,,,,,,,,,,,,,,,
1033.2,,rt_thecrossant_black,706722,black_plus_sign,,,,,49,,,0.990566038,1,,,,,,,,,,,,,,,,,,,,,,,,,,,,
null,,color_black,706824,black_plus_sign,,,,,null,,,,,,,,,,,,,,,,,,,,,,,,,,,,,,,,
null,,learn_phase(without_color),709350,black_plus_sign,,,,,null,US_Cities_List/mm_westpalmbeach.png,US_Cities_List/nat_peoria.png,,,,,,,,,,,,,,,,,,,,,,,,,,,,,,
null,,black_cross(without_color),710157,blue,,,,,null,US_Cities_List/mm_westpalmbeach.png,US_Cities_List/nat_peoria.png,,,,,,,,,,,,,,,,,,,,,,,,,,,,,,
null,,rt_plussign_withcolor,710659,blue,,,,,null,US_Cities_List/mm_westpalmbeach.png,US_Cities_List/nat_peoria.png,,,,,,,,,,,,,,,,,,,,,,,,,,,,,,
1107.5,,rt_thecrossant_black,711855,black_plus_sign,,,,,49,,,0.990654206,1,,,,,,,,,,,,,,,,,,,,,,,,,,,,
null,,color_black,711957,black_plus_sign,,,,,null,,,,,,,,,,,,,,,,,,,,,,,,,,,,,,,,
null,,learn_phase(without_color),714484,black_plus_sign,,,,,null,US_Cities_List/nat_hotsprings.png,US_Cities_List/mm_huntsville.png,,,,,,,,,,,,,,,,,,,,,,,,,,,,,,
null,,black_cross(without_color),714972,green,,,,,null,US_Cities_List/nat_hotsprings.png,US_Cities_List/mm_huntsville.png,,,,,,,,,,,,,,,,,,,,,,,,,,,,,,
null,,rt_plussign_withcolor,715481,green,,,,,null,US_Cities_List/nat_hotsprings.png,US_Cities_List/mm_huntsville.png,,,,,,,,,,,,,,,,,,,,,,,,,,,,,,
1183,,rt_thecrossant_black,716996,black_plus_sign,,,,,50,,,0.990740741,1,,,,,,,,,,,,,,,,,,,,,,,,,,,,
null,,color_black,717098,black_plus_sign,,,,,null,,,,,,,,,,,,,,,,,,,,,,,,,,,,,,,,
null,,learn_phase(without_color),719619,black_plus_sign,,,,,null,US_Cities_List/nat_hanover.png,US_Cities_List/mm_cornwall.png,,,,,,,,,,,,,,,,,,,,,,,,,,,,,,
null,,black_cross(without_color),720339,blue,,,,,null,US_Cities_List/nat_hanover.png,US_Cities_List/mm_cornwall.png,,,,,,,,,,,,,,,,,,,,,,,,,,,,,,
null,,rt_plussign_withcolor,720841,blue,,,,,null,US_Cities_List/nat_hanover.png,US_Cities_List/mm_cornwall.png,,,,,,,,,,,,,,,,,,,,,,,,,,,,,,
782.8,,rt_thecrossant_black,722125,black_plus_sign,,,,,49,,,0.990825688,1,,,,,,,,,,,,,,,,,,,,,,,,,,,,
null,,color_black,722226,black_plus_sign,,,,,null,,,,,,,,,,,,,,,,,,,,,,,,,,,,,,,,
null,,learn_phase(without_color),724767,black_plus_sign,,,,,null,US_Cities_List/nat_newhope.png,US_Cities_List/nat_hotsprings.png,,,,,,,,,,,,,,,,,,,,,,,,,,,,,,
null,,black_cross(without_color),725310,green,,,,,null,US_Cities_List/nat_newhope.png,US_Cities_List/nat_hotsprings.png,,,,,,,,,,,,,,,,,,,,,,,,,,,,,,
null,,rt_plussign_withcolor,725812,green,,,,,null,US_Cities_List/nat_newhope.png,US_Cities_List/nat_hotsprings.png,,,,,,,,,,,,,,,,,,,,,,,,,,,,,,
857.2,,rt_thecrossant_black,727272,black_plus_sign,,,,,50,,,0.990909091,1,,,,,,,,,,,,,,,,,,,,,,,,,,,,
null,,color_black,727374,black_plus_sign,,,,,null,,,,,,,,,,,,,,,,,,,,,,,,,,,,,,,,
null,,learn_phase(without_color),729896,black_plus_sign,,,,,null,US_Cities_List/nat_hotsprings.png,US_Cities_List/mm_huntsville.png,,,,,,,,,,,,,,,,,,,,,,,,,,,,,,
null,,black_cross(without_color),730864,blue,,,,,null,US_Cities_List/nat_hotsprings.png,US_Cities_List/mm_huntsville.png,,,,,,,,,,,,,,,,,,,,,,,,,,,,,,
null,,rt_plussign_withcolor,731367,blue,,,,,null,US_Cities_List/nat_hotsprings.png,US_Cities_List/mm_huntsville.png,,,,,,,,,,,,,,,,,,,,,,,,,,,,,,
807,,rt_thecrossant_black,732402,black_plus_sign,,,,,49,,,0.990990991,1,,,,,,,,,,,,,,,,,,,,,,,,,,,,
null,,color_black,732504,black_plus_sign,,,,,null,,,,,,,,,,,,,,,,,,,,,,,,,,,,,,,,
null,,learn_phase(without_color),735031,black_plus_sign,,,,,null,US_Cities_List/nat_hotsprings.png,US_Cities_List/nat_gatlinburg.png,,,,,,,,,,,,,,,,,,,,,,,,,,,,,,
null,,black_cross(without_color),735438,green,,,,,null,US_Cities_List/nat_hotsprings.png,US_Cities_List/nat_gatlinburg.png,,,,,,,,,,,,,,,,,,,,,,,,,,,,,,
null,,rt_plussign_withcolor,735940,green,,,,,null,US_Cities_List/nat_hotsprings.png,US_Cities_List/nat_gatlinburg.png,,,,,,,,,,,,,,,,,,,,,,,,,,,,,,
1224.2,,rt_thecrossant_black,737537,black_plus_sign,,,,,50,,,0.991071429,1,,,,,,,,,,,,,,,,,,,,,,,,,,,,
null,,color_black,737639,black_plus_sign,,,,,null,,,,,,,,,,,,,,,,,,,,,,,,,,,,,,,,
null,,learn_phase(without_color),740158,black_plus_sign,,,,,null,US_Cities_List/nat_leesburg.png,US_Cities_List/mm_boulder.png,,,,,,,,,,,,,,,,,,,,,,,,,,,,,,
null,,black_cross(without_color),740996,blue,,,,,null,US_Cities_List/nat_leesburg.png,US_Cities_List/mm_boulder.png,,,,,,,,,,,,,,,,,,,,,,,,,,,,,,
null,,rt_plussign_withcolor,741498,blue,,,,,null,US_Cities_List/nat_leesburg.png,US_Cities_List/mm_boulder.png,,,,,,,,,,,,,,,,,,,,,,,,,,,,,,
580,,rt_thecrossant_black,742663,black_plus_sign,,,,,49,,,0.991150442,1,,,,,,,,,,,,,,,,,,,,,,,,,,,,
null,,color_black,742765,black_plus_sign,,,,,null,,,,,,,,,,,,,,,,,,,,,,,,,,,,,,,,
null,,learn_phase(without_color),745293,black_plus_sign,,,,,null,US_Cities_List/mm_boulder.png,US_Cities_List/mm_westpalmbeach.png,,,,,,,,,,,,,,,,,,,,,,,,,,,,,,
null,,black_cross(without_color),745965,blue,,,,,null,US_Cities_List/mm_boulder.png,US_Cities_List/mm_westpalmbeach.png,,,,,,,,,,,,,,,,,,,,,,,,,,,,,,
null,,rt_plussign_withcolor,746467,blue,,,,,null,US_Cities_List/mm_boulder.png,US_Cities_List/mm_westpalmbeach.png,,,,,,,,,,,,,,,,,,,,,,,,,,,,,,
1099.9,,rt_thecrossant_black,747797,black_plus_sign,,,,,49,,,0.99122807,1,,,,,,,,,,,,,,,,,,,,,,,,,,,,
null,,color_black,747898,black_plus_sign,,,,,null,,,,,,,,,,,,,,,,,,,,,,,,,,,,,,,,
null,,learn_phase(without_color),750425,black_plus_sign,,,,,null,US_Cities_List/mm_westpalmbeach.png,US_Cities_List/nat_peoria.png,,,,,,,,,,,,,,,,,,,,,,,,,,,,,,
null,,black_cross(without_color),751420,green,,,,,null,US_Cities_List/mm_westpalmbeach.png,US_Cities_List/nat_peoria.png,,,,,,,,,,,,,,,,,,,,,,,,,,,,,,
null,,rt_plussign_withcolor,751923,green,,,,,null,US_Cities_List/mm_westpalmbeach.png,US_Cities_List/nat_peoria.png,,,,,,,,,,,,,,,,,,,,,,,,,,,,,,
953.6999999,,rt_thecrossant_black,752931,black_plus_sign,,,,,50,,,0.991304348,1,,,,,,,,,,,,,,,,,,,,,,,,,,,,
null,,color_black,753033,black_plus_sign,,,,,null,,,,,,,,,,,,,,,,,,,,,,,,,,,,,,,,
null,,learn_phase(without_color),755550,black_plus_sign,,,,,null,US_Cities_List/nat_leesburg.png,US_Cities_List/mm_boulder.png,,,,,,,,,,,,,,,,,,,,,,,,,,,,,,
null,,black_cross(without_color),756108,green,,,,,null,US_Cities_List/nat_leesburg.png,US_Cities_List/mm_boulder.png,,,,,,,,,,,,,,,,,,,,,,,,,,,,,,
null,,rt_plussign_withcolor,756610,green,,,,,null,US_Cities_List/nat_leesburg.png,US_Cities_List/mm_boulder.png,,,,,,,,,,,,,,,,,,,,,,,,,,,,,,
1286,,rt_thecrossant_black,758056,black_plus_sign,,,,,50,,,0.99137931,1,,,,,,,,,,,,,,,,,,,,,,,,,,,,
null,,color_black,758157,black_plus_sign,,,,,null,,,,,,,,,,,,,,,,,,,,,,,,,,,,,,,,
null,,learn_phase(without_color),760682,black_plus_sign,,,,,null,US_Cities_List/mm_boulder.png,US_Cities_List/mm_westpalmbeach.png,,,,,,,,,,,,,,,,,,,,,,,,,,,,,,
null,,black_cross(without_color),761119,green,,,,,null,US_Cities_List/mm_boulder.png,US_Cities_List/mm_westpalmbeach.png,,,,,,,,,,,,,,,,,,,,,,,,,,,,,,
null,,rt_plussign_withcolor,761621,green,,,,,null,US_Cities_List/mm_boulder.png,US_Cities_List/mm_westpalmbeach.png,,,,,,,,,,,,,,,,,,,,,,,,,,,,,,
831.1999999,,rt_thecrossant_black,763187,black_plus_sign,,,,,50,,,0.991452991,1,,,,,,,,,,,,,,,,,,,,,,,,,,,,
null,,color_black,763289,black_plus_sign,,,,,null,,,,,,,,,,,,,,,,,,,,,,,,,,,,,,,,
null,,learn_phase(without_color),765811,black_plus_sign,,,,,null,US_Cities_List/nat_hotsprings.png,US_Cities_List/nat_gatlinburg.png,,,,,,,,,,,,,,,,,,,,,,,,,,,,,,
null,,black_cross(without_color),766391,blue,,,,,null,US_Cities_List/nat_hotsprings.png,US_Cities_List/nat_gatlinburg.png,,,,,,,,,,,,,,,,,,,,,,,,,,,,,,
null,,rt_plussign_withcolor,766893,blue,,,,,null,US_Cities_List/nat_hotsprings.png,US_Cities_List/nat_gatlinburg.png,,,,,,,,,,,,,,,,,,,,,,,,,,,,,,
673.1,,rt_thecrossant_black,768317,black_plus_sign,,,,,49,,,0.991525424,1,,,,,,,,,,,,,,,,,,,,,,,,,,,,
null,,color_black,768419,black_plus_sign,,,,,null,,,,,,,,,,,,,,,,,,,,,,,,,,,,,,,,
null,,learn_phase(without_color),770938,black_plus_sign,,,,,null,US_Cities_List/mm_racine.png,US_Cities_List/mm_carmel.png,,,,,,,,,,,,,,,,,,,,,,,,,,,,,,
null,,black_cross(without_color),771815,green,,,,,null,US_Cities_List/mm_racine.png,US_Cities_List/mm_carmel.png,,,,,,,,,,,,,,,,,,,,,,,,,,,,,,
null,,rt_plussign_withcolor,772318,green,,,,,null,US_Cities_List/mm_racine.png,US_Cities_List/mm_carmel.png,,,,,,,,,,,,,,,,,,,,,,,,,,,,,,
706.6,,rt_thecrossant_black,773445,black_plus_sign,,,,,50,,,0.991596639,1,,,,,,,,,,,,,,,,,,,,,,,,,,,,
null,,color_black,773547,black_plus_sign,,,,,null,,,,,,,,,,,,,,,,,,,,,,,,,,,,,,,,
null,,learn_phase(without_color),776081,black_plus_sign,,,,,null,US_Cities_List/nat_gatlinburg.png,US_Cities_List/mm_westpalmbeach.png,,,,,,,,,,,,,,,,,,,,,,,,,,,,,,
null,,black_cross(without_color),777130,green,,,,,null,US_Cities_List/nat_gatlinburg.png,US_Cities_List/mm_westpalmbeach.png,,,,,,,,,,,,,,,,,,,,,,,,,,,,,,
null,,rt_plussign_withcolor,777631,green,,,,,null,US_Cities_List/nat_gatlinburg.png,US_Cities_List/mm_westpalmbeach.png,,,,,,,,,,,,,,,,,,,,,,,,,,,,,,
1130.4,,rt_thecrossant_black,778590,black_plus_sign,,,,,50,,,0.991666667,1,,,,,,,,,,,,,,,,,,,,,,,,,,,,
null,,color_black,778697,black_plus_sign,,,,,null,,,,,,,,,,,,,,,,,,,,,,,,,,,,,,,,
null,,learn_phase(without_color),781215,black_plus_sign,,,,,null,US_Cities_List/nat_hanover.png,US_Cities_List/nat_peoria.png,,,,,,,,,,,,,,,,,,,,,,,,,,,,,,
null,,black_cross(without_color),781984,blue,,,,,null,US_Cities_List/nat_hanover.png,US_Cities_List/nat_peoria.png,,,,,,,,,,,,,,,,,,,,,,,,,,,,,,
null,,rt_plussign_withcolor,782486,blue,,,,,null,US_Cities_List/nat_hanover.png,US_Cities_List/nat_peoria.png,,,,,,,,,,,,,,,,,,,,,,,,,,,,,,
1472.2,,rt_thecrossant_black,783721,black_plus_sign,,,,,49,,,0.991735537,1,,,,,,,,,,,,,,,,,,,,,,,,,,,,
null,,color_black,783823,black_plus_sign,,,,,null,,,,,,,,,,,,,,,,,,,,,,,,,,,,,,,,
null,,learn_phase(without_color),786345,black_plus_sign,,,,,null,US_Cities_List/nat_newhope.png,US_Cities_List/nat_hotsprings.png,,,,,,,,,,,,,,,,,,,,,,,,,,,,,,
null,,black_cross(without_color),787096,green,,,,,null,US_Cities_List/nat_newhope.png,US_Cities_List/nat_hotsprings.png,,,,,,,,,,,,,,,,,,,,,,,,,,,,,,
null,,rt_plussign_withcolor,787598,green,,,,,null,US_Cities_List/nat_newhope.png,US_Cities_List/nat_hotsprings.png,,,,,,,,,,,,,,,,,,,,,,,,,,,,,,
1040,,rt_thecrossant_black,788852,black_plus_sign,,,,,50,,,0.991803279,1,,,,,,,,,,,,,,,,,,,,,,,,,,,,
null,,color_black,788954,black_plus_sign,,,,,null,,,,,,,,,,,,,,,,,,,,,,,,,,,,,,,,
null,,learn_phase(without_color),791487,black_plus_sign,,,,,null,US_Cities_List/nat_gatlinburg.png,US_Cities_List/mm_westpalmbeach.png,,,,,,,,,,,,,,,,,,,,,,,,,,,,,,
null,,black_cross(without_color),791924,green,,,,,null,US_Cities_List/nat_gatlinburg.png,US_Cities_List/mm_westpalmbeach.png,,,,,,,,,,,,,,,,,,,,,,,,,,,,,,
null,,rt_plussign_withcolor,792426,green,,,,,null,US_Cities_List/nat_gatlinburg.png,US_Cities_List/mm_westpalmbeach.png,,,,,,,,,,,,,,,,,,,,,,,,,,,,,,
1018.3,,rt_thecrossant_black,793992,black_plus_sign,,,,,50,,,0.991869919,1,,,,,,,,,,,,,,,,,,,,,,,,,,,,
null,,color_black,794094,black_plus_sign,,,,,null,,,,,,,,,,,,,,,,,,,,,,,,,,,,,,,,
null,,learn_phase(without_color),796618,black_plus_sign,,,,,null,US_Cities_List/nat_hotsprings.png,US_Cities_List/mm_racine.png,,,,,,,,,,,,,,,,,,,,,,,,,,,,,,
null,,black_cross(without_color),797540,blue,,,,,null,US_Cities_List/nat_hotsprings.png,US_Cities_List/mm_racine.png,,,,,,,,,,,,,,,,,,,,,,,,,,,,,,
null,,rt_plussign_withcolor,798042,blue,,,,,null,US_Cities_List/nat_hotsprings.png,US_Cities_List/mm_racine.png,,,,,,,,,,,,,,,,,,,,,,,,,,,,,,
743.8,,rt_thecrossant_black,799123,black_plus_sign,,,,,49,,,0.991935484,1,,,,,,,,,,,,,,,,,,,,,,,,,,,,
null,,color_black,799225,black_plus_sign,,,,,null,,,,,,,,,,,,,,,,,,,,,,,,,,,,,,,,
null,,learn_phase(without_color),801758,black_plus_sign,,,,,null,US_Cities_List/nat_gatlinburg.png,US_Cities_List/mm_westpalmbeach.png,,,,,,,,,,,,,,,,,,,,,,,,,,,,,,
null,,black_cross(without_color),802719,green,,,,,null,US_Cities_List/nat_gatlinburg.png,US_Cities_List/mm_westpalmbeach.png,,,,,,,,,,,,,,,,,,,,,,,,,,,,,,
null,,rt_plussign_withcolor,803221,green,,,,,null,US_Cities_List/nat_gatlinburg.png,US_Cities_List/mm_westpalmbeach.png,,,,,,,,,,,,,,,,,,,,,,,,,,,,,,
1044.3,,rt_thecrossant_black,804263,black_plus_sign,,,,,50,,,0.992,1,,,,,,,,,,,,,,,,,,,,,,,,,,,,
null,,color_black,804365,black_plus_sign,,,,,null,,,,,,,,,,,,,,,,,,,,,,,,,,,,,,,,
null,,learn_phase(without_color),806888,black_plus_sign,,,,,null,US_Cities_List/nat_leesburg.png,US_Cities_List/mm_boulder.png,,,,,,,,,,,,,,,,,,,,,,,,,,,,,,
null,,black_cross(without_color),807322,green,,,,,null,US_Cities_List/nat_leesburg.png,US_Cities_List/mm_boulder.png,,,,,,,,,,,,,,,,,,,,,,,,,,,,,,
null,,rt_plussign_withcolor,807824,green,,,,,null,US_Cities_List/nat_leesburg.png,US_Cities_List/mm_boulder.png,,,,,,,,,,,,,,,,,,,,,,,,,,,,,,
1339.1,,rt_thecrossant_black,809392,black_plus_sign,,,,,50,,,0.992063492,1,,,,,,,,,,,,,,,,,,,,,,,,,,,,
null,,color_black,809494,black_plus_sign,,,,,null,,,,,,,,,,,,,,,,,,,,,,,,,,,,,,,,
null,,learn_phase(without_color),812012,black_plus_sign,,,,,null,US_Cities_List/nat_hotsprings.png,US_Cities_List/mm_racine.png,,,,,,,,,,,,,,,,,,,,,,,,,,,,,,
null,,black_cross(without_color),812546,blue,,,,,null,US_Cities_List/nat_hotsprings.png,US_Cities_List/mm_racine.png,,,,,,,,,,,,,,,,,,,,,,,,,,,,,,
null,,rt_plussign_withcolor,813048,blue,,,,,null,US_Cities_List/nat_hotsprings.png,US_Cities_List/mm_racine.png,,,,,,,,,,,,,,,,,,,,,,,,,,,,,,
797.5,,rt_thecrossant_black,814518,black_plus_sign,,,,,49,,,0.992125984,1,,,,,,,,,,,,,,,,,,,,,,,,,,,,
null,,color_black,814620,black_plus_sign,,,,,null,,,,,,,,,,,,,,,,,,,,,,,,,,,,,,,,
15665.9,,intro_1,830288,instruct,,,0,,,,,,,,,,,,,,,,,,,,,,,,,,,,,,,,,,
28377.4,,intro_2,858666,instruct,,,1,Next,,,,,,,,,,,,,,,,,,,,,,,,,,,,,,,,,
2979.7,,directmemory_phase,861685,../static/images/US_Cities_List/nat_leesburg.png,,,,,49,,,0,0,../static/images/US_Cities_List/mm_racine.png,../static/images/US_Cities_List/nat_peoria.png,../static/images/US_Cities_List/mm_boulder.png,../static/images/US_Cities_List/mm_boulder.png,../static/images/US_Cities_List/nat_peoria.png,../static/images/US_Cities_List/mm_racine.png,0.5,closer,,,,,,,,,,,,,,,,,,,,
null,,html-keyboard-response,862690,<p></p>,,,,,null,,,,,,,,,,,,,,,,,,,,,,,,,,,,,,,,
2127.5,,directmemory_phase,864853,../static/images/US_Cities_List/mm_carmel.png,,,,,49,,,0,0,../static/images/US_Cities_List/mm_huntsville.png,../static/images/US_Cities_List/nat_hotsprings.png,../static/images/US_Cities_List/mm_racine.png,../static/images/US_Cities_List/mm_racine.png,../static/images/US_Cities_List/nat_hotsprings.png,../static/images/US_Cities_List/mm_huntsville.png,0.5,closer,,,,,,,,,,,,,,,,,,,,
null,,html-keyboard-response,865858,<p></p>,,,,,null,,,,,,,,,,,,,,,,,,,,,,,,,,,,,,,,
2318.3,,directmemory_phase,868217,../static/images/US_Cities_List/nat_gatlinburg.png,,,,,49,,,0,0,../static/images/US_Cities_List/mm_boulder.png,../static/images/US_Cities_List/mm_westpalmbeach.png,../static/images/US_Cities_List/nat_leesburg.png,../static/images/US_Cities_List/mm_westpalmbeach.png,../static/images/US_Cities_List/mm_boulder.png,../static/images/US_Cities_List/nat_leesburg.png,0.5,closer,,,,,,,,,,,,,,,,,,,,
null,,html-keyboard-response,869221,<p></p>,,,,,null,,,,,,,,,,,,,,,,,,,,,,,,,,,,,,,,
2288.6,,directmemory_phase,871555,../static/images/US_Cities_List/mm_boulder.png,,,,,50,,,0,0,../static/images/US_Cities_List/mm_carmel.png,../static/images/US_Cities_List/nat_gatlinburg.png,../static/images/US_Cities_List/nat_leesburg.png,../static/images/US_Cities_List/nat_leesburg.png,../static/images/US_Cities_List/nat_gatlinburg.png,../static/images/US_Cities_List/mm_carmel.png,0.5,closer,,,,,,,,,,,,,,,,,,,,
null,,html-keyboard-response,872560,<p></p>,,,,,null,,,,,,,,,,,,,,,,,,,,,,,,,,,,,,,,
2526.7,,directmemory_phase,875134,../static/images/US_Cities_List/mm_racine.png,,,,,49,,,0,0,../static/images/US_Cities_List/nat_hanover.png,../static/images/US_Cities_List/mm_westpalmbeach.png,../static/images/US_Cities_List/nat_gatlinburg.png,../static/images/US_Cities_List/nat_gatlinburg.png,../static/images/US_Cities_List/mm_westpalmbeach.png,../static/images/US_Cities_List/nat_hanover.png,0.5,closer,,,,,,,,,,,,,,,,,,,,
null,,html-keyboard-response,876137,<p></p>,,,,,null,,,,,,,,,,,,,,,,,,,,,,,,,,,,,,,,
1939.4,,directmemory_phase,878123,../static/images/US_Cities_List/mm_boulder.png,,,,,51,,,0,0,../static/images/US_Cities_List/mm_westpalmbeach.png,../static/images/US_Cities_List/mm_racine.png,../static/images/US_Cities_List/nat_peoria.png,../static/images/US_Cities_List/mm_westpalmbeach.png,../static/images/US_Cities_List/nat_peoria.png,../static/images/US_Cities_List/mm_racine.png,0.5,closer,,,,,,,,,,,,,,,,,,,,
null,,html-keyboard-response,879128,<p></p>,,,,,null,,,,,,,,,,,,,,,,,,,,,,,,,,,,,,,,
1736.9,,directmemory_phase,880897,../static/images/US_Cities_List/nat_gatlinburg.png,,,,,49,,,0.142857143,1,../static/images/US_Cities_List/mm_racine.png,../static/images/US_Cities_List/nat_shreveport.png,../static/images/US_Cities_List/nat_peoria.png,../static/images/US_Cities_List/mm_racine.png,../static/images/US_Cities_List/nat_peoria.png,../static/images/US_Cities_List/nat_shreveport.png,1,,,,,,,,,,,,,,,,,,,,,
null,,html-keyboard-response,881901,<p></p>,,,,,null,,,,,,,,,,,,,,,,,,,,,,,,,,,,,,,,
1761.6,,directmemory_phase,883698,../static/images/US_Cities_List/nat_hanover.png,,,,,50,,,0.25,1,../static/images/US_Cities_List/mm_westpalmbeach.png,../static/images/US_Cities_List/nat_leesburg.png,../static/images/US_Cities_List/nat_newhope.png,../static/images/US_Cities_List/nat_leesburg.png,../static/images/US_Cities_List/mm_westpalmbeach.png,../static/images/US_Cities_List/nat_newhope.png,1,,,,,,,,,,,,,,,,,,,,,
null,,html-keyboard-response,884703,<p></p>,,,,,null,,,,,,,,,,,,,,,,,,,,,,,,,,,,,,,,
1913.1,,directmemory_phase,886660,../static/images/US_Cities_List/mm_racine.png,,,,,50,,,0.333333333,1,../static/images/US_Cities_List/mm_westpalmbeach.png,../static/images/US_Cities_List/mm_carmel.png,../static/images/US_Cities_List/nat_leesburg.png,../static/images/US_Cities_List/mm_carmel.png,../static/images/US_Cities_List/mm_westpalmbeach.png,../static/images/US_Cities_List/nat_leesburg.png,1,,,,,,,,,,,,,,,,,,,,,
null,,html-keyboard-response,887665,<p></p>,,,,,null,,,,,,,,,,,,,,,,,,,,,,,,,,,,,,,,
1367.2,,directmemory_phase,889067,../static/images/US_Cities_List/mm_westpalmbeach.png,,,,,50,,,0.3,0,../static/images/US_Cities_List/nat_gatlinburg.png,../static/images/US_Cities_List/mm_huntsville.png,../static/images/US_Cities_List/nat_hotsprings.png,../static/images/US_Cities_List/nat_gatlinburg.png,../static/images/US_Cities_List/nat_hotsprings.png,../static/images/US_Cities_List/mm_huntsville.png,0.5,closer,,,,,,,,,,,,,,,,,,,,
null,,html-keyboard-response,890072,<p></p>,,,,,null,,,,,,,,,,,,,,,,,,,,,,,,,,,,,,,,
1072.8,,directmemory_phase,891187,../static/images/US_Cities_List/nat_newhope.png,,,,,49,,,0.363636364,1,../static/images/US_Cities_List/nat_hotsprings.png,../static/images/US_Cities_List/nat_peoria.png,../static/images/US_Cities_List/mm_westpalmbeach.png,../static/images/US_Cities_List/nat_hotsprings.png,../static/images/US_Cities_List/mm_westpalmbeach.png,../static/images/US_Cities_List/nat_peoria.png,1,,,,,,,,,,,,,,,,,,,,,
null,,html-keyboard-response,892193,<p></p>,,,,,null,,,,,,,,,,,,,,,,,,,,,,,,,,,,,,,,
1888.7,,directmemory_phase,894131,../static/images/US_Cities_List/nat_peoria.png,,,,,51,,,0.333333333,0,../static/images/US_Cities_List/mm_westpalmbeach.png,../static/images/US_Cities_List/nat_hotsprings.png,../static/images/US_Cities_List/nat_gatlinburg.png,../static/images/US_Cities_List/mm_westpalmbeach.png,../static/images/US_Cities_List/nat_gatlinburg.png,../static/images/US_Cities_List/nat_hotsprings.png,0.5,closer,,,,,,,,,,,,,,,,,,,,
null,,html-keyboard-response,895136,<p></p>,,,,,null,,,,,,,,,,,,,,,,,,,,,,,,,,,,,,,,
1396.1,,directmemory_phase,896565,../static/images/US_Cities_List/nat_hotsprings.png,,,,,49,,,0.307692308,0,../static/images/US_Cities_List/nat_leesburg.png,../static/images/US_Cities_List/mm_boulder.png,../static/images/US_Cities_List/mm_huntsville.png,../static/images/US_Cities_List/mm_huntsville.png,../static/images/US_Cities_List/mm_boulder.png,../static/images/US_Cities_List/nat_leesburg.png,0.5,closer,,,,,,,,,,,,,,,,,,,,
null,,html-keyboard-response,897569,<p></p>,,,,,null,,,,,,,,,,,,,,,,,,,,,,,,,,,,,,,,
1309,,directmemory_phase,898918,../static/images/US_Cities_List/nat_newhope.png,,,,,49,,,0.357142857,1,../static/images/US_Cities_List/mm_boulder.png,../static/images/US_Cities_List/mm_carmel.png,../static/images/US_Cities_List/mm_huntsville.png,../static/images/US_Cities_List/mm_boulder.png,../static/images/US_Cities_List/mm_huntsville.png,../static/images/US_Cities_List/mm_carmel.png,1,,,,,,,,,,,,,,,,,,,,,
null,,html-keyboard-response,899922,<p></p>,,,,,null,,,,,,,,,,,,,,,,,,,,,,,,,,,,,,,,
1832.1,,directmemory_phase,901791,../static/images/US_Cities_List/mm_cornwall.png,,,,,50,,,0.333333333,0,../static/images/US_Cities_List/nat_newhope.png,../static/images/US_Cities_List/nat_leesburg.png,../static/images/US_Cities_List/nat_hanover.png,../static/images/US_Cities_List/nat_hanover.png,../static/images/US_Cities_List/nat_leesburg.png,../static/images/US_Cities_List/nat_newhope.png,0.5,closer,,,,,,,,,,,,,,,,,,,,
null,,html-keyboard-response,902805,<p></p>,,,,,null,,,,,,,,,,,,,,,,,,,,,,,,,,,,,,,,
1530.7,,directmemory_phase,904386,../static/images/US_Cities_List/nat_hotsprings.png,,,,,51,,,0.3125,0,../static/images/US_Cities_List/nat_gatlinburg.png,../static/images/US_Cities_List/nat_leesburg.png,../static/images/US_Cities_List/mm_carmel.png,../static/images/US_Cities_List/nat_gatlinburg.png,../static/images/US_Cities_List/mm_carmel.png,../static/images/US_Cities_List/nat_leesburg.png,0.5,closer,,,,,,,,,,,,,,,,,,,,
null,,html-keyboard-response,905390,<p></p>,,,,,null,,,,,,,,,,,,,,,,,,,,,,,,,,,,,,,,
1739.5,,directmemory_phase,907169,../static/images/US_Cities_List/nat_hanover.png,,,,,50,,,0.294117647,0,../static/images/US_Cities_List/nat_hotsprings.png,../static/images/US_Cities_List/nat_shreveport.png,../static/images/US_Cities_List/nat_peoria.png,../static/images/US_Cities_List/nat_peoria.png,../static/images/US_Cities_List/nat_shreveport.png,../static/images/US_Cities_List/nat_hotsprings.png,0.5,closer,,,,,,,,,,,,,,,,,,,,
null,,html-keyboard-response,908174,<p></p>,,,,,null,,,,,,,,,,,,,,,,,,,,,,,,,,,,,,,,
1829.6,,directmemory_phase,910050,../static/images/US_Cities_List/mm_westpalmbeach.png,,,,,50,,,0.277777778,0,../static/images/US_Cities_List/nat_shreveport.png,../static/images/US_Cities_List/nat_hanover.png,../static/images/US_Cities_List/mm_boulder.png,../static/images/US_Cities_List/mm_boulder.png,../static/images/US_Cities_List/nat_hanover.png,../static/images/US_Cities_List/nat_shreveport.png,0.5,closer,,,,,,,,,,,,,,,,,,,,
null,,html-keyboard-response,911054,<p></p>,,,,,null,,,,,,,,,,,,,,,,,,,,,,,,,,,,,,,,
2058.8,,directmemory_phase,913146,../static/images/US_Cities_List/nat_peoria.png,,,,,49,,,0.263157895,0,../static/images/US_Cities_List/nat_gatlinburg.png,../static/images/US_Cities_List/nat_hanover.png,../static/images/US_Cities_List/mm_huntsville.png,../static/images/US_Cities_List/nat_hanover.png,../static/images/US_Cities_List/nat_gatlinburg.png,../static/images/US_Cities_List/mm_huntsville.png,0.5,closer,,,,,,,,,,,,,,,,,,,,
null,,html-keyboard-response,914150,<p></p>,,,,,null,,,,,,,,,,,,,,,,,,,,,,,,,,,,,,,,
1228.9,,directmemory_phase,915419,../static/images/US_Cities_List/nat_gatlinburg.png,,,,,49,,,0.25,0,../static/images/US_Cities_List/nat_leesburg.png,../static/images/US_Cities_List/mm_boulder.png,../static/images/US_Cities_List/nat_newhope.png,../static/images/US_Cities_List/nat_newhope.png,../static/images/US_Cities_List/mm_boulder.png,../static/images/US_Cities_List/nat_leesburg.png,0.5,closer,,,,,,,,,,,,,,,,,,,,
null,,html-keyboard-response,916424,<p></p>,,,,,null,,,,,,,,,,,,,,,,,,,,,,,,,,,,,,,,
1781.8,,directmemory_phase,918246,../static/images/US_Cities_List/mm_racine.png,,,,,51,,,0.238095238,0,../static/images/US_Cities_List/nat_hotsprings.png,../static/images/US_Cities_List/nat_hanover.png,../static/images/US_Cities_List/mm_westpalmbeach.png,../static/images/US_Cities_List/nat_hotsprings.png,../static/images/US_Cities_List/mm_westpalmbeach.png,../static/images/US_Cities_List/nat_hanover.png,0.5,closer,,,,,,,,,,,,,,,,,,,,
null,,html-keyboard-response,919249,<p></p>,,,,,null,,,,,,,,,,,,,,,,,,,,,,,,,,,,,,,,
1941.7,,directmemory_phase,921226,../static/images/US_Cities_List/mm_westpalmbeach.png,,,,,49,,,0.227272727,0,../static/images/US_Cities_List/nat_shreveport.png,../static/images/US_Cities_List/nat_hotsprings.png,../static/images/US_Cities_List/nat_peoria.png,../static/images/US_Cities_List/nat_peoria.png,../static/images/US_Cities_List/nat_hotsprings.png,../static/images/US_Cities_List/nat_shreveport.png,0.5,closer,,,,,,,,,,,,,,,,,,,,
null,,html-keyboard-response,922229,<p></p>,,,,,null,,,,,,,,,,,,,,,,,,,,,,,,,,,,,,,,
1696.2,,directmemory_phase,923964,../static/images/US_Cities_List/nat_hanover.png,,,,,49,,,0.217391304,0,../static/images/US_Cities_List/mm_westpalmbeach.png,../static/images/US_Cities_List/mm_cornwall.png,../static/images/US_Cities_List/mm_racine.png,../static/images/US_Cities_List/mm_cornwall.png,../static/images/US_Cities_List/mm_westpalmbeach.png,../static/images/US_Cities_List/mm_racine.png,0.5,closer,,,,,,,,,,,,,,,,,,,,
null,,html-keyboard-response,924969,<p></p>,,,,,null,,,,,,,,,,,,,,,,,,,,,,,,,,,,,,,,
1409.5,,directmemory_phase,926416,../static/images/US_Cities_List/nat_shreveport.png,,,,,51,,,0.25,1,../static/images/US_Cities_List/nat_newhope.png,../static/images/US_Cities_List/nat_hanover.png,../static/images/US_Cities_List/nat_leesburg.png,../static/images/US_Cities_List/nat_leesburg.png,../static/images/US_Cities_List/nat_hanover.png,../static/images/US_Cities_List/nat_newhope.png,1,,,,,,,,,,,,,,,,,,,,,
null,,html-keyboard-response,927421,<p></p>,,,,,null,,,,,,,,,,,,,,,,,,,,,,,,,,,,,,,,
1756.2,,directmemory_phase,929217,../static/images/US_Cities_List/nat_gatlinburg.png,,,,,51,,,0.28,1,../static/images/US_Cities_List/nat_shreveport.png,../static/images/US_Cities_List/mm_carmel.png,../static/images/US_Cities_List/nat_hotsprings.png,../static/images/US_Cities_List/nat_hotsprings.png,../static/images/US_Cities_List/mm_carmel.png,../static/images/US_Cities_List/nat_shreveport.png,1,,,,,,,,,,,,,,,,,,,,,
null,,html-keyboard-response,930221,<p></p>,,,,,null,,,,,,,,,,,,,,,,,,,,,,,,,,,,,,,,
1265.9,,directmemory_phase,931534,../static/images/US_Cities_List/nat_leesburg.png,,,,,50,,,0.269230769,0,../static/images/US_Cities_List/nat_shreveport.png,../static/images/US_Cities_List/nat_hotsprings.png,../static/images/US_Cities_List/mm_westpalmbeach.png,../static/images/US_Cities_List/nat_shreveport.png,../static/images/US_Cities_List/mm_westpalmbeach.png,../static/images/US_Cities_List/nat_hotsprings.png,0.5,closer,,,,,,,,,,,,,,,,,,,,
null,,html-keyboard-response,932538,<p></p>,,,,,null,,,,,,,,,,,,,,,,,,,,,,,,,,,,,,,,
