rt,responses,trial_type,time_elapsed,stimulus,cities,city_images,button_pressed,response,key_press,stimulus_left,stimulus_right,accuracy,cumulative_accuracy,stimulus_down_left,stimulus_down_mid,stimulus_down_right,stimulus_correct,stimulus_short,stimulus_far,weighted_accuracy,missedtrial,condition,specific_pairs,imgL_ID,imgR_ID,linedress,linedressed,image_position,unknowncity,testedstates,currentstate,otherstate,problems,smooth,distraction,strategies,easier,similar,comments,,
4973.2,{worker_id:62c431f8b8e7dec0d2c03ea7},id_enter,4976,intro,West Palm Beach; Boulder; Peoria; Racine; Hot Springs; Gatlinburg; Leesburg; Hanover; Carmel; New Hope; Huntsville; Cornwall; Shreveport,US_Cities_List/mm_westpalmbeach.png; US_Cities_List/nat_boulder.png; US_Cities_List/mm_peoria.png; US_Cities_List/nat_racine.png; US_Cities_List/nat_hotsprings.png; US_Cities_List/nat_gatlinburg.png; US_Cities_List/mm_leesburg.png; US_Cities_List/nat_hanover.png; US_Cities_List/nat_carmel.png; US_Cities_List/mm_newhope.png; US_Cities_List/mm_huntsville.png; US_Cities_List/nat_cornwall.png; US_Cities_List/mm_shreveport.png,,,,,,,,,,,,,,,,,,,,,,,,,,,,,,,,,,,
31427.8,,fullscreen,36412,make_fullscreen,,,0,,,,,,,,,,,,,,,,,,,,,,,,,,,,,,,,,,
14699.1,,intro_1,51113,instruct,,,0,,,,,,,,,,,,,,,,,,,,,,,,,,,,,,,,,,
55982.4,,intro_2,107096,instruct,,,1,Next,,,,,,,,,,,,,,,,,,,,,,,,,,,,,,,,,
20378.8,,intro_3,127476,instruct,,,1,Next,,,,,,,,,,,,,,,,,,,,,,,,,,,,,,,,,
15227.2,,intro_4,142706,instruct,,,1,Next,,,,,,,,,,,,,,,,,,,,,,,,,,,,,,,,,
11422.7,,intro_5,154131,instruct,,,1,Next,,,,,,,,,,,,,,,,,,,,,,,,,,,,,,,,,
38734.4,,intro_6,192867,instruct,,,1,Next,,,,,,,,,,,,,,,,,,,,,,,,,,,,,,,,,
null,,prac_atten_color_black,193411,black_plus_sign,,,,,null,,,,,,,,,,,,,,,,,,,,,,,,,,,,,,,,
null,,prac_atten_color,194272,prac_stop_color,,,,,null,,,,,,,,,,,,,,,,,,,,,,,,,,,,,,,,
739,,prac_atten_color_black,196275,black_plus_sign,,,,,49,,,,,,,,,,,,,,,,,,,,,,,,,,,,,,,,
null,,prac_atten_color_black,196820,black_plus_sign,,,,,null,,,,,,,,,,,,,,,,,,,,,,,,,,,,,,,,
null,,prac_atten_color,197310,prac_stop_color,,,,,null,,,,,,,,,,,,,,,,,,,,,,,,,,,,,,,,
494.9,,prac_atten_color_black,199311,black_plus_sign,,,,,50,,,,,,,,,,,,,,,,,,,,,,,,,,,,,,,,
null,,prac_atten_color_black,200226,black_plus_sign,,,,,null,,,,,,,,,,,,,,,,,,,,,,,,,,,,,,,,
522.5,,prac_atten_color,200755,prac_stop_color,,,,,50,,,,,,,,,,,,,,,,,,,,,,,,,,,,,,,,
null,,prac_atten_color_black,202766,black_plus_sign,,,,,null,,,,,,,,,,,,,,,,,,,,,,,,,,,,,,,,
null,,prac_atten_color_black,203646,black_plus_sign,,,,,null,,,,,,,,,,,,,,,,,,,,,,,,,,,,,,,,
417.8000001,,prac_atten_color,204652,prac_stop_color,,,,,49,,,,,,,,,,,,,,,,,,,,,,,,,,,,,,,,
null,,prac_atten_color_black,206668,black_plus_sign,,,,,null,,,,,,,,,,,,,,,,,,,,,,,,,,,,,,,,
null,,prac_atten_color_black,207067,black_plus_sign,,,,,null,,,,,,,,,,,,,,,,,,,,,,,,,,,,,,,,
473.0999999,,prac_atten_color,207580,prac_stop_color,,,,,50,,,,,,,,,,,,,,,,,,,,,,,,,,,,,,,,
null,,prac_atten_color_black,209582,black_plus_sign,,,,,null,,,,,,,,,,,,,,,,,,,,,,,,,,,,,,,,
null,,prac_atten_color_black,210476,black_plus_sign,,,,,null,,,,,,,,,,,,,,,,,,,,,,,,,,,,,,,,
534.2,,prac_atten_color,211459,prac_stop_color,,,,,50,,,,,,,,,,,,,,,,,,,,,,,,,,,,,,,,
null,,prac_atten_color_black,213462,black_plus_sign,,,,,null,,,,,,,,,,,,,,,,,,,,,,,,,,,,,,,,
null,,prac_atten_color_black,213885,black_plus_sign,,,,,null,,,,,,,,,,,,,,,,,,,,,,,,,,,,,,,,
379.9,,prac_atten_color,214456,prac_stop_color,,,,,49,,,,,,,,,,,,,,,,,,,,,,,,,,,,,,,,
null,,prac_atten_color_black,216458,black_plus_sign,,,,,null,,,,,,,,,,,,,,,,,,,,,,,,,,,,,,,,
null,,prac_atten_color_black,217294,black_plus_sign,,,,,null,,,,,,,,,,,,,,,,,,,,,,,,,,,,,,,,
540.6,,prac_atten_color,217842,prac_stop_color,,,,,50,,,,,,,,,,,,,,,,,,,,,,,,,,,,,,,,
null,,prac_atten_color_black,219845,black_plus_sign,,,,,null,,,,,,,,,,,,,,,,,,,,,,,,,,,,,,,,
null,,prac_atten_color_black,220703,black_plus_sign,,,,,null,,,,,,,,,,,,,,,,,,,,,,,,,,,,,,,,
556.2,,prac_atten_color,221480,prac_stop_color,,,,,49,,,,,,,,,,,,,,,,,,,,,,,,,,,,,,,,
null,,prac_atten_color_black,223482,black_plus_sign,,,,,null,,,,,,,,,,,,,,,,,,,,,,,,,,,,,,,,
null,,prac_atten_color_black,224113,black_plus_sign,,,,,null,,,,,,,,,,,,,,,,,,,,,,,,,,,,,,,,
null,,prac_atten_color,224609,prac_stop_color,,,,,null,,,,,,,,,,,,,,,,,,,,,,,,,,,,,,,,
73.89999998,,prac_atten_color_black,226612,black_plus_sign,,,,,49,,,,,,,,,,,,,,,,,,,,,,,,,,,,,,,,
16773.9,,attentioncheck_feedback,243389,cross_check_feedback,,,0,,,,,,,,,,,,,,,,,,,,,,,,,,,,,,,,,,
19712.4,,last_instruct,263102,instruct,,,,,32,,,,,,,,,,,,,,,,,,,,,,,,,,,,,,,,
null,,learn_phase(without_color),265120,black_plus_sign,,,,,null,US_Cities_List/nat_hanover.png,US_Cities_List/nat_carmel.png,,,,,,,,,,,,,,,,,,,,,,,,,,,,,,
null,,black_cross(without_color),265987,blue,,,,,null,US_Cities_List/nat_hanover.png,US_Cities_List/nat_carmel.png,,,,,,,,,,,,,,,,,,,,,,,,,,,,,,
null,,rt_plussign_withcolor,266489,blue,,,,,null,US_Cities_List/nat_hanover.png,US_Cities_List/nat_carmel.png,,,,,,,,,,,,,,,,,,,,,,,,,,,,,,
2128.4,,rt_thecrossant_black,267633,black_plus_sign,,,,,49,,,1,1,,,,,,,,,,,,,,,,,,,,,,,,,,,,
null,,color_black,267736,black_plus_sign,,,,,null,,,,,,,,,,,,,,,,,,,,,,,,,,,,,,,,
null,,learn_phase(without_color),270278,black_plus_sign,,,,,null,US_Cities_List/nat_racine.png,US_Cities_List/nat_cornwall.png,,,,,,,,,,,,,,,,,,,,,,,,,,,,,,
null,,black_cross(without_color),271299,green,,,,,null,US_Cities_List/nat_racine.png,US_Cities_List/nat_cornwall.png,,,,,,,,,,,,,,,,,,,,,,,,,,,,,,
null,,rt_plussign_withcolor,271801,green,,,,,null,US_Cities_List/nat_racine.png,US_Cities_List/nat_cornwall.png,,,,,,,,,,,,,,,,,,,,,,,,,,,,,,
1438,,rt_thecrossant_black,272786,black_plus_sign,,,,,50,,,1,1,,,,,,,,,,,,,,,,,,,,,,,,,,,,
null,,color_black,272888,black_plus_sign,,,,,null,,,,,,,,,,,,,,,,,,,,,,,,,,,,,,,,
null,,learn_phase(without_color),275410,black_plus_sign,,,,,null,US_Cities_List/mm_huntsville.png,US_Cities_List/nat_cornwall.png,,,,,,,,,,,,,,,,,,,,,,,,,,,,,,
null,,black_cross(without_color),276383,blue,,,,,null,US_Cities_List/mm_huntsville.png,US_Cities_List/nat_cornwall.png,,,,,,,,,,,,,,,,,,,,,,,,,,,,,,
null,,rt_plussign_withcolor,276886,blue,,,,,null,US_Cities_List/mm_huntsville.png,US_Cities_List/nat_cornwall.png,,,,,,,,,,,,,,,,,,,,,,,,,,,,,,
1717.7,,rt_thecrossant_black,277922,black_plus_sign,,,,,49,,,1,1,,,,,,,,,,,,,,,,,,,,,,,,,,,,
null,,color_black,278025,black_plus_sign,,,,,null,,,,,,,,,,,,,,,,,,,,,,,,,,,,,,,,
null,,learn_phase(without_color),280548,black_plus_sign,,,,,null,US_Cities_List/nat_gatlinburg.png,US_Cities_List/mm_leesburg.png,,,,,,,,,,,,,,,,,,,,,,,,,,,,,,
null,,black_cross(without_color),281110,green,,,,,null,US_Cities_List/nat_gatlinburg.png,US_Cities_List/mm_leesburg.png,,,,,,,,,,,,,,,,,,,,,,,,,,,,,,
null,,rt_plussign_withcolor,281612,green,,,,,null,US_Cities_List/nat_gatlinburg.png,US_Cities_List/mm_leesburg.png,,,,,,,,,,,,,,,,,,,,,,,,,,,,,,
1594.2,,rt_thecrossant_black,283055,black_plus_sign,,,,,50,,,1,1,,,,,,,,,,,,,,,,,,,,,,,,,,,,
null,,color_black,283159,black_plus_sign,,,,,null,,,,,,,,,,,,,,,,,,,,,,,,,,,,,,,,
null,,learn_phase(without_color),285699,black_plus_sign,,,,,null,US_Cities_List/nat_racine.png,US_Cities_List/nat_cornwall.png,,,,,,,,,,,,,,,,,,,,,,,,,,,,,,
null,,black_cross(without_color),286449,green,,,,,null,US_Cities_List/nat_racine.png,US_Cities_List/nat_cornwall.png,,,,,,,,,,,,,,,,,,,,,,,,,,,,,,
null,,rt_plussign_withcolor,286952,green,,,,,null,US_Cities_List/nat_racine.png,US_Cities_List/nat_cornwall.png,,,,,,,,,,,,,,,,,,,,,,,,,,,,,,
1242.5,,rt_thecrossant_black,288207,black_plus_sign,,,,,50,,,1,1,,,,,,,,,,,,,,,,,,,,,,,,,,,,
null,,color_black,288311,black_plus_sign,,,,,null,,,,,,,,,,,,,,,,,,,,,,,,,,,,,,,,
null,,learn_phase(without_color),290832,black_plus_sign,,,,,null,US_Cities_List/nat_hanover.png,US_Cities_List/nat_carmel.png,,,,,,,,,,,,,,,,,,,,,,,,,,,,,,
null,,black_cross(without_color),291459,green,,,,,null,US_Cities_List/nat_hanover.png,US_Cities_List/nat_carmel.png,,,,,,,,,,,,,,,,,,,,,,,,,,,,,,
null,,rt_plussign_withcolor,291961,green,,,,,null,US_Cities_List/nat_hanover.png,US_Cities_List/nat_carmel.png,,,,,,,,,,,,,,,,,,,,,,,,,,,,,,
1435.9,,rt_thecrossant_black,293340,black_plus_sign,,,,,50,,,1,1,,,,,,,,,,,,,,,,,,,,,,,,,,,,
null,,color_black,293443,black_plus_sign,,,,,null,,,,,,,,,,,,,,,,,,,,,,,,,,,,,,,,
null,,learn_phase(without_color),295981,black_plus_sign,,,,,null,US_Cities_List/mm_leesburg.png,US_Cities_List/mm_shreveport.png,,,,,,,,,,,,,,,,,,,,,,,,,,,,,,
null,,black_cross(without_color),296532,blue,,,,,null,US_Cities_List/mm_leesburg.png,US_Cities_List/mm_shreveport.png,,,,,,,,,,,,,,,,,,,,,,,,,,,,,,
null,,rt_plussign_withcolor,297034,blue,,,,,null,US_Cities_List/mm_leesburg.png,US_Cities_List/mm_shreveport.png,,,,,,,,,,,,,,,,,,,,,,,,,,,,,,
1205.2,,rt_thecrossant_black,298496,black_plus_sign,,,,,49,,,1,1,,,,,,,,,,,,,,,,,,,,,,,,,,,,
null,,color_black,298599,black_plus_sign,,,,,null,,,,,,,,,,,,,,,,,,,,,,,,,,,,,,,,
null,,learn_phase(without_color),301123,black_plus_sign,,,,,null,US_Cities_List/mm_leesburg.png,US_Cities_List/nat_hanover.png,,,,,,,,,,,,,,,,,,,,,,,,,,,,,,
null,,black_cross(without_color),302063,blue,,,,,null,US_Cities_List/mm_leesburg.png,US_Cities_List/nat_hanover.png,,,,,,,,,,,,,,,,,,,,,,,,,,,,,,
null,,rt_plussign_withcolor,302565,blue,,,,,null,US_Cities_List/mm_leesburg.png,US_Cities_List/nat_hanover.png,,,,,,,,,,,,,,,,,,,,,,,,,,,,,,
1131.2,,rt_thecrossant_black,303631,black_plus_sign,,,,,49,,,1,1,,,,,,,,,,,,,,,,,,,,,,,,,,,,
null,,color_black,303733,black_plus_sign,,,,,null,,,,,,,,,,,,,,,,,,,,,,,,,,,,,,,,
null,,learn_phase(without_color),306267,black_plus_sign,,,,,null,US_Cities_List/mm_leesburg.png,US_Cities_List/mm_shreveport.png,,,,,,,,,,,,,,,,,,,,,,,,,,,,,,
null,,black_cross(without_color),306786,green,,,,,null,US_Cities_List/mm_leesburg.png,US_Cities_List/mm_shreveport.png,,,,,,,,,,,,,,,,,,,,,,,,,,,,,,
null,,rt_plussign_withcolor,307289,green,,,,,null,US_Cities_List/mm_leesburg.png,US_Cities_List/mm_shreveport.png,,,,,,,,,,,,,,,,,,,,,,,,,,,,,,
1777.2,,rt_thecrossant_black,308774,black_plus_sign,,,,,50,,,1,1,,,,,,,,,,,,,,,,,,,,,,,,,,,,
null,,color_black,308877,black_plus_sign,,,,,null,,,,,,,,,,,,,,,,,,,,,,,,,,,,,,,,
null,,learn_phase(without_color),311422,black_plus_sign,,,,,null,US_Cities_List/nat_gatlinburg.png,US_Cities_List/mm_leesburg.png,,,,,,,,,,,,,,,,,,,,,,,,,,,,,,
null,,black_cross(without_color),312056,blue,,,,,null,US_Cities_List/nat_gatlinburg.png,US_Cities_List/mm_leesburg.png,,,,,,,,,,,,,,,,,,,,,,,,,,,,,,
null,,rt_plussign_withcolor,312557,blue,,,,,null,US_Cities_List/nat_gatlinburg.png,US_Cities_List/mm_leesburg.png,,,,,,,,,,,,,,,,,,,,,,,,,,,,,,
1037.3,,rt_thecrossant_black,313928,black_plus_sign,,,,,49,,,1,1,,,,,,,,,,,,,,,,,,,,,,,,,,,,
null,,color_black,314031,black_plus_sign,,,,,null,,,,,,,,,,,,,,,,,,,,,,,,,,,,,,,,
null,,learn_phase(without_color),316548,black_plus_sign,,,,,null,US_Cities_List/nat_hanover.png,US_Cities_List/mm_newhope.png,,,,,,,,,,,,,,,,,,,,,,,,,,,,,,
null,,black_cross(without_color),317255,green,,,,,null,US_Cities_List/nat_hanover.png,US_Cities_List/mm_newhope.png,,,,,,,,,,,,,,,,,,,,,,,,,,,,,,
null,,rt_plussign_withcolor,317757,green,,,,,null,US_Cities_List/nat_hanover.png,US_Cities_List/mm_newhope.png,,,,,,,,,,,,,,,,,,,,,,,,,,,,,,
1056.8,,rt_thecrossant_black,319055,black_plus_sign,,,,,50,,,1,1,,,,,,,,,,,,,,,,,,,,,,,,,,,,
null,,color_black,319158,black_plus_sign,,,,,null,,,,,,,,,,,,,,,,,,,,,,,,,,,,,,,,
null,,learn_phase(without_color),321679,black_plus_sign,,,,,null,US_Cities_List/nat_racine.png,US_Cities_List/nat_hotsprings.png,,,,,,,,,,,,,,,,,,,,,,,,,,,,,,
null,,black_cross(without_color),322099,green,,,,,null,US_Cities_List/nat_racine.png,US_Cities_List/nat_hotsprings.png,,,,,,,,,,,,,,,,,,,,,,,,,,,,,,
null,,rt_plussign_withcolor,322615,green,,,,,null,US_Cities_List/nat_racine.png,US_Cities_List/nat_hotsprings.png,,,,,,,,,,,,,,,,,,,,,,,,,,,,,,
1064.7,,rt_thecrossant_black,324203,black_plus_sign,,,,,50,,,1,1,,,,,,,,,,,,,,,,,,,,,,,,,,,,
null,,color_black,324306,black_plus_sign,,,,,null,,,,,,,,,,,,,,,,,,,,,,,,,,,,,,,,
null,,learn_phase(without_color),326852,black_plus_sign,,,,,null,US_Cities_List/nat_boulder.png,US_Cities_List/mm_peoria.png,,,,,,,,,,,,,,,,,,,,,,,,,,,,,,
null,,black_cross(without_color),327622,green,,,,,null,US_Cities_List/nat_boulder.png,US_Cities_List/mm_peoria.png,,,,,,,,,,,,,,,,,,,,,,,,,,,,,,
null,,rt_plussign_withcolor,328125,green,,,,,null,US_Cities_List/nat_boulder.png,US_Cities_List/mm_peoria.png,,,,,,,,,,,,,,,,,,,,,,,,,,,,,,
688.4,,rt_thecrossant_black,329361,black_plus_sign,,,,,50,,,1,1,,,,,,,,,,,,,,,,,,,,,,,,,,,,
null,,color_black,329464,black_plus_sign,,,,,null,,,,,,,,,,,,,,,,,,,,,,,,,,,,,,,,
null,,learn_phase(without_color),331984,black_plus_sign,,,,,null,US_Cities_List/mm_leesburg.png,US_Cities_List/nat_carmel.png,,,,,,,,,,,,,,,,,,,,,,,,,,,,,,
null,,black_cross(without_color),332959,blue,,,,,null,US_Cities_List/mm_leesburg.png,US_Cities_List/nat_carmel.png,,,,,,,,,,,,,,,,,,,,,,,,,,,,,,
null,,rt_plussign_withcolor,333461,blue,,,,,null,US_Cities_List/mm_leesburg.png,US_Cities_List/nat_carmel.png,,,,,,,,,,,,,,,,,,,,,,,,,,,,,,
1017.4,,rt_thecrossant_black,334490,black_plus_sign,,,,,49,,,1,1,,,,,,,,,,,,,,,,,,,,,,,,,,,,
null,,color_black,334593,black_plus_sign,,,,,null,,,,,,,,,,,,,,,,,,,,,,,,,,,,,,,,
null,,learn_phase(without_color),337116,black_plus_sign,,,,,null,US_Cities_List/mm_peoria.png,US_Cities_List/mm_huntsville.png,,,,,,,,,,,,,,,,,,,,,,,,,,,,,,
null,,black_cross(without_color),337707,blue,,,,,null,US_Cities_List/mm_peoria.png,US_Cities_List/mm_huntsville.png,,,,,,,,,,,,,,,,,,,,,,,,,,,,,,
null,,rt_plussign_withcolor,338209,blue,,,,,null,US_Cities_List/mm_peoria.png,US_Cities_List/mm_huntsville.png,,,,,,,,,,,,,,,,,,,,,,,,,,,,,,
1239.1,,rt_thecrossant_black,339624,black_plus_sign,,,,,49,,,1,1,,,,,,,,,,,,,,,,,,,,,,,,,,,,
null,,color_black,339727,black_plus_sign,,,,,null,,,,,,,,,,,,,,,,,,,,,,,,,,,,,,,,
null,,learn_phase(without_color),342267,black_plus_sign,,,,,null,US_Cities_List/nat_racine.png,US_Cities_List/nat_hotsprings.png,,,,,,,,,,,,,,,,,,,,,,,,,,,,,,
null,,black_cross(without_color),342981,blue,,,,,null,US_Cities_List/nat_racine.png,US_Cities_List/nat_hotsprings.png,,,,,,,,,,,,,,,,,,,,,,,,,,,,,,
null,,rt_plussign_withcolor,343483,blue,,,,,null,US_Cities_List/nat_racine.png,US_Cities_List/nat_hotsprings.png,,,,,,,,,,,,,,,,,,,,,,,,,,,,,,
842.3000001,,rt_thecrossant_black,344774,black_plus_sign,,,,,49,,,1,1,,,,,,,,,,,,,,,,,,,,,,,,,,,,
null,,color_black,344876,black_plus_sign,,,,,null,,,,,,,,,,,,,,,,,,,,,,,,,,,,,,,,
null,,learn_phase(without_color),347421,black_plus_sign,,,,,null,US_Cities_List/nat_boulder.png,US_Cities_List/mm_peoria.png,,,,,,,,,,,,,,,,,,,,,,,,,,,,,,
null,,black_cross(without_color),348316,green,,,,,null,US_Cities_List/nat_boulder.png,US_Cities_List/mm_peoria.png,,,,,,,,,,,,,,,,,,,,,,,,,,,,,,
null,,rt_plussign_withcolor,348817,green,,,,,null,US_Cities_List/nat_boulder.png,US_Cities_List/mm_peoria.png,,,,,,,,,,,,,,,,,,,,,,,,,,,,,,
1073.1,,rt_thecrossant_black,349928,black_plus_sign,,,,,50,,,1,1,,,,,,,,,,,,,,,,,,,,,,,,,,,,
null,,color_black,350030,black_plus_sign,,,,,null,,,,,,,,,,,,,,,,,,,,,,,,,,,,,,,,
null,,learn_phase(without_color),352557,black_plus_sign,,,,,null,US_Cities_List/mm_westpalmbeach.png,US_Cities_List/nat_boulder.png,,,,,,,,,,,,,,,,,,,,,,,,,,,,,,
null,,black_cross(without_color),353169,blue,,,,,null,US_Cities_List/mm_westpalmbeach.png,US_Cities_List/nat_boulder.png,,,,,,,,,,,,,,,,,,,,,,,,,,,,,,
null,,rt_plussign_withcolor,353671,blue,,,,,null,US_Cities_List/mm_westpalmbeach.png,US_Cities_List/nat_boulder.png,,,,,,,,,,,,,,,,,,,,,,,,,,,,,,
1247.7,,rt_thecrossant_black,355066,black_plus_sign,,,,,49,,,1,1,,,,,,,,,,,,,,,,,,,,,,,,,,,,
null,,color_black,355169,black_plus_sign,,,,,null,,,,,,,,,,,,,,,,,,,,,,,,,,,,,,,,
null,,learn_phase(without_color),357710,black_plus_sign,,,,,null,US_Cities_List/nat_gatlinburg.png,US_Cities_List/nat_carmel.png,,,,,,,,,,,,,,,,,,,,,,,,,,,,,,
null,,black_cross(without_color),358144,blue,,,,,null,US_Cities_List/nat_gatlinburg.png,US_Cities_List/nat_carmel.png,,,,,,,,,,,,,,,,,,,,,,,,,,,,,,
null,,rt_plussign_withcolor,358646,blue,,,,,null,US_Cities_List/nat_gatlinburg.png,US_Cities_List/nat_carmel.png,,,,,,,,,,,,,,,,,,,,,,,,,,,,,,
1000.4,,rt_thecrossant_black,360217,black_plus_sign,,,,,49,,,1,1,,,,,,,,,,,,,,,,,,,,,,,,,,,,
null,,color_black,360319,black_plus_sign,,,,,null,,,,,,,,,,,,,,,,,,,,,,,,,,,,,,,,
null,,learn_phase(without_color),362845,black_plus_sign,,,,,null,US_Cities_List/nat_racine.png,US_Cities_List/nat_cornwall.png,,,,,,,,,,,,,,,,,,,,,,,,,,,,,,
null,,black_cross(without_color),363850,blue,,,,,null,US_Cities_List/nat_racine.png,US_Cities_List/nat_cornwall.png,,,,,,,,,,,,,,,,,,,,,,,,,,,,,,
null,,rt_plussign_withcolor,364352,blue,,,,,null,US_Cities_List/nat_racine.png,US_Cities_List/nat_cornwall.png,,,,,,,,,,,,,,,,,,,,,,,,,,,,,,
623.9000001,,rt_thecrossant_black,365353,black_plus_sign,,,,,49,,,1,1,,,,,,,,,,,,,,,,,,,,,,,,,,,,
null,,color_black,365455,black_plus_sign,,,,,null,,,,,,,,,,,,,,,,,,,,,,,,,,,,,,,,
null,,learn_phase(without_color),367994,black_plus_sign,,,,,null,US_Cities_List/nat_gatlinburg.png,US_Cities_List/nat_carmel.png,,,,,,,,,,,,,,,,,,,,,,,,,,,,,,
null,,black_cross(without_color),368603,green,,,,,null,US_Cities_List/nat_gatlinburg.png,US_Cities_List/nat_carmel.png,,,,,,,,,,,,,,,,,,,,,,,,,,,,,,
null,,rt_plussign_withcolor,369104,green,,,,,null,US_Cities_List/nat_gatlinburg.png,US_Cities_List/nat_carmel.png,,,,,,,,,,,,,,,,,,,,,,,,,,,,,,
1278.3,,rt_thecrossant_black,370501,black_plus_sign,,,,,50,,,1,1,,,,,,,,,,,,,,,,,,,,,,,,,,,,
null,,color_black,370604,black_plus_sign,,,,,null,,,,,,,,,,,,,,,,,,,,,,,,,,,,,,,,
null,,learn_phase(without_color),373124,black_plus_sign,,,,,null,US_Cities_List/mm_peoria.png,US_Cities_List/nat_gatlinburg.png,,,,,,,,,,,,,,,,,,,,,,,,,,,,,,
null,,black_cross(without_color),374149,green,,,,,null,US_Cities_List/mm_peoria.png,US_Cities_List/nat_gatlinburg.png,,,,,,,,,,,,,,,,,,,,,,,,,,,,,,
null,,rt_plussign_withcolor,374650,green,,,,,null,US_Cities_List/mm_peoria.png,US_Cities_List/nat_gatlinburg.png,,,,,,,,,,,,,,,,,,,,,,,,,,,,,,
862.9,,rt_thecrossant_black,375632,black_plus_sign,,,,,50,,,1,1,,,,,,,,,,,,,,,,,,,,,,,,,,,,
null,,color_black,375736,black_plus_sign,,,,,null,,,,,,,,,,,,,,,,,,,,,,,,,,,,,,,,
null,,learn_phase(without_color),378271,black_plus_sign,,,,,null,US_Cities_List/mm_huntsville.png,US_Cities_List/nat_cornwall.png,,,,,,,,,,,,,,,,,,,,,,,,,,,,,,
null,,black_cross(without_color),378766,blue,,,,,null,US_Cities_List/mm_huntsville.png,US_Cities_List/nat_cornwall.png,,,,,,,,,,,,,,,,,,,,,,,,,,,,,,
null,,rt_plussign_withcolor,379268,blue,,,,,null,US_Cities_List/mm_huntsville.png,US_Cities_List/nat_cornwall.png,,,,,,,,,,,,,,,,,,,,,,,,,,,,,,
1241.1,,rt_thecrossant_black,380779,black_plus_sign,,,,,49,,,1,1,,,,,,,,,,,,,,,,,,,,,,,,,,,,
null,,color_black,380882,black_plus_sign,,,,,null,,,,,,,,,,,,,,,,,,,,,,,,,,,,,,,,
null,,learn_phase(without_color),383403,black_plus_sign,,,,,null,US_Cities_List/nat_racine.png,US_Cities_List/nat_hotsprings.png,,,,,,,,,,,,,,,,,,,,,,,,,,,,,,
null,,black_cross(without_color),384002,blue,,,,,null,US_Cities_List/nat_racine.png,US_Cities_List/nat_hotsprings.png,,,,,,,,,,,,,,,,,,,,,,,,,,,,,,
null,,rt_plussign_withcolor,384512,blue,,,,,null,US_Cities_List/nat_racine.png,US_Cities_List/nat_hotsprings.png,,,,,,,,,,,,,,,,,,,,,,,,,,,,,,
821.0999999,,rt_thecrossant_black,385921,black_plus_sign,,,,,49,,,1,1,,,,,,,,,,,,,,,,,,,,,,,,,,,,
null,,color_black,386024,black_plus_sign,,,,,null,,,,,,,,,,,,,,,,,,,,,,,,,,,,,,,,
null,,learn_phase(without_color),388552,black_plus_sign,,,,,null,US_Cities_List/mm_leesburg.png,US_Cities_List/nat_carmel.png,,,,,,,,,,,,,,,,,,,,,,,,,,,,,,
null,,black_cross(without_color),389480,green,,,,,null,US_Cities_List/mm_leesburg.png,US_Cities_List/nat_carmel.png,,,,,,,,,,,,,,,,,,,,,,,,,,,,,,
null,,rt_plussign_withcolor,389983,green,,,,,null,US_Cities_List/mm_leesburg.png,US_Cities_List/nat_carmel.png,,,,,,,,,,,,,,,,,,,,,,,,,,,,,,
936,,rt_thecrossant_black,391061,black_plus_sign,,,,,50,,,1,1,,,,,,,,,,,,,,,,,,,,,,,,,,,,
null,,color_black,391165,black_plus_sign,,,,,null,,,,,,,,,,,,,,,,,,,,,,,,,,,,,,,,
null,,learn_phase(without_color),393686,black_plus_sign,,,,,null,US_Cities_List/mm_peoria.png,US_Cities_List/mm_huntsville.png,,,,,,,,,,,,,,,,,,,,,,,,,,,,,,
null,,black_cross(without_color),394650,blue,,,,,null,US_Cities_List/mm_peoria.png,US_Cities_List/mm_huntsville.png,,,,,,,,,,,,,,,,,,,,,,,,,,,,,,
null,,rt_plussign_withcolor,395152,blue,,,,,null,US_Cities_List/mm_peoria.png,US_Cities_List/mm_huntsville.png,,,,,,,,,,,,,,,,,,,,,,,,,,,,,,
1190.4,,rt_thecrossant_black,396194,black_plus_sign,,,,,49,,,1,1,,,,,,,,,,,,,,,,,,,,,,,,,,,,
null,,color_black,396297,black_plus_sign,,,,,null,,,,,,,,,,,,,,,,,,,,,,,,,,,,,,,,
null,,learn_phase(without_color),398827,black_plus_sign,,,,,null,US_Cities_List/nat_racine.png,US_Cities_List/nat_cornwall.png,,,,,,,,,,,,,,,,,,,,,,,,,,,,,,
null,,black_cross(without_color),399740,blue,,,,,null,US_Cities_List/nat_racine.png,US_Cities_List/nat_cornwall.png,,,,,,,,,,,,,,,,,,,,,,,,,,,,,,
null,,rt_plussign_withcolor,400242,blue,,,,,null,US_Cities_List/nat_racine.png,US_Cities_List/nat_cornwall.png,,,,,,,,,,,,,,,,,,,,,,,,,,,,,,
1124.6,,rt_thecrossant_black,401334,black_plus_sign,,,,,49,,,1,1,,,,,,,,,,,,,,,,,,,,,,,,,,,,
null,,color_black,401437,black_plus_sign,,,,,null,,,,,,,,,,,,,,,,,,,,,,,,,,,,,,,,
null,,learn_phase(without_color),403961,black_plus_sign,,,,,null,US_Cities_List/mm_leesburg.png,US_Cities_List/nat_carmel.png,,,,,,,,,,,,,,,,,,,,,,,,,,,,,,
null,,black_cross(without_color),404804,blue,,,,,null,US_Cities_List/mm_leesburg.png,US_Cities_List/nat_carmel.png,,,,,,,,,,,,,,,,,,,,,,,,,,,,,,
null,,rt_plussign_withcolor,405307,blue,,,,,null,US_Cities_List/mm_leesburg.png,US_Cities_List/nat_carmel.png,,,,,,,,,,,,,,,,,,,,,,,,,,,,,,
1232.8,,rt_thecrossant_black,406472,black_plus_sign,,,,,49,,,1,1,,,,,,,,,,,,,,,,,,,,,,,,,,,,
null,,color_black,406575,black_plus_sign,,,,,null,,,,,,,,,,,,,,,,,,,,,,,,,,,,,,,,
null,,learn_phase(without_color),409098,black_plus_sign,,,,,null,US_Cities_List/mm_huntsville.png,US_Cities_List/nat_cornwall.png,,,,,,,,,,,,,,,,,,,,,,,,,,,,,,
null,,black_cross(without_color),409544,green,,,,,null,US_Cities_List/mm_huntsville.png,US_Cities_List/nat_cornwall.png,,,,,,,,,,,,,,,,,,,,,,,,,,,,,,
null,,rt_plussign_withcolor,410047,green,,,,,null,US_Cities_List/mm_huntsville.png,US_Cities_List/nat_cornwall.png,,,,,,,,,,,,,,,,,,,,,,,,,,,,,,
1041.7,,rt_thecrossant_black,411615,black_plus_sign,,,,,50,,,1,1,,,,,,,,,,,,,,,,,,,,,,,,,,,,
null,,color_black,411718,black_plus_sign,,,,,null,,,,,,,,,,,,,,,,,,,,,,,,,,,,,,,,
null,,learn_phase(without_color),414243,black_plus_sign,,,,,null,US_Cities_List/nat_racine.png,US_Cities_List/nat_hotsprings.png,,,,,,,,,,,,,,,,,,,,,,,,,,,,,,
null,,black_cross(without_color),415155,blue,,,,,null,US_Cities_List/nat_racine.png,US_Cities_List/nat_hotsprings.png,,,,,,,,,,,,,,,,,,,,,,,,,,,,,,
null,,rt_plussign_withcolor,415658,blue,,,,,null,US_Cities_List/nat_racine.png,US_Cities_List/nat_hotsprings.png,,,,,,,,,,,,,,,,,,,,,,,,,,,,,,
577.4,,rt_thecrossant_black,416767,black_plus_sign,,,,,49,,,1,1,,,,,,,,,,,,,,,,,,,,,,,,,,,,
null,,color_black,416869,black_plus_sign,,,,,null,,,,,,,,,,,,,,,,,,,,,,,,,,,,,,,,
null,,learn_phase(without_color),419414,black_plus_sign,,,,,null,US_Cities_List/mm_leesburg.png,US_Cities_List/nat_carmel.png,,,,,,,,,,,,,,,,,,,,,,,,,,,,,,
null,,black_cross(without_color),420313,green,,,,,null,US_Cities_List/mm_leesburg.png,US_Cities_List/nat_carmel.png,,,,,,,,,,,,,,,,,,,,,,,,,,,,,,
null,,rt_plussign_withcolor,420814,green,,,,,null,US_Cities_List/mm_leesburg.png,US_Cities_List/nat_carmel.png,,,,,,,,,,,,,,,,,,,,,,,,,,,,,,
1312.8,,rt_thecrossant_black,421934,black_plus_sign,,,,,50,,,1,1,,,,,,,,,,,,,,,,,,,,,,,,,,,,
null,,color_black,422036,black_plus_sign,,,,,null,,,,,,,,,,,,,,,,,,,,,,,,,,,,,,,,
null,,learn_phase(without_color),424561,black_plus_sign,,,,,null,US_Cities_List/mm_huntsville.png,US_Cities_List/nat_cornwall.png,,,,,,,,,,,,,,,,,,,,,,,,,,,,,,
null,,black_cross(without_color),425548,green,,,,,null,US_Cities_List/mm_huntsville.png,US_Cities_List/nat_cornwall.png,,,,,,,,,,,,,,,,,,,,,,,,,,,,,,
null,,rt_plussign_withcolor,426051,green,,,,,null,US_Cities_List/mm_huntsville.png,US_Cities_List/nat_cornwall.png,,,,,,,,,,,,,,,,,,,,,,,,,,,,,,
1306,,rt_thecrossant_black,427071,black_plus_sign,,,,,50,,,1,1,,,,,,,,,,,,,,,,,,,,,,,,,,,,
null,,color_black,427173,black_plus_sign,,,,,null,,,,,,,,,,,,,,,,,,,,,,,,,,,,,,,,
null,,learn_phase(without_color),429693,black_plus_sign,,,,,null,US_Cities_List/nat_gatlinburg.png,US_Cities_List/nat_carmel.png,,,,,,,,,,,,,,,,,,,,,,,,,,,,,,
null,,black_cross(without_color),430461,green,,,,,null,US_Cities_List/nat_gatlinburg.png,US_Cities_List/nat_carmel.png,,,,,,,,,,,,,,,,,,,,,,,,,,,,,,
null,,rt_plussign_withcolor,430963,green,,,,,null,US_Cities_List/nat_gatlinburg.png,US_Cities_List/nat_carmel.png,,,,,,,,,,,,,,,,,,,,,,,,,,,,,,
1167.7,,rt_thecrossant_black,432201,black_plus_sign,,,,,50,,,1,1,,,,,,,,,,,,,,,,,,,,,,,,,,,,
null,,color_black,432304,black_plus_sign,,,,,null,,,,,,,,,,,,,,,,,,,,,,,,,,,,,,,,
null,,learn_phase(without_color),434838,black_plus_sign,,,,,null,US_Cities_List/mm_huntsville.png,US_Cities_List/nat_cornwall.png,,,,,,,,,,,,,,,,,,,,,,,,,,,,,,
null,,black_cross(without_color),435344,blue,,,,,null,US_Cities_List/mm_huntsville.png,US_Cities_List/nat_cornwall.png,,,,,,,,,,,,,,,,,,,,,,,,,,,,,,
null,,rt_plussign_withcolor,435847,blue,,,,,null,US_Cities_List/mm_huntsville.png,US_Cities_List/nat_cornwall.png,,,,,,,,,,,,,,,,,,,,,,,,,,,,,,
898.4,,rt_thecrossant_black,437346,black_plus_sign,,,,,49,,,1,1,,,,,,,,,,,,,,,,,,,,,,,,,,,,
null,,color_black,437449,black_plus_sign,,,,,null,,,,,,,,,,,,,,,,,,,,,,,,,,,,,,,,
null,,learn_phase(without_color),439976,black_plus_sign,,,,,null,US_Cities_List/mm_peoria.png,US_Cities_List/mm_huntsville.png,,,,,,,,,,,,,,,,,,,,,,,,,,,,,,
null,,black_cross(without_color),440738,blue,,,,,null,US_Cities_List/mm_peoria.png,US_Cities_List/mm_huntsville.png,,,,,,,,,,,,,,,,,,,,,,,,,,,,,,
null,,rt_plussign_withcolor,441240,blue,,,,,null,US_Cities_List/mm_peoria.png,US_Cities_List/mm_huntsville.png,,,,,,,,,,,,,,,,,,,,,,,,,,,,,,
801.5,,rt_thecrossant_black,442484,black_plus_sign,,,,,49,,,1,1,,,,,,,,,,,,,,,,,,,,,,,,,,,,
null,,color_black,442588,black_plus_sign,,,,,null,,,,,,,,,,,,,,,,,,,,,,,,,,,,,,,,
null,,learn_phase(without_color),445129,black_plus_sign,,,,,null,US_Cities_List/mm_westpalmbeach.png,US_Cities_List/nat_boulder.png,,,,,,,,,,,,,,,,,,,,,,,,,,,,,,
null,,black_cross(without_color),446000,blue,,,,,null,US_Cities_List/mm_westpalmbeach.png,US_Cities_List/nat_boulder.png,,,,,,,,,,,,,,,,,,,,,,,,,,,,,,
null,,rt_plussign_withcolor,446502,blue,,,,,null,US_Cities_List/mm_westpalmbeach.png,US_Cities_List/nat_boulder.png,,,,,,,,,,,,,,,,,,,,,,,,,,,,,,
1036.8,,rt_thecrossant_black,447638,black_plus_sign,,,,,49,,,1,1,,,,,,,,,,,,,,,,,,,,,,,,,,,,
null,,color_black,447742,black_plus_sign,,,,,null,,,,,,,,,,,,,,,,,,,,,,,,,,,,,,,,
null,,learn_phase(without_color),450266,black_plus_sign,,,,,null,US_Cities_List/nat_hanover.png,US_Cities_List/mm_newhope.png,,,,,,,,,,,,,,,,,,,,,,,,,,,,,,
null,,black_cross(without_color),451151,green,,,,,null,US_Cities_List/nat_hanover.png,US_Cities_List/mm_newhope.png,,,,,,,,,,,,,,,,,,,,,,,,,,,,,,
null,,rt_plussign_withcolor,451654,green,,,,,null,US_Cities_List/nat_hanover.png,US_Cities_List/mm_newhope.png,,,,,,,,,,,,,,,,,,,,,,,,,,,,,,
1175.5,,rt_thecrossant_black,452774,black_plus_sign,,,,,50,,,1,1,,,,,,,,,,,,,,,,,,,,,,,,,,,,
null,,color_black,452877,black_plus_sign,,,,,null,,,,,,,,,,,,,,,,,,,,,,,,,,,,,,,,
null,,learn_phase(without_color),455416,black_plus_sign,,,,,null,US_Cities_List/mm_leesburg.png,US_Cities_List/nat_carmel.png,,,,,,,,,,,,,,,,,,,,,,,,,,,,,,
null,,black_cross(without_color),456516,green,,,,,null,US_Cities_List/mm_leesburg.png,US_Cities_List/nat_carmel.png,,,,,,,,,,,,,,,,,,,,,,,,,,,,,,
null,,rt_plussign_withcolor,457017,green,,,,,null,US_Cities_List/mm_leesburg.png,US_Cities_List/nat_carmel.png,,,,,,,,,,,,,,,,,,,,,,,,,,,,,,
1148.7,,rt_thecrossant_black,457928,black_plus_sign,,,,,50,,,1,1,,,,,,,,,,,,,,,,,,,,,,,,,,,,
null,,color_black,458031,black_plus_sign,,,,,null,,,,,,,,,,,,,,,,,,,,,,,,,,,,,,,,
null,,learn_phase(without_color),460570,black_plus_sign,,,,,null,US_Cities_List/mm_leesburg.png,US_Cities_List/nat_hanover.png,,,,,,,,,,,,,,,,,,,,,,,,,,,,,,
null,,black_cross(without_color),461433,blue,,,,,null,US_Cities_List/mm_leesburg.png,US_Cities_List/nat_hanover.png,,,,,,,,,,,,,,,,,,,,,,,,,,,,,,
null,,rt_plussign_withcolor,461935,blue,,,,,null,US_Cities_List/mm_leesburg.png,US_Cities_List/nat_hanover.png,,,,,,,,,,,,,,,,,,,,,,,,,,,,,,
1261.9,,rt_thecrossant_black,463078,black_plus_sign,,,,,49,,,1,1,,,,,,,,,,,,,,,,,,,,,,,,,,,,
null,,color_black,463182,black_plus_sign,,,,,null,,,,,,,,,,,,,,,,,,,,,,,,,,,,,,,,
null,,learn_phase(without_color),465700,black_plus_sign,,,,,null,US_Cities_List/nat_boulder.png,US_Cities_List/nat_racine.png,,,,,,,,,,,,,,,,,,,,,,,,,,,,,,
null,,black_cross(without_color),466545,blue,,,,,null,US_Cities_List/nat_boulder.png,US_Cities_List/nat_racine.png,,,,,,,,,,,,,,,,,,,,,,,,,,,,,,
null,,rt_plussign_withcolor,467047,blue,,,,,null,US_Cities_List/nat_boulder.png,US_Cities_List/nat_racine.png,,,,,,,,,,,,,,,,,,,,,,,,,,,,,,
1279.3,,rt_thecrossant_black,468210,black_plus_sign,,,,,49,,,1,1,,,,,,,,,,,,,,,,,,,,,,,,,,,,
null,,color_black,468314,black_plus_sign,,,,,null,,,,,,,,,,,,,,,,,,,,,,,,,,,,,,,,
null,,learn_phase(without_color),470857,black_plus_sign,,,,,null,US_Cities_List/nat_hanover.png,US_Cities_List/nat_carmel.png,,,,,,,,,,,,,,,,,,,,,,,,,,,,,,
null,,black_cross(without_color),471272,blue,,,,,null,US_Cities_List/nat_hanover.png,US_Cities_List/nat_carmel.png,,,,,,,,,,,,,,,,,,,,,,,,,,,,,,
null,,rt_plussign_withcolor,471775,blue,,,,,null,US_Cities_List/nat_hanover.png,US_Cities_List/nat_carmel.png,,,,,,,,,,,,,,,,,,,,,,,,,,,,,,
1009.3,,rt_thecrossant_black,473367,black_plus_sign,,,,,49,,,1,1,,,,,,,,,,,,,,,,,,,,,,,,,,,,
null,,color_black,473470,black_plus_sign,,,,,null,,,,,,,,,,,,,,,,,,,,,,,,,,,,,,,,
null,,learn_phase(without_color),476006,black_plus_sign,,,,,null,US_Cities_List/nat_gatlinburg.png,US_Cities_List/mm_leesburg.png,,,,,,,,,,,,,,,,,,,,,,,,,,,,,,
null,,black_cross(without_color),476413,blue,,,,,null,US_Cities_List/nat_gatlinburg.png,US_Cities_List/mm_leesburg.png,,,,,,,,,,,,,,,,,,,,,,,,,,,,,,
null,,rt_plussign_withcolor,476915,blue,,,,,null,US_Cities_List/nat_gatlinburg.png,US_Cities_List/mm_leesburg.png,,,,,,,,,,,,,,,,,,,,,,,,,,,,,,
591.6,,rt_thecrossant_black,478521,black_plus_sign,,,,,49,,,1,1,,,,,,,,,,,,,,,,,,,,,,,,,,,,
null,,color_black,478624,black_plus_sign,,,,,null,,,,,,,,,,,,,,,,,,,,,,,,,,,,,,,,
null,,learn_phase(without_color),481142,black_plus_sign,,,,,null,US_Cities_List/mm_peoria.png,US_Cities_List/mm_huntsville.png,,,,,,,,,,,,,,,,,,,,,,,,,,,,,,
null,,black_cross(without_color),481891,blue,,,,,null,US_Cities_List/mm_peoria.png,US_Cities_List/mm_huntsville.png,,,,,,,,,,,,,,,,,,,,,,,,,,,,,,
null,,rt_plussign_withcolor,482393,blue,,,,,null,US_Cities_List/mm_peoria.png,US_Cities_List/mm_huntsville.png,,,,,,,,,,,,,,,,,,,,,,,,,,,,,,
680.3000001,,rt_thecrossant_black,483661,black_plus_sign,,,,,49,,,1,1,,,,,,,,,,,,,,,,,,,,,,,,,,,,
null,,color_black,483764,black_plus_sign,,,,,null,,,,,,,,,,,,,,,,,,,,,,,,,,,,,,,,
null,,learn_phase(without_color),486290,black_plus_sign,,,,,null,US_Cities_List/mm_leesburg.png,US_Cities_List/nat_carmel.png,,,,,,,,,,,,,,,,,,,,,,,,,,,,,,
null,,black_cross(without_color),487102,green,,,,,null,US_Cities_List/mm_leesburg.png,US_Cities_List/nat_carmel.png,,,,,,,,,,,,,,,,,,,,,,,,,,,,,,
null,,rt_plussign_withcolor,487611,green,,,,,null,US_Cities_List/mm_leesburg.png,US_Cities_List/nat_carmel.png,,,,,,,,,,,,,,,,,,,,,,,,,,,,,,
1204.7,,rt_thecrossant_black,488805,black_plus_sign,,,,,50,,,1,1,,,,,,,,,,,,,,,,,,,,,,,,,,,,
null,,color_black,488907,black_plus_sign,,,,,null,,,,,,,,,,,,,,,,,,,,,,,,,,,,,,,,
null,,learn_phase(without_color),491447,black_plus_sign,,,,,null,US_Cities_List/mm_huntsville.png,US_Cities_List/nat_cornwall.png,,,,,,,,,,,,,,,,,,,,,,,,,,,,,,
null,,black_cross(without_color),492176,green,,,,,null,US_Cities_List/mm_huntsville.png,US_Cities_List/nat_cornwall.png,,,,,,,,,,,,,,,,,,,,,,,,,,,,,,
null,,rt_plussign_withcolor,492679,green,,,,,null,US_Cities_List/mm_huntsville.png,US_Cities_List/nat_cornwall.png,,,,,,,,,,,,,,,,,,,,,,,,,,,,,,
1127.7,,rt_thecrossant_black,493955,black_plus_sign,,,,,50,,,1,1,,,,,,,,,,,,,,,,,,,,,,,,,,,,
null,,color_black,494058,black_plus_sign,,,,,null,,,,,,,,,,,,,,,,,,,,,,,,,,,,,,,,
null,,learn_phase(without_color),496594,black_plus_sign,,,,,null,US_Cities_List/mm_peoria.png,US_Cities_List/mm_huntsville.png,,,,,,,,,,,,,,,,,,,,,,,,,,,,,,
null,,black_cross(without_color),497055,blue,,,,,null,US_Cities_List/mm_peoria.png,US_Cities_List/mm_huntsville.png,,,,,,,,,,,,,,,,,,,,,,,,,,,,,,
null,,rt_plussign_withcolor,497571,blue,,,,,null,US_Cities_List/mm_peoria.png,US_Cities_List/mm_huntsville.png,,,,,,,,,,,,,,,,,,,,,,,,,,,,,,
1028.9,,rt_thecrossant_black,499128,black_plus_sign,,,,,49,,,1,1,,,,,,,,,,,,,,,,,,,,,,,,,,,,
null,,color_black,499231,black_plus_sign,,,,,null,,,,,,,,,,,,,,,,,,,,,,,,,,,,,,,,
null,,learn_phase(without_color),501753,black_plus_sign,,,,,null,US_Cities_List/mm_westpalmbeach.png,US_Cities_List/nat_boulder.png,,,,,,,,,,,,,,,,,,,,,,,,,,,,,,
null,,black_cross(without_color),502771,blue,,,,,null,US_Cities_List/mm_westpalmbeach.png,US_Cities_List/nat_boulder.png,,,,,,,,,,,,,,,,,,,,,,,,,,,,,,
null,,rt_plussign_withcolor,503273,blue,,,,,null,US_Cities_List/mm_westpalmbeach.png,US_Cities_List/nat_boulder.png,,,,,,,,,,,,,,,,,,,,,,,,,,,,,,
636,,rt_thecrossant_black,504262,black_plus_sign,,,,,49,,,1,1,,,,,,,,,,,,,,,,,,,,,,,,,,,,
null,,color_black,504366,black_plus_sign,,,,,null,,,,,,,,,,,,,,,,,,,,,,,,,,,,,,,,
null,,learn_phase(without_color),506906,black_plus_sign,,,,,null,US_Cities_List/nat_racine.png,US_Cities_List/nat_cornwall.png,,,,,,,,,,,,,,,,,,,,,,,,,,,,,,
null,,black_cross(without_color),507751,blue,,,,,null,US_Cities_List/nat_racine.png,US_Cities_List/nat_cornwall.png,,,,,,,,,,,,,,,,,,,,,,,,,,,,,,
null,,rt_plussign_withcolor,508253,blue,,,,,null,US_Cities_List/nat_racine.png,US_Cities_List/nat_cornwall.png,,,,,,,,,,,,,,,,,,,,,,,,,,,,,,
1232.5,,rt_thecrossant_black,509414,black_plus_sign,,,,,49,,,1,1,,,,,,,,,,,,,,,,,,,,,,,,,,,,
null,,color_black,509517,black_plus_sign,,,,,null,,,,,,,,,,,,,,,,,,,,,,,,,,,,,,,,
null,,learn_phase(without_color),512065,black_plus_sign,,,,,null,US_Cities_List/nat_boulder.png,US_Cities_List/nat_racine.png,,,,,,,,,,,,,,,,,,,,,,,,,,,,,,
null,,black_cross(without_color),512581,blue,,,,,null,US_Cities_List/nat_boulder.png,US_Cities_List/nat_racine.png,,,,,,,,,,,,,,,,,,,,,,,,,,,,,,
null,,rt_plussign_withcolor,513082,blue,,,,,null,US_Cities_List/nat_boulder.png,US_Cities_List/nat_racine.png,,,,,,,,,,,,,,,,,,,,,,,,,,,,,,
1010.7,,rt_thecrossant_black,514583,black_plus_sign,,,,,49,,,1,1,,,,,,,,,,,,,,,,,,,,,,,,,,,,
null,,color_black,514687,black_plus_sign,,,,,null,,,,,,,,,,,,,,,,,,,,,,,,,,,,,,,,
null,,learn_phase(without_color),517225,black_plus_sign,,,,,null,US_Cities_List/nat_carmel.png,US_Cities_List/mm_huntsville.png,,,,,,,,,,,,,,,,,,,,,,,,,,,,,,
null,,black_cross(without_color),518087,green,,,,,null,US_Cities_List/nat_carmel.png,US_Cities_List/mm_huntsville.png,,,,,,,,,,,,,,,,,,,,,,,,,,,,,,
null,,rt_plussign_withcolor,518588,green,,,,,null,US_Cities_List/nat_carmel.png,US_Cities_List/mm_huntsville.png,,,,,,,,,,,,,,,,,,,,,,,,,,,,,,
724.5,,rt_thecrossant_black,519734,black_plus_sign,,,,,49,,,0,0.98,,,,,,,,,,,,,,,,,,,,,,,,,,,,
null,,color_black,519838,black_plus_sign,,,,,null,,,,,,,,,,,,,,,,,,,,,,,,,,,,,,,,
null,,learn_phase(without_color),522389,black_plus_sign,,,,,null,US_Cities_List/nat_hanover.png,US_Cities_List/mm_newhope.png,,,,,,,,,,,,,,,,,,,,,,,,,,,,,,
null,,black_cross(without_color),522997,green,,,,,null,US_Cities_List/nat_hanover.png,US_Cities_List/mm_newhope.png,,,,,,,,,,,,,,,,,,,,,,,,,,,,,,
null,,rt_plussign_withcolor,523499,green,,,,,null,US_Cities_List/nat_hanover.png,US_Cities_List/mm_newhope.png,,,,,,,,,,,,,,,,,,,,,,,,,,,,,,
1184.2,,rt_thecrossant_black,524896,black_plus_sign,,,,,50,,,1,0.980392157,,,,,,,,,,,,,,,,,,,,,,,,,,,,
null,,color_black,524999,black_plus_sign,,,,,null,,,,,,,,,,,,,,,,,,,,,,,,,,,,,,,,
null,,learn_phase(without_color),527520,black_plus_sign,,,,,null,US_Cities_List/nat_hanover.png,US_Cities_List/nat_carmel.png,,,,,,,,,,,,,,,,,,,,,,,,,,,,,,
null,,black_cross(without_color),528257,green,,,,,null,US_Cities_List/nat_hanover.png,US_Cities_List/nat_carmel.png,,,,,,,,,,,,,,,,,,,,,,,,,,,,,,
null,,rt_plussign_withcolor,528759,green,,,,,null,US_Cities_List/nat_hanover.png,US_Cities_List/nat_carmel.png,,,,,,,,,,,,,,,,,,,,,,,,,,,,,,
879.5,,rt_thecrossant_black,530028,black_plus_sign,,,,,50,,,1,0.980769231,,,,,,,,,,,,,,,,,,,,,,,,,,,,
null,,color_black,530130,black_plus_sign,,,,,null,,,,,,,,,,,,,,,,,,,,,,,,,,,,,,,,
null,,learn_phase(without_color),532652,black_plus_sign,,,,,null,US_Cities_List/mm_leesburg.png,US_Cities_List/nat_hanover.png,,,,,,,,,,,,,,,,,,,,,,,,,,,,,,
null,,black_cross(without_color),533703,green,,,,,null,US_Cities_List/mm_leesburg.png,US_Cities_List/nat_hanover.png,,,,,,,,,,,,,,,,,,,,,,,,,,,,,,
null,,rt_plussign_withcolor,534205,green,,,,,null,US_Cities_List/mm_leesburg.png,US_Cities_List/nat_hanover.png,,,,,,,,,,,,,,,,,,,,,,,,,,,,,,
1013.5,,rt_thecrossant_black,535159,black_plus_sign,,,,,50,,,1,0.981132075,,,,,,,,,,,,,,,,,,,,,,,,,,,,
null,,color_black,535262,black_plus_sign,,,,,null,,,,,,,,,,,,,,,,,,,,,,,,,,,,,,,,
null,,learn_phase(without_color),537781,black_plus_sign,,,,,null,US_Cities_List/nat_boulder.png,US_Cities_List/mm_peoria.png,,,,,,,,,,,,,,,,,,,,,,,,,,,,,,
null,,black_cross(without_color),538579,blue,,,,,null,US_Cities_List/nat_boulder.png,US_Cities_List/mm_peoria.png,,,,,,,,,,,,,,,,,,,,,,,,,,,,,,
null,,rt_plussign_withcolor,539083,blue,,,,,null,US_Cities_List/nat_boulder.png,US_Cities_List/mm_peoria.png,,,,,,,,,,,,,,,,,,,,,,,,,,,,,,
1428.2,,rt_thecrossant_black,540292,black_plus_sign,,,,,49,,,1,0.981481481,,,,,,,,,,,,,,,,,,,,,,,,,,,,
null,,color_black,540394,black_plus_sign,,,,,null,,,,,,,,,,,,,,,,,,,,,,,,,,,,,,,,
null,,learn_phase(without_color),542939,black_plus_sign,,,,,null,US_Cities_List/mm_westpalmbeach.png,US_Cities_List/nat_boulder.png,,,,,,,,,,,,,,,,,,,,,,,,,,,,,,
null,,black_cross(without_color),543794,blue,,,,,null,US_Cities_List/mm_westpalmbeach.png,US_Cities_List/nat_boulder.png,,,,,,,,,,,,,,,,,,,,,,,,,,,,,,
null,,rt_plussign_withcolor,544296,blue,,,,,null,US_Cities_List/mm_westpalmbeach.png,US_Cities_List/nat_boulder.png,,,,,,,,,,,,,,,,,,,,,,,,,,,,,,
1245.4,,rt_thecrossant_black,545447,black_plus_sign,,,,,49,,,1,0.981818182,,,,,,,,,,,,,,,,,,,,,,,,,,,,
null,,color_black,545550,black_plus_sign,,,,,null,,,,,,,,,,,,,,,,,,,,,,,,,,,,,,,,
null,,learn_phase(without_color),548085,black_plus_sign,,,,,null,US_Cities_List/mm_huntsville.png,US_Cities_List/nat_cornwall.png,,,,,,,,,,,,,,,,,,,,,,,,,,,,,,
null,,black_cross(without_color),549185,green,,,,,null,US_Cities_List/mm_huntsville.png,US_Cities_List/nat_cornwall.png,,,,,,,,,,,,,,,,,,,,,,,,,,,,,,
null,,rt_plussign_withcolor,549687,green,,,,,null,US_Cities_List/mm_huntsville.png,US_Cities_List/nat_cornwall.png,,,,,,,,,,,,,,,,,,,,,,,,,,,,,,
1294.7,,rt_thecrossant_black,550592,black_plus_sign,,,,,50,,,1,0.982142857,,,,,,,,,,,,,,,,,,,,,,,,,,,,
null,,color_black,550696,black_plus_sign,,,,,null,,,,,,,,,,,,,,,,,,,,,,,,,,,,,,,,
null,,learn_phase(without_color),553238,black_plus_sign,,,,,null,US_Cities_List/mm_peoria.png,US_Cities_List/nat_gatlinburg.png,,,,,,,,,,,,,,,,,,,,,,,,,,,,,,
null,,black_cross(without_color),553728,green,,,,,null,US_Cities_List/mm_peoria.png,US_Cities_List/nat_gatlinburg.png,,,,,,,,,,,,,,,,,,,,,,,,,,,,,,
null,,rt_plussign_withcolor,554230,green,,,,,null,US_Cities_List/mm_peoria.png,US_Cities_List/nat_gatlinburg.png,,,,,,,,,,,,,,,,,,,,,,,,,,,,,,
1606.4,,rt_thecrossant_black,555746,black_plus_sign,,,,,50,,,1,0.98245614,,,,,,,,,,,,,,,,,,,,,,,,,,,,
null,,color_black,555849,black_plus_sign,,,,,null,,,,,,,,,,,,,,,,,,,,,,,,,,,,,,,,
null,,learn_phase(without_color),558389,black_plus_sign,,,,,null,US_Cities_List/nat_hanover.png,US_Cities_List/mm_newhope.png,,,,,,,,,,,,,,,,,,,,,,,,,,,,,,
null,,black_cross(without_color),558829,blue,,,,,null,US_Cities_List/nat_hanover.png,US_Cities_List/mm_newhope.png,,,,,,,,,,,,,,,,,,,,,,,,,,,,,,
null,,rt_plussign_withcolor,559330,blue,,,,,null,US_Cities_List/nat_hanover.png,US_Cities_List/mm_newhope.png,,,,,,,,,,,,,,,,,,,,,,,,,,,,,,
773.9,,rt_thecrossant_black,560896,black_plus_sign,,,,,49,,,1,0.982758621,,,,,,,,,,,,,,,,,,,,,,,,,,,,
null,,color_black,561001,black_plus_sign,,,,,null,,,,,,,,,,,,,,,,,,,,,,,,,,,,,,,,
null,,learn_phase(without_color),563522,black_plus_sign,,,,,null,US_Cities_List/mm_leesburg.png,US_Cities_List/nat_hanover.png,,,,,,,,,,,,,,,,,,,,,,,,,,,,,,
null,,black_cross(without_color),564547,blue,,,,,null,US_Cities_List/mm_leesburg.png,US_Cities_List/nat_hanover.png,,,,,,,,,,,,,,,,,,,,,,,,,,,,,,
null,,rt_plussign_withcolor,565049,blue,,,,,null,US_Cities_List/mm_leesburg.png,US_Cities_List/nat_hanover.png,,,,,,,,,,,,,,,,,,,,,,,,,,,,,,
1055.7,,rt_thecrossant_black,566029,black_plus_sign,,,,,49,,,1,0.983050847,,,,,,,,,,,,,,,,,,,,,,,,,,,,
null,,color_black,566132,black_plus_sign,,,,,null,,,,,,,,,,,,,,,,,,,,,,,,,,,,,,,,
null,,learn_phase(without_color),568662,black_plus_sign,,,,,null,US_Cities_List/mm_peoria.png,US_Cities_List/nat_gatlinburg.png,,,,,,,,,,,,,,,,,,,,,,,,,,,,,,
null,,black_cross(without_color),569158,blue,,,,,null,US_Cities_List/mm_peoria.png,US_Cities_List/nat_gatlinburg.png,,,,,,,,,,,,,,,,,,,,,,,,,,,,,,
null,,rt_plussign_withcolor,569675,blue,,,,,null,US_Cities_List/mm_peoria.png,US_Cities_List/nat_gatlinburg.png,,,,,,,,,,,,,,,,,,,,,,,,,,,,,,
1238.2,,rt_thecrossant_black,571184,black_plus_sign,,,,,49,,,1,0.983333333,,,,,,,,,,,,,,,,,,,,,,,,,,,,
null,,color_black,571287,black_plus_sign,,,,,null,,,,,,,,,,,,,,,,,,,,,,,,,,,,,,,,
null,,learn_phase(without_color),573810,black_plus_sign,,,,,null,US_Cities_List/mm_leesburg.png,US_Cities_List/nat_carmel.png,,,,,,,,,,,,,,,,,,,,,,,,,,,,,,
null,,black_cross(without_color),574893,blue,,,,,null,US_Cities_List/mm_leesburg.png,US_Cities_List/nat_carmel.png,,,,,,,,,,,,,,,,,,,,,,,,,,,,,,
null,,rt_plussign_withcolor,575395,blue,,,,,null,US_Cities_List/mm_leesburg.png,US_Cities_List/nat_carmel.png,,,,,,,,,,,,,,,,,,,,,,,,,,,,,,
650.6999999,,rt_thecrossant_black,576320,black_plus_sign,,,,,49,,,1,0.983606557,,,,,,,,,,,,,,,,,,,,,,,,,,,,
null,,color_black,576423,black_plus_sign,,,,,null,,,,,,,,,,,,,,,,,,,,,,,,,,,,,,,,
null,,learn_phase(without_color),578967,black_plus_sign,,,,,null,US_Cities_List/mm_leesburg.png,US_Cities_List/nat_hanover.png,,,,,,,,,,,,,,,,,,,,,,,,,,,,,,
null,,black_cross(without_color),579880,green,,,,,null,US_Cities_List/mm_leesburg.png,US_Cities_List/nat_hanover.png,,,,,,,,,,,,,,,,,,,,,,,,,,,,,,
null,,rt_plussign_withcolor,580383,green,,,,,null,US_Cities_List/mm_leesburg.png,US_Cities_List/nat_hanover.png,,,,,,,,,,,,,,,,,,,,,,,,,,,,,,
1516,,rt_thecrossant_black,581475,black_plus_sign,,,,,50,,,1,0.983870968,,,,,,,,,,,,,,,,,,,,,,,,,,,,
null,,color_black,581579,black_plus_sign,,,,,null,,,,,,,,,,,,,,,,,,,,,,,,,,,,,,,,
null,,learn_phase(without_color),584103,black_plus_sign,,,,,null,US_Cities_List/nat_hanover.png,US_Cities_List/nat_carmel.png,,,,,,,,,,,,,,,,,,,,,,,,,,,,,,
null,,black_cross(without_color),584609,green,,,,,null,US_Cities_List/nat_hanover.png,US_Cities_List/nat_carmel.png,,,,,,,,,,,,,,,,,,,,,,,,,,,,,,
null,,rt_plussign_withcolor,585113,green,,,,,null,US_Cities_List/nat_hanover.png,US_Cities_List/nat_carmel.png,,,,,,,,,,,,,,,,,,,,,,,,,,,,,,
1657.7,,rt_thecrossant_black,586617,black_plus_sign,,,,,50,,,1,0.984126984,,,,,,,,,,,,,,,,,,,,,,,,,,,,
null,,color_black,586722,black_plus_sign,,,,,null,,,,,,,,,,,,,,,,,,,,,,,,,,,,,,,,
null,,learn_phase(without_color),589250,black_plus_sign,,,,,null,US_Cities_List/nat_gatlinburg.png,US_Cities_List/mm_leesburg.png,,,,,,,,,,,,,,,,,,,,,,,,,,,,,,
null,,black_cross(without_color),589750,green,,,,,null,US_Cities_List/nat_gatlinburg.png,US_Cities_List/mm_leesburg.png,,,,,,,,,,,,,,,,,,,,,,,,,,,,,,
null,,rt_plussign_withcolor,590252,green,,,,,null,US_Cities_List/nat_gatlinburg.png,US_Cities_List/mm_leesburg.png,,,,,,,,,,,,,,,,,,,,,,,,,,,,,,
761,,rt_thecrossant_black,591758,black_plus_sign,,,,,50,,,1,0.984375,,,,,,,,,,,,,,,,,,,,,,,,,,,,
null,,color_black,591862,black_plus_sign,,,,,null,,,,,,,,,,,,,,,,,,,,,,,,,,,,,,,,
null,,learn_phase(without_color),594379,black_plus_sign,,,,,null,US_Cities_List/mm_huntsville.png,US_Cities_List/nat_cornwall.png,,,,,,,,,,,,,,,,,,,,,,,,,,,,,,
null,,black_cross(without_color),595064,blue,,,,,null,US_Cities_List/mm_huntsville.png,US_Cities_List/nat_cornwall.png,,,,,,,,,,,,,,,,,,,,,,,,,,,,,,
null,,rt_plussign_withcolor,595567,blue,,,,,null,US_Cities_List/mm_huntsville.png,US_Cities_List/nat_cornwall.png,,,,,,,,,,,,,,,,,,,,,,,,,,,,,,
777.1999999,,rt_thecrossant_black,596889,black_plus_sign,,,,,49,,,1,0.984615385,,,,,,,,,,,,,,,,,,,,,,,,,,,,
null,,color_black,596991,black_plus_sign,,,,,null,,,,,,,,,,,,,,,,,,,,,,,,,,,,,,,,
null,,learn_phase(without_color),599507,black_plus_sign,,,,,null,US_Cities_List/mm_leesburg.png,US_Cities_List/nat_hanover.png,,,,,,,,,,,,,,,,,,,,,,,,,,,,,,
null,,black_cross(without_color),600469,green,,,,,null,US_Cities_List/mm_leesburg.png,US_Cities_List/nat_hanover.png,,,,,,,,,,,,,,,,,,,,,,,,,,,,,,
null,,rt_plussign_withcolor,600970,green,,,,,null,US_Cities_List/mm_leesburg.png,US_Cities_List/nat_hanover.png,,,,,,,,,,,,,,,,,,,,,,,,,,,,,,
1138.2,,rt_thecrossant_black,602012,black_plus_sign,,,,,50,,,1,0.984848485,,,,,,,,,,,,,,,,,,,,,,,,,,,,
null,,color_black,602116,black_plus_sign,,,,,null,,,,,,,,,,,,,,,,,,,,,,,,,,,,,,,,
null,,learn_phase(without_color),604640,black_plus_sign,,,,,null,US_Cities_List/nat_boulder.png,US_Cities_List/mm_peoria.png,,,,,,,,,,,,,,,,,,,,,,,,,,,,,,
null,,black_cross(without_color),605395,green,,,,,null,US_Cities_List/nat_boulder.png,US_Cities_List/mm_peoria.png,,,,,,,,,,,,,,,,,,,,,,,,,,,,,,
null,,rt_plussign_withcolor,605897,green,,,,,null,US_Cities_List/nat_boulder.png,US_Cities_List/mm_peoria.png,,,,,,,,,,,,,,,,,,,,,,,,,,,,,,
1481.3,,rt_thecrossant_black,607150,black_plus_sign,,,,,50,,,1,0.985074627,,,,,,,,,,,,,,,,,,,,,,,,,,,,
null,,color_black,607253,black_plus_sign,,,,,null,,,,,,,,,,,,,,,,,,,,,,,,,,,,,,,,
null,,learn_phase(without_color),609775,black_plus_sign,,,,,null,US_Cities_List/nat_hanover.png,US_Cities_List/mm_newhope.png,,,,,,,,,,,,,,,,,,,,,,,,,,,,,,
null,,black_cross(without_color),610187,blue,,,,,null,US_Cities_List/nat_hanover.png,US_Cities_List/mm_newhope.png,,,,,,,,,,,,,,,,,,,,,,,,,,,,,,
500.7,,rt_plussign_withcolor,610690,blue,,,,,49,US_Cities_List/nat_hanover.png,US_Cities_List/mm_newhope.png,,,,,,,,,,,,,,,,,,,,,,,,,,,,,,
null,,rt_thecrossant_black,612283,black_plus_sign,,,,,null,,,1,0.985294118,,,,,,,,,,,,,,,,,,,,,,,,,,,,
null,,color_black,612386,black_plus_sign,,,,,null,,,,,,,,,,,,,,,,,,,,,,,,,,,,,,,,
null,,learn_phase(without_color),614933,black_plus_sign,,,,,null,US_Cities_List/mm_peoria.png,US_Cities_List/nat_gatlinburg.png,,,,,,,,,,,,,,,,,,,,,,,,,,,,,,
null,,black_cross(without_color),615460,green,,,,,null,US_Cities_List/mm_peoria.png,US_Cities_List/nat_gatlinburg.png,,,,,,,,,,,,,,,,,,,,,,,,,,,,,,
null,,rt_plussign_withcolor,615963,green,,,,,null,US_Cities_List/mm_peoria.png,US_Cities_List/nat_gatlinburg.png,,,,,,,,,,,,,,,,,,,,,,,,,,,,,,
815.4,,rt_thecrossant_black,617441,black_plus_sign,,,,,50,,,1,0.985507246,,,,,,,,,,,,,,,,,,,,,,,,,,,,
null,,color_black,617549,black_plus_sign,,,,,null,,,,,,,,,,,,,,,,,,,,,,,,,,,,,,,,
null,,learn_phase(without_color),620092,black_plus_sign,,,,,null,US_Cities_List/nat_boulder.png,US_Cities_List/nat_racine.png,,,,,,,,,,,,,,,,,,,,,,,,,,,,,,
null,,black_cross(without_color),620668,blue,,,,,null,US_Cities_List/nat_boulder.png,US_Cities_List/nat_racine.png,,,,,,,,,,,,,,,,,,,,,,,,,,,,,,
null,,rt_plussign_withcolor,621169,blue,,,,,null,US_Cities_List/nat_boulder.png,US_Cities_List/nat_racine.png,,,,,,,,,,,,,,,,,,,,,,,,,,,,,,
895.9,,rt_thecrossant_black,622608,black_plus_sign,,,,,49,,,1,0.985714286,,,,,,,,,,,,,,,,,,,,,,,,,,,,
null,,color_black,622711,black_plus_sign,,,,,null,,,,,,,,,,,,,,,,,,,,,,,,,,,,,,,,
null,,learn_phase(without_color),625254,black_plus_sign,,,,,null,US_Cities_List/nat_racine.png,US_Cities_List/nat_hotsprings.png,,,,,,,,,,,,,,,,,,,,,,,,,,,,,,
null,,black_cross(without_color),625764,green,,,,,null,US_Cities_List/nat_racine.png,US_Cities_List/nat_hotsprings.png,,,,,,,,,,,,,,,,,,,,,,,,,,,,,,
null,,rt_plussign_withcolor,626273,green,,,,,null,US_Cities_List/nat_racine.png,US_Cities_List/nat_hotsprings.png,,,,,,,,,,,,,,,,,,,,,,,,,,,,,,
1249.1,,rt_thecrossant_black,627770,black_plus_sign,,,,,50,,,1,0.985915493,,,,,,,,,,,,,,,,,,,,,,,,,,,,
null,,color_black,627873,black_plus_sign,,,,,null,,,,,,,,,,,,,,,,,,,,,,,,,,,,,,,,
null,,learn_phase(without_color),630417,black_plus_sign,,,,,null,US_Cities_List/nat_racine.png,US_Cities_List/nat_cornwall.png,,,,,,,,,,,,,,,,,,,,,,,,,,,,,,
null,,black_cross(without_color),630830,blue,,,,,null,US_Cities_List/nat_racine.png,US_Cities_List/nat_cornwall.png,,,,,,,,,,,,,,,,,,,,,,,,,,,,,,
null,,rt_plussign_withcolor,631332,blue,,,,,null,US_Cities_List/nat_racine.png,US_Cities_List/nat_cornwall.png,,,,,,,,,,,,,,,,,,,,,,,,,,,,,,
637.1,,rt_thecrossant_black,632926,black_plus_sign,,,,,49,,,1,0.986111111,,,,,,,,,,,,,,,,,,,,,,,,,,,,
null,,color_black,633029,black_plus_sign,,,,,null,,,,,,,,,,,,,,,,,,,,,,,,,,,,,,,,
null,,learn_phase(without_color),635564,black_plus_sign,,,,,null,US_Cities_List/nat_boulder.png,US_Cities_List/nat_racine.png,,,,,,,,,,,,,,,,,,,,,,,,,,,,,,
null,,black_cross(without_color),635973,blue,,,,,null,US_Cities_List/nat_boulder.png,US_Cities_List/nat_racine.png,,,,,,,,,,,,,,,,,,,,,,,,,,,,,,
null,,rt_plussign_withcolor,636476,blue,,,,,null,US_Cities_List/nat_boulder.png,US_Cities_List/nat_racine.png,,,,,,,,,,,,,,,,,,,,,,,,,,,,,,
647.4,,rt_thecrossant_black,638074,black_plus_sign,,,,,49,,,1,0.98630137,,,,,,,,,,,,,,,,,,,,,,,,,,,,
null,,color_black,638178,black_plus_sign,,,,,null,,,,,,,,,,,,,,,,,,,,,,,,,,,,,,,,
null,,learn_phase(without_color),640726,black_plus_sign,,,,,null,US_Cities_List/nat_hanover.png,US_Cities_List/mm_newhope.png,,,,,,,,,,,,,,,,,,,,,,,,,,,,,,
null,,black_cross(without_color),641207,green,,,,,null,US_Cities_List/nat_hanover.png,US_Cities_List/mm_newhope.png,,,,,,,,,,,,,,,,,,,,,,,,,,,,,,
null,,rt_plussign_withcolor,641709,green,,,,,null,US_Cities_List/nat_hanover.png,US_Cities_List/mm_newhope.png,,,,,,,,,,,,,,,,,,,,,,,,,,,,,,
825.3000001,,rt_thecrossant_black,643235,black_plus_sign,,,,,50,,,1,0.986486486,,,,,,,,,,,,,,,,,,,,,,,,,,,,
null,,color_black,643337,black_plus_sign,,,,,null,,,,,,,,,,,,,,,,,,,,,,,,,,,,,,,,
null,,learn_phase(without_color),645857,black_plus_sign,,,,,null,US_Cities_List/mm_leesburg.png,US_Cities_List/mm_shreveport.png,,,,,,,,,,,,,,,,,,,,,,,,,,,,,,
null,,black_cross(without_color),646466,green,,,,,null,US_Cities_List/mm_leesburg.png,US_Cities_List/mm_shreveport.png,,,,,,,,,,,,,,,,,,,,,,,,,,,,,,
null,,rt_plussign_withcolor,646968,green,,,,,null,US_Cities_List/mm_leesburg.png,US_Cities_List/mm_shreveport.png,,,,,,,,,,,,,,,,,,,,,,,,,,,,,,
868.7,,rt_thecrossant_black,648368,black_plus_sign,,,,,50,,,1,0.986666667,,,,,,,,,,,,,,,,,,,,,,,,,,,,
null,,color_black,648471,black_plus_sign,,,,,null,,,,,,,,,,,,,,,,,,,,,,,,,,,,,,,,
null,,learn_phase(without_color),650992,black_plus_sign,,,,,null,US_Cities_List/nat_racine.png,US_Cities_List/nat_cornwall.png,,,,,,,,,,,,,,,,,,,,,,,,,,,,,,
null,,black_cross(without_color),651555,green,,,,,null,US_Cities_List/nat_racine.png,US_Cities_List/nat_cornwall.png,,,,,,,,,,,,,,,,,,,,,,,,,,,,,,
null,,rt_plussign_withcolor,652058,green,,,,,null,US_Cities_List/nat_racine.png,US_Cities_List/nat_cornwall.png,,,,,,,,,,,,,,,,,,,,,,,,,,,,,,
810.1,,rt_thecrossant_black,653500,black_plus_sign,,,,,50,,,1,0.986842105,,,,,,,,,,,,,,,,,,,,,,,,,,,,
null,,color_black,653603,black_plus_sign,,,,,null,,,,,,,,,,,,,,,,,,,,,,,,,,,,,,,,
null,,learn_phase(without_color),656147,black_plus_sign,,,,,null,US_Cities_List/nat_boulder.png,US_Cities_List/nat_racine.png,,,,,,,,,,,,,,,,,,,,,,,,,,,,,,
null,,black_cross(without_color),656902,blue,,,,,null,US_Cities_List/nat_boulder.png,US_Cities_List/nat_racine.png,,,,,,,,,,,,,,,,,,,,,,,,,,,,,,
null,,rt_plussign_withcolor,657405,blue,,,,,null,US_Cities_List/nat_boulder.png,US_Cities_List/nat_racine.png,,,,,,,,,,,,,,,,,,,,,,,,,,,,,,
748.4,,rt_thecrossant_black,658657,black_plus_sign,,,,,49,,,1,0.987012987,,,,,,,,,,,,,,,,,,,,,,,,,,,,
null,,color_black,658760,black_plus_sign,,,,,null,,,,,,,,,,,,,,,,,,,,,,,,,,,,,,,,
null,,learn_phase(without_color),661283,black_plus_sign,,,,,null,US_Cities_List/nat_hanover.png,US_Cities_List/nat_carmel.png,,,,,,,,,,,,,,,,,,,,,,,,,,,,,,
null,,black_cross(without_color),662233,green,,,,,null,US_Cities_List/nat_hanover.png,US_Cities_List/nat_carmel.png,,,,,,,,,,,,,,,,,,,,,,,,,,,,,,
null,,rt_plussign_withcolor,662735,green,,,,,null,US_Cities_List/nat_hanover.png,US_Cities_List/nat_carmel.png,,,,,,,,,,,,,,,,,,,,,,,,,,,,,,
964.5,,rt_thecrossant_black,663791,black_plus_sign,,,,,50,,,1,0.987179487,,,,,,,,,,,,,,,,,,,,,,,,,,,,
null,,color_black,663895,black_plus_sign,,,,,null,,,,,,,,,,,,,,,,,,,,,,,,,,,,,,,,
null,,learn_phase(without_color),666416,black_plus_sign,,,,,null,US_Cities_List/nat_carmel.png,US_Cities_List/mm_huntsville.png,,,,,,,,,,,,,,,,,,,,,,,,,,,,,,
null,,black_cross(without_color),667361,green,,,,,null,US_Cities_List/nat_carmel.png,US_Cities_List/mm_huntsville.png,,,,,,,,,,,,,,,,,,,,,,,,,,,,,,
null,,rt_plussign_withcolor,667862,green,,,,,null,US_Cities_List/nat_carmel.png,US_Cities_List/mm_huntsville.png,,,,,,,,,,,,,,,,,,,,,,,,,,,,,,
1359.8,,rt_thecrossant_black,668923,black_plus_sign,,,,,50,,,1,0.987341772,,,,,,,,,,,,,,,,,,,,,,,,,,,,
null,,color_black,669025,black_plus_sign,,,,,null,,,,,,,,,,,,,,,,,,,,,,,,,,,,,,,,
null,,learn_phase(without_color),671545,black_plus_sign,,,,,null,US_Cities_List/nat_gatlinburg.png,US_Cities_List/nat_carmel.png,,,,,,,,,,,,,,,,,,,,,,,,,,,,,,
null,,black_cross(without_color),672170,blue,,,,,null,US_Cities_List/nat_gatlinburg.png,US_Cities_List/nat_carmel.png,,,,,,,,,,,,,,,,,,,,,,,,,,,,,,
null,,rt_plussign_withcolor,672672,blue,,,,,null,US_Cities_List/nat_gatlinburg.png,US_Cities_List/nat_carmel.png,,,,,,,,,,,,,,,,,,,,,,,,,,,,,,
1169.2,,rt_thecrossant_black,674054,black_plus_sign,,,,,49,,,1,0.9875,,,,,,,,,,,,,,,,,,,,,,,,,,,,
null,,color_black,674157,black_plus_sign,,,,,null,,,,,,,,,,,,,,,,,,,,,,,,,,,,,,,,
null,,learn_phase(without_color),676703,black_plus_sign,,,,,null,US_Cities_List/nat_boulder.png,US_Cities_List/mm_peoria.png,,,,,,,,,,,,,,,,,,,,,,,,,,,,,,
null,,black_cross(without_color),677584,green,,,,,null,US_Cities_List/nat_boulder.png,US_Cities_List/mm_peoria.png,,,,,,,,,,,,,,,,,,,,,,,,,,,,,,
null,,rt_plussign_withcolor,678086,green,,,,,null,US_Cities_List/nat_boulder.png,US_Cities_List/mm_peoria.png,,,,,,,,,,,,,,,,,,,,,,,,,,,,,,
984.1,,rt_thecrossant_black,679221,black_plus_sign,,,,,50,,,1,0.987654321,,,,,,,,,,,,,,,,,,,,,,,,,,,,
null,,color_black,679324,black_plus_sign,,,,,null,,,,,,,,,,,,,,,,,,,,,,,,,,,,,,,,
null,,learn_phase(without_color),681841,black_plus_sign,,,,,null,US_Cities_List/nat_hanover.png,US_Cities_List/mm_newhope.png,,,,,,,,,,,,,,,,,,,,,,,,,,,,,,
null,,black_cross(without_color),682641,blue,,,,,null,US_Cities_List/nat_hanover.png,US_Cities_List/mm_newhope.png,,,,,,,,,,,,,,,,,,,,,,,,,,,,,,
null,,rt_plussign_withcolor,683145,blue,,,,,null,US_Cities_List/nat_hanover.png,US_Cities_List/mm_newhope.png,,,,,,,,,,,,,,,,,,,,,,,,,,,,,,
1218.9,,rt_thecrossant_black,684362,black_plus_sign,,,,,49,,,1,0.987804878,,,,,,,,,,,,,,,,,,,,,,,,,,,,
null,,color_black,684465,black_plus_sign,,,,,null,,,,,,,,,,,,,,,,,,,,,,,,,,,,,,,,
null,,learn_phase(without_color),686988,black_plus_sign,,,,,null,US_Cities_List/nat_gatlinburg.png,US_Cities_List/nat_carmel.png,,,,,,,,,,,,,,,,,,,,,,,,,,,,,,
null,,black_cross(without_color),687425,green,,,,,null,US_Cities_List/nat_gatlinburg.png,US_Cities_List/nat_carmel.png,,,,,,,,,,,,,,,,,,,,,,,,,,,,,,
null,,rt_plussign_withcolor,687926,green,,,,,null,US_Cities_List/nat_gatlinburg.png,US_Cities_List/nat_carmel.png,,,,,,,,,,,,,,,,,,,,,,,,,,,,,,
1019.3,,rt_thecrossant_black,689496,black_plus_sign,,,,,50,,,1,0.987951807,,,,,,,,,,,,,,,,,,,,,,,,,,,,
null,,color_black,689600,black_plus_sign,,,,,null,,,,,,,,,,,,,,,,,,,,,,,,,,,,,,,,
null,,learn_phase(without_color),692118,black_plus_sign,,,,,null,US_Cities_List/nat_hanover.png,US_Cities_List/mm_newhope.png,,,,,,,,,,,,,,,,,,,,,,,,,,,,,,
null,,black_cross(without_color),693100,green,,,,,null,US_Cities_List/nat_hanover.png,US_Cities_List/mm_newhope.png,,,,,,,,,,,,,,,,,,,,,,,,,,,,,,
null,,rt_plussign_withcolor,693603,green,,,,,null,US_Cities_List/nat_hanover.png,US_Cities_List/mm_newhope.png,,,,,,,,,,,,,,,,,,,,,,,,,,,,,,
587.1,,rt_thecrossant_black,694628,black_plus_sign,,,,,50,,,1,0.988095238,,,,,,,,,,,,,,,,,,,,,,,,,,,,
null,,color_black,694732,black_plus_sign,,,,,null,,,,,,,,,,,,,,,,,,,,,,,,,,,,,,,,
null,,learn_phase(without_color),697270,black_plus_sign,,,,,null,US_Cities_List/mm_westpalmbeach.png,US_Cities_List/nat_boulder.png,,,,,,,,,,,,,,,,,,,,,,,,,,,,,,
null,,black_cross(without_color),697686,green,,,,,null,US_Cities_List/mm_westpalmbeach.png,US_Cities_List/nat_boulder.png,,,,,,,,,,,,,,,,,,,,,,,,,,,,,,
null,,rt_plussign_withcolor,698189,green,,,,,null,US_Cities_List/mm_westpalmbeach.png,US_Cities_List/nat_boulder.png,,,,,,,,,,,,,,,,,,,,,,,,,,,,,,
1187.9,,rt_thecrossant_black,699788,black_plus_sign,,,,,50,,,1,0.988235294,,,,,,,,,,,,,,,,,,,,,,,,,,,,
null,,color_black,699891,black_plus_sign,,,,,null,,,,,,,,,,,,,,,,,,,,,,,,,,,,,,,,
null,,learn_phase(without_color),702413,black_plus_sign,,,,,null,US_Cities_List/mm_peoria.png,US_Cities_List/nat_gatlinburg.png,,,,,,,,,,,,,,,,,,,,,,,,,,,,,,
null,,black_cross(without_color),702875,blue,,,,,null,US_Cities_List/mm_peoria.png,US_Cities_List/nat_gatlinburg.png,,,,,,,,,,,,,,,,,,,,,,,,,,,,,,
null,,rt_plussign_withcolor,703377,blue,,,,,null,US_Cities_List/mm_peoria.png,US_Cities_List/nat_gatlinburg.png,,,,,,,,,,,,,,,,,,,,,,,,,,,,,,
599.6,,rt_thecrossant_black,704921,black_plus_sign,,,,,49,,,1,0.988372093,,,,,,,,,,,,,,,,,,,,,,,,,,,,
null,,color_black,705024,black_plus_sign,,,,,null,,,,,,,,,,,,,,,,,,,,,,,,,,,,,,,,
null,,learn_phase(without_color),707544,black_plus_sign,,,,,null,US_Cities_List/mm_leesburg.png,US_Cities_List/mm_shreveport.png,,,,,,,,,,,,,,,,,,,,,,,,,,,,,,
null,,black_cross(without_color),708060,blue,,,,,null,US_Cities_List/mm_leesburg.png,US_Cities_List/mm_shreveport.png,,,,,,,,,,,,,,,,,,,,,,,,,,,,,,
null,,rt_plussign_withcolor,708562,blue,,,,,null,US_Cities_List/mm_leesburg.png,US_Cities_List/mm_shreveport.png,,,,,,,,,,,,,,,,,,,,,,,,,,,,,,
663.7,,rt_thecrossant_black,710052,black_plus_sign,,,,,49,,,1,0.988505747,,,,,,,,,,,,,,,,,,,,,,,,,,,,
null,,color_black,710156,black_plus_sign,,,,,null,,,,,,,,,,,,,,,,,,,,,,,,,,,,,,,,
null,,learn_phase(without_color),712698,black_plus_sign,,,,,null,US_Cities_List/mm_peoria.png,US_Cities_List/mm_huntsville.png,,,,,,,,,,,,,,,,,,,,,,,,,,,,,,
null,,black_cross(without_color),713490,blue,,,,,null,US_Cities_List/mm_peoria.png,US_Cities_List/mm_huntsville.png,,,,,,,,,,,,,,,,,,,,,,,,,,,,,,
null,,rt_plussign_withcolor,713992,blue,,,,,null,US_Cities_List/mm_peoria.png,US_Cities_List/mm_huntsville.png,,,,,,,,,,,,,,,,,,,,,,,,,,,,,,
617.4000001,,rt_thecrossant_black,715205,black_plus_sign,,,,,49,,,1,0.988636364,,,,,,,,,,,,,,,,,,,,,,,,,,,,
null,,color_black,715308,black_plus_sign,,,,,null,,,,,,,,,,,,,,,,,,,,,,,,,,,,,,,,
null,,learn_phase(without_color),717839,black_plus_sign,,,,,null,US_Cities_List/mm_peoria.png,US_Cities_List/nat_gatlinburg.png,,,,,,,,,,,,,,,,,,,,,,,,,,,,,,
null,,black_cross(without_color),718780,blue,,,,,null,US_Cities_List/mm_peoria.png,US_Cities_List/nat_gatlinburg.png,,,,,,,,,,,,,,,,,,,,,,,,,,,,,,
null,,rt_plussign_withcolor,719282,blue,,,,,null,US_Cities_List/mm_peoria.png,US_Cities_List/nat_gatlinburg.png,,,,,,,,,,,,,,,,,,,,,,,,,,,,,,
1067.9,,rt_thecrossant_black,720352,black_plus_sign,,,,,49,,,1,0.988764045,,,,,,,,,,,,,,,,,,,,,,,,,,,,
null,,color_black,720456,black_plus_sign,,,,,null,,,,,,,,,,,,,,,,,,,,,,,,,,,,,,,,
null,,learn_phase(without_color),723004,black_plus_sign,,,,,null,US_Cities_List/mm_westpalmbeach.png,US_Cities_List/nat_boulder.png,,,,,,,,,,,,,,,,,,,,,,,,,,,,,,
null,,black_cross(without_color),723497,green,,,,,null,US_Cities_List/mm_westpalmbeach.png,US_Cities_List/nat_boulder.png,,,,,,,,,,,,,,,,,,,,,,,,,,,,,,
null,,rt_plussign_withcolor,724000,green,,,,,null,US_Cities_List/mm_westpalmbeach.png,US_Cities_List/nat_boulder.png,,,,,,,,,,,,,,,,,,,,,,,,,,,,,,
1244.5,,rt_thecrossant_black,725512,black_plus_sign,,,,,50,,,1,0.988888889,,,,,,,,,,,,,,,,,,,,,,,,,,,,
null,,color_black,725615,black_plus_sign,,,,,null,,,,,,,,,,,,,,,,,,,,,,,,,,,,,,,,
null,,learn_phase(without_color),728150,black_plus_sign,,,,,null,US_Cities_List/nat_carmel.png,US_Cities_List/mm_huntsville.png,,,,,,,,,,,,,,,,,,,,,,,,,,,,,,
null,,black_cross(without_color),729092,green,,,,,null,US_Cities_List/nat_carmel.png,US_Cities_List/mm_huntsville.png,,,,,,,,,,,,,,,,,,,,,,,,,,,,,,
null,,rt_plussign_withcolor,729595,green,,,,,null,US_Cities_List/nat_carmel.png,US_Cities_List/mm_huntsville.png,,,,,,,,,,,,,,,,,,,,,,,,,,,,,,
746.8,,rt_thecrossant_black,730658,black_plus_sign,,,,,50,,,1,0.989010989,,,,,,,,,,,,,,,,,,,,,,,,,,,,
null,,color_black,730761,black_plus_sign,,,,,null,,,,,,,,,,,,,,,,,,,,,,,,,,,,,,,,
null,,learn_phase(without_color),733283,black_plus_sign,,,,,null,US_Cities_List/nat_gatlinburg.png,US_Cities_List/mm_leesburg.png,,,,,,,,,,,,,,,,,,,,,,,,,,,,,,
null,,black_cross(without_color),734322,blue,,,,,null,US_Cities_List/nat_gatlinburg.png,US_Cities_List/mm_leesburg.png,,,,,,,,,,,,,,,,,,,,,,,,,,,,,,
null,,rt_plussign_withcolor,734825,blue,,,,,null,US_Cities_List/nat_gatlinburg.png,US_Cities_List/mm_leesburg.png,,,,,,,,,,,,,,,,,,,,,,,,,,,,,,
1057.4,,rt_thecrossant_black,735793,black_plus_sign,,,,,49,,,1,0.989130435,,,,,,,,,,,,,,,,,,,,,,,,,,,,
null,,color_black,735896,black_plus_sign,,,,,null,,,,,,,,,,,,,,,,,,,,,,,,,,,,,,,,
null,,learn_phase(without_color),738443,black_plus_sign,,,,,null,US_Cities_List/mm_leesburg.png,US_Cities_List/mm_shreveport.png,,,,,,,,,,,,,,,,,,,,,,,,,,,,,,
null,,black_cross(without_color),739172,blue,,,,,null,US_Cities_List/mm_leesburg.png,US_Cities_List/mm_shreveport.png,,,,,,,,,,,,,,,,,,,,,,,,,,,,,,
null,,rt_plussign_withcolor,739675,blue,,,,,null,US_Cities_List/mm_leesburg.png,US_Cities_List/mm_shreveport.png,,,,,,,,,,,,,,,,,,,,,,,,,,,,,,
1196.3,,rt_thecrossant_black,740953,black_plus_sign,,,,,49,,,1,0.989247312,,,,,,,,,,,,,,,,,,,,,,,,,,,,
null,,color_black,741056,black_plus_sign,,,,,null,,,,,,,,,,,,,,,,,,,,,,,,,,,,,,,,
null,,learn_phase(without_color),743576,black_plus_sign,,,,,null,US_Cities_List/nat_carmel.png,US_Cities_List/mm_huntsville.png,,,,,,,,,,,,,,,,,,,,,,,,,,,,,,
null,,black_cross(without_color),744370,green,,,,,null,US_Cities_List/nat_carmel.png,US_Cities_List/mm_huntsville.png,,,,,,,,,,,,,,,,,,,,,,,,,,,,,,
418.1999999,,rt_plussign_withcolor,744874,green,,,,,50,US_Cities_List/nat_carmel.png,US_Cities_List/mm_huntsville.png,,,,,,,,,,,,,,,,,,,,,,,,,,,,,,
null,,rt_thecrossant_black,746086,black_plus_sign,,,,,null,,,1,0.989361702,,,,,,,,,,,,,,,,,,,,,,,,,,,,
null,,color_black,746189,black_plus_sign,,,,,null,,,,,,,,,,,,,,,,,,,,,,,,,,,,,,,,
null,,learn_phase(without_color),748743,black_plus_sign,,,,,null,US_Cities_List/nat_hanover.png,US_Cities_List/nat_carmel.png,,,,,,,,,,,,,,,,,,,,,,,,,,,,,,
null,,black_cross(without_color),749267,blue,,,,,null,US_Cities_List/nat_hanover.png,US_Cities_List/nat_carmel.png,,,,,,,,,,,,,,,,,,,,,,,,,,,,,,
null,,rt_plussign_withcolor,749770,blue,,,,,null,US_Cities_List/nat_hanover.png,US_Cities_List/nat_carmel.png,,,,,,,,,,,,,,,,,,,,,,,,,,,,,,
997.3000001,,rt_thecrossant_black,751252,black_plus_sign,,,,,49,,,1,0.989473684,,,,,,,,,,,,,,,,,,,,,,,,,,,,
null,,color_black,751355,black_plus_sign,,,,,null,,,,,,,,,,,,,,,,,,,,,,,,,,,,,,,,
null,,learn_phase(without_color),753883,black_plus_sign,,,,,null,US_Cities_List/nat_gatlinburg.png,US_Cities_List/mm_leesburg.png,,,,,,,,,,,,,,,,,,,,,,,,,,,,,,
null,,black_cross(without_color),754553,green,,,,,null,US_Cities_List/nat_gatlinburg.png,US_Cities_List/mm_leesburg.png,,,,,,,,,,,,,,,,,,,,,,,,,,,,,,
null,,rt_plussign_withcolor,755056,green,,,,,null,US_Cities_List/nat_gatlinburg.png,US_Cities_List/mm_leesburg.png,,,,,,,,,,,,,,,,,,,,,,,,,,,,,,
720.1,,rt_thecrossant_black,756420,black_plus_sign,,,,,50,,,1,0.989583333,,,,,,,,,,,,,,,,,,,,,,,,,,,,
null,,color_black,756524,black_plus_sign,,,,,null,,,,,,,,,,,,,,,,,,,,,,,,,,,,,,,,
null,,learn_phase(without_color),759067,black_plus_sign,,,,,null,US_Cities_List/nat_boulder.png,US_Cities_List/nat_racine.png,,,,,,,,,,,,,,,,,,,,,,,,,,,,,,
null,,black_cross(without_color),759905,blue,,,,,null,US_Cities_List/nat_boulder.png,US_Cities_List/nat_racine.png,,,,,,,,,,,,,,,,,,,,,,,,,,,,,,
null,,rt_plussign_withcolor,760407,blue,,,,,null,US_Cities_List/nat_boulder.png,US_Cities_List/nat_racine.png,,,,,,,,,,,,,,,,,,,,,,,,,,,,,,
929.0999999,,rt_thecrossant_black,761587,black_plus_sign,,,,,49,,,1,0.989690722,,,,,,,,,,,,,,,,,,,,,,,,,,,,
null,,color_black,761690,black_plus_sign,,,,,null,,,,,,,,,,,,,,,,,,,,,,,,,,,,,,,,
null,,learn_phase(without_color),764216,black_plus_sign,,,,,null,US_Cities_List/nat_gatlinburg.png,US_Cities_List/nat_carmel.png,,,,,,,,,,,,,,,,,,,,,,,,,,,,,,
null,,black_cross(without_color),764994,green,,,,,null,US_Cities_List/nat_gatlinburg.png,US_Cities_List/nat_carmel.png,,,,,,,,,,,,,,,,,,,,,,,,,,,,,,
null,,rt_plussign_withcolor,765496,green,,,,,null,US_Cities_List/nat_gatlinburg.png,US_Cities_List/nat_carmel.png,,,,,,,,,,,,,,,,,,,,,,,,,,,,,,
1161.8,,rt_thecrossant_black,766746,black_plus_sign,,,,,50,,,1,0.989795918,,,,,,,,,,,,,,,,,,,,,,,,,,,,
null,,color_black,766850,black_plus_sign,,,,,null,,,,,,,,,,,,,,,,,,,,,,,,,,,,,,,,
null,,learn_phase(without_color),769373,black_plus_sign,,,,,null,US_Cities_List/nat_carmel.png,US_Cities_List/mm_huntsville.png,,,,,,,,,,,,,,,,,,,,,,,,,,,,,,
null,,black_cross(without_color),770372,green,,,,,null,US_Cities_List/nat_carmel.png,US_Cities_List/mm_huntsville.png,,,,,,,,,,,,,,,,,,,,,,,,,,,,,,
null,,rt_plussign_withcolor,770885,green,,,,,null,US_Cities_List/nat_carmel.png,US_Cities_List/mm_huntsville.png,,,,,,,,,,,,,,,,,,,,,,,,,,,,,,
1072.5,,rt_thecrossant_black,771891,black_plus_sign,,,,,50,,,1,0.98989899,,,,,,,,,,,,,,,,,,,,,,,,,,,,
null,,color_black,771996,black_plus_sign,,,,,null,,,,,,,,,,,,,,,,,,,,,,,,,,,,,,,,
null,,learn_phase(without_color),774518,black_plus_sign,,,,,null,US_Cities_List/mm_westpalmbeach.png,US_Cities_List/nat_boulder.png,,,,,,,,,,,,,,,,,,,,,,,,,,,,,,
null,,black_cross(without_color),775196,blue,,,,,null,US_Cities_List/mm_westpalmbeach.png,US_Cities_List/nat_boulder.png,,,,,,,,,,,,,,,,,,,,,,,,,,,,,,
null,,rt_plussign_withcolor,775699,blue,,,,,null,US_Cities_List/mm_westpalmbeach.png,US_Cities_List/nat_boulder.png,,,,,,,,,,,,,,,,,,,,,,,,,,,,,,
1122.2,,rt_thecrossant_black,777027,black_plus_sign,,,,,49,,,1,0.99,,,,,,,,,,,,,,,,,,,,,,,,,,,,
null,,color_black,777131,black_plus_sign,,,,,null,,,,,,,,,,,,,,,,,,,,,,,,,,,,,,,,
null,,learn_phase(without_color),779656,black_plus_sign,,,,,null,US_Cities_List/nat_hanover.png,US_Cities_List/nat_carmel.png,,,,,,,,,,,,,,,,,,,,,,,,,,,,,,
null,,black_cross(without_color),780495,green,,,,,null,US_Cities_List/nat_hanover.png,US_Cities_List/nat_carmel.png,,,,,,,,,,,,,,,,,,,,,,,,,,,,,,
null,,rt_plussign_withcolor,780997,green,,,,,null,US_Cities_List/nat_hanover.png,US_Cities_List/nat_carmel.png,,,,,,,,,,,,,,,,,,,,,,,,,,,,,,
1059.6,,rt_thecrossant_black,782164,black_plus_sign,,,,,50,,,1,0.99009901,,,,,,,,,,,,,,,,,,,,,,,,,,,,
null,,color_black,782269,black_plus_sign,,,,,null,,,,,,,,,,,,,,,,,,,,,,,,,,,,,,,,
null,,learn_phase(without_color),784807,black_plus_sign,,,,,null,US_Cities_List/nat_boulder.png,US_Cities_List/mm_peoria.png,,,,,,,,,,,,,,,,,,,,,,,,,,,,,,
null,,black_cross(without_color),785415,blue,,,,,null,US_Cities_List/nat_boulder.png,US_Cities_List/mm_peoria.png,,,,,,,,,,,,,,,,,,,,,,,,,,,,,,
null,,rt_plussign_withcolor,785917,blue,,,,,null,US_Cities_List/nat_boulder.png,US_Cities_List/mm_peoria.png,,,,,,,,,,,,,,,,,,,,,,,,,,,,,,
1105.5,,rt_thecrossant_black,787315,black_plus_sign,,,,,49,,,1,0.990196078,,,,,,,,,,,,,,,,,,,,,,,,,,,,
null,,color_black,787418,black_plus_sign,,,,,null,,,,,,,,,,,,,,,,,,,,,,,,,,,,,,,,
null,,learn_phase(without_color),789945,black_plus_sign,,,,,null,US_Cities_List/mm_westpalmbeach.png,US_Cities_List/nat_boulder.png,,,,,,,,,,,,,,,,,,,,,,,,,,,,,,
null,,black_cross(without_color),790977,green,,,,,null,US_Cities_List/mm_westpalmbeach.png,US_Cities_List/nat_boulder.png,,,,,,,,,,,,,,,,,,,,,,,,,,,,,,
null,,rt_plussign_withcolor,791479,green,,,,,null,US_Cities_List/mm_westpalmbeach.png,US_Cities_List/nat_boulder.png,,,,,,,,,,,,,,,,,,,,,,,,,,,,,,
762.3,,rt_thecrossant_black,792457,black_plus_sign,,,,,50,,,1,0.990291262,,,,,,,,,,,,,,,,,,,,,,,,,,,,
null,,color_black,792561,black_plus_sign,,,,,null,,,,,,,,,,,,,,,,,,,,,,,,,,,,,,,,
null,,learn_phase(without_color),795079,black_plus_sign,,,,,null,US_Cities_List/nat_carmel.png,US_Cities_List/mm_huntsville.png,,,,,,,,,,,,,,,,,,,,,,,,,,,,,,
null,,black_cross(without_color),796148,blue,,,,,null,US_Cities_List/nat_carmel.png,US_Cities_List/mm_huntsville.png,,,,,,,,,,,,,,,,,,,,,,,,,,,,,,
null,,rt_plussign_withcolor,796650,blue,,,,,null,US_Cities_List/nat_carmel.png,US_Cities_List/mm_huntsville.png,,,,,,,,,,,,,,,,,,,,,,,,,,,,,,
1450.3,,rt_thecrossant_black,797588,black_plus_sign,,,,,49,,,1,0.990384615,,,,,,,,,,,,,,,,,,,,,,,,,,,,
null,,color_black,797692,black_plus_sign,,,,,null,,,,,,,,,,,,,,,,,,,,,,,,,,,,,,,,
null,,learn_phase(without_color),800217,black_plus_sign,,,,,null,US_Cities_List/mm_peoria.png,US_Cities_List/nat_gatlinburg.png,,,,,,,,,,,,,,,,,,,,,,,,,,,,,,
null,,black_cross(without_color),801217,green,,,,,null,US_Cities_List/mm_peoria.png,US_Cities_List/nat_gatlinburg.png,,,,,,,,,,,,,,,,,,,,,,,,,,,,,,
null,,rt_plussign_withcolor,801719,green,,,,,null,US_Cities_List/mm_peoria.png,US_Cities_List/nat_gatlinburg.png,,,,,,,,,,,,,,,,,,,,,,,,,,,,,,
1378.2,,rt_thecrossant_black,802726,black_plus_sign,,,,,50,,,1,0.99047619,,,,,,,,,,,,,,,,,,,,,,,,,,,,
null,,color_black,802829,black_plus_sign,,,,,null,,,,,,,,,,,,,,,,,,,,,,,,,,,,,,,,
null,,learn_phase(without_color),805361,black_plus_sign,,,,,null,US_Cities_List/mm_leesburg.png,US_Cities_List/mm_shreveport.png,,,,,,,,,,,,,,,,,,,,,,,,,,,,,,
null,,black_cross(without_color),806301,green,,,,,null,US_Cities_List/mm_leesburg.png,US_Cities_List/mm_shreveport.png,,,,,,,,,,,,,,,,,,,,,,,,,,,,,,
null,,rt_plussign_withcolor,806803,green,,,,,null,US_Cities_List/mm_leesburg.png,US_Cities_List/mm_shreveport.png,,,,,,,,,,,,,,,,,,,,,,,,,,,,,,
1374.2,,rt_thecrossant_black,807870,black_plus_sign,,,,,50,,,1,0.990566038,,,,,,,,,,,,,,,,,,,,,,,,,,,,
null,,color_black,807972,black_plus_sign,,,,,null,,,,,,,,,,,,,,,,,,,,,,,,,,,,,,,,
null,,learn_phase(without_color),810497,black_plus_sign,,,,,null,US_Cities_List/mm_leesburg.png,US_Cities_List/nat_hanover.png,,,,,,,,,,,,,,,,,,,,,,,,,,,,,,
null,,black_cross(without_color),811427,green,,,,,null,US_Cities_List/mm_leesburg.png,US_Cities_List/nat_hanover.png,,,,,,,,,,,,,,,,,,,,,,,,,,,,,,
null,,rt_plussign_withcolor,811936,green,,,,,null,US_Cities_List/mm_leesburg.png,US_Cities_List/nat_hanover.png,,,,,,,,,,,,,,,,,,,,,,,,,,,,,,
1319.3,,rt_thecrossant_black,813013,black_plus_sign,,,,,50,,,1,0.990654206,,,,,,,,,,,,,,,,,,,,,,,,,,,,
null,,color_black,813116,black_plus_sign,,,,,null,,,,,,,,,,,,,,,,,,,,,,,,,,,,,,,,
null,,learn_phase(without_color),815644,black_plus_sign,,,,,null,US_Cities_List/mm_leesburg.png,US_Cities_List/mm_shreveport.png,,,,,,,,,,,,,,,,,,,,,,,,,,,,,,
null,,black_cross(without_color),816654,blue,,,,,null,US_Cities_List/mm_leesburg.png,US_Cities_List/mm_shreveport.png,,,,,,,,,,,,,,,,,,,,,,,,,,,,,,
null,,rt_plussign_withcolor,817157,blue,,,,,null,US_Cities_List/mm_leesburg.png,US_Cities_List/mm_shreveport.png,,,,,,,,,,,,,,,,,,,,,,,,,,,,,,
1276.3,,rt_thecrossant_black,818154,black_plus_sign,,,,,49,,,1,0.990740741,,,,,,,,,,,,,,,,,,,,,,,,,,,,
null,,color_black,818257,black_plus_sign,,,,,null,,,,,,,,,,,,,,,,,,,,,,,,,,,,,,,,
null,,learn_phase(without_color),820808,black_plus_sign,,,,,null,US_Cities_List/nat_gatlinburg.png,US_Cities_List/mm_leesburg.png,,,,,,,,,,,,,,,,,,,,,,,,,,,,,,
null,,black_cross(without_color),821676,blue,,,,,null,US_Cities_List/nat_gatlinburg.png,US_Cities_List/mm_leesburg.png,,,,,,,,,,,,,,,,,,,,,,,,,,,,,,
null,,rt_plussign_withcolor,822178,blue,,,,,null,US_Cities_List/nat_gatlinburg.png,US_Cities_List/mm_leesburg.png,,,,,,,,,,,,,,,,,,,,,,,,,,,,,,
1168.4,,rt_thecrossant_black,823326,black_plus_sign,,,,,49,,,1,0.990825688,,,,,,,,,,,,,,,,,,,,,,,,,,,,
null,,color_black,823430,black_plus_sign,,,,,null,,,,,,,,,,,,,,,,,,,,,,,,,,,,,,,,
null,,learn_phase(without_color),825951,black_plus_sign,,,,,null,US_Cities_List/mm_peoria.png,US_Cities_List/mm_huntsville.png,,,,,,,,,,,,,,,,,,,,,,,,,,,,,,
null,,black_cross(without_color),826848,blue,,,,,null,US_Cities_List/mm_peoria.png,US_Cities_List/mm_huntsville.png,,,,,,,,,,,,,,,,,,,,,,,,,,,,,,
null,,rt_plussign_withcolor,827351,blue,,,,,null,US_Cities_List/mm_peoria.png,US_Cities_List/mm_huntsville.png,,,,,,,,,,,,,,,,,,,,,,,,,,,,,,
1014.2,,rt_thecrossant_black,828461,black_plus_sign,,,,,49,,,1,0.990909091,,,,,,,,,,,,,,,,,,,,,,,,,,,,
null,,color_black,828564,black_plus_sign,,,,,null,,,,,,,,,,,,,,,,,,,,,,,,,,,,,,,,
null,,learn_phase(without_color),831111,black_plus_sign,,,,,null,US_Cities_List/mm_leesburg.png,US_Cities_List/mm_shreveport.png,,,,,,,,,,,,,,,,,,,,,,,,,,,,,,
null,,black_cross(without_color),831989,green,,,,,null,US_Cities_List/mm_leesburg.png,US_Cities_List/mm_shreveport.png,,,,,,,,,,,,,,,,,,,,,,,,,,,,,,
null,,rt_plussign_withcolor,832492,green,,,,,null,US_Cities_List/mm_leesburg.png,US_Cities_List/mm_shreveport.png,,,,,,,,,,,,,,,,,,,,,,,,,,,,,,
1098,,rt_thecrossant_black,833619,black_plus_sign,,,,,50,,,1,0.990990991,,,,,,,,,,,,,,,,,,,,,,,,,,,,
null,,color_black,833723,black_plus_sign,,,,,null,,,,,,,,,,,,,,,,,,,,,,,,,,,,,,,,
null,,learn_phase(without_color),836265,black_plus_sign,,,,,null,US_Cities_List/mm_leesburg.png,US_Cities_List/nat_hanover.png,,,,,,,,,,,,,,,,,,,,,,,,,,,,,,
null,,black_cross(without_color),836992,green,,,,,null,US_Cities_List/mm_leesburg.png,US_Cities_List/nat_hanover.png,,,,,,,,,,,,,,,,,,,,,,,,,,,,,,
null,,rt_plussign_withcolor,837494,green,,,,,null,US_Cities_List/mm_leesburg.png,US_Cities_List/nat_hanover.png,,,,,,,,,,,,,,,,,,,,,,,,,,,,,,
1241.4,,rt_thecrossant_black,838773,black_plus_sign,,,,,50,,,1,0.991071429,,,,,,,,,,,,,,,,,,,,,,,,,,,,
null,,color_black,838876,black_plus_sign,,,,,null,,,,,,,,,,,,,,,,,,,,,,,,,,,,,,,,
null,,learn_phase(without_color),841413,black_plus_sign,,,,,null,US_Cities_List/mm_peoria.png,US_Cities_List/mm_huntsville.png,,,,,,,,,,,,,,,,,,,,,,,,,,,,,,
null,,black_cross(without_color),842409,green,,,,,null,US_Cities_List/mm_peoria.png,US_Cities_List/mm_huntsville.png,,,,,,,,,,,,,,,,,,,,,,,,,,,,,,
null,,rt_plussign_withcolor,842912,green,,,,,null,US_Cities_List/mm_peoria.png,US_Cities_List/mm_huntsville.png,,,,,,,,,,,,,,,,,,,,,,,,,,,,,,
987.1,,rt_thecrossant_black,843922,black_plus_sign,,,,,50,,,1,0.991150442,,,,,,,,,,,,,,,,,,,,,,,,,,,,
null,,color_black,844025,black_plus_sign,,,,,null,,,,,,,,,,,,,,,,,,,,,,,,,,,,,,,,
null,,learn_phase(without_color),846559,black_plus_sign,,,,,null,US_Cities_List/mm_peoria.png,US_Cities_List/nat_gatlinburg.png,,,,,,,,,,,,,,,,,,,,,,,,,,,,,,
null,,black_cross(without_color),846997,blue,,,,,null,US_Cities_List/mm_peoria.png,US_Cities_List/nat_gatlinburg.png,,,,,,,,,,,,,,,,,,,,,,,,,,,,,,
null,,rt_plussign_withcolor,847499,blue,,,,,null,US_Cities_List/mm_peoria.png,US_Cities_List/nat_gatlinburg.png,,,,,,,,,,,,,,,,,,,,,,,,,,,,,,
1221.3,,rt_thecrossant_black,849066,black_plus_sign,,,,,49,,,1,0.99122807,,,,,,,,,,,,,,,,,,,,,,,,,,,,
null,,color_black,849170,black_plus_sign,,,,,null,,,,,,,,,,,,,,,,,,,,,,,,,,,,,,,,
null,,learn_phase(without_color),851709,black_plus_sign,,,,,null,US_Cities_List/nat_gatlinburg.png,US_Cities_List/mm_leesburg.png,,,,,,,,,,,,,,,,,,,,,,,,,,,,,,
null,,black_cross(without_color),852765,green,,,,,null,US_Cities_List/nat_gatlinburg.png,US_Cities_List/mm_leesburg.png,,,,,,,,,,,,,,,,,,,,,,,,,,,,,,
null,,rt_plussign_withcolor,853268,green,,,,,null,US_Cities_List/nat_gatlinburg.png,US_Cities_List/mm_leesburg.png,,,,,,,,,,,,,,,,,,,,,,,,,,,,,,
808.8,,rt_thecrossant_black,854218,black_plus_sign,,,,,50,,,1,0.991304348,,,,,,,,,,,,,,,,,,,,,,,,,,,,
null,,color_black,854331,black_plus_sign,,,,,null,,,,,,,,,,,,,,,,,,,,,,,,,,,,,,,,
null,,learn_phase(without_color),856854,black_plus_sign,,,,,null,US_Cities_List/nat_carmel.png,US_Cities_List/mm_huntsville.png,,,,,,,,,,,,,,,,,,,,,,,,,,,,,,
null,,black_cross(without_color),857850,green,,,,,null,US_Cities_List/nat_carmel.png,US_Cities_List/mm_huntsville.png,,,,,,,,,,,,,,,,,,,,,,,,,,,,,,
null,,rt_plussign_withcolor,858352,green,,,,,null,US_Cities_List/nat_carmel.png,US_Cities_List/mm_huntsville.png,,,,,,,,,,,,,,,,,,,,,,,,,,,,,,
1275.4,,rt_thecrossant_black,859364,black_plus_sign,,,,,50,,,1,0.99137931,,,,,,,,,,,,,,,,,,,,,,,,,,,,
null,,color_black,859467,black_plus_sign,,,,,null,,,,,,,,,,,,,,,,,,,,,,,,,,,,,,,,
null,,learn_phase(without_color),862005,black_plus_sign,,,,,null,US_Cities_List/nat_racine.png,US_Cities_List/nat_hotsprings.png,,,,,,,,,,,,,,,,,,,,,,,,,,,,,,
null,,black_cross(without_color),862868,green,,,,,null,US_Cities_List/nat_racine.png,US_Cities_List/nat_hotsprings.png,,,,,,,,,,,,,,,,,,,,,,,,,,,,,,
null,,rt_plussign_withcolor,863370,green,,,,,null,US_Cities_List/nat_racine.png,US_Cities_List/nat_hotsprings.png,,,,,,,,,,,,,,,,,,,,,,,,,,,,,,
1212.9,,rt_thecrossant_black,864515,black_plus_sign,,,,,50,,,1,0.991452991,,,,,,,,,,,,,,,,,,,,,,,,,,,,
null,,color_black,864618,black_plus_sign,,,,,null,,,,,,,,,,,,,,,,,,,,,,,,,,,,,,,,
null,,learn_phase(without_color),867161,black_plus_sign,,,,,null,US_Cities_List/nat_boulder.png,US_Cities_List/mm_peoria.png,,,,,,,,,,,,,,,,,,,,,,,,,,,,,,
null,,black_cross(without_color),867771,green,,,,,null,US_Cities_List/nat_boulder.png,US_Cities_List/mm_peoria.png,,,,,,,,,,,,,,,,,,,,,,,,,,,,,,
null,,rt_plussign_withcolor,868273,green,,,,,null,US_Cities_List/nat_boulder.png,US_Cities_List/mm_peoria.png,,,,,,,,,,,,,,,,,,,,,,,,,,,,,,
1008.9,,rt_thecrossant_black,869676,black_plus_sign,,,,,50,,,1,0.991525424,,,,,,,,,,,,,,,,,,,,,,,,,,,,
null,,color_black,869780,black_plus_sign,,,,,null,,,,,,,,,,,,,,,,,,,,,,,,,,,,,,,,
null,,learn_phase(without_color),872324,black_plus_sign,,,,,null,US_Cities_List/mm_leesburg.png,US_Cities_List/nat_carmel.png,,,,,,,,,,,,,,,,,,,,,,,,,,,,,,
null,,black_cross(without_color),873117,green,,,,,null,US_Cities_List/mm_leesburg.png,US_Cities_List/nat_carmel.png,,,,,,,,,,,,,,,,,,,,,,,,,,,,,,
null,,rt_plussign_withcolor,873619,green,,,,,null,US_Cities_List/mm_leesburg.png,US_Cities_List/nat_carmel.png,,,,,,,,,,,,,,,,,,,,,,,,,,,,,,
986.6999999,,rt_thecrossant_black,874847,black_plus_sign,,,,,50,,,1,0.991596639,,,,,,,,,,,,,,,,,,,,,,,,,,,,
null,,color_black,874950,black_plus_sign,,,,,null,,,,,,,,,,,,,,,,,,,,,,,,,,,,,,,,
null,,learn_phase(without_color),877497,black_plus_sign,,,,,null,US_Cities_List/nat_boulder.png,US_Cities_List/mm_peoria.png,,,,,,,,,,,,,,,,,,,,,,,,,,,,,,
null,,black_cross(without_color),878543,blue,,,,,null,US_Cities_List/nat_boulder.png,US_Cities_List/mm_peoria.png,,,,,,,,,,,,,,,,,,,,,,,,,,,,,,
null,,rt_plussign_withcolor,879045,blue,,,,,null,US_Cities_List/nat_boulder.png,US_Cities_List/mm_peoria.png,,,,,,,,,,,,,,,,,,,,,,,,,,,,,,
1086.5,,rt_thecrossant_black,880013,black_plus_sign,,,,,49,,,1,0.991666667,,,,,,,,,,,,,,,,,,,,,,,,,,,,
null,,color_black,880116,black_plus_sign,,,,,null,,,,,,,,,,,,,,,,,,,,,,,,,,,,,,,,
null,,learn_phase(without_color),882666,black_plus_sign,,,,,null,US_Cities_List/nat_boulder.png,US_Cities_List/nat_racine.png,,,,,,,,,,,,,,,,,,,,,,,,,,,,,,
null,,black_cross(without_color),883168,blue,,,,,null,US_Cities_List/nat_boulder.png,US_Cities_List/nat_racine.png,,,,,,,,,,,,,,,,,,,,,,,,,,,,,,
null,,rt_plussign_withcolor,883672,blue,,,,,null,US_Cities_List/nat_boulder.png,US_Cities_List/nat_racine.png,,,,,,,,,,,,,,,,,,,,,,,,,,,,,,
1309.7,,rt_thecrossant_black,885177,black_plus_sign,,,,,49,,,1,0.991735537,,,,,,,,,,,,,,,,,,,,,,,,,,,,
null,,color_black,885282,black_plus_sign,,,,,null,,,,,,,,,,,,,,,,,,,,,,,,,,,,,,,,
null,,learn_phase(without_color),887814,black_plus_sign,,,,,null,US_Cities_List/nat_gatlinburg.png,US_Cities_List/nat_carmel.png,,,,,,,,,,,,,,,,,,,,,,,,,,,,,,
null,,black_cross(without_color),888384,green,,,,,null,US_Cities_List/nat_gatlinburg.png,US_Cities_List/nat_carmel.png,,,,,,,,,,,,,,,,,,,,,,,,,,,,,,
null,,rt_plussign_withcolor,888887,green,,,,,null,US_Cities_List/nat_gatlinburg.png,US_Cities_List/nat_carmel.png,,,,,,,,,,,,,,,,,,,,,,,,,,,,,,
647.8000001,,rt_thecrossant_black,890325,black_plus_sign,,,,,49,,,0,0.983606557,,,,,,,,,,,,,,,,,,,,,,,,,,,,
null,,color_black,890430,black_plus_sign,,,,,null,,,,,,,,,,,,,,,,,,,,,,,,,,,,,,,,
null,,learn_phase(without_color),892957,black_plus_sign,,,,,null,US_Cities_List/nat_carmel.png,US_Cities_List/mm_huntsville.png,,,,,,,,,,,,,,,,,,,,,,,,,,,,,,
null,,black_cross(without_color),893428,blue,,,,,null,US_Cities_List/nat_carmel.png,US_Cities_List/mm_huntsville.png,,,,,,,,,,,,,,,,,,,,,,,,,,,,,,
null,,rt_plussign_withcolor,893930,blue,,,,,null,US_Cities_List/nat_carmel.png,US_Cities_List/mm_huntsville.png,,,,,,,,,,,,,,,,,,,,,,,,,,,,,,
1010.5,,rt_thecrossant_black,895468,black_plus_sign,,,,,49,,,1,0.983739837,,,,,,,,,,,,,,,,,,,,,,,,,,,,
null,,color_black,895582,black_plus_sign,,,,,null,,,,,,,,,,,,,,,,,,,,,,,,,,,,,,,,
null,,learn_phase(without_color),898123,black_plus_sign,,,,,null,US_Cities_List/nat_gatlinburg.png,US_Cities_List/nat_carmel.png,,,,,,,,,,,,,,,,,,,,,,,,,,,,,,
null,,black_cross(without_color),898607,blue,,,,,null,US_Cities_List/nat_gatlinburg.png,US_Cities_List/nat_carmel.png,,,,,,,,,,,,,,,,,,,,,,,,,,,,,,
null,,rt_plussign_withcolor,899110,blue,,,,,null,US_Cities_List/nat_gatlinburg.png,US_Cities_List/nat_carmel.png,,,,,,,,,,,,,,,,,,,,,,,,,,,,,,
703.5,,rt_thecrossant_black,900638,black_plus_sign,,,,,49,,,1,0.983870968,,,,,,,,,,,,,,,,,,,,,,,,,,,,
null,,color_black,900742,black_plus_sign,,,,,null,,,,,,,,,,,,,,,,,,,,,,,,,,,,,,,,
null,,learn_phase(without_color),903283,black_plus_sign,,,,,null,US_Cities_List/nat_racine.png,US_Cities_List/nat_hotsprings.png,,,,,,,,,,,,,,,,,,,,,,,,,,,,,,
null,,black_cross(without_color),904131,blue,,,,,null,US_Cities_List/nat_racine.png,US_Cities_List/nat_hotsprings.png,,,,,,,,,,,,,,,,,,,,,,,,,,,,,,
null,,rt_plussign_withcolor,904635,blue,,,,,null,US_Cities_List/nat_racine.png,US_Cities_List/nat_hotsprings.png,,,,,,,,,,,,,,,,,,,,,,,,,,,,,,
848.6999999,,rt_thecrossant_black,905793,black_plus_sign,,,,,49,,,1,0.984,,,,,,,,,,,,,,,,,,,,,,,,,,,,
null,,color_black,905897,black_plus_sign,,,,,null,,,,,,,,,,,,,,,,,,,,,,,,,,,,,,,,
null,,learn_phase(without_color),908442,black_plus_sign,,,,,null,US_Cities_List/nat_boulder.png,US_Cities_List/nat_racine.png,,,,,,,,,,,,,,,,,,,,,,,,,,,,,,
null,,black_cross(without_color),909228,blue,,,,,null,US_Cities_List/nat_boulder.png,US_Cities_List/nat_racine.png,,,,,,,,,,,,,,,,,,,,,,,,,,,,,,
null,,rt_plussign_withcolor,909731,blue,,,,,null,US_Cities_List/nat_boulder.png,US_Cities_List/nat_racine.png,,,,,,,,,,,,,,,,,,,,,,,,,,,,,,
1432.5,,rt_thecrossant_black,910951,black_plus_sign,,,,,49,,,1,0.984126984,,,,,,,,,,,,,,,,,,,,,,,,,,,,
null,,color_black,911054,black_plus_sign,,,,,null,,,,,,,,,,,,,,,,,,,,,,,,,,,,,,,,
null,,learn_phase(without_color),913603,black_plus_sign,,,,,null,US_Cities_List/nat_racine.png,US_Cities_List/nat_cornwall.png,,,,,,,,,,,,,,,,,,,,,,,,,,,,,,
null,,black_cross(without_color),914273,green,,,,,null,US_Cities_List/nat_racine.png,US_Cities_List/nat_cornwall.png,,,,,,,,,,,,,,,,,,,,,,,,,,,,,,
null,,rt_plussign_withcolor,914775,green,,,,,null,US_Cities_List/nat_racine.png,US_Cities_List/nat_cornwall.png,,,,,,,,,,,,,,,,,,,,,,,,,,,,,,
1084.1,,rt_thecrossant_black,916113,black_plus_sign,,,,,50,,,1,0.984251969,,,,,,,,,,,,,,,,,,,,,,,,,,,,
null,,color_black,916217,black_plus_sign,,,,,null,,,,,,,,,,,,,,,,,,,,,,,,,,,,,,,,
null,,learn_phase(without_color),918744,black_plus_sign,,,,,null,US_Cities_List/nat_racine.png,US_Cities_List/nat_hotsprings.png,,,,,,,,,,,,,,,,,,,,,,,,,,,,,,
null,,black_cross(without_color),919411,blue,,,,,null,US_Cities_List/nat_racine.png,US_Cities_List/nat_hotsprings.png,,,,,,,,,,,,,,,,,,,,,,,,,,,,,,
null,,rt_plussign_withcolor,919914,blue,,,,,null,US_Cities_List/nat_racine.png,US_Cities_List/nat_hotsprings.png,,,,,,,,,,,,,,,,,,,,,,,,,,,,,,
1048.3,,rt_thecrossant_black,921254,black_plus_sign,,,,,49,,,1,0.984375,,,,,,,,,,,,,,,,,,,,,,,,,,,,
null,,color_black,921356,black_plus_sign,,,,,null,,,,,,,,,,,,,,,,,,,,,,,,,,,,,,,,
27009.5,,intro_1,948370,instruct,,,0,,,,,,,,,,,,,,,,,,,,,,,,,,,,,,,,,,
40377.6,,intro_2,988752,instruct,,,1,Next,,,,,,,,,,,,,,,,,,,,,,,,,,,,,,,,,
null,,directmemory_phase,995305,../static/images/US_Cities_List/mm_huntsville.png,,,,,null,,,0,0,../static/images/US_Cities_List/nat_racine.png,../static/images/US_Cities_List/mm_peoria.png,../static/images/US_Cities_List/mm_westpalmbeach.png,../static/images/US_Cities_List/mm_peoria.png,../static/images/US_Cities_List/nat_racine.png,../static/images/US_Cities_List/mm_westpalmbeach.png,0,,,,,,,,,,,,,,,,,,,,,
null,,html-keyboard-response,996309,<p></p>,,,,,null,,,,,,,,,,,,,,,,,,,,,,,,,,,,,,,,
3205.7,,directmemory_phase,999574,../static/images/US_Cities_List/mm_shreveport.png,,,,,50,,,0,0,../static/images/US_Cities_List/mm_leesburg.png,../static/images/US_Cities_List/nat_boulder.png,../static/images/US_Cities_List/nat_gatlinburg.png,../static/images/US_Cities_List/mm_leesburg.png,../static/images/US_Cities_List/nat_gatlinburg.png,../static/images/US_Cities_List/nat_boulder.png,0.5,closer,,,,,,,,,,,,,,,,,,,,
null,,html-keyboard-response,1000586,<p></p>,,,,,null,,,,,,,,,,,,,,,,,,,,,,,,,,,,,,,,
2421.6,,directmemory_phase,1003051,../static/images/US_Cities_List/nat_hotsprings.png,,,,,51,,,0,0,../static/images/US_Cities_List/nat_racine.png,../static/images/US_Cities_List/mm_westpalmbeach.png,../static/images/US_Cities_List/nat_cornwall.png,../static/images/US_Cities_List/nat_racine.png,../static/images/US_Cities_List/nat_cornwall.png,../static/images/US_Cities_List/mm_westpalmbeach.png,0.5,closer,,,,,,,,,,,,,,,,,,,,
null,,html-keyboard-response,1004057,<p></p>,,,,,null,,,,,,,,,,,,,,,,,,,,,,,,,,,,,,,,
2166,,directmemory_phase,1006264,../static/images/US_Cities_List/nat_carmel.png,,,,,51,,,1,0.25,../static/images/US_Cities_List/nat_boulder.png,../static/images/US_Cities_List/mm_shreveport.png,../static/images/US_Cities_List/mm_huntsville.png,../static/images/US_Cities_List/mm_huntsville.png,../static/images/US_Cities_List/mm_shreveport.png,../static/images/US_Cities_List/nat_boulder.png,1,,,,,,,,,,,,,,,,,,,,,
null,,html-keyboard-response,1007270,<p></p>,,,,,null,,,,,,,,,,,,,,,,,,,,,,,,,,,,,,,,
2109.9,,directmemory_phase,1009411,../static/images/US_Cities_List/mm_leesburg.png,,,,,51,,,1,0.4,../static/images/US_Cities_List/nat_racine.png,../static/images/US_Cities_List/mm_huntsville.png,../static/images/US_Cities_List/nat_gatlinburg.png,../static/images/US_Cities_List/nat_gatlinburg.png,../static/images/US_Cities_List/mm_huntsville.png,../static/images/US_Cities_List/nat_racine.png,1,,,,,,,,,,,,,,,,,,,,,
null,,html-keyboard-response,1010417,<p></p>,,,,,null,,,,,,,,,,,,,,,,,,,,,,,,,,,,,,,,
1738,,directmemory_phase,1012192,../static/images/US_Cities_List/nat_hanover.png,,,,,50,,,1,0.5,../static/images/US_Cities_List/nat_gatlinburg.png,../static/images/US_Cities_List/mm_newhope.png,../static/images/US_Cities_List/nat_cornwall.png,../static/images/US_Cities_List/mm_newhope.png,../static/images/US_Cities_List/nat_gatlinburg.png,../static/images/US_Cities_List/nat_cornwall.png,1,,,,,,,,,,,,,,,,,,,,,
null,,html-keyboard-response,1013199,<p></p>,,,,,null,,,,,,,,,,,,,,,,,,,,,,,,,,,,,,,,
2098.4,,directmemory_phase,1015334,../static/images/US_Cities_List/nat_carmel.png,,,,,49,,,1,0.571428571,../static/images/US_Cities_List/nat_gatlinburg.png,../static/images/US_Cities_List/nat_boulder.png,../static/images/US_Cities_List/mm_peoria.png,../static/images/US_Cities_List/nat_gatlinburg.png,../static/images/US_Cities_List/mm_peoria.png,../static/images/US_Cities_List/nat_boulder.png,1,,,,,,,,,,,,,,,,,,,,,
null,,html-keyboard-response,1016344,<p></p>,,,,,null,,,,,,,,,,,,,,,,,,,,,,,,,,,,,,,,
1732.4,,directmemory_phase,1018118,../static/images/US_Cities_List/nat_racine.png,,,,,50,,,0,0.5,../static/images/US_Cities_List/nat_gatlinburg.png,../static/images/US_Cities_List/mm_peoria.png,../static/images/US_Cities_List/nat_boulder.png,../static/images/US_Cities_List/nat_boulder.png,../static/images/US_Cities_List/mm_peoria.png,../static/images/US_Cities_List/nat_gatlinburg.png,0.5,closer,,,,,,,,,,,,,,,,,,,,
null,,html-keyboard-response,1019125,<p></p>,,,,,null,,,,,,,,,,,,,,,,,,,,,,,,,,,,,,,,
1556,,directmemory_phase,1020717,../static/images/US_Cities_List/nat_carmel.png,,,,,51,,,1,0.555555556,../static/images/US_Cities_List/nat_racine.png,../static/images/US_Cities_List/mm_shreveport.png,../static/images/US_Cities_List/mm_leesburg.png,../static/images/US_Cities_List/mm_leesburg.png,../static/images/US_Cities_List/mm_shreveport.png,../static/images/US_Cities_List/nat_racine.png,1,,,,,,,,,,,,,,,,,,,,,
null,,html-keyboard-response,1021725,<p></p>,,,,,null,,,,,,,,,,,,,,,,,,,,,,,,,,,,,,,,
1754,,directmemory_phase,1023515,../static/images/US_Cities_List/mm_huntsville.png,,,,,51,,,0,0.5,../static/images/US_Cities_List/nat_gatlinburg.png,../static/images/US_Cities_List/nat_cornwall.png,../static/images/US_Cities_List/mm_westpalmbeach.png,../static/images/US_Cities_List/nat_cornwall.png,../static/images/US_Cities_List/nat_gatlinburg.png,../static/images/US_Cities_List/mm_westpalmbeach.png,0.5,closer,,,,,,,,,,,,,,,,,,,,
null,,html-keyboard-response,1024537,<p></p>,,,,,null,,,,,,,,,,,,,,,,,,,,,,,,,,,,,,,,
1712.3,,directmemory_phase,1026292,../static/images/US_Cities_List/mm_leesburg.png,,,,,51,,,1,0.545454545,../static/images/US_Cities_List/nat_cornwall.png,../static/images/US_Cities_List/mm_newhope.png,../static/images/US_Cities_List/mm_shreveport.png,../static/images/US_Cities_List/mm_shreveport.png,../static/images/US_Cities_List/mm_newhope.png,../static/images/US_Cities_List/nat_cornwall.png,1,,,,,,,,,,,,,,,,,,,,,
null,,html-keyboard-response,1027297,<p></p>,,,,,null,,,,,,,,,,,,,,,,,,,,,,,,,,,,,,,,
1718.9,,directmemory_phase,1029063,../static/images/US_Cities_List/mm_westpalmbeach.png,,,,,50,,,0,0.5,../static/images/US_Cities_List/nat_carmel.png,../static/images/US_Cities_List/mm_peoria.png,../static/images/US_Cities_List/nat_boulder.png,../static/images/US_Cities_List/nat_boulder.png,../static/images/US_Cities_List/mm_peoria.png,../static/images/US_Cities_List/nat_carmel.png,0.5,closer,,,,,,,,,,,,,,,,,,,,
null,,html-keyboard-response,1030073,<p></p>,,,,,null,,,,,,,,,,,,,,,,,,,,,,,,,,,,,,,,
1999.6,,directmemory_phase,1032103,../static/images/US_Cities_List/nat_carmel.png,,,,,49,,,1,0.538461538,../static/images/US_Cities_List/nat_hanover.png,../static/images/US_Cities_List/nat_racine.png,../static/images/US_Cities_List/nat_cornwall.png,../static/images/US_Cities_List/nat_hanover.png,../static/images/US_Cities_List/nat_cornwall.png,../static/images/US_Cities_List/nat_racine.png,1,,,,,,,,,,,,,,,,,,,,,
null,,html-keyboard-response,1033110,<p></p>,,,,,null,,,,,,,,,,,,,,,,,,,,,,,,,,,,,,,,
1698.2,,directmemory_phase,1034844,../static/images/US_Cities_List/nat_boulder.png,,,,,50,,,0,0.5,../static/images/US_Cities_List/mm_shreveport.png,../static/images/US_Cities_List/nat_gatlinburg.png,../static/images/US_Cities_List/mm_peoria.png,../static/images/US_Cities_List/mm_peoria.png,../static/images/US_Cities_List/nat_gatlinburg.png,../static/images/US_Cities_List/mm_shreveport.png,0.5,closer,,,,,,,,,,,,,,,,,,,,
null,,html-keyboard-response,1035851,<p></p>,,,,,null,,,,,,,,,,,,,,,,,,,,,,,,,,,,,,,,
1968.8,,directmemory_phase,1037859,../static/images/US_Cities_List/mm_leesburg.png,,,,,51,,,0,0.466666667,../static/images/US_Cities_List/nat_carmel.png,../static/images/US_Cities_List/mm_westpalmbeach.png,../static/images/US_Cities_List/mm_peoria.png,../static/images/US_Cities_List/nat_carmel.png,../static/images/US_Cities_List/mm_peoria.png,../static/images/US_Cities_List/mm_westpalmbeach.png,0.5,closer,,,,,,,,,,,,,,,,,,,,
null,,html-keyboard-response,1038867,<p></p>,,,,,null,,,,,,,,,,,,,,,,,,,,,,,,,,,,,,,,
1914.3,,directmemory_phase,1040824,../static/images/US_Cities_List/mm_peoria.png,,,,,51,,,1,0.5,../static/images/US_Cities_List/nat_hanover.png,../static/images/US_Cities_List/nat_racine.png,../static/images/US_Cities_List/nat_boulder.png,../static/images/US_Cities_List/nat_boulder.png,../static/images/US_Cities_List/nat_racine.png,../static/images/US_Cities_List/nat_hanover.png,1,,,,,,,,,,,,,,,,,,,,,
null,,html-keyboard-response,1041831,<p></p>,,,,,null,,,,,,,,,,,,,,,,,,,,,,,,,,,,,,,,
1832,,directmemory_phase,1043710,../static/images/US_Cities_List/nat_gatlinburg.png,,,,,49,,,1,0.529411765,../static/images/US_Cities_List/nat_carmel.png,../static/images/US_Cities_List/mm_westpalmbeach.png,../static/images/US_Cities_List/nat_hanover.png,../static/images/US_Cities_List/nat_carmel.png,../static/images/US_Cities_List/nat_hanover.png,../static/images/US_Cities_List/mm_westpalmbeach.png,1,,,,,,,,,,,,,,,,,,,,,
null,,html-keyboard-response,1044718,<p></p>,,,,,null,,,,,,,,,,,,,,,,,,,,,,,,,,,,,,,,
1654.2,,directmemory_phase,1046418,../static/images/US_Cities_List/nat_cornwall.png,,,,,51,,,0,0.5,../static/images/US_Cities_List/nat_boulder.png,../static/images/US_Cities_List/nat_racine.png,../static/images/US_Cities_List/nat_gatlinburg.png,../static/images/US_Cities_List/nat_racine.png,../static/images/US_Cities_List/nat_boulder.png,../static/images/US_Cities_List/nat_gatlinburg.png,0.5,closer,,,,,,,,,,,,,,,,,,,,
null,,html-keyboard-response,1047425,<p></p>,,,,,null,,,,,,,,,,,,,,,,,,,,,,,,,,,,,,,,
1519.5,,directmemory_phase,1048989,../static/images/US_Cities_List/nat_gatlinburg.png,,,,,50,,,0,0.473684211,../static/images/US_Cities_List/mm_leesburg.png,../static/images/US_Cities_List/nat_racine.png,../static/images/US_Cities_List/nat_boulder.png,../static/images/US_Cities_List/mm_leesburg.png,../static/images/US_Cities_List/nat_boulder.png,../static/images/US_Cities_List/nat_racine.png,0.5,closer,,,,,,,,,,,,,,,,,,,,
null,,html-keyboard-response,1049992,<p></p>,,,,,null,,,,,,,,,,,,,,,,,,,,,,,,,,,,,,,,
1517.6,,directmemory_phase,1051536,../static/images/US_Cities_List/nat_racine.png,,,,,50,,,0,0.45,../static/images/US_Cities_List/mm_leesburg.png,../static/images/US_Cities_List/mm_huntsville.png,../static/images/US_Cities_List/nat_cornwall.png,../static/images/US_Cities_List/nat_cornwall.png,../static/images/US_Cities_List/mm_huntsville.png,../static/images/US_Cities_List/mm_leesburg.png,0.5,closer,,,,,,,,,,,,,,,,,,,,
null,,html-keyboard-response,1052544,<p></p>,,,,,null,,,,,,,,,,,,,,,,,,,,,,,,,,,,,,,,
1827,,directmemory_phase,1054408,../static/images/US_Cities_List/mm_leesburg.png,,,,,50,,,1,0.476190476,../static/images/US_Cities_List/mm_newhope.png,../static/images/US_Cities_List/nat_hanover.png,../static/images/US_Cities_List/nat_cornwall.png,../static/images/US_Cities_List/nat_hanover.png,../static/images/US_Cities_List/mm_newhope.png,../static/images/US_Cities_List/nat_cornwall.png,1,,,,,,,,,,,,,,,,,,,,,
null,,html-keyboard-response,1055412,<p></p>,,,,,null,,,,,,,,,,,,,,,,,,,,,,,,,,,,,,,,
1572,,directmemory_phase,1057020,../static/images/US_Cities_List/mm_peoria.png,,,,,50,,,0,0.454545455,../static/images/US_Cities_List/nat_gatlinburg.png,../static/images/US_Cities_List/mm_shreveport.png,../static/images/US_Cities_List/nat_carmel.png,../static/images/US_Cities_List/nat_gatlinburg.png,../static/images/US_Cities_List/nat_carmel.png,../static/images/US_Cities_List/mm_shreveport.png,0.5,closer,,,,,,,,,,,,,,,,,,,,
null,,html-keyboard-response,1058024,<p></p>,,,,,null,,,,,,,,,,,,,,,,,,,,,,,,,,,,,,,,
1489.8,,directmemory_phase,1059547,../static/images/US_Cities_List/nat_hanover.png,,,,,49,,,1,0.47826087,../static/images/US_Cities_List/mm_leesburg.png,../static/images/US_Cities_List/nat_racine.png,../static/images/US_Cities_List/mm_shreveport.png,../static/images/US_Cities_List/mm_leesburg.png,../static/images/US_Cities_List/mm_shreveport.png,../static/images/US_Cities_List/nat_racine.png,1,,,,,,,,,,,,,,,,,,,,,
null,,html-keyboard-response,1060554,<p></p>,,,,,null,,,,,,,,,,,,,,,,,,,,,,,,,,,,,,,,
1641.7,,directmemory_phase,1062240,../static/images/US_Cities_List/nat_cornwall.png,,,,,51,,,1,0.5,../static/images/US_Cities_List/mm_newhope.png,../static/images/US_Cities_List/mm_peoria.png,../static/images/US_Cities_List/mm_huntsville.png,../static/images/US_Cities_List/mm_huntsville.png,../static/images/US_Cities_List/mm_peoria.png,../static/images/US_Cities_List/mm_newhope.png,1,,,,,,,,,,,,,,,,,,,,,
null,,html-keyboard-response,1063249,<p></p>,,,,,null,,,,,,,,,,,,,,,,,,,,,,,,,,,,,,,,
1362,,directmemory_phase,1064650,../static/images/US_Cities_List/nat_hanover.png,,,,,49,,,0,0.48,../static/images/US_Cities_List/mm_shreveport.png,../static/images/US_Cities_List/nat_carmel.png,../static/images/US_Cities_List/nat_boulder.png,../static/images/US_Cities_List/nat_carmel.png,../static/images/US_Cities_List/mm_shreveport.png,../static/images/US_Cities_List/nat_boulder.png,0.5,closer,,,,,,,,,,,,,,,,,,,,
null,,html-keyboard-response,1065658,<p></p>,,,,,null,,,,,,,,,,,,,,,,,,,,,,,,,,,,,,,,
1054.8,,directmemory_phase,1066784,../static/images/US_Cities_List/nat_gatlinburg.png,,,,,50,,,0,0.461538462,../static/images/US_Cities_List/nat_racine.png,../static/images/US_Cities_List/mm_shreveport.png,../static/images/US_Cities_List/mm_peoria.png,../static/images/US_Cities_List/mm_peoria.png,../static/images/US_Cities_List/mm_shreveport.png,../static/images/US_Cities_List/nat_racine.png,0.5,closer,,,,,,,,,,,,,,,,,,,,
null,,html-keyboard-response,1067792,<p></p>,,,,,null,,,,,,,,,,,,,,,,,,,,,,,,,,,,,,,,
1469.8,,directmemory_phase,1069309,../static/images/US_Cities_List/nat_boulder.png,,,,,50,,,0,0.444444444,../static/images/US_Cities_List/nat_carmel.png,../static/images/US_Cities_List/nat_cornwall.png,../static/images/US_Cities_List/nat_racine.png,../static/images/US_Cities_List/nat_racine.png,../static/images/US_Cities_List/nat_cornwall.png,../static/images/US_Cities_List/nat_carmel.png,0.5,closer,,,,,,,,,,,,,,,,,,,,
null,,html-keyboard-response,1070316,<p></p>,,,,,null,,,,,,,,,,,,,,,,,,,,,,,,,,,,,,,,
