rt,responses,trial_type,time_elapsed,stimulus,cities,city_images,button_pressed,response,key_press,stimulus_left,stimulus_right,cumulative_accuracy,accuracy,stimulus_down_left,stimulus_down_mid,stimulus_down_right,stimulus_correct,stimulus_short,stimulus_far,weighted_accuracy,missedtrial,condition,specific_pairs,imgL_ID,imgR_ID,linedress,linedressed,image_position,unknowncity,testedstates,currentstate,otherstate,problems,smooth,distraction,strategies,easier,similar,comments,,
3887.6,{worker_id:682dd11f39ce4e00502afaf7},id_enter,3889,intro,New Hope; Gatlinburg; Boulder; Leesburg; Hanover; Racine; Hot Springs; Peoria; Shreveport; West Palm Beach; Cornwall; Carmel; Huntsville,US_Cities_List/mm_newhope.png; US_Cities_List/mm_gatlinburg.png; US_Cities_List/nat_boulder.png; US_Cities_List/nat_leesburg.png; US_Cities_List/mm_hanover.png; US_Cities_List/mm_racine.png; US_Cities_List/mm_hotsprings.png; US_Cities_List/nat_peoria.png; US_Cities_List/nat_shreveport.png; US_Cities_List/mm_westpalmbeach.png; US_Cities_List/mm_cornwall.png; US_Cities_List/nat_carmel.png; US_Cities_List/nat_huntsville.png,,,,,,,,,,,,,,,,,,,,,,,,,,,,,,,,,,,
16000.5,,fullscreen,19893,make_fullscreen,,,0,,,,,,,,,,,,,,,,,,,,,,,,,,,,,,,,,,
5317.5,,intro_1,25211,instruct,,,0,,,,,,,,,,,,,,,,,,,,,,,,,,,,,,,,,,
8244.5,,intro_2,33457,instruct,,,1,Next,,,,,,,,,,,,,,,,,,,,,,,,,,,,,,,,,
8864.5,,intro_3,42322,instruct,,,1,Next,,,,,,,,,,,,,,,,,,,,,,,,,,,,,,,,,
10053,,intro_4,52376,instruct,,,1,Next,,,,,,,,,,,,,,,,,,,,,,,,,,,,,,,,,
31382.8,,intro_5,83760,instruct,,,1,Next,,,,,,,,,,,,,,,,,,,,,,,,,,,,,,,,,
23132.5,,intro_6,106893,instruct,,,1,Next,,,,,,,,,,,,,,,,,,,,,,,,,,,,,,,,,
null,,prac_atten_color_black,107877,black_plus_sign,,,,,null,,,,,,,,,,,,,,,,,,,,,,,,,,,,,,,,
null,,prac_atten_color,108299,prac_stop_color,,,,,null,,,,,,,,,,,,,,,,,,,,,,,,,,,,,,,,
132.5,,prac_atten_color_black,110301,black_plus_sign,,,,,49,,,,,,,,,,,,,,,,,,,,,,,,,,,,,,,,
null,,prac_atten_color_black,111285,black_plus_sign,,,,,null,,,,,,,,,,,,,,,,,,,,,,,,,,,,,,,,
439.4000001,,prac_atten_color,112123,prac_stop_color,,,,,49,,,,,,,,,,,,,,,,,,,,,,,,,,,,,,,,
null,,prac_atten_color_black,114125,black_plus_sign,,,,,null,,,,,,,,,,,,,,,,,,,,,,,,,,,,,,,,
4769.1,,attentioncheck_help,118895,instruct,,,,,32,,,,,,,,,,,,,,,,,,,,,,,,,,,,,,,,
null,,prac_atten_color_black,119461,black_plus_sign,,,,,null,,,,,,,,,,,,,,,,,,,,,,,,,,,,,,,,
null,,prac_atten_color,120149,prac_stop_color,,,,,null,,,,,,,,,,,,,,,,,,,,,,,,,,,,,,,,
179.9000001,,prac_atten_color_black,122152,black_plus_sign,,,,,50,,,,,,,,,,,,,,,,,,,,,,,,,,,,,,,,
null,,prac_atten_color_black,122868,black_plus_sign,,,,,null,,,,,,,,,,,,,,,,,,,,,,,,,,,,,,,,
454.3000002,,prac_atten_color,123712,prac_stop_color,,,,,49,,,,,,,,,,,,,,,,,,,,,,,,,,,,,,,,
null,,prac_atten_color_black,125714,black_plus_sign,,,,,null,,,,,,,,,,,,,,,,,,,,,,,,,,,,,,,,
null,,prac_atten_color_black,126274,black_plus_sign,,,,,null,,,,,,,,,,,,,,,,,,,,,,,,,,,,,,,,
458.3,,prac_atten_color,127098,prac_stop_color,,,,,50,,,,,,,,,,,,,,,,,,,,,,,,,,,,,,,,
null,,prac_atten_color_black,129100,black_plus_sign,,,,,null,,,,,,,,,,,,,,,,,,,,,,,,,,,,,,,,
null,,prac_atten_color_black,129682,black_plus_sign,,,,,null,,,,,,,,,,,,,,,,,,,,,,,,,,,,,,,,
491.3,,prac_atten_color,130573,prac_stop_color,,,,,50,,,,,,,,,,,,,,,,,,,,,,,,,,,,,,,,
null,,prac_atten_color_black,132575,black_plus_sign,,,,,null,,,,,,,,,,,,,,,,,,,,,,,,,,,,,,,,
null,,prac_atten_color_black,133087,black_plus_sign,,,,,null,,,,,,,,,,,,,,,,,,,,,,,,,,,,,,,,
461.7,,prac_atten_color,134042,prac_stop_color,,,,,49,,,,,,,,,,,,,,,,,,,,,,,,,,,,,,,,
null,,prac_atten_color_black,136044,black_plus_sign,,,,,null,,,,,,,,,,,,,,,,,,,,,,,,,,,,,,,,
null,,prac_atten_color_black,136493,black_plus_sign,,,,,null,,,,,,,,,,,,,,,,,,,,,,,,,,,,,,,,
521.1999998,,prac_atten_color,137093,prac_stop_color,,,,,50,,,,,,,,,,,,,,,,,,,,,,,,,,,,,,,,
null,,prac_atten_color_black,139094,black_plus_sign,,,,,null,,,,,,,,,,,,,,,,,,,,,,,,,,,,,,,,
null,,prac_atten_color_black,139899,black_plus_sign,,,,,null,,,,,,,,,,,,,,,,,,,,,,,,,,,,,,,,
549.3000002,,prac_atten_color,140619,prac_stop_color,,,,,49,,,,,,,,,,,,,,,,,,,,,,,,,,,,,,,,
null,,prac_atten_color_black,142621,black_plus_sign,,,,,null,,,,,,,,,,,,,,,,,,,,,,,,,,,,,,,,
null,,prac_atten_color_black,143306,black_plus_sign,,,,,null,,,,,,,,,,,,,,,,,,,,,,,,,,,,,,,,
null,,prac_atten_color,143732,prac_stop_color,,,,,null,,,,,,,,,,,,,,,,,,,,,,,,,,,,,,,,
265.7,,prac_atten_color_black,145734,black_plus_sign,,,,,49,,,,,,,,,,,,,,,,,,,,,,,,,,,,,,,,
6750.9,,attentioncheck_feedback,152486,cross_check_feedback,,,0,,,,,,,,,,,,,,,,,,,,,,,,,,,,,,,,,,
12182.4,,last_instruct,164669,instruct,,,,,32,,,,,,,,,,,,,,,,,,,,,,,,,,,,,,,,
null,,learn_phase(without_color),166681,black_plus_sign,,,,,null,US_Cities_List/nat_boulder.png,US_Cities_List/mm_racine.png,,,,,,,,,,,,,,,,,,,,,,,,,,,,,,
null,,black_cross(without_color),167101,green,,,,,null,US_Cities_List/nat_boulder.png,US_Cities_List/mm_racine.png,,,,,,,,,,,,,,,,,,,,,,,,,,,,,,
null,,rt_plussign_withcolor,167603,green,,,,,null,US_Cities_List/nat_boulder.png,US_Cities_List/mm_racine.png,,,,,,,,,,,,,,,,,,,,,,,,,,,,,,
null,,rt_thecrossant_black,169187,black_plus_sign,,,,,null,,,NaN,,,,,,,,,,,,,,,,,,,,,,,,,,,,,
null,,color_black,169290,black_plus_sign,,,,,null,,,,,,,,,,,,,,,,,,,,,,,,,,,,,,,,
null,,learn_phase(without_color),171803,black_plus_sign,,,,,null,US_Cities_List/mm_gatlinburg.png,US_Cities_List/nat_leesburg.png,,,,,,,,,,,,,,,,,,,,,,,,,,,,,,
null,,black_cross(without_color),172621,blue,,,,,null,US_Cities_List/mm_gatlinburg.png,US_Cities_List/nat_leesburg.png,,,,,,,,,,,,,,,,,,,,,,,,,,,,,,
null,,rt_plussign_withcolor,173122,blue,,,,,null,US_Cities_List/mm_gatlinburg.png,US_Cities_List/nat_leesburg.png,,,,,,,,,,,,,,,,,,,,,,,,,,,,,,
736.4000001,,rt_thecrossant_black,174307,black_plus_sign,,,,,49,,,1,1,,,,,,,,,,,,,,,,,,,,,,,,,,,,
null,,color_black,174409,black_plus_sign,,,,,null,,,,,,,,,,,,,,,,,,,,,,,,,,,,,,,,
null,,learn_phase(without_color),176929,black_plus_sign,,,,,null,US_Cities_List/mm_racine.png,US_Cities_List/nat_shreveport.png,,,,,,,,,,,,,,,,,,,,,,,,,,,,,,
null,,black_cross(without_color),178017,blue,,,,,null,US_Cities_List/mm_racine.png,US_Cities_List/nat_shreveport.png,,,,,,,,,,,,,,,,,,,,,,,,,,,,,,
null,,rt_plussign_withcolor,178519,blue,,,,,null,US_Cities_List/mm_racine.png,US_Cities_List/nat_shreveport.png,,,,,,,,,,,,,,,,,,,,,,,,,,,,,,
1062.3,,rt_thecrossant_black,179434,black_plus_sign,,,,,50,,,0.5,0,,,,,,,,,,,,,,,,,,,,,,,,,,,,
null,,color_black,179537,black_plus_sign,,,,,null,,,,,,,,,,,,,,,,,,,,,,,,,,,,,,,,
null,,learn_phase(without_color),182055,black_plus_sign,,,,,null,US_Cities_List/nat_peoria.png,US_Cities_List/nat_shreveport.png,,,,,,,,,,,,,,,,,,,,,,,,,,,,,,
null,,black_cross(without_color),182853,blue,,,,,null,US_Cities_List/nat_peoria.png,US_Cities_List/nat_shreveport.png,,,,,,,,,,,,,,,,,,,,,,,,,,,,,,
null,,rt_plussign_withcolor,183355,blue,,,,,null,US_Cities_List/nat_peoria.png,US_Cities_List/nat_shreveport.png,,,,,,,,,,,,,,,,,,,,,,,,,,,,,,
1261,,rt_thecrossant_black,184560,black_plus_sign,,,,,49,,,0.666666667,1,,,,,,,,,,,,,,,,,,,,,,,,,,,,
null,,color_black,184661,black_plus_sign,,,,,null,,,,,,,,,,,,,,,,,,,,,,,,,,,,,,,,
null,,learn_phase(without_color),187179,black_plus_sign,,,,,null,US_Cities_List/nat_leesburg.png,US_Cities_List/nat_carmel.png,,,,,,,,,,,,,,,,,,,,,,,,,,,,,,
null,,black_cross(without_color),187737,green,,,,,null,US_Cities_List/nat_leesburg.png,US_Cities_List/nat_carmel.png,,,,,,,,,,,,,,,,,,,,,,,,,,,,,,
null,,rt_plussign_withcolor,188239,green,,,,,null,US_Cities_List/nat_leesburg.png,US_Cities_List/nat_carmel.png,,,,,,,,,,,,,,,,,,,,,,,,,,,,,,
1102.8,,rt_thecrossant_black,189685,black_plus_sign,,,,,50,,,0.75,1,,,,,,,,,,,,,,,,,,,,,,,,,,,,
null,,color_black,189786,black_plus_sign,,,,,null,,,,,,,,,,,,,,,,,,,,,,,,,,,,,,,,
null,,learn_phase(without_color),192306,black_plus_sign,,,,,null,US_Cities_List/mm_newhope.png,US_Cities_List/mm_gatlinburg.png,,,,,,,,,,,,,,,,,,,,,,,,,,,,,,
null,,black_cross(without_color),193366,green,,,,,null,US_Cities_List/mm_newhope.png,US_Cities_List/mm_gatlinburg.png,,,,,,,,,,,,,,,,,,,,,,,,,,,,,,
null,,rt_plussign_withcolor,193868,green,,,,,null,US_Cities_List/mm_newhope.png,US_Cities_List/mm_gatlinburg.png,,,,,,,,,,,,,,,,,,,,,,,,,,,,,,
978.3,,rt_thecrossant_black,194812,black_plus_sign,,,,,50,,,0.8,1,,,,,,,,,,,,,,,,,,,,,,,,,,,,
null,,color_black,194914,black_plus_sign,,,,,null,,,,,,,,,,,,,,,,,,,,,,,,,,,,,,,,
null,,learn_phase(without_color),197430,black_plus_sign,,,,,null,US_Cities_List/mm_hotsprings.png,US_Cities_List/nat_peoria.png,,,,,,,,,,,,,,,,,,,,,,,,,,,,,,
null,,black_cross(without_color),197977,green,,,,,null,US_Cities_List/mm_hotsprings.png,US_Cities_List/nat_peoria.png,,,,,,,,,,,,,,,,,,,,,,,,,,,,,,
null,,rt_plussign_withcolor,198479,green,,,,,null,US_Cities_List/mm_hotsprings.png,US_Cities_List/nat_peoria.png,,,,,,,,,,,,,,,,,,,,,,,,,,,,,,
1352.4,,rt_thecrossant_black,199937,black_plus_sign,,,,,50,,,0.833333333,1,,,,,,,,,,,,,,,,,,,,,,,,,,,,
null,,color_black,200039,black_plus_sign,,,,,null,,,,,,,,,,,,,,,,,,,,,,,,,,,,,,,,
null,,learn_phase(without_color),202558,black_plus_sign,,,,,null,US_Cities_List/nat_leesburg.png,US_Cities_List/mm_hanover.png,,,,,,,,,,,,,,,,,,,,,,,,,,,,,,
null,,black_cross(without_color),203097,blue,,,,,null,US_Cities_List/nat_leesburg.png,US_Cities_List/mm_hanover.png,,,,,,,,,,,,,,,,,,,,,,,,,,,,,,
null,,rt_plussign_withcolor,203599,blue,,,,,null,US_Cities_List/nat_leesburg.png,US_Cities_List/mm_hanover.png,,,,,,,,,,,,,,,,,,,,,,,,,,,,,,
734.1000001,,rt_thecrossant_black,205063,black_plus_sign,,,,,49,,,0.857142857,1,,,,,,,,,,,,,,,,,,,,,,,,,,,,
null,,color_black,205164,black_plus_sign,,,,,null,,,,,,,,,,,,,,,,,,,,,,,,,,,,,,,,
null,,learn_phase(without_color),207677,black_plus_sign,,,,,null,US_Cities_List/nat_boulder.png,US_Cities_List/mm_cornwall.png,,,,,,,,,,,,,,,,,,,,,,,,,,,,,,
null,,black_cross(without_color),208315,green,,,,,null,US_Cities_List/nat_boulder.png,US_Cities_List/mm_cornwall.png,,,,,,,,,,,,,,,,,,,,,,,,,,,,,,
459.8,,rt_plussign_withcolor,208816,green,,,,,50,US_Cities_List/nat_boulder.png,US_Cities_List/mm_cornwall.png,,,,,,,,,,,,,,,,,,,,,,,,,,,,,,
null,,rt_thecrossant_black,210183,black_plus_sign,,,,,null,,,0.875,1,,,,,,,,,,,,,,,,,,,,,,,,,,,,
null,,color_black,210284,black_plus_sign,,,,,null,,,,,,,,,,,,,,,,,,,,,,,,,,,,,,,,
null,,learn_phase(without_color),212807,black_plus_sign,,,,,null,US_Cities_List/mm_racine.png,US_Cities_List/mm_hotsprings.png,,,,,,,,,,,,,,,,,,,,,,,,,,,,,,
null,,black_cross(without_color),213449,blue,,,,,null,US_Cities_List/mm_racine.png,US_Cities_List/mm_hotsprings.png,,,,,,,,,,,,,,,,,,,,,,,,,,,,,,
null,,rt_plussign_withcolor,213951,blue,,,,,null,US_Cities_List/mm_racine.png,US_Cities_List/mm_hotsprings.png,,,,,,,,,,,,,,,,,,,,,,,,,,,,,,
853,,rt_thecrossant_black,215311,black_plus_sign,,,,,49,,,0.888888889,1,,,,,,,,,,,,,,,,,,,,,,,,,,,,
null,,color_black,215414,black_plus_sign,,,,,null,,,,,,,,,,,,,,,,,,,,,,,,,,,,,,,,
null,,learn_phase(without_color),217928,black_plus_sign,,,,,null,US_Cities_List/nat_shreveport.png,US_Cities_List/mm_cornwall.png,,,,,,,,,,,,,,,,,,,,,,,,,,,,,,
null,,black_cross(without_color),218893,blue,,,,,null,US_Cities_List/nat_shreveport.png,US_Cities_List/mm_cornwall.png,,,,,,,,,,,,,,,,,,,,,,,,,,,,,,
null,,rt_plussign_withcolor,219395,blue,,,,,null,US_Cities_List/nat_shreveport.png,US_Cities_List/mm_cornwall.png,,,,,,,,,,,,,,,,,,,,,,,,,,,,,,
867.8999999,,rt_thecrossant_black,220433,black_plus_sign,,,,,49,,,0.9,1,,,,,,,,,,,,,,,,,,,,,,,,,,,,
null,,color_black,220536,black_plus_sign,,,,,null,,,,,,,,,,,,,,,,,,,,,,,,,,,,,,,,
null,,learn_phase(without_color),223050,black_plus_sign,,,,,null,US_Cities_List/mm_hotsprings.png,US_Cities_List/nat_shreveport.png,,,,,,,,,,,,,,,,,,,,,,,,,,,,,,
null,,black_cross(without_color),223971,blue,,,,,null,US_Cities_List/mm_hotsprings.png,US_Cities_List/nat_shreveport.png,,,,,,,,,,,,,,,,,,,,,,,,,,,,,,
null,,rt_plussign_withcolor,224484,blue,,,,,null,US_Cities_List/mm_hotsprings.png,US_Cities_List/nat_shreveport.png,,,,,,,,,,,,,,,,,,,,,,,,,,,,,,
1140.4,,rt_thecrossant_black,225567,black_plus_sign,,,,,49,,,0.909090909,1,,,,,,,,,,,,,,,,,,,,,,,,,,,,
null,,color_black,225669,black_plus_sign,,,,,null,,,,,,,,,,,,,,,,,,,,,,,,,,,,,,,,
null,,learn_phase(without_color),228183,black_plus_sign,,,,,null,US_Cities_List/nat_leesburg.png,US_Cities_List/mm_hanover.png,,,,,,,,,,,,,,,,,,,,,,,,,,,,,,
null,,black_cross(without_color),228810,green,,,,,null,US_Cities_List/nat_leesburg.png,US_Cities_List/mm_hanover.png,,,,,,,,,,,,,,,,,,,,,,,,,,,,,,
429.7,,rt_plussign_withcolor,229311,green,,,,,50,US_Cities_List/nat_leesburg.png,US_Cities_List/mm_hanover.png,,,,,,,,,,,,,,,,,,,,,,,,,,,,,,
null,,rt_thecrossant_black,230688,black_plus_sign,,,,,null,,,0.916666667,1,,,,,,,,,,,,,,,,,,,,,,,,,,,,
null,,color_black,230790,black_plus_sign,,,,,null,,,,,,,,,,,,,,,,,,,,,,,,,,,,,,,,
null,,learn_phase(without_color),233303,black_plus_sign,,,,,null,US_Cities_List/nat_leesburg.png,US_Cities_List/nat_carmel.png,,,,,,,,,,,,,,,,,,,,,,,,,,,,,,
null,,black_cross(without_color),233925,green,,,,,null,US_Cities_List/nat_leesburg.png,US_Cities_List/nat_carmel.png,,,,,,,,,,,,,,,,,,,,,,,,,,,,,,
null,,rt_plussign_withcolor,234427,green,,,,,null,US_Cities_List/nat_leesburg.png,US_Cities_List/nat_carmel.png,,,,,,,,,,,,,,,,,,,,,,,,,,,,,,
1010.7,,rt_thecrossant_black,235810,black_plus_sign,,,,,50,,,0.923076923,1,,,,,,,,,,,,,,,,,,,,,,,,,,,,
null,,color_black,235911,black_plus_sign,,,,,null,,,,,,,,,,,,,,,,,,,,,,,,,,,,,,,,
null,,learn_phase(without_color),238426,black_plus_sign,,,,,null,US_Cities_List/mm_newhope.png,US_Cities_List/mm_gatlinburg.png,,,,,,,,,,,,,,,,,,,,,,,,,,,,,,
null,,black_cross(without_color),239385,blue,,,,,null,US_Cities_List/mm_newhope.png,US_Cities_List/mm_gatlinburg.png,,,,,,,,,,,,,,,,,,,,,,,,,,,,,,
null,,rt_plussign_withcolor,239887,blue,,,,,null,US_Cities_List/mm_newhope.png,US_Cities_List/mm_gatlinburg.png,,,,,,,,,,,,,,,,,,,,,,,,,,,,,,
726.7,,rt_thecrossant_black,240931,black_plus_sign,,,,,49,,,0.928571429,1,,,,,,,,,,,,,,,,,,,,,,,,,,,,
null,,color_black,241032,black_plus_sign,,,,,null,,,,,,,,,,,,,,,,,,,,,,,,,,,,,,,,
null,,learn_phase(without_color),243554,black_plus_sign,,,,,null,US_Cities_List/mm_hotsprings.png,US_Cities_List/nat_shreveport.png,,,,,,,,,,,,,,,,,,,,,,,,,,,,,,
null,,black_cross(without_color),244174,blue,,,,,null,US_Cities_List/mm_hotsprings.png,US_Cities_List/nat_shreveport.png,,,,,,,,,,,,,,,,,,,,,,,,,,,,,,
null,,rt_plussign_withcolor,244676,blue,,,,,null,US_Cities_List/mm_hotsprings.png,US_Cities_List/nat_shreveport.png,,,,,,,,,,,,,,,,,,,,,,,,,,,,,,
1329.7,,rt_thecrossant_black,246060,black_plus_sign,,,,,49,,,0.933333333,1,,,,,,,,,,,,,,,,,,,,,,,,,,,,
null,,color_black,246162,black_plus_sign,,,,,null,,,,,,,,,,,,,,,,,,,,,,,,,,,,,,,,
null,,learn_phase(without_color),248674,black_plus_sign,,,,,null,US_Cities_List/mm_newhope.png,US_Cities_List/mm_gatlinburg.png,,,,,,,,,,,,,,,,,,,,,,,,,,,,,,
null,,black_cross(without_color),249394,green,,,,,null,US_Cities_List/mm_newhope.png,US_Cities_List/mm_gatlinburg.png,,,,,,,,,,,,,,,,,,,,,,,,,,,,,,
null,,rt_plussign_withcolor,249895,green,,,,,null,US_Cities_List/mm_newhope.png,US_Cities_List/mm_gatlinburg.png,,,,,,,,,,,,,,,,,,,,,,,,,,,,,,
883.8,,rt_thecrossant_black,251179,black_plus_sign,,,,,50,,,0.9375,1,,,,,,,,,,,,,,,,,,,,,,,,,,,,
null,,color_black,251280,black_plus_sign,,,,,null,,,,,,,,,,,,,,,,,,,,,,,,,,,,,,,,
null,,learn_phase(without_color),253802,black_plus_sign,,,,,null,US_Cities_List/mm_hotsprings.png,US_Cities_List/nat_peoria.png,,,,,,,,,,,,,,,,,,,,,,,,,,,,,,
null,,black_cross(without_color),254332,green,,,,,null,US_Cities_List/mm_hotsprings.png,US_Cities_List/nat_peoria.png,,,,,,,,,,,,,,,,,,,,,,,,,,,,,,
null,,rt_plussign_withcolor,254834,green,,,,,null,US_Cities_List/mm_hotsprings.png,US_Cities_List/nat_peoria.png,,,,,,,,,,,,,,,,,,,,,,,,,,,,,,
1006.1,,rt_thecrossant_black,256308,black_plus_sign,,,,,50,,,0.941176471,1,,,,,,,,,,,,,,,,,,,,,,,,,,,,
null,,color_black,256410,black_plus_sign,,,,,null,,,,,,,,,,,,,,,,,,,,,,,,,,,,,,,,
null,,learn_phase(without_color),258926,black_plus_sign,,,,,null,US_Cities_List/mm_gatlinburg.png,US_Cities_List/nat_leesburg.png,,,,,,,,,,,,,,,,,,,,,,,,,,,,,,
null,,black_cross(without_color),259830,blue,,,,,null,US_Cities_List/mm_gatlinburg.png,US_Cities_List/nat_leesburg.png,,,,,,,,,,,,,,,,,,,,,,,,,,,,,,
null,,rt_plussign_withcolor,260345,blue,,,,,null,US_Cities_List/mm_gatlinburg.png,US_Cities_List/nat_leesburg.png,,,,,,,,,,,,,,,,,,,,,,,,,,,,,,
820.1000001,,rt_thecrossant_black,261444,black_plus_sign,,,,,49,,,0.944444444,1,,,,,,,,,,,,,,,,,,,,,,,,,,,,
null,,color_black,261547,black_plus_sign,,,,,null,,,,,,,,,,,,,,,,,,,,,,,,,,,,,,,,
null,,learn_phase(without_color),264060,black_plus_sign,,,,,null,US_Cities_List/nat_boulder.png,US_Cities_List/mm_cornwall.png,,,,,,,,,,,,,,,,,,,,,,,,,,,,,,
null,,black_cross(without_color),265077,green,,,,,null,US_Cities_List/nat_boulder.png,US_Cities_List/mm_cornwall.png,,,,,,,,,,,,,,,,,,,,,,,,,,,,,,
null,,rt_plussign_withcolor,265579,green,,,,,null,US_Cities_List/nat_boulder.png,US_Cities_List/mm_cornwall.png,,,,,,,,,,,,,,,,,,,,,,,,,,,,,,
1116.9,,rt_thecrossant_black,266566,black_plus_sign,,,,,50,,,0.947368421,1,,,,,,,,,,,,,,,,,,,,,,,,,,,,
null,,color_black,266668,black_plus_sign,,,,,null,,,,,,,,,,,,,,,,,,,,,,,,,,,,,,,,
null,,learn_phase(without_color),269182,black_plus_sign,,,,,null,US_Cities_List/mm_cornwall.png,US_Cities_List/nat_carmel.png,,,,,,,,,,,,,,,,,,,,,,,,,,,,,,
null,,black_cross(without_color),269969,blue,,,,,null,US_Cities_List/mm_cornwall.png,US_Cities_List/nat_carmel.png,,,,,,,,,,,,,,,,,,,,,,,,,,,,,,
null,,rt_plussign_withcolor,270471,blue,,,,,null,US_Cities_List/mm_cornwall.png,US_Cities_List/nat_carmel.png,,,,,,,,,,,,,,,,,,,,,,,,,,,,,,
1230.6,,rt_thecrossant_black,271688,black_plus_sign,,,,,49,,,0.95,1,,,,,,,,,,,,,,,,,,,,,,,,,,,,
null,,color_black,271791,black_plus_sign,,,,,null,,,,,,,,,,,,,,,,,,,,,,,,,,,,,,,,
null,,learn_phase(without_color),274306,black_plus_sign,,,,,null,US_Cities_List/mm_newhope.png,US_Cities_List/mm_gatlinburg.png,,,,,,,,,,,,,,,,,,,,,,,,,,,,,,
null,,black_cross(without_color),274751,green,,,,,null,US_Cities_List/mm_newhope.png,US_Cities_List/mm_gatlinburg.png,,,,,,,,,,,,,,,,,,,,,,,,,,,,,,
null,,rt_plussign_withcolor,275253,green,,,,,null,US_Cities_List/mm_newhope.png,US_Cities_List/mm_gatlinburg.png,,,,,,,,,,,,,,,,,,,,,,,,,,,,,,
1158.7,,rt_thecrossant_black,276810,black_plus_sign,,,,,50,,,0.952380952,1,,,,,,,,,,,,,,,,,,,,,,,,,,,,
null,,color_black,276912,black_plus_sign,,,,,null,,,,,,,,,,,,,,,,,,,,,,,,,,,,,,,,
null,,learn_phase(without_color),279427,black_plus_sign,,,,,null,US_Cities_List/mm_hotsprings.png,US_Cities_List/nat_peoria.png,,,,,,,,,,,,,,,,,,,,,,,,,,,,,,
null,,black_cross(without_color),280397,blue,,,,,null,US_Cities_List/mm_hotsprings.png,US_Cities_List/nat_peoria.png,,,,,,,,,,,,,,,,,,,,,,,,,,,,,,
null,,rt_plussign_withcolor,280899,blue,,,,,null,US_Cities_List/mm_hotsprings.png,US_Cities_List/nat_peoria.png,,,,,,,,,,,,,,,,,,,,,,,,,,,,,,
569.7,,rt_thecrossant_black,281933,black_plus_sign,,,,,49,,,0.954545455,1,,,,,,,,,,,,,,,,,,,,,,,,,,,,
null,,color_black,282038,black_plus_sign,,,,,null,,,,,,,,,,,,,,,,,,,,,,,,,,,,,,,,
null,,learn_phase(without_color),284558,black_plus_sign,,,,,null,US_Cities_List/mm_gatlinburg.png,US_Cities_List/nat_boulder.png,,,,,,,,,,,,,,,,,,,,,,,,,,,,,,
null,,black_cross(without_color),285388,blue,,,,,null,US_Cities_List/mm_gatlinburg.png,US_Cities_List/nat_boulder.png,,,,,,,,,,,,,,,,,,,,,,,,,,,,,,
null,,rt_plussign_withcolor,285890,blue,,,,,null,US_Cities_List/mm_gatlinburg.png,US_Cities_List/nat_boulder.png,,,,,,,,,,,,,,,,,,,,,,,,,,,,,,
1165.6,,rt_thecrossant_black,287062,black_plus_sign,,,,,49,,,0.956521739,1,,,,,,,,,,,,,,,,,,,,,,,,,,,,
null,,color_black,287165,black_plus_sign,,,,,null,,,,,,,,,,,,,,,,,,,,,,,,,,,,,,,,
null,,learn_phase(without_color),289678,black_plus_sign,,,,,null,US_Cities_List/nat_leesburg.png,US_Cities_List/mm_hanover.png,,,,,,,,,,,,,,,,,,,,,,,,,,,,,,
null,,black_cross(without_color),290322,blue,,,,,null,US_Cities_List/nat_leesburg.png,US_Cities_List/mm_hanover.png,,,,,,,,,,,,,,,,,,,,,,,,,,,,,,
null,,rt_plussign_withcolor,290824,blue,,,,,null,US_Cities_List/nat_leesburg.png,US_Cities_List/mm_hanover.png,,,,,,,,,,,,,,,,,,,,,,,,,,,,,,
1025.5,,rt_thecrossant_black,292184,black_plus_sign,,,,,49,,,0.958333333,1,,,,,,,,,,,,,,,,,,,,,,,,,,,,
null,,color_black,292292,black_plus_sign,,,,,null,,,,,,,,,,,,,,,,,,,,,,,,,,,,,,,,
null,,learn_phase(without_color),294813,black_plus_sign,,,,,null,US_Cities_List/nat_boulder.png,US_Cities_List/mm_racine.png,,,,,,,,,,,,,,,,,,,,,,,,,,,,,,
null,,black_cross(without_color),295337,green,,,,,null,US_Cities_List/nat_boulder.png,US_Cities_List/mm_racine.png,,,,,,,,,,,,,,,,,,,,,,,,,,,,,,
null,,rt_plussign_withcolor,295838,green,,,,,null,US_Cities_List/nat_boulder.png,US_Cities_List/mm_racine.png,,,,,,,,,,,,,,,,,,,,,,,,,,,,,,
816.4000001,,rt_thecrossant_black,297320,black_plus_sign,,,,,50,,,0.96,1,,,,,,,,,,,,,,,,,,,,,,,,,,,,
null,,color_black,297422,black_plus_sign,,,,,null,,,,,,,,,,,,,,,,,,,,,,,,,,,,,,,,
null,,learn_phase(without_color),299942,black_plus_sign,,,,,null,US_Cities_List/mm_gatlinburg.png,US_Cities_List/nat_boulder.png,,,,,,,,,,,,,,,,,,,,,,,,,,,,,,
null,,black_cross(without_color),301041,blue,,,,,null,US_Cities_List/mm_gatlinburg.png,US_Cities_List/nat_boulder.png,,,,,,,,,,,,,,,,,,,,,,,,,,,,,,
495.6999998,,rt_plussign_withcolor,301542,blue,,,,,49,US_Cities_List/mm_gatlinburg.png,US_Cities_List/nat_boulder.png,,,,,,,,,,,,,,,,,,,,,,,,,,,,,,
null,,rt_thecrossant_black,302448,black_plus_sign,,,,,null,,,0.961538462,1,,,,,,,,,,,,,,,,,,,,,,,,,,,,
null,,color_black,302550,black_plus_sign,,,,,null,,,,,,,,,,,,,,,,,,,,,,,,,,,,,,,,
null,,learn_phase(without_color),305069,black_plus_sign,,,,,null,US_Cities_List/nat_leesburg.png,US_Cities_List/mm_hanover.png,,,,,,,,,,,,,,,,,,,,,,,,,,,,,,
null,,black_cross(without_color),306035,blue,,,,,null,US_Cities_List/nat_leesburg.png,US_Cities_List/mm_hanover.png,,,,,,,,,,,,,,,,,,,,,,,,,,,,,,
null,,rt_plussign_withcolor,306537,blue,,,,,null,US_Cities_List/nat_leesburg.png,US_Cities_List/mm_hanover.png,,,,,,,,,,,,,,,,,,,,,,,,,,,,,,
1196.2,,rt_thecrossant_black,307574,black_plus_sign,,,,,49,,,0.962962963,1,,,,,,,,,,,,,,,,,,,,,,,,,,,,
null,,color_black,307677,black_plus_sign,,,,,null,,,,,,,,,,,,,,,,,,,,,,,,,,,,,,,,
null,,learn_phase(without_color),310193,black_plus_sign,,,,,null,US_Cities_List/mm_racine.png,US_Cities_List/mm_hotsprings.png,,,,,,,,,,,,,,,,,,,,,,,,,,,,,,
null,,black_cross(without_color),310969,green,,,,,null,US_Cities_List/mm_racine.png,US_Cities_List/mm_hotsprings.png,,,,,,,,,,,,,,,,,,,,,,,,,,,,,,
null,,rt_plussign_withcolor,311471,green,,,,,null,US_Cities_List/mm_racine.png,US_Cities_List/mm_hotsprings.png,,,,,,,,,,,,,,,,,,,,,,,,,,,,,,
1301.6,,rt_thecrossant_black,312699,black_plus_sign,,,,,50,,,0.964285714,1,,,,,,,,,,,,,,,,,,,,,,,,,,,,
null,,color_black,312801,black_plus_sign,,,,,null,,,,,,,,,,,,,,,,,,,,,,,,,,,,,,,,
null,,learn_phase(without_color),315317,black_plus_sign,,,,,null,US_Cities_List/nat_leesburg.png,US_Cities_List/nat_carmel.png,,,,,,,,,,,,,,,,,,,,,,,,,,,,,,
null,,black_cross(without_color),316109,blue,,,,,null,US_Cities_List/nat_leesburg.png,US_Cities_List/nat_carmel.png,,,,,,,,,,,,,,,,,,,,,,,,,,,,,,
null,,rt_plussign_withcolor,316610,blue,,,,,null,US_Cities_List/nat_leesburg.png,US_Cities_List/nat_carmel.png,,,,,,,,,,,,,,,,,,,,,,,,,,,,,,
1047.4,,rt_thecrossant_black,317830,black_plus_sign,,,,,49,,,0.965517241,1,,,,,,,,,,,,,,,,,,,,,,,,,,,,
null,,color_black,317933,black_plus_sign,,,,,null,,,,,,,,,,,,,,,,,,,,,,,,,,,,,,,,
null,,learn_phase(without_color),320450,black_plus_sign,,,,,null,US_Cities_List/mm_hotsprings.png,US_Cities_List/nat_peoria.png,,,,,,,,,,,,,,,,,,,,,,,,,,,,,,
null,,black_cross(without_color),320959,blue,,,,,null,US_Cities_List/mm_hotsprings.png,US_Cities_List/nat_peoria.png,,,,,,,,,,,,,,,,,,,,,,,,,,,,,,
null,,rt_plussign_withcolor,321460,blue,,,,,null,US_Cities_List/mm_hotsprings.png,US_Cities_List/nat_peoria.png,,,,,,,,,,,,,,,,,,,,,,,,,,,,,,
1001.9,,rt_thecrossant_black,322955,black_plus_sign,,,,,49,,,0.966666667,1,,,,,,,,,,,,,,,,,,,,,,,,,,,,
null,,color_black,323057,black_plus_sign,,,,,null,,,,,,,,,,,,,,,,,,,,,,,,,,,,,,,,
null,,learn_phase(without_color),325572,black_plus_sign,,,,,null,US_Cities_List/nat_shreveport.png,US_Cities_List/mm_cornwall.png,,,,,,,,,,,,,,,,,,,,,,,,,,,,,,
null,,black_cross(without_color),326379,blue,,,,,null,US_Cities_List/nat_shreveport.png,US_Cities_List/mm_cornwall.png,,,,,,,,,,,,,,,,,,,,,,,,,,,,,,
null,,rt_plussign_withcolor,326880,blue,,,,,null,US_Cities_List/nat_shreveport.png,US_Cities_List/mm_cornwall.png,,,,,,,,,,,,,,,,,,,,,,,,,,,,,,
912.4000001,,rt_thecrossant_black,328077,black_plus_sign,,,,,49,,,0.967741935,1,,,,,,,,,,,,,,,,,,,,,,,,,,,,
null,,color_black,328195,black_plus_sign,,,,,null,,,,,,,,,,,,,,,,,,,,,,,,,,,,,,,,
null,,learn_phase(without_color),330711,black_plus_sign,,,,,null,US_Cities_List/nat_peoria.png,US_Cities_List/mm_westpalmbeach.png,,,,,,,,,,,,,,,,,,,,,,,,,,,,,,
null,,black_cross(without_color),331373,blue,,,,,null,US_Cities_List/nat_peoria.png,US_Cities_List/mm_westpalmbeach.png,,,,,,,,,,,,,,,,,,,,,,,,,,,,,,
null,,rt_plussign_withcolor,331875,blue,,,,,null,US_Cities_List/nat_peoria.png,US_Cities_List/mm_westpalmbeach.png,,,,,,,,,,,,,,,,,,,,,,,,,,,,,,
938.8000002,,rt_thecrossant_black,333217,black_plus_sign,,,,,49,,,0.96875,1,,,,,,,,,,,,,,,,,,,,,,,,,,,,
null,,color_black,333319,black_plus_sign,,,,,null,,,,,,,,,,,,,,,,,,,,,,,,,,,,,,,,
null,,learn_phase(without_color),335838,black_plus_sign,,,,,null,US_Cities_List/nat_boulder.png,US_Cities_List/mm_racine.png,,,,,,,,,,,,,,,,,,,,,,,,,,,,,,
null,,black_cross(without_color),336839,blue,,,,,null,US_Cities_List/nat_boulder.png,US_Cities_List/mm_racine.png,,,,,,,,,,,,,,,,,,,,,,,,,,,,,,
470.5,,rt_plussign_withcolor,337341,blue,,,,,49,US_Cities_List/nat_boulder.png,US_Cities_List/mm_racine.png,,,,,,,,,,,,,,,,,,,,,,,,,,,,,,
null,,rt_thecrossant_black,338344,black_plus_sign,,,,,null,,,0.96969697,1,,,,,,,,,,,,,,,,,,,,,,,,,,,,
null,,color_black,338450,black_plus_sign,,,,,null,,,,,,,,,,,,,,,,,,,,,,,,,,,,,,,,
null,,learn_phase(without_color),340965,black_plus_sign,,,,,null,US_Cities_List/mm_hotsprings.png,US_Cities_List/nat_shreveport.png,,,,,,,,,,,,,,,,,,,,,,,,,,,,,,
null,,black_cross(without_color),341969,green,,,,,null,US_Cities_List/mm_hotsprings.png,US_Cities_List/nat_shreveport.png,,,,,,,,,,,,,,,,,,,,,,,,,,,,,,
null,,rt_plussign_withcolor,342471,green,,,,,null,US_Cities_List/mm_hotsprings.png,US_Cities_List/nat_shreveport.png,,,,,,,,,,,,,,,,,,,,,,,,,,,,,,
1106.6,,rt_thecrossant_black,343470,black_plus_sign,,,,,50,,,0.970588235,1,,,,,,,,,,,,,,,,,,,,,,,,,,,,
null,,color_black,343573,black_plus_sign,,,,,null,,,,,,,,,,,,,,,,,,,,,,,,,,,,,,,,
null,,learn_phase(without_color),346094,black_plus_sign,,,,,null,US_Cities_List/nat_boulder.png,US_Cities_List/mm_cornwall.png,,,,,,,,,,,,,,,,,,,,,,,,,,,,,,
null,,black_cross(without_color),346998,blue,,,,,null,US_Cities_List/nat_boulder.png,US_Cities_List/mm_cornwall.png,,,,,,,,,,,,,,,,,,,,,,,,,,,,,,
null,,rt_plussign_withcolor,347500,blue,,,,,null,US_Cities_List/nat_boulder.png,US_Cities_List/mm_cornwall.png,,,,,,,,,,,,,,,,,,,,,,,,,,,,,,
1115.9,,rt_thecrossant_black,348601,black_plus_sign,,,,,49,,,0.971428571,1,,,,,,,,,,,,,,,,,,,,,,,,,,,,
null,,color_black,348703,black_plus_sign,,,,,null,,,,,,,,,,,,,,,,,,,,,,,,,,,,,,,,
null,,learn_phase(without_color),351223,black_plus_sign,,,,,null,US_Cities_List/mm_hotsprings.png,US_Cities_List/nat_peoria.png,,,,,,,,,,,,,,,,,,,,,,,,,,,,,,
null,,black_cross(without_color),351986,blue,,,,,null,US_Cities_List/mm_hotsprings.png,US_Cities_List/nat_peoria.png,,,,,,,,,,,,,,,,,,,,,,,,,,,,,,
null,,rt_plussign_withcolor,352487,blue,,,,,null,US_Cities_List/mm_hotsprings.png,US_Cities_List/nat_peoria.png,,,,,,,,,,,,,,,,,,,,,,,,,,,,,,
1112.6,,rt_thecrossant_black,353729,black_plus_sign,,,,,49,,,0.972222222,1,,,,,,,,,,,,,,,,,,,,,,,,,,,,
null,,color_black,353831,black_plus_sign,,,,,null,,,,,,,,,,,,,,,,,,,,,,,,,,,,,,,,
null,,learn_phase(without_color),356353,black_plus_sign,,,,,null,US_Cities_List/nat_boulder.png,US_Cities_List/mm_cornwall.png,,,,,,,,,,,,,,,,,,,,,,,,,,,,,,
null,,black_cross(without_color),356877,green,,,,,null,US_Cities_List/nat_boulder.png,US_Cities_List/mm_cornwall.png,,,,,,,,,,,,,,,,,,,,,,,,,,,,,,
null,,rt_plussign_withcolor,357378,green,,,,,null,US_Cities_List/nat_boulder.png,US_Cities_List/mm_cornwall.png,,,,,,,,,,,,,,,,,,,,,,,,,,,,,,
890.2,,rt_thecrossant_black,358859,black_plus_sign,,,,,50,,,0.972972973,1,,,,,,,,,,,,,,,,,,,,,,,,,,,,
null,,color_black,358961,black_plus_sign,,,,,null,,,,,,,,,,,,,,,,,,,,,,,,,,,,,,,,
null,,learn_phase(without_color),361478,black_plus_sign,,,,,null,US_Cities_List/mm_racine.png,US_Cities_List/mm_hotsprings.png,,,,,,,,,,,,,,,,,,,,,,,,,,,,,,
null,,black_cross(without_color),362560,blue,,,,,null,US_Cities_List/mm_racine.png,US_Cities_List/mm_hotsprings.png,,,,,,,,,,,,,,,,,,,,,,,,,,,,,,
null,,rt_plussign_withcolor,363061,blue,,,,,null,US_Cities_List/mm_racine.png,US_Cities_List/mm_hotsprings.png,,,,,,,,,,,,,,,,,,,,,,,,,,,,,,
691.5,,rt_thecrossant_black,363984,black_plus_sign,,,,,49,,,0.973684211,1,,,,,,,,,,,,,,,,,,,,,,,,,,,,
null,,color_black,364086,black_plus_sign,,,,,null,,,,,,,,,,,,,,,,,,,,,,,,,,,,,,,,
null,,learn_phase(without_color),366600,black_plus_sign,,,,,null,US_Cities_List/nat_leesburg.png,US_Cities_List/mm_hanover.png,,,,,,,,,,,,,,,,,,,,,,,,,,,,,,
null,,black_cross(without_color),367298,blue,,,,,null,US_Cities_List/nat_leesburg.png,US_Cities_List/mm_hanover.png,,,,,,,,,,,,,,,,,,,,,,,,,,,,,,
null,,rt_plussign_withcolor,367809,blue,,,,,null,US_Cities_List/nat_leesburg.png,US_Cities_List/mm_hanover.png,,,,,,,,,,,,,,,,,,,,,,,,,,,,,,
1298.5,,rt_thecrossant_black,369114,black_plus_sign,,,,,50,,,0.948717949,0,,,,,,,,,,,,,,,,,,,,,,,,,,,,
null,,color_black,369217,black_plus_sign,,,,,null,,,,,,,,,,,,,,,,,,,,,,,,,,,,,,,,
null,,learn_phase(without_color),371739,black_plus_sign,,,,,null,US_Cities_List/nat_leesburg.png,US_Cities_List/nat_carmel.png,,,,,,,,,,,,,,,,,,,,,,,,,,,,,,
null,,black_cross(without_color),372489,green,,,,,null,US_Cities_List/nat_leesburg.png,US_Cities_List/nat_carmel.png,,,,,,,,,,,,,,,,,,,,,,,,,,,,,,
482.8,,rt_plussign_withcolor,372991,green,,,,,50,US_Cities_List/nat_leesburg.png,US_Cities_List/nat_carmel.png,,,,,,,,,,,,,,,,,,,,,,,,,,,,,,
null,,rt_thecrossant_black,374244,black_plus_sign,,,,,null,,,0.95,1,,,,,,,,,,,,,,,,,,,,,,,,,,,,
null,,color_black,374348,black_plus_sign,,,,,null,,,,,,,,,,,,,,,,,,,,,,,,,,,,,,,,
null,,learn_phase(without_color),376864,black_plus_sign,,,,,null,US_Cities_List/mm_gatlinburg.png,US_Cities_List/nat_boulder.png,,,,,,,,,,,,,,,,,,,,,,,,,,,,,,
null,,black_cross(without_color),377518,green,,,,,null,US_Cities_List/mm_gatlinburg.png,US_Cities_List/nat_boulder.png,,,,,,,,,,,,,,,,,,,,,,,,,,,,,,
null,,rt_plussign_withcolor,378019,green,,,,,null,US_Cities_List/mm_gatlinburg.png,US_Cities_List/nat_boulder.png,,,,,,,,,,,,,,,,,,,,,,,,,,,,,,
1023.7,,rt_thecrossant_black,379370,black_plus_sign,,,,,50,,,0.951219512,1,,,,,,,,,,,,,,,,,,,,,,,,,,,,
null,,color_black,379473,black_plus_sign,,,,,null,,,,,,,,,,,,,,,,,,,,,,,,,,,,,,,,
null,,learn_phase(without_color),381992,black_plus_sign,,,,,null,US_Cities_List/nat_shreveport.png,US_Cities_List/mm_cornwall.png,,,,,,,,,,,,,,,,,,,,,,,,,,,,,,
null,,black_cross(without_color),382822,green,,,,,null,US_Cities_List/nat_shreveport.png,US_Cities_List/mm_cornwall.png,,,,,,,,,,,,,,,,,,,,,,,,,,,,,,
null,,rt_plussign_withcolor,383323,green,,,,,null,US_Cities_List/nat_shreveport.png,US_Cities_List/mm_cornwall.png,,,,,,,,,,,,,,,,,,,,,,,,,,,,,,
887.5999999,,rt_thecrossant_black,384497,black_plus_sign,,,,,50,,,0.952380952,1,,,,,,,,,,,,,,,,,,,,,,,,,,,,
null,,color_black,384600,black_plus_sign,,,,,null,,,,,,,,,,,,,,,,,,,,,,,,,,,,,,,,
null,,learn_phase(without_color),387115,black_plus_sign,,,,,null,US_Cities_List/mm_racine.png,US_Cities_List/nat_shreveport.png,,,,,,,,,,,,,,,,,,,,,,,,,,,,,,
null,,black_cross(without_color),388177,green,,,,,null,US_Cities_List/mm_racine.png,US_Cities_List/nat_shreveport.png,,,,,,,,,,,,,,,,,,,,,,,,,,,,,,
449.8,,rt_plussign_withcolor,388678,green,,,,,50,US_Cities_List/mm_racine.png,US_Cities_List/nat_shreveport.png,,,,,,,,,,,,,,,,,,,,,,,,,,,,,,
null,,rt_thecrossant_black,389621,black_plus_sign,,,,,null,,,0.953488372,1,,,,,,,,,,,,,,,,,,,,,,,,,,,,
null,,color_black,389723,black_plus_sign,,,,,null,,,,,,,,,,,,,,,,,,,,,,,,,,,,,,,,
null,,learn_phase(without_color),392238,black_plus_sign,,,,,null,US_Cities_List/nat_peoria.png,US_Cities_List/nat_shreveport.png,,,,,,,,,,,,,,,,,,,,,,,,,,,,,,
null,,black_cross(without_color),393115,green,,,,,null,US_Cities_List/nat_peoria.png,US_Cities_List/nat_shreveport.png,,,,,,,,,,,,,,,,,,,,,,,,,,,,,,
429.3000002,,rt_plussign_withcolor,393617,green,,,,,50,US_Cities_List/nat_peoria.png,US_Cities_List/nat_shreveport.png,,,,,,,,,,,,,,,,,,,,,,,,,,,,,,
null,,rt_thecrossant_black,394743,black_plus_sign,,,,,null,,,0.954545455,1,,,,,,,,,,,,,,,,,,,,,,,,,,,,
null,,color_black,394856,black_plus_sign,,,,,null,,,,,,,,,,,,,,,,,,,,,,,,,,,,,,,,
null,,learn_phase(without_color),397374,black_plus_sign,,,,,null,US_Cities_List/mm_hotsprings.png,US_Cities_List/nat_shreveport.png,,,,,,,,,,,,,,,,,,,,,,,,,,,,,,
null,,black_cross(without_color),398287,blue,,,,,null,US_Cities_List/mm_hotsprings.png,US_Cities_List/nat_shreveport.png,,,,,,,,,,,,,,,,,,,,,,,,,,,,,,
null,,rt_plussign_withcolor,398788,blue,,,,,null,US_Cities_List/mm_hotsprings.png,US_Cities_List/nat_shreveport.png,,,,,,,,,,,,,,,,,,,,,,,,,,,,,,
1239.2,,rt_thecrossant_black,399879,black_plus_sign,,,,,49,,,0.955555556,1,,,,,,,,,,,,,,,,,,,,,,,,,,,,
null,,color_black,399981,black_plus_sign,,,,,null,,,,,,,,,,,,,,,,,,,,,,,,,,,,,,,,
null,,learn_phase(without_color),402494,black_plus_sign,,,,,null,US_Cities_List/nat_leesburg.png,US_Cities_List/nat_carmel.png,,,,,,,,,,,,,,,,,,,,,,,,,,,,,,
null,,black_cross(without_color),403162,blue,,,,,null,US_Cities_List/nat_leesburg.png,US_Cities_List/nat_carmel.png,,,,,,,,,,,,,,,,,,,,,,,,,,,,,,
null,,rt_plussign_withcolor,403665,blue,,,,,null,US_Cities_List/nat_leesburg.png,US_Cities_List/nat_carmel.png,,,,,,,,,,,,,,,,,,,,,,,,,,,,,,
1047.7,,rt_thecrossant_black,405000,black_plus_sign,,,,,49,,,0.956521739,1,,,,,,,,,,,,,,,,,,,,,,,,,,,,
null,,color_black,405102,black_plus_sign,,,,,null,,,,,,,,,,,,,,,,,,,,,,,,,,,,,,,,
null,,learn_phase(without_color),407616,black_plus_sign,,,,,null,US_Cities_List/mm_newhope.png,US_Cities_List/mm_gatlinburg.png,,,,,,,,,,,,,,,,,,,,,,,,,,,,,,
null,,black_cross(without_color),408274,blue,,,,,null,US_Cities_List/mm_newhope.png,US_Cities_List/mm_gatlinburg.png,,,,,,,,,,,,,,,,,,,,,,,,,,,,,,
464.0999999,,rt_plussign_withcolor,408777,blue,,,,,49,US_Cities_List/mm_newhope.png,US_Cities_List/mm_gatlinburg.png,,,,,,,,,,,,,,,,,,,,,,,,,,,,,,
null,,rt_thecrossant_black,410123,black_plus_sign,,,,,null,,,0.957446809,1,,,,,,,,,,,,,,,,,,,,,,,,,,,,
null,,color_black,410224,black_plus_sign,,,,,null,,,,,,,,,,,,,,,,,,,,,,,,,,,,,,,,
null,,learn_phase(without_color),412745,black_plus_sign,,,,,null,US_Cities_List/mm_hotsprings.png,US_Cities_List/nat_shreveport.png,,,,,,,,,,,,,,,,,,,,,,,,,,,,,,
null,,black_cross(without_color),413255,blue,,,,,null,US_Cities_List/mm_hotsprings.png,US_Cities_List/nat_shreveport.png,,,,,,,,,,,,,,,,,,,,,,,,,,,,,,
468.4000001,,rt_plussign_withcolor,413757,blue,,,,,49,US_Cities_List/mm_hotsprings.png,US_Cities_List/nat_shreveport.png,,,,,,,,,,,,,,,,,,,,,,,,,,,,,,
null,,rt_thecrossant_black,415253,black_plus_sign,,,,,null,,,0.958333333,1,,,,,,,,,,,,,,,,,,,,,,,,,,,,
null,,color_black,415355,black_plus_sign,,,,,null,,,,,,,,,,,,,,,,,,,,,,,,,,,,,,,,
null,,learn_phase(without_color),417875,black_plus_sign,,,,,null,US_Cities_List/mm_racine.png,US_Cities_List/nat_shreveport.png,,,,,,,,,,,,,,,,,,,,,,,,,,,,,,
null,,black_cross(without_color),418684,green,,,,,null,US_Cities_List/mm_racine.png,US_Cities_List/nat_shreveport.png,,,,,,,,,,,,,,,,,,,,,,,,,,,,,,
null,,rt_plussign_withcolor,419186,green,,,,,null,US_Cities_List/mm_racine.png,US_Cities_List/nat_shreveport.png,,,,,,,,,,,,,,,,,,,,,,,,,,,,,,
781.5,,rt_thecrossant_black,420381,black_plus_sign,,,,,50,,,0.959183673,1,,,,,,,,,,,,,,,,,,,,,,,,,,,,
null,,color_black,420483,black_plus_sign,,,,,null,,,,,,,,,,,,,,,,,,,,,,,,,,,,,,,,
null,,learn_phase(without_color),422998,black_plus_sign,,,,,null,US_Cities_List/nat_boulder.png,US_Cities_List/mm_cornwall.png,,,,,,,,,,,,,,,,,,,,,,,,,,,,,,
null,,black_cross(without_color),423503,green,,,,,null,US_Cities_List/nat_boulder.png,US_Cities_List/mm_cornwall.png,,,,,,,,,,,,,,,,,,,,,,,,,,,,,,
null,,rt_plussign_withcolor,424004,green,,,,,null,US_Cities_List/nat_boulder.png,US_Cities_List/mm_cornwall.png,,,,,,,,,,,,,,,,,,,,,,,,,,,,,,
994.3,,rt_thecrossant_black,425503,black_plus_sign,,,,,50,,,0.96,1,,,,,,,,,,,,,,,,,,,,,,,,,,,,
null,,color_black,425605,black_plus_sign,,,,,null,,,,,,,,,,,,,,,,,,,,,,,,,,,,,,,,
null,,learn_phase(without_color),428121,black_plus_sign,,,,,null,US_Cities_List/mm_cornwall.png,US_Cities_List/nat_carmel.png,,,,,,,,,,,,,,,,,,,,,,,,,,,,,,
null,,black_cross(without_color),429059,green,,,,,null,US_Cities_List/mm_cornwall.png,US_Cities_List/nat_carmel.png,,,,,,,,,,,,,,,,,,,,,,,,,,,,,,
null,,rt_plussign_withcolor,429560,green,,,,,null,US_Cities_List/mm_cornwall.png,US_Cities_List/nat_carmel.png,,,,,,,,,,,,,,,,,,,,,,,,,,,,,,
818.9000001,,rt_thecrossant_black,430629,black_plus_sign,,,,,50,,,0.960784314,1,,,,,,,,,,,,,,,,,,,,,,,,,,,,
null,,color_black,430732,black_plus_sign,,,,,null,,,,,,,,,,,,,,,,,,,,,,,,,,,,,,,,
null,,learn_phase(without_color),433247,black_plus_sign,,,,,null,US_Cities_List/mm_racine.png,US_Cities_List/nat_shreveport.png,,,,,,,,,,,,,,,,,,,,,,,,,,,,,,
null,,black_cross(without_color),433808,blue,,,,,null,US_Cities_List/mm_racine.png,US_Cities_List/nat_shreveport.png,,,,,,,,,,,,,,,,,,,,,,,,,,,,,,
null,,rt_plussign_withcolor,434309,blue,,,,,null,US_Cities_List/mm_racine.png,US_Cities_List/nat_shreveport.png,,,,,,,,,,,,,,,,,,,,,,,,,,,,,,
1215.7,,rt_thecrossant_black,435753,black_plus_sign,,,,,49,,,0.961538462,1,,,,,,,,,,,,,,,,,,,,,,,,,,,,
null,,color_black,435855,black_plus_sign,,,,,null,,,,,,,,,,,,,,,,,,,,,,,,,,,,,,,,
null,,learn_phase(without_color),438389,black_plus_sign,,,,,null,US_Cities_List/nat_shreveport.png,US_Cities_List/mm_cornwall.png,,,,,,,,,,,,,,,,,,,,,,,,,,,,,,
null,,black_cross(without_color),439413,green,,,,,null,US_Cities_List/nat_shreveport.png,US_Cities_List/mm_cornwall.png,,,,,,,,,,,,,,,,,,,,,,,,,,,,,,
455.2,,rt_plussign_withcolor,439914,green,,,,,50,US_Cities_List/nat_shreveport.png,US_Cities_List/mm_cornwall.png,,,,,,,,,,,,,,,,,,,,,,,,,,,,,,
null,,rt_thecrossant_black,440894,black_plus_sign,,,,,null,,,0.962264151,1,,,,,,,,,,,,,,,,,,,,,,,,,,,,
null,,color_black,441005,black_plus_sign,,,,,null,,,,,,,,,,,,,,,,,,,,,,,,,,,,,,,,
null,,learn_phase(without_color),443527,black_plus_sign,,,,,null,US_Cities_List/nat_peoria.png,US_Cities_List/mm_westpalmbeach.png,,,,,,,,,,,,,,,,,,,,,,,,,,,,,,
null,,black_cross(without_color),444525,blue,,,,,null,US_Cities_List/nat_peoria.png,US_Cities_List/mm_westpalmbeach.png,,,,,,,,,,,,,,,,,,,,,,,,,,,,,,
null,,rt_plussign_withcolor,445027,blue,,,,,null,US_Cities_List/nat_peoria.png,US_Cities_List/mm_westpalmbeach.png,,,,,,,,,,,,,,,,,,,,,,,,,,,,,,
1351.9,,rt_thecrossant_black,446033,black_plus_sign,,,,,49,,,0.962962963,1,,,,,,,,,,,,,,,,,,,,,,,,,,,,
null,,color_black,446135,black_plus_sign,,,,,null,,,,,,,,,,,,,,,,,,,,,,,,,,,,,,,,
null,,learn_phase(without_color),448650,black_plus_sign,,,,,null,US_Cities_List/mm_hotsprings.png,US_Cities_List/nat_shreveport.png,,,,,,,,,,,,,,,,,,,,,,,,,,,,,,
null,,black_cross(without_color),449314,green,,,,,null,US_Cities_List/mm_hotsprings.png,US_Cities_List/nat_shreveport.png,,,,,,,,,,,,,,,,,,,,,,,,,,,,,,
null,,rt_plussign_withcolor,449816,green,,,,,null,US_Cities_List/mm_hotsprings.png,US_Cities_List/nat_shreveport.png,,,,,,,,,,,,,,,,,,,,,,,,,,,,,,
1115.2,,rt_thecrossant_black,451156,black_plus_sign,,,,,50,,,0.963636364,1,,,,,,,,,,,,,,,,,,,,,,,,,,,,
null,,color_black,451258,black_plus_sign,,,,,null,,,,,,,,,,,,,,,,,,,,,,,,,,,,,,,,
null,,learn_phase(without_color),453776,black_plus_sign,,,,,null,US_Cities_List/mm_racine.png,US_Cities_List/nat_shreveport.png,,,,,,,,,,,,,,,,,,,,,,,,,,,,,,
null,,black_cross(without_color),454471,blue,,,,,null,US_Cities_List/mm_racine.png,US_Cities_List/nat_shreveport.png,,,,,,,,,,,,,,,,,,,,,,,,,,,,,,
null,,rt_plussign_withcolor,454973,blue,,,,,null,US_Cities_List/mm_racine.png,US_Cities_List/nat_shreveport.png,,,,,,,,,,,,,,,,,,,,,,,,,,,,,,
932,,rt_thecrossant_black,456283,black_plus_sign,,,,,49,,,0.964285714,1,,,,,,,,,,,,,,,,,,,,,,,,,,,,
null,,color_black,456385,black_plus_sign,,,,,null,,,,,,,,,,,,,,,,,,,,,,,,,,,,,,,,
null,,learn_phase(without_color),458899,black_plus_sign,,,,,null,US_Cities_List/mm_hotsprings.png,US_Cities_List/nat_huntsville.png,,,,,,,,,,,,,,,,,,,,,,,,,,,,,,
null,,black_cross(without_color),459524,green,,,,,null,US_Cities_List/mm_hotsprings.png,US_Cities_List/nat_huntsville.png,,,,,,,,,,,,,,,,,,,,,,,,,,,,,,
460.7,,rt_plussign_withcolor,460026,green,,,,,50,US_Cities_List/mm_hotsprings.png,US_Cities_List/nat_huntsville.png,,,,,,,,,,,,,,,,,,,,,,,,,,,,,,
null,,rt_thecrossant_black,461405,black_plus_sign,,,,,null,,,0.964912281,1,,,,,,,,,,,,,,,,,,,,,,,,,,,,
null,,color_black,461507,black_plus_sign,,,,,null,,,,,,,,,,,,,,,,,,,,,,,,,,,,,,,,
null,,learn_phase(without_color),464028,black_plus_sign,,,,,null,US_Cities_List/nat_peoria.png,US_Cities_List/mm_westpalmbeach.png,,,,,,,,,,,,,,,,,,,,,,,,,,,,,,
null,,black_cross(without_color),464832,green,,,,,null,US_Cities_List/nat_peoria.png,US_Cities_List/mm_westpalmbeach.png,,,,,,,,,,,,,,,,,,,,,,,,,,,,,,
null,,rt_plussign_withcolor,465334,green,,,,,null,US_Cities_List/nat_peoria.png,US_Cities_List/mm_westpalmbeach.png,,,,,,,,,,,,,,,,,,,,,,,,,,,,,,
828.5,,rt_thecrossant_black,466534,black_plus_sign,,,,,50,,,0.965517241,1,,,,,,,,,,,,,,,,,,,,,,,,,,,,
null,,color_black,466646,black_plus_sign,,,,,null,,,,,,,,,,,,,,,,,,,,,,,,,,,,,,,,
null,,learn_phase(without_color),469162,black_plus_sign,,,,,null,US_Cities_List/nat_boulder.png,US_Cities_List/mm_cornwall.png,,,,,,,,,,,,,,,,,,,,,,,,,,,,,,
null,,black_cross(without_color),469888,green,,,,,null,US_Cities_List/nat_boulder.png,US_Cities_List/mm_cornwall.png,,,,,,,,,,,,,,,,,,,,,,,,,,,,,,
null,,rt_plussign_withcolor,470389,green,,,,,null,US_Cities_List/nat_boulder.png,US_Cities_List/mm_cornwall.png,,,,,,,,,,,,,,,,,,,,,,,,,,,,,,
1130.6,,rt_thecrossant_black,471668,black_plus_sign,,,,,50,,,0.966101695,1,,,,,,,,,,,,,,,,,,,,,,,,,,,,
null,,color_black,471771,black_plus_sign,,,,,null,,,,,,,,,,,,,,,,,,,,,,,,,,,,,,,,
null,,learn_phase(without_color),474287,black_plus_sign,,,,,null,US_Cities_List/nat_peoria.png,US_Cities_List/nat_shreveport.png,,,,,,,,,,,,,,,,,,,,,,,,,,,,,,
null,,black_cross(without_color),475264,green,,,,,null,US_Cities_List/nat_peoria.png,US_Cities_List/nat_shreveport.png,,,,,,,,,,,,,,,,,,,,,,,,,,,,,,
466.3,,rt_plussign_withcolor,475766,green,,,,,50,US_Cities_List/nat_peoria.png,US_Cities_List/nat_shreveport.png,,,,,,,,,,,,,,,,,,,,,,,,,,,,,,
null,,rt_thecrossant_black,476794,black_plus_sign,,,,,null,,,0.966666667,1,,,,,,,,,,,,,,,,,,,,,,,,,,,,
null,,color_black,476897,black_plus_sign,,,,,null,,,,,,,,,,,,,,,,,,,,,,,,,,,,,,,,
null,,learn_phase(without_color),479408,black_plus_sign,,,,,null,US_Cities_List/mm_gatlinburg.png,US_Cities_List/nat_leesburg.png,,,,,,,,,,,,,,,,,,,,,,,,,,,,,,
null,,black_cross(without_color),480344,green,,,,,null,US_Cities_List/mm_gatlinburg.png,US_Cities_List/nat_leesburg.png,,,,,,,,,,,,,,,,,,,,,,,,,,,,,,
null,,rt_plussign_withcolor,480845,green,,,,,null,US_Cities_List/mm_gatlinburg.png,US_Cities_List/nat_leesburg.png,,,,,,,,,,,,,,,,,,,,,,,,,,,,,,
1233.8,,rt_thecrossant_black,481913,black_plus_sign,,,,,50,,,0.967213115,1,,,,,,,,,,,,,,,,,,,,,,,,,,,,
null,,color_black,482015,black_plus_sign,,,,,null,,,,,,,,,,,,,,,,,,,,,,,,,,,,,,,,
null,,learn_phase(without_color),484540,black_plus_sign,,,,,null,US_Cities_List/nat_boulder.png,US_Cities_List/mm_cornwall.png,,,,,,,,,,,,,,,,,,,,,,,,,,,,,,
null,,black_cross(without_color),485394,green,,,,,null,US_Cities_List/nat_boulder.png,US_Cities_List/mm_cornwall.png,,,,,,,,,,,,,,,,,,,,,,,,,,,,,,
447,,rt_plussign_withcolor,485896,green,,,,,50,US_Cities_List/nat_boulder.png,US_Cities_List/mm_cornwall.png,,,,,,,,,,,,,,,,,,,,,,,,,,,,,,
null,,rt_thecrossant_black,487045,black_plus_sign,,,,,null,,,0.967741935,1,,,,,,,,,,,,,,,,,,,,,,,,,,,,
null,,color_black,487147,black_plus_sign,,,,,null,,,,,,,,,,,,,,,,,,,,,,,,,,,,,,,,
null,,learn_phase(without_color),489669,black_plus_sign,,,,,null,US_Cities_List/mm_gatlinburg.png,US_Cities_List/nat_boulder.png,,,,,,,,,,,,,,,,,,,,,,,,,,,,,,
null,,black_cross(without_color),490347,blue,,,,,null,US_Cities_List/mm_gatlinburg.png,US_Cities_List/nat_boulder.png,,,,,,,,,,,,,,,,,,,,,,,,,,,,,,
null,,rt_plussign_withcolor,490849,blue,,,,,null,US_Cities_List/mm_gatlinburg.png,US_Cities_List/nat_boulder.png,,,,,,,,,,,,,,,,,,,,,,,,,,,,,,
1197.1,,rt_thecrossant_black,492175,black_plus_sign,,,,,49,,,0.968253968,1,,,,,,,,,,,,,,,,,,,,,,,,,,,,
null,,color_black,492278,black_plus_sign,,,,,null,,,,,,,,,,,,,,,,,,,,,,,,,,,,,,,,
null,,learn_phase(without_color),494795,black_plus_sign,,,,,null,US_Cities_List/nat_leesburg.png,US_Cities_List/nat_carmel.png,,,,,,,,,,,,,,,,,,,,,,,,,,,,,,
null,,black_cross(without_color),495271,blue,,,,,null,US_Cities_List/nat_leesburg.png,US_Cities_List/nat_carmel.png,,,,,,,,,,,,,,,,,,,,,,,,,,,,,,
null,,rt_plussign_withcolor,495773,blue,,,,,null,US_Cities_List/nat_leesburg.png,US_Cities_List/nat_carmel.png,,,,,,,,,,,,,,,,,,,,,,,,,,,,,,
981.6999998,,rt_thecrossant_black,497300,black_plus_sign,,,,,49,,,0.96875,1,,,,,,,,,,,,,,,,,,,,,,,,,,,,
null,,color_black,497403,black_plus_sign,,,,,null,,,,,,,,,,,,,,,,,,,,,,,,,,,,,,,,
null,,learn_phase(without_color),499916,black_plus_sign,,,,,null,US_Cities_List/mm_hotsprings.png,US_Cities_List/nat_peoria.png,,,,,,,,,,,,,,,,,,,,,,,,,,,,,,
null,,black_cross(without_color),500445,green,,,,,null,US_Cities_List/mm_hotsprings.png,US_Cities_List/nat_peoria.png,,,,,,,,,,,,,,,,,,,,,,,,,,,,,,
483.5,,rt_plussign_withcolor,500947,green,,,,,50,US_Cities_List/mm_hotsprings.png,US_Cities_List/nat_peoria.png,,,,,,,,,,,,,,,,,,,,,,,,,,,,,,
null,,rt_thecrossant_black,502422,black_plus_sign,,,,,null,,,0.969230769,1,,,,,,,,,,,,,,,,,,,,,,,,,,,,
null,,color_black,502524,black_plus_sign,,,,,null,,,,,,,,,,,,,,,,,,,,,,,,,,,,,,,,
null,,learn_phase(without_color),505037,black_plus_sign,,,,,null,US_Cities_List/mm_racine.png,US_Cities_List/nat_shreveport.png,,,,,,,,,,,,,,,,,,,,,,,,,,,,,,
null,,black_cross(without_color),505452,green,,,,,null,US_Cities_List/mm_racine.png,US_Cities_List/nat_shreveport.png,,,,,,,,,,,,,,,,,,,,,,,,,,,,,,
null,,rt_plussign_withcolor,505953,green,,,,,null,US_Cities_List/mm_racine.png,US_Cities_List/nat_shreveport.png,,,,,,,,,,,,,,,,,,,,,,,,,,,,,,
697.9000001,,rt_thecrossant_black,507541,black_plus_sign,,,,,50,,,0.96969697,1,,,,,,,,,,,,,,,,,,,,,,,,,,,,
null,,color_black,507643,black_plus_sign,,,,,null,,,,,,,,,,,,,,,,,,,,,,,,,,,,,,,,
null,,learn_phase(without_color),510161,black_plus_sign,,,,,null,US_Cities_List/mm_newhope.png,US_Cities_List/mm_gatlinburg.png,,,,,,,,,,,,,,,,,,,,,,,,,,,,,,
null,,black_cross(without_color),511134,blue,,,,,null,US_Cities_List/mm_newhope.png,US_Cities_List/mm_gatlinburg.png,,,,,,,,,,,,,,,,,,,,,,,,,,,,,,
null,,rt_plussign_withcolor,511635,blue,,,,,null,US_Cities_List/mm_newhope.png,US_Cities_List/mm_gatlinburg.png,,,,,,,,,,,,,,,,,,,,,,,,,,,,,,
648.3999999,,rt_thecrossant_black,512666,black_plus_sign,,,,,49,,,0.970149254,1,,,,,,,,,,,,,,,,,,,,,,,,,,,,
null,,color_black,512768,black_plus_sign,,,,,null,,,,,,,,,,,,,,,,,,,,,,,,,,,,,,,,
null,,learn_phase(without_color),515290,black_plus_sign,,,,,null,US_Cities_List/nat_shreveport.png,US_Cities_List/mm_cornwall.png,,,,,,,,,,,,,,,,,,,,,,,,,,,,,,
null,,black_cross(without_color),516362,green,,,,,null,US_Cities_List/nat_shreveport.png,US_Cities_List/mm_cornwall.png,,,,,,,,,,,,,,,,,,,,,,,,,,,,,,
null,,rt_plussign_withcolor,516864,green,,,,,null,US_Cities_List/nat_shreveport.png,US_Cities_List/mm_cornwall.png,,,,,,,,,,,,,,,,,,,,,,,,,,,,,,
1120.2,,rt_thecrossant_black,517795,black_plus_sign,,,,,50,,,0.970588235,1,,,,,,,,,,,,,,,,,,,,,,,,,,,,
null,,color_black,517898,black_plus_sign,,,,,null,,,,,,,,,,,,,,,,,,,,,,,,,,,,,,,,
null,,learn_phase(without_color),520421,black_plus_sign,,,,,null,US_Cities_List/mm_racine.png,US_Cities_List/nat_shreveport.png,,,,,,,,,,,,,,,,,,,,,,,,,,,,,,
null,,black_cross(without_color),520831,blue,,,,,null,US_Cities_List/mm_racine.png,US_Cities_List/nat_shreveport.png,,,,,,,,,,,,,,,,,,,,,,,,,,,,,,
null,,rt_plussign_withcolor,521333,blue,,,,,null,US_Cities_List/mm_racine.png,US_Cities_List/nat_shreveport.png,,,,,,,,,,,,,,,,,,,,,,,,,,,,,,
1366.6,,rt_thecrossant_black,522927,black_plus_sign,,,,,49,,,0.971014493,1,,,,,,,,,,,,,,,,,,,,,,,,,,,,
null,,color_black,523030,black_plus_sign,,,,,null,,,,,,,,,,,,,,,,,,,,,,,,,,,,,,,,
null,,learn_phase(without_color),525548,black_plus_sign,,,,,null,US_Cities_List/nat_boulder.png,US_Cities_List/mm_racine.png,,,,,,,,,,,,,,,,,,,,,,,,,,,,,,
null,,black_cross(without_color),526268,blue,,,,,null,US_Cities_List/nat_boulder.png,US_Cities_List/mm_racine.png,,,,,,,,,,,,,,,,,,,,,,,,,,,,,,
null,,rt_plussign_withcolor,526770,blue,,,,,null,US_Cities_List/nat_boulder.png,US_Cities_List/mm_racine.png,,,,,,,,,,,,,,,,,,,,,,,,,,,,,,
612.4000001,,rt_thecrossant_black,528057,black_plus_sign,,,,,49,,,0.971428571,1,,,,,,,,,,,,,,,,,,,,,,,,,,,,
null,,color_black,528160,black_plus_sign,,,,,null,,,,,,,,,,,,,,,,,,,,,,,,,,,,,,,,
null,,learn_phase(without_color),530677,black_plus_sign,,,,,null,US_Cities_List/mm_cornwall.png,US_Cities_List/nat_carmel.png,,,,,,,,,,,,,,,,,,,,,,,,,,,,,,
null,,black_cross(without_color),531107,blue,,,,,null,US_Cities_List/mm_cornwall.png,US_Cities_List/nat_carmel.png,,,,,,,,,,,,,,,,,,,,,,,,,,,,,,
null,,rt_plussign_withcolor,531609,blue,,,,,null,US_Cities_List/mm_cornwall.png,US_Cities_List/nat_carmel.png,,,,,,,,,,,,,,,,,,,,,,,,,,,,,,
935.6000001,,rt_thecrossant_black,533183,black_plus_sign,,,,,50,,,0.957746479,0,,,,,,,,,,,,,,,,,,,,,,,,,,,,
null,,color_black,533285,black_plus_sign,,,,,null,,,,,,,,,,,,,,,,,,,,,,,,,,,,,,,,
null,,learn_phase(without_color),535805,black_plus_sign,,,,,null,US_Cities_List/nat_peoria.png,US_Cities_List/mm_westpalmbeach.png,,,,,,,,,,,,,,,,,,,,,,,,,,,,,,
null,,black_cross(without_color),536754,blue,,,,,null,US_Cities_List/nat_peoria.png,US_Cities_List/mm_westpalmbeach.png,,,,,,,,,,,,,,,,,,,,,,,,,,,,,,
null,,rt_plussign_withcolor,537256,blue,,,,,null,US_Cities_List/nat_peoria.png,US_Cities_List/mm_westpalmbeach.png,,,,,,,,,,,,,,,,,,,,,,,,,,,,,,
642,,rt_thecrossant_black,538311,black_plus_sign,,,,,49,,,0.958333333,1,,,,,,,,,,,,,,,,,,,,,,,,,,,,
null,,color_black,538414,black_plus_sign,,,,,null,,,,,,,,,,,,,,,,,,,,,,,,,,,,,,,,
null,,learn_phase(without_color),540945,black_plus_sign,,,,,null,US_Cities_List/mm_gatlinburg.png,US_Cities_List/nat_boulder.png,,,,,,,,,,,,,,,,,,,,,,,,,,,,,,
null,,black_cross(without_color),541905,green,,,,,null,US_Cities_List/mm_gatlinburg.png,US_Cities_List/nat_boulder.png,,,,,,,,,,,,,,,,,,,,,,,,,,,,,,
null,,rt_plussign_withcolor,542407,green,,,,,null,US_Cities_List/mm_gatlinburg.png,US_Cities_List/nat_boulder.png,,,,,,,,,,,,,,,,,,,,,,,,,,,,,,
1194,,rt_thecrossant_black,543451,black_plus_sign,,,,,50,,,0.95890411,1,,,,,,,,,,,,,,,,,,,,,,,,,,,,
null,,color_black,543554,black_plus_sign,,,,,null,,,,,,,,,,,,,,,,,,,,,,,,,,,,,,,,
null,,learn_phase(without_color),546071,black_plus_sign,,,,,null,US_Cities_List/nat_boulder.png,US_Cities_List/mm_cornwall.png,,,,,,,,,,,,,,,,,,,,,,,,,,,,,,
null,,black_cross(without_color),546597,blue,,,,,null,US_Cities_List/nat_boulder.png,US_Cities_List/mm_cornwall.png,,,,,,,,,,,,,,,,,,,,,,,,,,,,,,
null,,rt_plussign_withcolor,547099,blue,,,,,null,US_Cities_List/nat_boulder.png,US_Cities_List/mm_cornwall.png,,,,,,,,,,,,,,,,,,,,,,,,,,,,,,
1237.5,,rt_thecrossant_black,548593,black_plus_sign,,,,,49,,,0.959459459,1,,,,,,,,,,,,,,,,,,,,,,,,,,,,
null,,color_black,548699,black_plus_sign,,,,,null,,,,,,,,,,,,,,,,,,,,,,,,,,,,,,,,
null,,learn_phase(without_color),551215,black_plus_sign,,,,,null,US_Cities_List/nat_peoria.png,US_Cities_List/mm_westpalmbeach.png,,,,,,,,,,,,,,,,,,,,,,,,,,,,,,
null,,black_cross(without_color),551923,blue,,,,,null,US_Cities_List/nat_peoria.png,US_Cities_List/mm_westpalmbeach.png,,,,,,,,,,,,,,,,,,,,,,,,,,,,,,
483.8,,rt_plussign_withcolor,552425,blue,,,,,49,US_Cities_List/nat_peoria.png,US_Cities_List/mm_westpalmbeach.png,,,,,,,,,,,,,,,,,,,,,,,,,,,,,,
null,,rt_thecrossant_black,553722,black_plus_sign,,,,,null,,,0.96,1,,,,,,,,,,,,,,,,,,,,,,,,,,,,
null,,color_black,553825,black_plus_sign,,,,,null,,,,,,,,,,,,,,,,,,,,,,,,,,,,,,,,
null,,learn_phase(without_color),556340,black_plus_sign,,,,,null,US_Cities_List/mm_racine.png,US_Cities_List/mm_hotsprings.png,,,,,,,,,,,,,,,,,,,,,,,,,,,,,,
null,,black_cross(without_color),557419,blue,,,,,null,US_Cities_List/mm_racine.png,US_Cities_List/mm_hotsprings.png,,,,,,,,,,,,,,,,,,,,,,,,,,,,,,
null,,rt_plussign_withcolor,557920,blue,,,,,null,US_Cities_List/mm_racine.png,US_Cities_List/mm_hotsprings.png,,,,,,,,,,,,,,,,,,,,,,,,,,,,,,
841.8,,rt_thecrossant_black,558845,black_plus_sign,,,,,49,,,0.960526316,1,,,,,,,,,,,,,,,,,,,,,,,,,,,,
null,,color_black,558947,black_plus_sign,,,,,null,,,,,,,,,,,,,,,,,,,,,,,,,,,,,,,,
null,,learn_phase(without_color),561461,black_plus_sign,,,,,null,US_Cities_List/nat_leesburg.png,US_Cities_List/mm_hanover.png,,,,,,,,,,,,,,,,,,,,,,,,,,,,,,
null,,black_cross(without_color),561997,blue,,,,,null,US_Cities_List/nat_leesburg.png,US_Cities_List/mm_hanover.png,,,,,,,,,,,,,,,,,,,,,,,,,,,,,,
501.7,,rt_plussign_withcolor,562501,blue,,,,,49,US_Cities_List/nat_leesburg.png,US_Cities_List/mm_hanover.png,,,,,,,,,,,,,,,,,,,,,,,,,,,,,,
null,,rt_thecrossant_black,563970,black_plus_sign,,,,,null,,,0.961038961,1,,,,,,,,,,,,,,,,,,,,,,,,,,,,
null,,color_black,564072,black_plus_sign,,,,,null,,,,,,,,,,,,,,,,,,,,,,,,,,,,,,,,
null,,learn_phase(without_color),566591,black_plus_sign,,,,,null,US_Cities_List/nat_boulder.png,US_Cities_List/mm_racine.png,,,,,,,,,,,,,,,,,,,,,,,,,,,,,,
null,,black_cross(without_color),567645,green,,,,,null,US_Cities_List/nat_boulder.png,US_Cities_List/mm_racine.png,,,,,,,,,,,,,,,,,,,,,,,,,,,,,,
null,,rt_plussign_withcolor,568147,green,,,,,null,US_Cities_List/nat_boulder.png,US_Cities_List/mm_racine.png,,,,,,,,,,,,,,,,,,,,,,,,,,,,,,
802.0999999,,rt_thecrossant_black,569097,black_plus_sign,,,,,50,,,0.961538462,1,,,,,,,,,,,,,,,,,,,,,,,,,,,,
null,,color_black,569198,black_plus_sign,,,,,null,,,,,,,,,,,,,,,,,,,,,,,,,,,,,,,,
null,,learn_phase(without_color),571712,black_plus_sign,,,,,null,US_Cities_List/mm_gatlinburg.png,US_Cities_List/nat_leesburg.png,,,,,,,,,,,,,,,,,,,,,,,,,,,,,,
null,,black_cross(without_color),572147,green,,,,,null,US_Cities_List/mm_gatlinburg.png,US_Cities_List/nat_leesburg.png,,,,,,,,,,,,,,,,,,,,,,,,,,,,,,
null,,rt_plussign_withcolor,572650,green,,,,,null,US_Cities_List/mm_gatlinburg.png,US_Cities_List/nat_leesburg.png,,,,,,,,,,,,,,,,,,,,,,,,,,,,,,
1408.1,,rt_thecrossant_black,574220,black_plus_sign,,,,,50,,,0.962025316,1,,,,,,,,,,,,,,,,,,,,,,,,,,,,
null,,color_black,574322,black_plus_sign,,,,,null,,,,,,,,,,,,,,,,,,,,,,,,,,,,,,,,
null,,learn_phase(without_color),576838,black_plus_sign,,,,,null,US_Cities_List/nat_leesburg.png,US_Cities_List/mm_hanover.png,,,,,,,,,,,,,,,,,,,,,,,,,,,,,,
null,,black_cross(without_color),577622,blue,,,,,null,US_Cities_List/nat_leesburg.png,US_Cities_List/mm_hanover.png,,,,,,,,,,,,,,,,,,,,,,,,,,,,,,
498.8,,rt_plussign_withcolor,578123,blue,,,,,49,US_Cities_List/nat_leesburg.png,US_Cities_List/mm_hanover.png,,,,,,,,,,,,,,,,,,,,,,,,,,,,,,
null,,rt_thecrossant_black,579344,black_plus_sign,,,,,null,,,0.9625,1,,,,,,,,,,,,,,,,,,,,,,,,,,,,
null,,color_black,579459,black_plus_sign,,,,,null,,,,,,,,,,,,,,,,,,,,,,,,,,,,,,,,
null,,learn_phase(without_color),581977,black_plus_sign,,,,,null,US_Cities_List/nat_shreveport.png,US_Cities_List/mm_cornwall.png,,,,,,,,,,,,,,,,,,,,,,,,,,,,,,
null,,black_cross(without_color),582985,green,,,,,null,US_Cities_List/nat_shreveport.png,US_Cities_List/mm_cornwall.png,,,,,,,,,,,,,,,,,,,,,,,,,,,,,,
null,,rt_plussign_withcolor,583487,green,,,,,null,US_Cities_List/nat_shreveport.png,US_Cities_List/mm_cornwall.png,,,,,,,,,,,,,,,,,,,,,,,,,,,,,,
958.3,,rt_thecrossant_black,584483,black_plus_sign,,,,,50,,,0.962962963,1,,,,,,,,,,,,,,,,,,,,,,,,,,,,
null,,color_black,584584,black_plus_sign,,,,,null,,,,,,,,,,,,,,,,,,,,,,,,,,,,,,,,
null,,learn_phase(without_color),587104,black_plus_sign,,,,,null,US_Cities_List/mm_hotsprings.png,US_Cities_List/nat_peoria.png,,,,,,,,,,,,,,,,,,,,,,,,,,,,,,
null,,black_cross(without_color),587573,blue,,,,,null,US_Cities_List/mm_hotsprings.png,US_Cities_List/nat_peoria.png,,,,,,,,,,,,,,,,,,,,,,,,,,,,,,
null,,rt_plussign_withcolor,588075,blue,,,,,null,US_Cities_List/mm_hotsprings.png,US_Cities_List/nat_peoria.png,,,,,,,,,,,,,,,,,,,,,,,,,,,,,,
1283.8,,rt_thecrossant_black,589610,black_plus_sign,,,,,49,,,0.963414634,1,,,,,,,,,,,,,,,,,,,,,,,,,,,,
null,,color_black,589712,black_plus_sign,,,,,null,,,,,,,,,,,,,,,,,,,,,,,,,,,,,,,,
null,,learn_phase(without_color),592231,black_plus_sign,,,,,null,US_Cities_List/mm_racine.png,US_Cities_List/mm_hotsprings.png,,,,,,,,,,,,,,,,,,,,,,,,,,,,,,
null,,black_cross(without_color),593075,green,,,,,null,US_Cities_List/mm_racine.png,US_Cities_List/mm_hotsprings.png,,,,,,,,,,,,,,,,,,,,,,,,,,,,,,
null,,rt_plussign_withcolor,593577,green,,,,,null,US_Cities_List/mm_racine.png,US_Cities_List/mm_hotsprings.png,,,,,,,,,,,,,,,,,,,,,,,,,,,,,,
616,,rt_thecrossant_black,594735,black_plus_sign,,,,,50,,,0.963855422,1,,,,,,,,,,,,,,,,,,,,,,,,,,,,
null,,color_black,594837,black_plus_sign,,,,,null,,,,,,,,,,,,,,,,,,,,,,,,,,,,,,,,
null,,learn_phase(without_color),597354,black_plus_sign,,,,,null,US_Cities_List/mm_gatlinburg.png,US_Cities_List/nat_leesburg.png,,,,,,,,,,,,,,,,,,,,,,,,,,,,,,
null,,black_cross(without_color),598181,green,,,,,null,US_Cities_List/mm_gatlinburg.png,US_Cities_List/nat_leesburg.png,,,,,,,,,,,,,,,,,,,,,,,,,,,,,,
null,,rt_plussign_withcolor,598683,green,,,,,null,US_Cities_List/mm_gatlinburg.png,US_Cities_List/nat_leesburg.png,,,,,,,,,,,,,,,,,,,,,,,,,,,,,,
1018.5,,rt_thecrossant_black,599859,black_plus_sign,,,,,50,,,0.964285714,1,,,,,,,,,,,,,,,,,,,,,,,,,,,,
null,,color_black,599960,black_plus_sign,,,,,null,,,,,,,,,,,,,,,,,,,,,,,,,,,,,,,,
null,,learn_phase(without_color),602478,black_plus_sign,,,,,null,US_Cities_List/nat_peoria.png,US_Cities_List/nat_shreveport.png,,,,,,,,,,,,,,,,,,,,,,,,,,,,,,
null,,black_cross(without_color),602974,blue,,,,,null,US_Cities_List/nat_peoria.png,US_Cities_List/nat_shreveport.png,,,,,,,,,,,,,,,,,,,,,,,,,,,,,,
null,,rt_plussign_withcolor,603475,blue,,,,,null,US_Cities_List/nat_peoria.png,US_Cities_List/nat_shreveport.png,,,,,,,,,,,,,,,,,,,,,,,,,,,,,,
949.4000001,,rt_thecrossant_black,604983,black_plus_sign,,,,,49,,,0.964705882,1,,,,,,,,,,,,,,,,,,,,,,,,,,,,
null,,color_black,605085,black_plus_sign,,,,,null,,,,,,,,,,,,,,,,,,,,,,,,,,,,,,,,
null,,learn_phase(without_color),607605,black_plus_sign,,,,,null,US_Cities_List/mm_hotsprings.png,US_Cities_List/nat_shreveport.png,,,,,,,,,,,,,,,,,,,,,,,,,,,,,,
null,,black_cross(without_color),608494,green,,,,,null,US_Cities_List/mm_hotsprings.png,US_Cities_List/nat_shreveport.png,,,,,,,,,,,,,,,,,,,,,,,,,,,,,,
null,,rt_plussign_withcolor,608995,green,,,,,null,US_Cities_List/mm_hotsprings.png,US_Cities_List/nat_shreveport.png,,,,,,,,,,,,,,,,,,,,,,,,,,,,,,
820.3,,rt_thecrossant_black,610110,black_plus_sign,,,,,50,,,0.965116279,1,,,,,,,,,,,,,,,,,,,,,,,,,,,,
null,,color_black,610213,black_plus_sign,,,,,null,,,,,,,,,,,,,,,,,,,,,,,,,,,,,,,,
null,,learn_phase(without_color),612731,black_plus_sign,,,,,null,US_Cities_List/mm_hotsprings.png,US_Cities_List/nat_peoria.png,,,,,,,,,,,,,,,,,,,,,,,,,,,,,,
null,,black_cross(without_color),613581,green,,,,,null,US_Cities_List/mm_hotsprings.png,US_Cities_List/nat_peoria.png,,,,,,,,,,,,,,,,,,,,,,,,,,,,,,
null,,rt_plussign_withcolor,614082,green,,,,,null,US_Cities_List/mm_hotsprings.png,US_Cities_List/nat_peoria.png,,,,,,,,,,,,,,,,,,,,,,,,,,,,,,
1035,,rt_thecrossant_black,615237,black_plus_sign,,,,,50,,,0.965517241,1,,,,,,,,,,,,,,,,,,,,,,,,,,,,
null,,color_black,615338,black_plus_sign,,,,,null,,,,,,,,,,,,,,,,,,,,,,,,,,,,,,,,
null,,learn_phase(without_color),617853,black_plus_sign,,,,,null,US_Cities_List/mm_cornwall.png,US_Cities_List/nat_carmel.png,,,,,,,,,,,,,,,,,,,,,,,,,,,,,,
null,,black_cross(without_color),618379,green,,,,,null,US_Cities_List/mm_cornwall.png,US_Cities_List/nat_carmel.png,,,,,,,,,,,,,,,,,,,,,,,,,,,,,,
null,,rt_plussign_withcolor,618881,green,,,,,null,US_Cities_List/mm_cornwall.png,US_Cities_List/nat_carmel.png,,,,,,,,,,,,,,,,,,,,,,,,,,,,,,
950.3,,rt_thecrossant_black,620359,black_plus_sign,,,,,50,,,0.965909091,1,,,,,,,,,,,,,,,,,,,,,,,,,,,,
null,,color_black,620461,black_plus_sign,,,,,null,,,,,,,,,,,,,,,,,,,,,,,,,,,,,,,,
null,,learn_phase(without_color),622980,black_plus_sign,,,,,null,US_Cities_List/mm_hotsprings.png,US_Cities_List/nat_huntsville.png,,,,,,,,,,,,,,,,,,,,,,,,,,,,,,
null,,black_cross(without_color),623707,blue,,,,,null,US_Cities_List/mm_hotsprings.png,US_Cities_List/nat_huntsville.png,,,,,,,,,,,,,,,,,,,,,,,,,,,,,,
null,,rt_plussign_withcolor,624209,blue,,,,,null,US_Cities_List/mm_hotsprings.png,US_Cities_List/nat_huntsville.png,,,,,,,,,,,,,,,,,,,,,,,,,,,,,,
985,,rt_thecrossant_black,625487,black_plus_sign,,,,,49,,,0.966292135,1,,,,,,,,,,,,,,,,,,,,,,,,,,,,
null,,color_black,625589,black_plus_sign,,,,,null,,,,,,,,,,,,,,,,,,,,,,,,,,,,,,,,
null,,learn_phase(without_color),628107,black_plus_sign,,,,,null,US_Cities_List/nat_peoria.png,US_Cities_List/nat_shreveport.png,,,,,,,,,,,,,,,,,,,,,,,,,,,,,,
null,,black_cross(without_color),629067,blue,,,,,null,US_Cities_List/nat_peoria.png,US_Cities_List/nat_shreveport.png,,,,,,,,,,,,,,,,,,,,,,,,,,,,,,
null,,rt_plussign_withcolor,629568,blue,,,,,null,US_Cities_List/nat_peoria.png,US_Cities_List/nat_shreveport.png,,,,,,,,,,,,,,,,,,,,,,,,,,,,,,
995.8,,rt_thecrossant_black,630612,black_plus_sign,,,,,49,,,0.966666667,1,,,,,,,,,,,,,,,,,,,,,,,,,,,,
null,,color_black,630714,black_plus_sign,,,,,null,,,,,,,,,,,,,,,,,,,,,,,,,,,,,,,,
null,,learn_phase(without_color),633234,black_plus_sign,,,,,null,US_Cities_List/mm_gatlinburg.png,US_Cities_List/nat_leesburg.png,,,,,,,,,,,,,,,,,,,,,,,,,,,,,,
null,,black_cross(without_color),633819,green,,,,,null,US_Cities_List/mm_gatlinburg.png,US_Cities_List/nat_leesburg.png,,,,,,,,,,,,,,,,,,,,,,,,,,,,,,
null,,rt_plussign_withcolor,634322,green,,,,,null,US_Cities_List/mm_gatlinburg.png,US_Cities_List/nat_leesburg.png,,,,,,,,,,,,,,,,,,,,,,,,,,,,,,
1265.2,,rt_thecrossant_black,635741,black_plus_sign,,,,,50,,,0.967032967,1,,,,,,,,,,,,,,,,,,,,,,,,,,,,
null,,color_black,635843,black_plus_sign,,,,,null,,,,,,,,,,,,,,,,,,,,,,,,,,,,,,,,
null,,learn_phase(without_color),638360,black_plus_sign,,,,,null,US_Cities_List/nat_peoria.png,US_Cities_List/nat_shreveport.png,,,,,,,,,,,,,,,,,,,,,,,,,,,,,,
null,,black_cross(without_color),638820,green,,,,,null,US_Cities_List/nat_peoria.png,US_Cities_List/nat_shreveport.png,,,,,,,,,,,,,,,,,,,,,,,,,,,,,,
null,,rt_plussign_withcolor,639321,green,,,,,null,US_Cities_List/nat_peoria.png,US_Cities_List/nat_shreveport.png,,,,,,,,,,,,,,,,,,,,,,,,,,,,,,
792.8,,rt_thecrossant_black,640866,black_plus_sign,,,,,50,,,0.967391304,1,,,,,,,,,,,,,,,,,,,,,,,,,,,,
null,,color_black,640967,black_plus_sign,,,,,null,,,,,,,,,,,,,,,,,,,,,,,,,,,,,,,,
null,,learn_phase(without_color),643485,black_plus_sign,,,,,null,US_Cities_List/mm_newhope.png,US_Cities_List/mm_gatlinburg.png,,,,,,,,,,,,,,,,,,,,,,,,,,,,,,
null,,black_cross(without_color),643980,green,,,,,null,US_Cities_List/mm_newhope.png,US_Cities_List/mm_gatlinburg.png,,,,,,,,,,,,,,,,,,,,,,,,,,,,,,
null,,rt_plussign_withcolor,644482,green,,,,,null,US_Cities_List/mm_newhope.png,US_Cities_List/mm_gatlinburg.png,,,,,,,,,,,,,,,,,,,,,,,,,,,,,,
653.3,,rt_thecrossant_black,645991,black_plus_sign,,,,,50,,,0.967741935,1,,,,,,,,,,,,,,,,,,,,,,,,,,,,
null,,color_black,646094,black_plus_sign,,,,,null,,,,,,,,,,,,,,,,,,,,,,,,,,,,,,,,
null,,learn_phase(without_color),648611,black_plus_sign,,,,,null,US_Cities_List/mm_gatlinburg.png,US_Cities_List/nat_leesburg.png,,,,,,,,,,,,,,,,,,,,,,,,,,,,,,
null,,black_cross(without_color),649151,green,,,,,null,US_Cities_List/mm_gatlinburg.png,US_Cities_List/nat_leesburg.png,,,,,,,,,,,,,,,,,,,,,,,,,,,,,,
null,,rt_plussign_withcolor,649653,green,,,,,null,US_Cities_List/mm_gatlinburg.png,US_Cities_List/nat_leesburg.png,,,,,,,,,,,,,,,,,,,,,,,,,,,,,,
593.3,,rt_thecrossant_black,651118,black_plus_sign,,,,,50,,,0.968085106,1,,,,,,,,,,,,,,,,,,,,,,,,,,,,
null,,color_black,651220,black_plus_sign,,,,,null,,,,,,,,,,,,,,,,,,,,,,,,,,,,,,,,
null,,learn_phase(without_color),653736,black_plus_sign,,,,,null,US_Cities_List/mm_gatlinburg.png,US_Cities_List/nat_boulder.png,,,,,,,,,,,,,,,,,,,,,,,,,,,,,,
null,,black_cross(without_color),654782,blue,,,,,null,US_Cities_List/mm_gatlinburg.png,US_Cities_List/nat_boulder.png,,,,,,,,,,,,,,,,,,,,,,,,,,,,,,
null,,rt_plussign_withcolor,655283,blue,,,,,null,US_Cities_List/mm_gatlinburg.png,US_Cities_List/nat_boulder.png,,,,,,,,,,,,,,,,,,,,,,,,,,,,,,
834.6000001,,rt_thecrossant_black,656242,black_plus_sign,,,,,49,,,0.968421053,1,,,,,,,,,,,,,,,,,,,,,,,,,,,,
null,,color_black,656345,black_plus_sign,,,,,null,,,,,,,,,,,,,,,,,,,,,,,,,,,,,,,,
null,,learn_phase(without_color),658863,black_plus_sign,,,,,null,US_Cities_List/mm_racine.png,US_Cities_List/mm_hotsprings.png,,,,,,,,,,,,,,,,,,,,,,,,,,,,,,
null,,black_cross(without_color),659817,blue,,,,,null,US_Cities_List/mm_racine.png,US_Cities_List/mm_hotsprings.png,,,,,,,,,,,,,,,,,,,,,,,,,,,,,,
null,,rt_plussign_withcolor,660319,blue,,,,,null,US_Cities_List/mm_racine.png,US_Cities_List/mm_hotsprings.png,,,,,,,,,,,,,,,,,,,,,,,,,,,,,,
1267,,rt_thecrossant_black,661370,black_plus_sign,,,,,49,,,0.96875,1,,,,,,,,,,,,,,,,,,,,,,,,,,,,
null,,color_black,661472,black_plus_sign,,,,,null,,,,,,,,,,,,,,,,,,,,,,,,,,,,,,,,
null,,learn_phase(without_color),663993,black_plus_sign,,,,,null,US_Cities_List/mm_hotsprings.png,US_Cities_List/nat_shreveport.png,,,,,,,,,,,,,,,,,,,,,,,,,,,,,,
null,,black_cross(without_color),665089,green,,,,,null,US_Cities_List/mm_hotsprings.png,US_Cities_List/nat_shreveport.png,,,,,,,,,,,,,,,,,,,,,,,,,,,,,,
null,,rt_plussign_withcolor,665591,green,,,,,null,US_Cities_List/mm_hotsprings.png,US_Cities_List/nat_shreveport.png,,,,,,,,,,,,,,,,,,,,,,,,,,,,,,
1203.1,,rt_thecrossant_black,666499,black_plus_sign,,,,,50,,,0.969072165,1,,,,,,,,,,,,,,,,,,,,,,,,,,,,
null,,color_black,666601,black_plus_sign,,,,,null,,,,,,,,,,,,,,,,,,,,,,,,,,,,,,,,
null,,learn_phase(without_color),669116,black_plus_sign,,,,,null,US_Cities_List/mm_cornwall.png,US_Cities_List/nat_carmel.png,,,,,,,,,,,,,,,,,,,,,,,,,,,,,,
null,,black_cross(without_color),669548,blue,,,,,null,US_Cities_List/mm_cornwall.png,US_Cities_List/nat_carmel.png,,,,,,,,,,,,,,,,,,,,,,,,,,,,,,
null,,rt_plussign_withcolor,670050,blue,,,,,null,US_Cities_List/mm_cornwall.png,US_Cities_List/nat_carmel.png,,,,,,,,,,,,,,,,,,,,,,,,,,,,,,
1309.8,,rt_thecrossant_black,671622,black_plus_sign,,,,,49,,,0.969387755,1,,,,,,,,,,,,,,,,,,,,,,,,,,,,
null,,color_black,671725,black_plus_sign,,,,,null,,,,,,,,,,,,,,,,,,,,,,,,,,,,,,,,
null,,learn_phase(without_color),674244,black_plus_sign,,,,,null,US_Cities_List/nat_boulder.png,US_Cities_List/mm_racine.png,,,,,,,,,,,,,,,,,,,,,,,,,,,,,,
null,,black_cross(without_color),674860,blue,,,,,null,US_Cities_List/nat_boulder.png,US_Cities_List/mm_racine.png,,,,,,,,,,,,,,,,,,,,,,,,,,,,,,
null,,rt_plussign_withcolor,675362,blue,,,,,null,US_Cities_List/nat_boulder.png,US_Cities_List/mm_racine.png,,,,,,,,,,,,,,,,,,,,,,,,,,,,,,
578.8999999,,rt_thecrossant_black,676750,black_plus_sign,,,,,49,,,0.96969697,1,,,,,,,,,,,,,,,,,,,,,,,,,,,,
null,,color_black,676854,black_plus_sign,,,,,null,,,,,,,,,,,,,,,,,,,,,,,,,,,,,,,,
null,,learn_phase(without_color),679372,black_plus_sign,,,,,null,US_Cities_List/mm_cornwall.png,US_Cities_List/nat_carmel.png,,,,,,,,,,,,,,,,,,,,,,,,,,,,,,
null,,black_cross(without_color),680394,green,,,,,null,US_Cities_List/mm_cornwall.png,US_Cities_List/nat_carmel.png,,,,,,,,,,,,,,,,,,,,,,,,,,,,,,
null,,rt_plussign_withcolor,680896,green,,,,,null,US_Cities_List/mm_cornwall.png,US_Cities_List/nat_carmel.png,,,,,,,,,,,,,,,,,,,,,,,,,,,,,,
766,,rt_thecrossant_black,681878,black_plus_sign,,,,,50,,,0.97,1,,,,,,,,,,,,,,,,,,,,,,,,,,,,
null,,color_black,681981,black_plus_sign,,,,,null,,,,,,,,,,,,,,,,,,,,,,,,,,,,,,,,
null,,learn_phase(without_color),684500,black_plus_sign,,,,,null,US_Cities_List/mm_gatlinburg.png,US_Cities_List/nat_boulder.png,,,,,,,,,,,,,,,,,,,,,,,,,,,,,,
null,,black_cross(without_color),684992,green,,,,,null,US_Cities_List/mm_gatlinburg.png,US_Cities_List/nat_boulder.png,,,,,,,,,,,,,,,,,,,,,,,,,,,,,,
null,,rt_plussign_withcolor,685494,green,,,,,null,US_Cities_List/mm_gatlinburg.png,US_Cities_List/nat_boulder.png,,,,,,,,,,,,,,,,,,,,,,,,,,,,,,
1276,,rt_thecrossant_black,687005,black_plus_sign,,,,,50,,,0.97029703,1,,,,,,,,,,,,,,,,,,,,,,,,,,,,
null,,color_black,687106,black_plus_sign,,,,,null,,,,,,,,,,,,,,,,,,,,,,,,,,,,,,,,
null,,learn_phase(without_color),689622,black_plus_sign,,,,,null,US_Cities_List/nat_boulder.png,US_Cities_List/mm_racine.png,,,,,,,,,,,,,,,,,,,,,,,,,,,,,,
null,,black_cross(without_color),690051,blue,,,,,null,US_Cities_List/nat_boulder.png,US_Cities_List/mm_racine.png,,,,,,,,,,,,,,,,,,,,,,,,,,,,,,
null,,rt_plussign_withcolor,690553,blue,,,,,null,US_Cities_List/nat_boulder.png,US_Cities_List/mm_racine.png,,,,,,,,,,,,,,,,,,,,,,,,,,,,,,
821.5,,rt_thecrossant_black,692128,black_plus_sign,,,,,49,,,0.970588235,1,,,,,,,,,,,,,,,,,,,,,,,,,,,,
null,,color_black,692230,black_plus_sign,,,,,null,,,,,,,,,,,,,,,,,,,,,,,,,,,,,,,,
null,,learn_phase(without_color),694745,black_plus_sign,,,,,null,US_Cities_List/nat_peoria.png,US_Cities_List/nat_shreveport.png,,,,,,,,,,,,,,,,,,,,,,,,,,,,,,
null,,black_cross(without_color),695560,green,,,,,null,US_Cities_List/nat_peoria.png,US_Cities_List/nat_shreveport.png,,,,,,,,,,,,,,,,,,,,,,,,,,,,,,
null,,rt_plussign_withcolor,696061,green,,,,,null,US_Cities_List/nat_peoria.png,US_Cities_List/nat_shreveport.png,,,,,,,,,,,,,,,,,,,,,,,,,,,,,,
570.5,,rt_thecrossant_black,697249,black_plus_sign,,,,,50,,,0.970873786,1,,,,,,,,,,,,,,,,,,,,,,,,,,,,
null,,color_black,697352,black_plus_sign,,,,,null,,,,,,,,,,,,,,,,,,,,,,,,,,,,,,,,
null,,learn_phase(without_color),699865,black_plus_sign,,,,,null,US_Cities_List/mm_cornwall.png,US_Cities_List/nat_carmel.png,,,,,,,,,,,,,,,,,,,,,,,,,,,,,,
null,,black_cross(without_color),700605,blue,,,,,null,US_Cities_List/mm_cornwall.png,US_Cities_List/nat_carmel.png,,,,,,,,,,,,,,,,,,,,,,,,,,,,,,
472.8,,rt_plussign_withcolor,701106,blue,,,,,49,US_Cities_List/mm_cornwall.png,US_Cities_List/nat_carmel.png,,,,,,,,,,,,,,,,,,,,,,,,,,,,,,
null,,rt_thecrossant_black,702372,black_plus_sign,,,,,null,,,0.971153846,1,,,,,,,,,,,,,,,,,,,,,,,,,,,,
null,,color_black,702474,black_plus_sign,,,,,null,,,,,,,,,,,,,,,,,,,,,,,,,,,,,,,,
null,,learn_phase(without_color),704992,black_plus_sign,,,,,null,US_Cities_List/nat_peoria.png,US_Cities_List/mm_westpalmbeach.png,,,,,,,,,,,,,,,,,,,,,,,,,,,,,,
null,,black_cross(without_color),705729,green,,,,,null,US_Cities_List/nat_peoria.png,US_Cities_List/mm_westpalmbeach.png,,,,,,,,,,,,,,,,,,,,,,,,,,,,,,
null,,rt_plussign_withcolor,706231,green,,,,,null,US_Cities_List/nat_peoria.png,US_Cities_List/mm_westpalmbeach.png,,,,,,,,,,,,,,,,,,,,,,,,,,,,,,
886.5,,rt_thecrossant_black,707498,black_plus_sign,,,,,50,,,0.971428571,1,,,,,,,,,,,,,,,,,,,,,,,,,,,,
null,,color_black,707600,black_plus_sign,,,,,null,,,,,,,,,,,,,,,,,,,,,,,,,,,,,,,,
null,,learn_phase(without_color),710114,black_plus_sign,,,,,null,US_Cities_List/mm_gatlinburg.png,US_Cities_List/nat_leesburg.png,,,,,,,,,,,,,,,,,,,,,,,,,,,,,,
null,,black_cross(without_color),710947,blue,,,,,null,US_Cities_List/mm_gatlinburg.png,US_Cities_List/nat_leesburg.png,,,,,,,,,,,,,,,,,,,,,,,,,,,,,,
null,,rt_plussign_withcolor,711449,blue,,,,,null,US_Cities_List/mm_gatlinburg.png,US_Cities_List/nat_leesburg.png,,,,,,,,,,,,,,,,,,,,,,,,,,,,,,
912,,rt_thecrossant_black,712620,black_plus_sign,,,,,49,,,0.971698113,1,,,,,,,,,,,,,,,,,,,,,,,,,,,,
null,,color_black,712722,black_plus_sign,,,,,null,,,,,,,,,,,,,,,,,,,,,,,,,,,,,,,,
null,,learn_phase(without_color),715243,black_plus_sign,,,,,null,US_Cities_List/mm_cornwall.png,US_Cities_List/nat_carmel.png,,,,,,,,,,,,,,,,,,,,,,,,,,,,,,
null,,black_cross(without_color),716204,green,,,,,null,US_Cities_List/mm_cornwall.png,US_Cities_List/nat_carmel.png,,,,,,,,,,,,,,,,,,,,,,,,,,,,,,
null,,rt_plussign_withcolor,716707,green,,,,,null,US_Cities_List/mm_cornwall.png,US_Cities_List/nat_carmel.png,,,,,,,,,,,,,,,,,,,,,,,,,,,,,,
1018.2,,rt_thecrossant_black,717749,black_plus_sign,,,,,50,,,0.971962617,1,,,,,,,,,,,,,,,,,,,,,,,,,,,,
null,,color_black,717851,black_plus_sign,,,,,null,,,,,,,,,,,,,,,,,,,,,,,,,,,,,,,,
null,,learn_phase(without_color),720368,black_plus_sign,,,,,null,US_Cities_List/mm_newhope.png,US_Cities_List/mm_gatlinburg.png,,,,,,,,,,,,,,,,,,,,,,,,,,,,,,
null,,black_cross(without_color),721174,blue,,,,,null,US_Cities_List/mm_newhope.png,US_Cities_List/mm_gatlinburg.png,,,,,,,,,,,,,,,,,,,,,,,,,,,,,,
414.0999999,,rt_plussign_withcolor,721676,blue,,,,,49,US_Cities_List/mm_newhope.png,US_Cities_List/mm_gatlinburg.png,,,,,,,,,,,,,,,,,,,,,,,,,,,,,,
null,,rt_thecrossant_black,722873,black_plus_sign,,,,,null,,,0.972222222,1,,,,,,,,,,,,,,,,,,,,,,,,,,,,
null,,color_black,722982,black_plus_sign,,,,,null,,,,,,,,,,,,,,,,,,,,,,,,,,,,,,,,
null,,learn_phase(without_color),725498,black_plus_sign,,,,,null,US_Cities_List/mm_hotsprings.png,US_Cities_List/nat_huntsville.png,,,,,,,,,,,,,,,,,,,,,,,,,,,,,,
null,,black_cross(without_color),726495,green,,,,,null,US_Cities_List/mm_hotsprings.png,US_Cities_List/nat_huntsville.png,,,,,,,,,,,,,,,,,,,,,,,,,,,,,,
null,,rt_plussign_withcolor,726997,green,,,,,null,US_Cities_List/mm_hotsprings.png,US_Cities_List/nat_huntsville.png,,,,,,,,,,,,,,,,,,,,,,,,,,,,,,
1094.7,,rt_thecrossant_black,728005,black_plus_sign,,,,,50,,,0.972477064,1,,,,,,,,,,,,,,,,,,,,,,,,,,,,
null,,color_black,728107,black_plus_sign,,,,,null,,,,,,,,,,,,,,,,,,,,,,,,,,,,,,,,
null,,learn_phase(without_color),730631,black_plus_sign,,,,,null,US_Cities_List/nat_peoria.png,US_Cities_List/nat_shreveport.png,,,,,,,,,,,,,,,,,,,,,,,,,,,,,,
null,,black_cross(without_color),731507,blue,,,,,null,US_Cities_List/nat_peoria.png,US_Cities_List/nat_shreveport.png,,,,,,,,,,,,,,,,,,,,,,,,,,,,,,
472.1000001,,rt_plussign_withcolor,732009,blue,,,,,49,US_Cities_List/nat_peoria.png,US_Cities_List/nat_shreveport.png,,,,,,,,,,,,,,,,,,,,,,,,,,,,,,
null,,rt_thecrossant_black,733138,black_plus_sign,,,,,null,,,0.972727273,1,,,,,,,,,,,,,,,,,,,,,,,,,,,,
null,,color_black,733241,black_plus_sign,,,,,null,,,,,,,,,,,,,,,,,,,,,,,,,,,,,,,,
null,,learn_phase(without_color),735765,black_plus_sign,,,,,null,US_Cities_List/mm_hotsprings.png,US_Cities_List/nat_huntsville.png,,,,,,,,,,,,,,,,,,,,,,,,,,,,,,
null,,black_cross(without_color),736258,blue,,,,,null,US_Cities_List/mm_hotsprings.png,US_Cities_List/nat_huntsville.png,,,,,,,,,,,,,,,,,,,,,,,,,,,,,,
500.8,,rt_plussign_withcolor,736760,blue,,,,,49,US_Cities_List/mm_hotsprings.png,US_Cities_List/nat_huntsville.png,,,,,,,,,,,,,,,,,,,,,,,,,,,,,,
null,,rt_thecrossant_black,738272,black_plus_sign,,,,,null,,,0.972972973,1,,,,,,,,,,,,,,,,,,,,,,,,,,,,
null,,color_black,738375,black_plus_sign,,,,,null,,,,,,,,,,,,,,,,,,,,,,,,,,,,,,,,
null,,learn_phase(without_color),740899,black_plus_sign,,,,,null,US_Cities_List/nat_shreveport.png,US_Cities_List/mm_cornwall.png,,,,,,,,,,,,,,,,,,,,,,,,,,,,,,
null,,black_cross(without_color),741677,green,,,,,null,US_Cities_List/nat_shreveport.png,US_Cities_List/mm_cornwall.png,,,,,,,,,,,,,,,,,,,,,,,,,,,,,,
null,,rt_plussign_withcolor,742179,green,,,,,null,US_Cities_List/nat_shreveport.png,US_Cities_List/mm_cornwall.png,,,,,,,,,,,,,,,,,,,,,,,,,,,,,,
789.8999999,,rt_thecrossant_black,743407,black_plus_sign,,,,,50,,,0.973214286,1,,,,,,,,,,,,,,,,,,,,,,,,,,,,
null,,color_black,743508,black_plus_sign,,,,,null,,,,,,,,,,,,,,,,,,,,,,,,,,,,,,,,
null,,learn_phase(without_color),746019,black_plus_sign,,,,,null,US_Cities_List/nat_leesburg.png,US_Cities_List/mm_hanover.png,,,,,,,,,,,,,,,,,,,,,,,,,,,,,,
null,,black_cross(without_color),746669,blue,,,,,null,US_Cities_List/nat_leesburg.png,US_Cities_List/mm_hanover.png,,,,,,,,,,,,,,,,,,,,,,,,,,,,,,
425.5,,rt_plussign_withcolor,747171,blue,,,,,49,US_Cities_List/nat_leesburg.png,US_Cities_List/mm_hanover.png,,,,,,,,,,,,,,,,,,,,,,,,,,,,,,
null,,rt_thecrossant_black,748526,black_plus_sign,,,,,null,,,0.973451327,1,,,,,,,,,,,,,,,,,,,,,,,,,,,,
null,,color_black,748627,black_plus_sign,,,,,null,,,,,,,,,,,,,,,,,,,,,,,,,,,,,,,,
null,,learn_phase(without_color),751142,black_plus_sign,,,,,null,US_Cities_List/mm_hotsprings.png,US_Cities_List/nat_huntsville.png,,,,,,,,,,,,,,,,,,,,,,,,,,,,,,
null,,black_cross(without_color),752071,blue,,,,,null,US_Cities_List/mm_hotsprings.png,US_Cities_List/nat_huntsville.png,,,,,,,,,,,,,,,,,,,,,,,,,,,,,,
null,,rt_plussign_withcolor,752587,blue,,,,,null,US_Cities_List/mm_hotsprings.png,US_Cities_List/nat_huntsville.png,,,,,,,,,,,,,,,,,,,,,,,,,,,,,,
760.7,,rt_thecrossant_black,753662,black_plus_sign,,,,,49,,,0.973684211,1,,,,,,,,,,,,,,,,,,,,,,,,,,,,
null,,color_black,753764,black_plus_sign,,,,,null,,,,,,,,,,,,,,,,,,,,,,,,,,,,,,,,
null,,learn_phase(without_color),756281,black_plus_sign,,,,,null,US_Cities_List/nat_peoria.png,US_Cities_List/mm_westpalmbeach.png,,,,,,,,,,,,,,,,,,,,,,,,,,,,,,
null,,black_cross(without_color),757335,green,,,,,null,US_Cities_List/nat_peoria.png,US_Cities_List/mm_westpalmbeach.png,,,,,,,,,,,,,,,,,,,,,,,,,,,,,,
null,,rt_plussign_withcolor,757837,green,,,,,null,US_Cities_List/nat_peoria.png,US_Cities_List/mm_westpalmbeach.png,,,,,,,,,,,,,,,,,,,,,,,,,,,,,,
1035.2,,rt_thecrossant_black,758787,black_plus_sign,,,,,50,,,0.973913043,1,,,,,,,,,,,,,,,,,,,,,,,,,,,,
null,,color_black,758889,black_plus_sign,,,,,null,,,,,,,,,,,,,,,,,,,,,,,,,,,,,,,,
null,,learn_phase(without_color),761410,black_plus_sign,,,,,null,US_Cities_List/mm_hotsprings.png,US_Cities_List/nat_huntsville.png,,,,,,,,,,,,,,,,,,,,,,,,,,,,,,
null,,black_cross(without_color),762450,green,,,,,null,US_Cities_List/mm_hotsprings.png,US_Cities_List/nat_huntsville.png,,,,,,,,,,,,,,,,,,,,,,,,,,,,,,
null,,rt_plussign_withcolor,762951,green,,,,,null,US_Cities_List/mm_hotsprings.png,US_Cities_List/nat_huntsville.png,,,,,,,,,,,,,,,,,,,,,,,,,,,,,,
1171.2,,rt_thecrossant_black,763915,black_plus_sign,,,,,50,,,0.974137931,1,,,,,,,,,,,,,,,,,,,,,,,,,,,,
null,,color_black,764018,black_plus_sign,,,,,null,,,,,,,,,,,,,,,,,,,,,,,,,,,,,,,,
null,,learn_phase(without_color),766537,black_plus_sign,,,,,null,US_Cities_List/mm_racine.png,US_Cities_List/mm_hotsprings.png,,,,,,,,,,,,,,,,,,,,,,,,,,,,,,
null,,black_cross(without_color),767244,blue,,,,,null,US_Cities_List/mm_racine.png,US_Cities_List/mm_hotsprings.png,,,,,,,,,,,,,,,,,,,,,,,,,,,,,,
null,,rt_plussign_withcolor,767747,blue,,,,,null,US_Cities_List/mm_racine.png,US_Cities_List/mm_hotsprings.png,,,,,,,,,,,,,,,,,,,,,,,,,,,,,,
1138.1,,rt_thecrossant_black,769044,black_plus_sign,,,,,49,,,0.974358974,1,,,,,,,,,,,,,,,,,,,,,,,,,,,,
null,,color_black,769147,black_plus_sign,,,,,null,,,,,,,,,,,,,,,,,,,,,,,,,,,,,,,,
null,,learn_phase(without_color),771667,black_plus_sign,,,,,null,US_Cities_List/nat_leesburg.png,US_Cities_List/nat_carmel.png,,,,,,,,,,,,,,,,,,,,,,,,,,,,,,
null,,black_cross(without_color),772308,green,,,,,null,US_Cities_List/nat_leesburg.png,US_Cities_List/nat_carmel.png,,,,,,,,,,,,,,,,,,,,,,,,,,,,,,
null,,rt_plussign_withcolor,772810,green,,,,,null,US_Cities_List/nat_leesburg.png,US_Cities_List/nat_carmel.png,,,,,,,,,,,,,,,,,,,,,,,,,,,,,,
891.3,,rt_thecrossant_black,774173,black_plus_sign,,,,,50,,,0.974576271,1,,,,,,,,,,,,,,,,,,,,,,,,,,,,
null,,color_black,774275,black_plus_sign,,,,,null,,,,,,,,,,,,,,,,,,,,,,,,,,,,,,,,
null,,learn_phase(without_color),776791,black_plus_sign,,,,,null,US_Cities_List/mm_gatlinburg.png,US_Cities_List/nat_boulder.png,,,,,,,,,,,,,,,,,,,,,,,,,,,,,,
null,,black_cross(without_color),777477,blue,,,,,null,US_Cities_List/mm_gatlinburg.png,US_Cities_List/nat_boulder.png,,,,,,,,,,,,,,,,,,,,,,,,,,,,,,
null,,rt_plussign_withcolor,777979,blue,,,,,null,US_Cities_List/mm_gatlinburg.png,US_Cities_List/nat_boulder.png,,,,,,,,,,,,,,,,,,,,,,,,,,,,,,
770.5,,rt_thecrossant_black,779296,black_plus_sign,,,,,49,,,0.974789916,1,,,,,,,,,,,,,,,,,,,,,,,,,,,,
null,,color_black,779398,black_plus_sign,,,,,null,,,,,,,,,,,,,,,,,,,,,,,,,,,,,,,,
null,,learn_phase(without_color),781935,black_plus_sign,,,,,null,US_Cities_List/mm_hotsprings.png,US_Cities_List/nat_huntsville.png,,,,,,,,,,,,,,,,,,,,,,,,,,,,,,
null,,black_cross(without_color),782808,green,,,,,null,US_Cities_List/mm_hotsprings.png,US_Cities_List/nat_huntsville.png,,,,,,,,,,,,,,,,,,,,,,,,,,,,,,
null,,rt_plussign_withcolor,783309,green,,,,,null,US_Cities_List/mm_hotsprings.png,US_Cities_List/nat_huntsville.png,,,,,,,,,,,,,,,,,,,,,,,,,,,,,,
870.7,,rt_thecrossant_black,784440,black_plus_sign,,,,,50,,,0.975,1,,,,,,,,,,,,,,,,,,,,,,,,,,,,
null,,color_black,784542,black_plus_sign,,,,,null,,,,,,,,,,,,,,,,,,,,,,,,,,,,,,,,
null,,learn_phase(without_color),787068,black_plus_sign,,,,,null,US_Cities_List/nat_peoria.png,US_Cities_List/mm_westpalmbeach.png,,,,,,,,,,,,,,,,,,,,,,,,,,,,,,
null,,black_cross(without_color),787641,green,,,,,null,US_Cities_List/nat_peoria.png,US_Cities_List/mm_westpalmbeach.png,,,,,,,,,,,,,,,,,,,,,,,,,,,,,,
486.8,,rt_plussign_withcolor,788143,green,,,,,50,US_Cities_List/nat_peoria.png,US_Cities_List/mm_westpalmbeach.png,,,,,,,,,,,,,,,,,,,,,,,,,,,,,,
null,,rt_thecrossant_black,789576,black_plus_sign,,,,,null,,,0.975206612,1,,,,,,,,,,,,,,,,,,,,,,,,,,,,
null,,color_black,789678,black_plus_sign,,,,,null,,,,,,,,,,,,,,,,,,,,,,,,,,,,,,,,
null,,learn_phase(without_color),792195,black_plus_sign,,,,,null,US_Cities_List/mm_racine.png,US_Cities_List/nat_shreveport.png,,,,,,,,,,,,,,,,,,,,,,,,,,,,,,
null,,black_cross(without_color),792650,green,,,,,null,US_Cities_List/mm_racine.png,US_Cities_List/nat_shreveport.png,,,,,,,,,,,,,,,,,,,,,,,,,,,,,,
null,,rt_plussign_withcolor,793151,green,,,,,null,US_Cities_List/mm_racine.png,US_Cities_List/nat_shreveport.png,,,,,,,,,,,,,,,,,,,,,,,,,,,,,,
947.7,,rt_thecrossant_black,794700,black_plus_sign,,,,,50,,,0.975409836,1,,,,,,,,,,,,,,,,,,,,,,,,,,,,
null,,color_black,794803,black_plus_sign,,,,,null,,,,,,,,,,,,,,,,,,,,,,,,,,,,,,,,
null,,learn_phase(without_color),797319,black_plus_sign,,,,,null,US_Cities_List/nat_shreveport.png,US_Cities_List/mm_cornwall.png,,,,,,,,,,,,,,,,,,,,,,,,,,,,,,
null,,black_cross(without_color),797913,green,,,,,null,US_Cities_List/nat_shreveport.png,US_Cities_List/mm_cornwall.png,,,,,,,,,,,,,,,,,,,,,,,,,,,,,,
null,,rt_plussign_withcolor,798415,green,,,,,null,US_Cities_List/nat_shreveport.png,US_Cities_List/mm_cornwall.png,,,,,,,,,,,,,,,,,,,,,,,,,,,,,,
597.5,,rt_thecrossant_black,799826,black_plus_sign,,,,,50,,,0.975609756,1,,,,,,,,,,,,,,,,,,,,,,,,,,,,
null,,color_black,799928,black_plus_sign,,,,,null,,,,,,,,,,,,,,,,,,,,,,,,,,,,,,,,
null,,learn_phase(without_color),802453,black_plus_sign,,,,,null,US_Cities_List/nat_leesburg.png,US_Cities_List/nat_carmel.png,,,,,,,,,,,,,,,,,,,,,,,,,,,,,,
null,,black_cross(without_color),802905,green,,,,,null,US_Cities_List/nat_leesburg.png,US_Cities_List/nat_carmel.png,,,,,,,,,,,,,,,,,,,,,,,,,,,,,,
483.9000001,,rt_plussign_withcolor,803408,green,,,,,50,US_Cities_List/nat_leesburg.png,US_Cities_List/nat_carmel.png,,,,,,,,,,,,,,,,,,,,,,,,,,,,,,
null,,rt_thecrossant_black,804960,black_plus_sign,,,,,null,,,0.975806452,1,,,,,,,,,,,,,,,,,,,,,,,,,,,,
null,,color_black,805062,black_plus_sign,,,,,null,,,,,,,,,,,,,,,,,,,,,,,,,,,,,,,,
null,,learn_phase(without_color),807574,black_plus_sign,,,,,null,US_Cities_List/nat_boulder.png,US_Cities_List/mm_racine.png,,,,,,,,,,,,,,,,,,,,,,,,,,,,,,
null,,black_cross(without_color),808438,blue,,,,,null,US_Cities_List/nat_boulder.png,US_Cities_List/mm_racine.png,,,,,,,,,,,,,,,,,,,,,,,,,,,,,,
null,,rt_plussign_withcolor,808940,blue,,,,,null,US_Cities_List/nat_boulder.png,US_Cities_List/mm_racine.png,,,,,,,,,,,,,,,,,,,,,,,,,,,,,,
614.2,,rt_thecrossant_black,810080,black_plus_sign,,,,,49,,,0.976,1,,,,,,,,,,,,,,,,,,,,,,,,,,,,
null,,color_black,810183,black_plus_sign,,,,,null,,,,,,,,,,,,,,,,,,,,,,,,,,,,,,,,
null,,learn_phase(without_color),812701,black_plus_sign,,,,,null,US_Cities_List/mm_racine.png,US_Cities_List/mm_hotsprings.png,,,,,,,,,,,,,,,,,,,,,,,,,,,,,,
null,,black_cross(without_color),813694,blue,,,,,null,US_Cities_List/mm_racine.png,US_Cities_List/mm_hotsprings.png,,,,,,,,,,,,,,,,,,,,,,,,,,,,,,
null,,rt_plussign_withcolor,814197,blue,,,,,null,US_Cities_List/mm_racine.png,US_Cities_List/mm_hotsprings.png,,,,,,,,,,,,,,,,,,,,,,,,,,,,,,
1188.8,,rt_thecrossant_black,815208,black_plus_sign,,,,,49,,,0.976190476,1,,,,,,,,,,,,,,,,,,,,,,,,,,,,
null,,color_black,815309,black_plus_sign,,,,,null,,,,,,,,,,,,,,,,,,,,,,,,,,,,,,,,
null,,learn_phase(without_color),817829,black_plus_sign,,,,,null,US_Cities_List/mm_hotsprings.png,US_Cities_List/nat_huntsville.png,,,,,,,,,,,,,,,,,,,,,,,,,,,,,,
null,,black_cross(without_color),818477,blue,,,,,null,US_Cities_List/mm_hotsprings.png,US_Cities_List/nat_huntsville.png,,,,,,,,,,,,,,,,,,,,,,,,,,,,,,
null,,rt_plussign_withcolor,818979,blue,,,,,null,US_Cities_List/mm_hotsprings.png,US_Cities_List/nat_huntsville.png,,,,,,,,,,,,,,,,,,,,,,,,,,,,,,
1160.4,,rt_thecrossant_black,820336,black_plus_sign,,,,,49,,,0.976377953,1,,,,,,,,,,,,,,,,,,,,,,,,,,,,
null,,color_black,820438,black_plus_sign,,,,,null,,,,,,,,,,,,,,,,,,,,,,,,,,,,,,,,
13902.7,,intro_1,834343,instruct,,,0,,,,,,,,,,,,,,,,,,,,,,,,,,,,,,,,,,
12283.5,,intro_2,846628,instruct,,,1,Next,,,,,,,,,,,,,,,,,,,,,,,,,,,,,,,,,
4484.8,,directmemory_phase,851135,../static/images/US_Cities_List/nat_peoria.png,,,,,51,,,1,1,../static/images/US_Cities_List/nat_leesburg.png,../static/images/US_Cities_List/mm_cornwall.png,../static/images/US_Cities_List/nat_shreveport.png,../static/images/US_Cities_List/nat_shreveport.png,../static/images/US_Cities_List/mm_cornwall.png,../static/images/US_Cities_List/nat_leesburg.png,1,,,,,,,,,,,,,,,,,,,,,
null,,html-keyboard-response,852140,<p></p>,,,,,null,,,,,,,,,,,,,,,,,,,,,,,,,,,,,,,,
5442.6,,directmemory_phase,857609,../static/images/US_Cities_List/nat_leesburg.png,,,,,51,,,1,1,../static/images/US_Cities_List/mm_racine.png,../static/images/US_Cities_List/nat_boulder.png,../static/images/US_Cities_List/mm_gatlinburg.png,../static/images/US_Cities_List/mm_gatlinburg.png,../static/images/US_Cities_List/nat_boulder.png,../static/images/US_Cities_List/mm_racine.png,1,,,,,,,,,,,,,,,,,,,,,
null,,html-keyboard-response,858615,<p></p>,,,,,null,,,,,,,,,,,,,,,,,,,,,,,,,,,,,,,,
2522.5,,directmemory_phase,861167,../static/images/US_Cities_List/mm_westpalmbeach.png,,,,,50,,,1,1,../static/images/US_Cities_List/mm_hotsprings.png,../static/images/US_Cities_List/nat_peoria.png,../static/images/US_Cities_List/nat_boulder.png,../static/images/US_Cities_List/nat_peoria.png,../static/images/US_Cities_List/mm_hotsprings.png,../static/images/US_Cities_List/nat_boulder.png,1,,,,,,,,,,,,,,,,,,,,,
null,,html-keyboard-response,862172,<p></p>,,,,,null,,,,,,,,,,,,,,,,,,,,,,,,,,,,,,,,
1930.5,,directmemory_phase,864130,../static/images/US_Cities_List/nat_leesburg.png,,,,,51,,,1,1,../static/images/US_Cities_List/nat_peoria.png,../static/images/US_Cities_List/nat_boulder.png,../static/images/US_Cities_List/nat_carmel.png,../static/images/US_Cities_List/nat_carmel.png,../static/images/US_Cities_List/nat_boulder.png,../static/images/US_Cities_List/nat_peoria.png,1,,,,,,,,,,,,,,,,,,,,,
null,,html-keyboard-response,865134,<p></p>,,,,,null,,,,,,,,,,,,,,,,,,,,,,,,,,,,,,,,
1575.1,,directmemory_phase,866742,../static/images/US_Cities_List/nat_huntsville.png,,,,,49,,,1,1,../static/images/US_Cities_List/mm_hotsprings.png,../static/images/US_Cities_List/nat_boulder.png,../static/images/US_Cities_List/nat_peoria.png,../static/images/US_Cities_List/mm_hotsprings.png,../static/images/US_Cities_List/nat_peoria.png,../static/images/US_Cities_List/nat_boulder.png,1,,,,,,,,,,,,,,,,,,,,,
null,,html-keyboard-response,867745,<p></p>,,,,,null,,,,,,,,,,,,,,,,,,,,,,,,,,,,,,,,
4188.3,,directmemory_phase,871956,../static/images/US_Cities_List/nat_carmel.png,,,,,50,,,0.833333333,0,../static/images/US_Cities_List/nat_peoria.png,../static/images/US_Cities_List/mm_hanover.png,../static/images/US_Cities_List/nat_leesburg.png,../static/images/US_Cities_List/nat_leesburg.png,../static/images/US_Cities_List/mm_hanover.png,../static/images/US_Cities_List/nat_peoria.png,0.5,closer,,,,,,,,,,,,,,,,,,,,
null,,html-keyboard-response,872960,<p></p>,,,,,null,,,,,,,,,,,,,,,,,,,,,,,,,,,,,,,,
4742.9,,directmemory_phase,877733,../static/images/US_Cities_List/mm_hotsprings.png,,,,,51,,,0.857142857,1,../static/images/US_Cities_List/mm_gatlinburg.png,../static/images/US_Cities_List/mm_westpalmbeach.png,../static/images/US_Cities_List/nat_shreveport.png,../static/images/US_Cities_List/nat_shreveport.png,../static/images/US_Cities_List/mm_westpalmbeach.png,../static/images/US_Cities_List/mm_gatlinburg.png,1,,,,,,,,,,,,,,,,,,,,,
null,,html-keyboard-response,878737,<p></p>,,,,,null,,,,,,,,,,,,,,,,,,,,,,,,,,,,,,,,
5134.6,,directmemory_phase,883899,../static/images/US_Cities_List/mm_cornwall.png,,,,,51,,,0.875,1,../static/images/US_Cities_List/mm_westpalmbeach.png,../static/images/US_Cities_List/nat_leesburg.png,../static/images/US_Cities_List/nat_boulder.png,../static/images/US_Cities_List/nat_boulder.png,../static/images/US_Cities_List/nat_leesburg.png,../static/images/US_Cities_List/mm_westpalmbeach.png,1,,,,,,,,,,,,,,,,,,,,,
null,,html-keyboard-response,884909,<p></p>,,,,,null,,,,,,,,,,,,,,,,,,,,,,,,,,,,,,,,
4217.3,,directmemory_phase,889154,../static/images/US_Cities_List/mm_gatlinburg.png,,,,,49,,,0.888888889,1,../static/images/US_Cities_List/nat_leesburg.png,../static/images/US_Cities_List/mm_hotsprings.png,../static/images/US_Cities_List/mm_hanover.png,../static/images/US_Cities_List/nat_leesburg.png,../static/images/US_Cities_List/mm_hanover.png,../static/images/US_Cities_List/mm_hotsprings.png,1,,,,,,,,,,,,,,,,,,,,,
null,,html-keyboard-response,890158,<p></p>,,,,,null,,,,,,,,,,,,,,,,,,,,,,,,,,,,,,,,
null,,directmemory_phase,896689,../static/images/US_Cities_List/nat_shreveport.png,,,,,null,,,0.8,0,../static/images/US_Cities_List/mm_newhope.png,../static/images/US_Cities_List/mm_westpalmbeach.png,../static/images/US_Cities_List/mm_racine.png,../static/images/US_Cities_List/mm_racine.png,../static/images/US_Cities_List/mm_westpalmbeach.png,../static/images/US_Cities_List/mm_newhope.png,0,,,,,,,,,,,,,,,,,,,,,
null,,html-keyboard-response,897694,<p></p>,,,,,null,,,,,,,,,,,,,,,,,,,,,,,,,,,,,,,,
2891.3,,directmemory_phase,900615,../static/images/US_Cities_List/mm_hotsprings.png,,,,,51,,,0.818181818,1,../static/images/US_Cities_List/mm_newhope.png,../static/images/US_Cities_List/mm_cornwall.png,../static/images/US_Cities_List/nat_peoria.png,../static/images/US_Cities_List/nat_peoria.png,../static/images/US_Cities_List/mm_cornwall.png,../static/images/US_Cities_List/mm_newhope.png,1,,,,,,,,,,,,,,,,,,,,,
null,,html-keyboard-response,901620,<p></p>,,,,,null,,,,,,,,,,,,,,,,,,,,,,,,,,,,,,,,
3200.5,,directmemory_phase,904849,../static/images/US_Cities_List/mm_racine.png,,,,,50,,,0.833333333,1,../static/images/US_Cities_List/nat_huntsville.png,../static/images/US_Cities_List/nat_shreveport.png,../static/images/US_Cities_List/mm_hanover.png,../static/images/US_Cities_List/nat_shreveport.png,../static/images/US_Cities_List/nat_huntsville.png,../static/images/US_Cities_List/mm_hanover.png,1,,,,,,,,,,,,,,,,,,,,,
null,,html-keyboard-response,905853,<p></p>,,,,,null,,,,,,,,,,,,,,,,,,,,,,,,,,,,,,,,
1391.7,,directmemory_phase,907277,../static/images/US_Cities_List/mm_hotsprings.png,,,,,51,,,0.846153846,1,../static/images/US_Cities_List/mm_newhope.png,../static/images/US_Cities_List/mm_cornwall.png,../static/images/US_Cities_List/nat_huntsville.png,../static/images/US_Cities_List/nat_huntsville.png,../static/images/US_Cities_List/mm_cornwall.png,../static/images/US_Cities_List/mm_newhope.png,1,,,,,,,,,,,,,,,,,,,,,
null,,html-keyboard-response,908282,<p></p>,,,,,null,,,,,,,,,,,,,,,,,,,,,,,,,,,,,,,,
1519.1,,directmemory_phase,909832,../static/images/US_Cities_List/mm_cornwall.png,,,,,49,,,0.857142857,1,../static/images/US_Cities_List/nat_carmel.png,../static/images/US_Cities_List/nat_huntsville.png,../static/images/US_Cities_List/mm_hotsprings.png,../static/images/US_Cities_List/nat_carmel.png,../static/images/US_Cities_List/mm_hotsprings.png,../static/images/US_Cities_List/nat_huntsville.png,1,,,,,,,,,,,,,,,,,,,,,
null,,html-keyboard-response,910834,<p></p>,,,,,null,,,,,,,,,,,,,,,,,,,,,,,,,,,,,,,,
2567.2,,directmemory_phase,913428,../static/images/US_Cities_List/mm_hotsprings.png,,,,,51,,,0.866666667,1,../static/images/US_Cities_List/nat_carmel.png,../static/images/US_Cities_List/nat_boulder.png,../static/images/US_Cities_List/mm_racine.png,../static/images/US_Cities_List/mm_racine.png,../static/images/US_Cities_List/nat_boulder.png,../static/images/US_Cities_List/nat_carmel.png,1,,,,,,,,,,,,,,,,,,,,,
null,,html-keyboard-response,914433,<p></p>,,,,,null,,,,,,,,,,,,,,,,,,,,,,,,,,,,,,,,
2665.9,,directmemory_phase,917124,../static/images/US_Cities_List/nat_leesburg.png,,,,,49,,,0.875,1,../static/images/US_Cities_List/mm_hanover.png,../static/images/US_Cities_List/mm_racine.png,../static/images/US_Cities_List/mm_newhope.png,../static/images/US_Cities_List/mm_hanover.png,../static/images/US_Cities_List/mm_newhope.png,../static/images/US_Cities_List/mm_racine.png,1,,,,,,,,,,,,,,,,,,,,,
null,,html-keyboard-response,918129,<p></p>,,,,,null,,,,,,,,,,,,,,,,,,,,,,,,,,,,,,,,
2710.2,,directmemory_phase,920868,../static/images/US_Cities_List/nat_peoria.png,,,,,49,,,0.823529412,0,../static/images/US_Cities_List/mm_racine.png,../static/images/US_Cities_List/mm_hotsprings.png,../static/images/US_Cities_List/nat_boulder.png,../static/images/US_Cities_List/mm_hotsprings.png,../static/images/US_Cities_List/mm_racine.png,../static/images/US_Cities_List/nat_boulder.png,0.5,closer,,,,,,,,,,,,,,,,,,,,
null,,html-keyboard-response,921873,<p></p>,,,,,null,,,,,,,,,,,,,,,,,,,,,,,,,,,,,,,,
1959.5,,directmemory_phase,923859,../static/images/US_Cities_List/mm_newhope.png,,,,,49,,,0.833333333,1,../static/images/US_Cities_List/mm_gatlinburg.png,../static/images/US_Cities_List/nat_carmel.png,../static/images/US_Cities_List/nat_boulder.png,../static/images/US_Cities_List/mm_gatlinburg.png,../static/images/US_Cities_List/nat_boulder.png,../static/images/US_Cities_List/nat_carmel.png,1,,,,,,,,,,,,,,,,,,,,,
null,,html-keyboard-response,924863,<p></p>,,,,,null,,,,,,,,,,,,,,,,,,,,,,,,,,,,,,,,
2382.1,,directmemory_phase,927275,../static/images/US_Cities_List/mm_racine.png,,,,,51,,,0.789473684,0,../static/images/US_Cities_List/nat_boulder.png,../static/images/US_Cities_List/nat_carmel.png,../static/images/US_Cities_List/mm_gatlinburg.png,../static/images/US_Cities_List/nat_boulder.png,../static/images/US_Cities_List/mm_gatlinburg.png,../static/images/US_Cities_List/nat_carmel.png,0.5,closer,,,,,,,,,,,,,,,,,,,,
null,,html-keyboard-response,928281,<p></p>,,,,,null,,,,,,,,,,,,,,,,,,,,,,,,,,,,,,,,
2328.3,,directmemory_phase,930640,../static/images/US_Cities_List/nat_carmel.png,,,,,51,,,0.8,1,../static/images/US_Cities_List/mm_hotsprings.png,../static/images/US_Cities_List/mm_hanover.png,../static/images/US_Cities_List/mm_cornwall.png,../static/images/US_Cities_List/mm_cornwall.png,../static/images/US_Cities_List/mm_hanover.png,../static/images/US_Cities_List/mm_hotsprings.png,1,,,,,,,,,,,,,,,,,,,,,
null,,html-keyboard-response,931645,<p></p>,,,,,null,,,,,,,,,,,,,,,,,,,,,,,,,,,,,,,,
2643.1,,directmemory_phase,934315,../static/images/US_Cities_List/nat_boulder.png,,,,,51,,,0.80952381,1,../static/images/US_Cities_List/mm_hanover.png,../static/images/US_Cities_List/nat_shreveport.png,../static/images/US_Cities_List/mm_racine.png,../static/images/US_Cities_List/mm_racine.png,../static/images/US_Cities_List/nat_shreveport.png,../static/images/US_Cities_List/mm_hanover.png,1,,,,,,,,,,,,,,,,,,,,,
null,,html-keyboard-response,935317,<p></p>,,,,,null,,,,,,,,,,,,,,,,,,,,,,,,,,,,,,,,
3218.4,,directmemory_phase,938564,../static/images/US_Cities_List/nat_shreveport.png,,,,,51,,,0.772727273,0,../static/images/US_Cities_List/nat_huntsville.png,../static/images/US_Cities_List/mm_cornwall.png,../static/images/US_Cities_List/mm_hanover.png,../static/images/US_Cities_List/mm_cornwall.png,../static/images/US_Cities_List/nat_huntsville.png,../static/images/US_Cities_List/mm_hanover.png,0.5,closer,,,,,,,,,,,,,,,,,,,,
null,,html-keyboard-response,939569,<p></p>,,,,,null,,,,,,,,,,,,,,,,,,,,,,,,,,,,,,,,
2591.5,,directmemory_phase,942189,../static/images/US_Cities_List/mm_racine.png,,,,,51,,,0.782608696,1,../static/images/US_Cities_List/nat_carmel.png,../static/images/US_Cities_List/nat_huntsville.png,../static/images/US_Cities_List/mm_hotsprings.png,../static/images/US_Cities_List/mm_hotsprings.png,../static/images/US_Cities_List/nat_huntsville.png,../static/images/US_Cities_List/nat_carmel.png,1,,,,,,,,,,,,,,,,,,,,,
null,,html-keyboard-response,943194,<p></p>,,,,,null,,,,,,,,,,,,,,,,,,,,,,,,,,,,,,,,
2500.5,,directmemory_phase,945721,../static/images/US_Cities_List/nat_boulder.png,,,,,51,,,0.791666667,1,../static/images/US_Cities_List/mm_hanover.png,../static/images/US_Cities_List/nat_carmel.png,../static/images/US_Cities_List/mm_cornwall.png,../static/images/US_Cities_List/mm_cornwall.png,../static/images/US_Cities_List/nat_carmel.png,../static/images/US_Cities_List/mm_hanover.png,1,,,,,,,,,,,,,,,,,,,,,
null,,html-keyboard-response,946726,<p></p>,,,,,null,,,,,,,,,,,,,,,,,,,,,,,,,,,,,,,,
1870.2,,directmemory_phase,948623,../static/images/US_Cities_List/nat_peoria.png,,,,,50,,,0.8,1,../static/images/US_Cities_List/mm_racine.png,../static/images/US_Cities_List/mm_westpalmbeach.png,../static/images/US_Cities_List/nat_boulder.png,../static/images/US_Cities_List/mm_westpalmbeach.png,../static/images/US_Cities_List/mm_racine.png,../static/images/US_Cities_List/nat_boulder.png,1,,,,,,,,,,,,,,,,,,,,,
null,,html-keyboard-response,949628,<p></p>,,,,,null,,,,,,,,,,,,,,,,,,,,,,,,,,,,,,,,
2432.7,,directmemory_phase,952083,../static/images/US_Cities_List/mm_cornwall.png,,,,,51,,,0.807692308,1,../static/images/US_Cities_List/mm_newhope.png,../static/images/US_Cities_List/mm_gatlinburg.png,../static/images/US_Cities_List/nat_shreveport.png,../static/images/US_Cities_List/nat_shreveport.png,../static/images/US_Cities_List/mm_gatlinburg.png,../static/images/US_Cities_List/mm_newhope.png,1,,,,,,,,,,,,,,,,,,,,,
null,,html-keyboard-response,953089,<p></p>,,,,,null,,,,,,,,,,,,,,,,,,,,,,,,,,,,,,,,
