rt,responses,trial_type,time_elapsed,stimulus,cities,city_images,button_pressed,response,key_press,stimulus_left,stimulus_right,accuracy,cumulative_accuracy,stimulus_down_left,stimulus_down_mid,stimulus_down_right,stimulus_correct,stimulus_short,stimulus_far,weighted_accuracy,missedtrial,condition,specific_pairs,imgL_ID,imgR_ID,linedress,linedressed,image_position,unknowncity,testedstates,currentstate,otherstate,problems,smooth,distraction,strategies,easier,similar,comments
3944.600000023842,{worker_id:634ef87aec0966557c825573},id_enter,3946,intro,New Hope; Leesburg; Shreveport; Hot Springs; Boulder; Gatlinburg; Cornwall; Carmel; Huntsville; West Palm Beach; Peoria; Racine; Hanover,US_Cities_List/nat_newhope.png; US_Cities_List/mm_leesburg.png; US_Cities_List/nat_shreveport.png; US_Cities_List/nat_hotsprings.png; US_Cities_List/mm_boulder.png; US_Cities_List/nat_gatlinburg.png; US_Cities_List/nat_cornwall.png; US_Cities_List/nat_carmel.png; US_Cities_List/mm_huntsville.png; US_Cities_List/nat_westpalmbeach.png; US_Cities_List/mm_peoria.png; US_Cities_List/nat_racine.png; US_Cities_List/mm_hanover.png,,,,,,,,,,,,,,,,,,,,,,,,,,,,,,,,,
7311.699999928474,,fullscreen,11260,make_fullscreen,,,0,,,,,,,,,,,,,,,,,,,,,,,,,,,,,,,,
7060.600000023842,,intro_1,18321,instruct,,,0,,,,,,,,,,,,,,,,,,,,,,,,,,,,,,,,
12795.200000047684,,intro_2,31117,instruct,,,1,Next,,,,,,,,,,,,,,,,,,,,,,,,,,,,,,,
23173.099999904633,,intro_3,54291,instruct,,,1,Next,,,,,,,,,,,,,,,,,,,,,,,,,,,,,,,
24559,,intro_4,78850,instruct,,,1,Next,,,,,,,,,,,,,,,,,,,,,,,,,,,,,,,
21582.299999952316,,intro_5,100433,instruct,,,1,Next,,,,,,,,,,,,,,,,,,,,,,,,,,,,,,,
29077.899999976158,,intro_6,129512,instruct,,,1,Next,,,,,,,,,,,,,,,,,,,,,,,,,,,,,,,
null,,prac_atten_color_black,130394,black_plus_sign,,,,,null,,,,,,,,,,,,,,,,,,,,,,,,,,,,,,
null,,prac_atten_color,130918,prac_stop_color,,,,,null,,,,,,,,,,,,,,,,,,,,,,,,,,,,,,
19.100000023841858,,prac_atten_color_black,132921,black_plus_sign,,,,,49,,,,,,,,,,,,,,,,,,,,,,,,,,,,,,
null,,prac_atten_color_black,133806,black_plus_sign,,,,,null,,,,,,,,,,,,,,,,,,,,,,,,,,,,,,
null,,prac_atten_color,134305,prac_stop_color,,,,,null,,,,,,,,,,,,,,,,,,,,,,,,,,,,,,
138,,prac_atten_color_black,136314,black_plus_sign,,,,,50,,,,,,,,,,,,,,,,,,,,,,,,,,,,,,
null,,prac_atten_color_black,137232,black_plus_sign,,,,,null,,,,,,,,,,,,,,,,,,,,,,,,,,,,,,
565,,prac_atten_color,138105,prac_stop_color,,,,,50,,,,,,,,,,,,,,,,,,,,,,,,,,,,,,
null,,prac_atten_color_black,140114,black_plus_sign,,,,,null,,,,,,,,,,,,,,,,,,,,,,,,,,,,,,
null,,prac_atten_color_black,140673,black_plus_sign,,,,,null,,,,,,,,,,,,,,,,,,,,,,,,,,,,,,
null,,prac_atten_color,141110,prac_stop_color,,,,,null,,,,,,,,,,,,,,,,,,,,,,,,,,,,,,
52.89999997615814,,prac_atten_color_black,143115,black_plus_sign,,,,,49,,,,,,,,,,,,,,,,,,,,,,,,,,,,,,
null,,prac_atten_color_black,144098,black_plus_sign,,,,,null,,,,,,,,,,,,,,,,,,,,,,,,,,,,,,
390.89999997615814,,prac_atten_color,145002,prac_stop_color,,,,,50,,,,,,,,,,,,,,,,,,,,,,,,,,,,,,
null,,prac_atten_color_black,147012,black_plus_sign,,,,,null,,,,,,,,,,,,,,,,,,,,,,,,,,,,,,
null,,prac_atten_color_black,147525,black_plus_sign,,,,,null,,,,,,,,,,,,,,,,,,,,,,,,,,,,,,
525.1000000238419,,prac_atten_color,148536,prac_stop_color,,,,,50,,,,,,,,,,,,,,,,,,,,,,,,,,,,,,
null,,prac_atten_color_black,150548,black_plus_sign,,,,,null,,,,,,,,,,,,,,,,,,,,,,,,,,,,,,
null,,prac_atten_color_black,150953,black_plus_sign,,,,,null,,,,,,,,,,,,,,,,,,,,,,,,,,,,,,
474.2000000476837,,prac_atten_color,151948,prac_stop_color,,,,,49,,,,,,,,,,,,,,,,,,,,,,,,,,,,,,
null,,prac_atten_color_black,153955,black_plus_sign,,,,,null,,,,,,,,,,,,,,,,,,,,,,,,,,,,,,
null,,prac_atten_color_black,154375,black_plus_sign,,,,,null,,,,,,,,,,,,,,,,,,,,,,,,,,,,,,
407.3000000715256,,prac_atten_color,155296,prac_stop_color,,,,,50,,,,,,,,,,,,,,,,,,,,,,,,,,,,,,
null,,prac_atten_color_black,157306,black_plus_sign,,,,,null,,,,,,,,,,,,,,,,,,,,,,,,,,,,,,
null,,prac_atten_color_black,157804,black_plus_sign,,,,,null,,,,,,,,,,,,,,,,,,,,,,,,,,,,,,
null,,prac_atten_color,158413,prac_stop_color,,,,,null,,,,,,,,,,,,,,,,,,,,,,,,,,,,,,
109.19999992847443,,prac_atten_color_black,160428,black_plus_sign,,,,,49,,,,,,,,,,,,,,,,,,,,,,,,,,,,,,
null,,prac_atten_color_black,161237,black_plus_sign,,,,,null,,,,,,,,,,,,,,,,,,,,,,,,,,,,,,
null,,prac_atten_color,161768,prac_stop_color,,,,,null,,,,,,,,,,,,,,,,,,,,,,,,,,,,,,
80.29999995231628,,prac_atten_color_black,163777,black_plus_sign,,,,,49,,,,,,,,,,,,,,,,,,,,,,,,,,,,,,
4376.599999904633,,attentioncheck_feedback,168155,cross_check_feedback,,,0,,,,,,,,,,,,,,,,,,,,,,,,,,,,,,,,
20082.600000023842,,last_instruct,188238,instruct,,,,,32,,,,,,,,,,,,,,,,,,,,,,,,,,,,,,
null,,learn_phase(without_color),190248,black_plus_sign,,,,,null,US_Cities_List/nat_cornwall.png,US_Cities_List/mm_huntsville.png,,,,,,,,,,,,,,,,,,,,,,,,,,,,
null,,black_cross(without_color),190778,green,,,,,null,US_Cities_List/nat_cornwall.png,US_Cities_List/mm_huntsville.png,,,,,,,,,,,,,,,,,,,,,,,,,,,,
null,,rt_plussign_withcolor,191294,green,,,,,null,US_Cities_List/nat_cornwall.png,US_Cities_List/mm_huntsville.png,,,,,,,,,,,,,,,,,,,,,,,,,,,,
1279.1000000238419,,rt_thecrossant_black,192774,black_plus_sign,,,,,50,,,1,1,,,,,,,,,,,,,,,,,,,,,,,,,,
null,,color_black,192883,black_plus_sign,,,,,null,,,,,,,,,,,,,,,,,,,,,,,,,,,,,,
null,,learn_phase(without_color),195408,black_plus_sign,,,,,null,US_Cities_List/nat_cornwall.png,US_Cities_List/nat_carmel.png,,,,,,,,,,,,,,,,,,,,,,,,,,,,
null,,black_cross(without_color),195891,blue,,,,,null,US_Cities_List/nat_cornwall.png,US_Cities_List/nat_carmel.png,,,,,,,,,,,,,,,,,,,,,,,,,,,,
null,,rt_plussign_withcolor,196392,blue,,,,,null,US_Cities_List/nat_cornwall.png,US_Cities_List/nat_carmel.png,,,,,,,,,,,,,,,,,,,,,,,,,,,,
1204,,rt_thecrossant_black,197935,black_plus_sign,,,,,49,,,1,1,,,,,,,,,,,,,,,,,,,,,,,,,,
null,,color_black,198044,black_plus_sign,,,,,null,,,,,,,,,,,,,,,,,,,,,,,,,,,,,,
null,,learn_phase(without_color),200555,black_plus_sign,,,,,null,US_Cities_List/mm_huntsville.png,US_Cities_List/mm_peoria.png,,,,,,,,,,,,,,,,,,,,,,,,,,,,
null,,black_cross(without_color),200991,blue,,,,,null,US_Cities_List/mm_huntsville.png,US_Cities_List/mm_peoria.png,,,,,,,,,,,,,,,,,,,,,,,,,,,,
null,,rt_plussign_withcolor,201506,blue,,,,,null,US_Cities_List/mm_huntsville.png,US_Cities_List/mm_peoria.png,,,,,,,,,,,,,,,,,,,,,,,,,,,,
903.1000000238419,,rt_thecrossant_black,203096,black_plus_sign,,,,,49,,,1,1,,,,,,,,,,,,,,,,,,,,,,,,,,
null,,color_black,203204,black_plus_sign,,,,,null,,,,,,,,,,,,,,,,,,,,,,,,,,,,,,
null,,learn_phase(without_color),205721,black_plus_sign,,,,,null,US_Cities_List/nat_shreveport.png,US_Cities_List/mm_peoria.png,,,,,,,,,,,,,,,,,,,,,,,,,,,,
null,,black_cross(without_color),206220,green,,,,,null,US_Cities_List/nat_shreveport.png,US_Cities_List/mm_peoria.png,,,,,,,,,,,,,,,,,,,,,,,,,,,,
null,,rt_plussign_withcolor,206727,green,,,,,null,US_Cities_List/nat_shreveport.png,US_Cities_List/mm_peoria.png,,,,,,,,,,,,,,,,,,,,,,,,,,,,
781.0999999046326,,rt_thecrossant_black,208259,black_plus_sign,,,,,50,,,1,1,,,,,,,,,,,,,,,,,,,,,,,,,,
null,,color_black,208369,black_plus_sign,,,,,null,,,,,,,,,,,,,,,,,,,,,,,,,,,,,,
null,,learn_phase(without_color),210885,black_plus_sign,,,,,null,US_Cities_List/nat_shreveport.png,US_Cities_List/nat_gatlinburg.png,,,,,,,,,,,,,,,,,,,,,,,,,,,,
null,,black_cross(without_color),211998,green,,,,,null,US_Cities_List/nat_shreveport.png,US_Cities_List/nat_gatlinburg.png,,,,,,,,,,,,,,,,,,,,,,,,,,,,
null,,rt_plussign_withcolor,212512,green,,,,,null,US_Cities_List/nat_shreveport.png,US_Cities_List/nat_gatlinburg.png,,,,,,,,,,,,,,,,,,,,,,,,,,,,
824.3999999761581,,rt_thecrossant_black,213427,black_plus_sign,,,,,49,,,0,0.8,,,,,,,,,,,,,,,,,,,,,,,,,,
null,,color_black,213537,black_plus_sign,,,,,null,,,,,,,,,,,,,,,,,,,,,,,,,,,,,,
null,,learn_phase(without_color),216062,black_plus_sign,,,,,null,US_Cities_List/nat_gatlinburg.png,US_Cities_List/nat_cornwall.png,,,,,,,,,,,,,,,,,,,,,,,,,,,,
null,,black_cross(without_color),216830,blue,,,,,null,US_Cities_List/nat_gatlinburg.png,US_Cities_List/nat_cornwall.png,,,,,,,,,,,,,,,,,,,,,,,,,,,,
null,,rt_plussign_withcolor,217343,blue,,,,,null,US_Cities_List/nat_gatlinburg.png,US_Cities_List/nat_cornwall.png,,,,,,,,,,,,,,,,,,,,,,,,,,,,
1756,,rt_thecrossant_black,218592,black_plus_sign,,,,,49,,,1,0.8333333333333334,,,,,,,,,,,,,,,,,,,,,,,,,,
null,,color_black,218701,black_plus_sign,,,,,null,,,,,,,,,,,,,,,,,,,,,,,,,,,,,,
null,,learn_phase(without_color),221224,black_plus_sign,,,,,null,US_Cities_List/nat_hotsprings.png,US_Cities_List/nat_racine.png,,,,,,,,,,,,,,,,,,,,,,,,,,,,
null,,black_cross(without_color),222079,blue,,,,,null,US_Cities_List/nat_hotsprings.png,US_Cities_List/nat_racine.png,,,,,,,,,,,,,,,,,,,,,,,,,,,,
null,,rt_plussign_withcolor,222596,blue,,,,,null,US_Cities_List/nat_hotsprings.png,US_Cities_List/nat_racine.png,,,,,,,,,,,,,,,,,,,,,,,,,,,,
1376.9000000953674,,rt_thecrossant_black,223752,black_plus_sign,,,,,49,,,1,0.8571428571428571,,,,,,,,,,,,,,,,,,,,,,,,,,
null,,color_black,223860,black_plus_sign,,,,,null,,,,,,,,,,,,,,,,,,,,,,,,,,,,,,
null,,learn_phase(without_color),226384,black_plus_sign,,,,,null,US_Cities_List/mm_leesburg.png,US_Cities_List/nat_hotsprings.png,,,,,,,,,,,,,,,,,,,,,,,,,,,,
null,,black_cross(without_color),226990,green,,,,,null,US_Cities_List/mm_leesburg.png,US_Cities_List/nat_hotsprings.png,,,,,,,,,,,,,,,,,,,,,,,,,,,,
null,,rt_plussign_withcolor,227492,green,,,,,null,US_Cities_List/mm_leesburg.png,US_Cities_List/nat_hotsprings.png,,,,,,,,,,,,,,,,,,,,,,,,,,,,
1220.1999999284744,,rt_thecrossant_black,228900,black_plus_sign,,,,,50,,,1,0.875,,,,,,,,,,,,,,,,,,,,,,,,,,
null,,color_black,229009,black_plus_sign,,,,,null,,,,,,,,,,,,,,,,,,,,,,,,,,,,,,
null,,learn_phase(without_color),231532,black_plus_sign,,,,,null,US_Cities_List/mm_huntsville.png,US_Cities_List/mm_peoria.png,,,,,,,,,,,,,,,,,,,,,,,,,,,,
null,,black_cross(without_color),232575,green,,,,,null,US_Cities_List/mm_huntsville.png,US_Cities_List/mm_peoria.png,,,,,,,,,,,,,,,,,,,,,,,,,,,,
null,,rt_plussign_withcolor,233077,green,,,,,null,US_Cities_List/mm_huntsville.png,US_Cities_List/mm_peoria.png,,,,,,,,,,,,,,,,,,,,,,,,,,,,
812.1000000238419,,rt_thecrossant_black,234045,black_plus_sign,,,,,50,,,1,0.8888888888888888,,,,,,,,,,,,,,,,,,,,,,,,,,
null,,color_black,234153,black_plus_sign,,,,,null,,,,,,,,,,,,,,,,,,,,,,,,,,,,,,
null,,learn_phase(without_color),236676,black_plus_sign,,,,,null,US_Cities_List/nat_newhope.png,US_Cities_List/mm_leesburg.png,,,,,,,,,,,,,,,,,,,,,,,,,,,,
null,,black_cross(without_color),237658,green,,,,,null,US_Cities_List/nat_newhope.png,US_Cities_List/mm_leesburg.png,,,,,,,,,,,,,,,,,,,,,,,,,,,,
null,,rt_plussign_withcolor,238173,green,,,,,null,US_Cities_List/nat_newhope.png,US_Cities_List/mm_leesburg.png,,,,,,,,,,,,,,,,,,,,,,,,,,,,
1498.8999999761581,,rt_thecrossant_black,239216,black_plus_sign,,,,,50,,,1,0.9,,,,,,,,,,,,,,,,,,,,,,,,,,
null,,color_black,239326,black_plus_sign,,,,,null,,,,,,,,,,,,,,,,,,,,,,,,,,,,,,
null,,learn_phase(without_color),241848,black_plus_sign,,,,,null,US_Cities_List/nat_hotsprings.png,US_Cities_List/mm_boulder.png,,,,,,,,,,,,,,,,,,,,,,,,,,,,
null,,black_cross(without_color),242395,green,,,,,null,US_Cities_List/nat_hotsprings.png,US_Cities_List/mm_boulder.png,,,,,,,,,,,,,,,,,,,,,,,,,,,,
null,,rt_plussign_withcolor,242909,green,,,,,null,US_Cities_List/nat_hotsprings.png,US_Cities_List/mm_boulder.png,,,,,,,,,,,,,,,,,,,,,,,,,,,,
1301.7999999523163,,rt_thecrossant_black,244385,black_plus_sign,,,,,50,,,1,0.9090909090909091,,,,,,,,,,,,,,,,,,,,,,,,,,
null,,color_black,244494,black_plus_sign,,,,,null,,,,,,,,,,,,,,,,,,,,,,,,,,,,,,
null,,learn_phase(without_color),247017,black_plus_sign,,,,,null,US_Cities_List/mm_huntsville.png,US_Cities_List/mm_peoria.png,,,,,,,,,,,,,,,,,,,,,,,,,,,,
null,,black_cross(without_color),247890,green,,,,,null,US_Cities_List/mm_huntsville.png,US_Cities_List/mm_peoria.png,,,,,,,,,,,,,,,,,,,,,,,,,,,,
null,,rt_plussign_withcolor,248403,green,,,,,null,US_Cities_List/mm_huntsville.png,US_Cities_List/mm_peoria.png,,,,,,,,,,,,,,,,,,,,,,,,,,,,
779,,rt_thecrossant_black,249540,black_plus_sign,,,,,50,,,1,0.9166666666666666,,,,,,,,,,,,,,,,,,,,,,,,,,
null,,color_black,249648,black_plus_sign,,,,,null,,,,,,,,,,,,,,,,,,,,,,,,,,,,,,
null,,learn_phase(without_color),252171,black_plus_sign,,,,,null,US_Cities_List/nat_cornwall.png,US_Cities_List/nat_carmel.png,,,,,,,,,,,,,,,,,,,,,,,,,,,,
null,,black_cross(without_color),253091,blue,,,,,null,US_Cities_List/nat_cornwall.png,US_Cities_List/nat_carmel.png,,,,,,,,,,,,,,,,,,,,,,,,,,,,
null,,rt_plussign_withcolor,253592,blue,,,,,null,US_Cities_List/nat_cornwall.png,US_Cities_List/nat_carmel.png,,,,,,,,,,,,,,,,,,,,,,,,,,,,
1042.1000000238419,,rt_thecrossant_black,254684,black_plus_sign,,,,,49,,,1,0.9230769230769231,,,,,,,,,,,,,,,,,,,,,,,,,,
null,,color_black,254792,black_plus_sign,,,,,null,,,,,,,,,,,,,,,,,,,,,,,,,,,,,,
null,,learn_phase(without_color),257319,black_plus_sign,,,,,null,US_Cities_List/nat_shreveport.png,US_Cities_List/mm_peoria.png,,,,,,,,,,,,,,,,,,,,,,,,,,,,
null,,black_cross(without_color),258300,blue,,,,,null,US_Cities_List/nat_shreveport.png,US_Cities_List/mm_peoria.png,,,,,,,,,,,,,,,,,,,,,,,,,,,,
null,,rt_plussign_withcolor,258814,blue,,,,,null,US_Cities_List/nat_shreveport.png,US_Cities_List/mm_peoria.png,,,,,,,,,,,,,,,,,,,,,,,,,,,,
1163,,rt_thecrossant_black,259854,black_plus_sign,,,,,49,,,1,0.9285714285714286,,,,,,,,,,,,,,,,,,,,,,,,,,
null,,color_black,259963,black_plus_sign,,,,,null,,,,,,,,,,,,,,,,,,,,,,,,,,,,,,
null,,learn_phase(without_color),262484,black_plus_sign,,,,,null,US_Cities_List/nat_shreveport.png,US_Cities_List/nat_gatlinburg.png,,,,,,,,,,,,,,,,,,,,,,,,,,,,
null,,black_cross(without_color),263529,blue,,,,,null,US_Cities_List/nat_shreveport.png,US_Cities_List/nat_gatlinburg.png,,,,,,,,,,,,,,,,,,,,,,,,,,,,
null,,rt_plussign_withcolor,264043,blue,,,,,null,US_Cities_List/nat_shreveport.png,US_Cities_List/nat_gatlinburg.png,,,,,,,,,,,,,,,,,,,,,,,,,,,,
1289.8999999761581,,rt_thecrossant_black,265008,black_plus_sign,,,,,49,,,1,0.9333333333333333,,,,,,,,,,,,,,,,,,,,,,,,,,
null,,color_black,265117,black_plus_sign,,,,,null,,,,,,,,,,,,,,,,,,,,,,,,,,,,,,
null,,learn_phase(without_color),267639,black_plus_sign,,,,,null,US_Cities_List/nat_cornwall.png,US_Cities_List/nat_carmel.png,,,,,,,,,,,,,,,,,,,,,,,,,,,,
null,,black_cross(without_color),268074,green,,,,,null,US_Cities_List/nat_cornwall.png,US_Cities_List/nat_carmel.png,,,,,,,,,,,,,,,,,,,,,,,,,,,,
null,,rt_plussign_withcolor,268586,green,,,,,null,US_Cities_List/nat_cornwall.png,US_Cities_List/nat_carmel.png,,,,,,,,,,,,,,,,,,,,,,,,,,,,
1463.7999999523163,,rt_thecrossant_black,270160,black_plus_sign,,,,,50,,,1,0.9375,,,,,,,,,,,,,,,,,,,,,,,,,,
null,,color_black,270270,black_plus_sign,,,,,null,,,,,,,,,,,,,,,,,,,,,,,,,,,,,,
null,,learn_phase(without_color),272788,black_plus_sign,,,,,null,US_Cities_List/nat_hotsprings.png,US_Cities_List/nat_racine.png,,,,,,,,,,,,,,,,,,,,,,,,,,,,
null,,black_cross(without_color),273738,blue,,,,,null,US_Cities_List/nat_hotsprings.png,US_Cities_List/nat_racine.png,,,,,,,,,,,,,,,,,,,,,,,,,,,,
null,,rt_plussign_withcolor,274253,blue,,,,,null,US_Cities_List/nat_hotsprings.png,US_Cities_List/nat_racine.png,,,,,,,,,,,,,,,,,,,,,,,,,,,,
1404.2999999523163,,rt_thecrossant_black,275313,black_plus_sign,,,,,49,,,1,0.9411764705882353,,,,,,,,,,,,,,,,,,,,,,,,,,
null,,color_black,275423,black_plus_sign,,,,,null,,,,,,,,,,,,,,,,,,,,,,,,,,,,,,
null,,learn_phase(without_color),277948,black_plus_sign,,,,,null,US_Cities_List/nat_cornwall.png,US_Cities_List/mm_hanover.png,,,,,,,,,,,,,,,,,,,,,,,,,,,,
null,,black_cross(without_color),278865,blue,,,,,null,US_Cities_List/nat_cornwall.png,US_Cities_List/mm_hanover.png,,,,,,,,,,,,,,,,,,,,,,,,,,,,
null,,rt_plussign_withcolor,279378,blue,,,,,null,US_Cities_List/nat_cornwall.png,US_Cities_List/mm_hanover.png,,,,,,,,,,,,,,,,,,,,,,,,,,,,
1735.8999999761581,,rt_thecrossant_black,280470,black_plus_sign,,,,,49,,,1,0.9444444444444444,,,,,,,,,,,,,,,,,,,,,,,,,,
null,,color_black,280579,black_plus_sign,,,,,null,,,,,,,,,,,,,,,,,,,,,,,,,,,,,,
null,,learn_phase(without_color),283098,black_plus_sign,,,,,null,US_Cities_List/mm_huntsville.png,US_Cities_List/mm_peoria.png,,,,,,,,,,,,,,,,,,,,,,,,,,,,
null,,black_cross(without_color),283706,blue,,,,,null,US_Cities_List/mm_huntsville.png,US_Cities_List/mm_peoria.png,,,,,,,,,,,,,,,,,,,,,,,,,,,,
null,,rt_plussign_withcolor,284220,blue,,,,,null,US_Cities_List/mm_huntsville.png,US_Cities_List/mm_peoria.png,,,,,,,,,,,,,,,,,,,,,,,,,,,,
1109,,rt_thecrossant_black,285635,black_plus_sign,,,,,49,,,1,0.9473684210526315,,,,,,,,,,,,,,,,,,,,,,,,,,
null,,color_black,285743,black_plus_sign,,,,,null,,,,,,,,,,,,,,,,,,,,,,,,,,,,,,
null,,learn_phase(without_color),288264,black_plus_sign,,,,,null,US_Cities_List/nat_cornwall.png,US_Cities_List/mm_hanover.png,,,,,,,,,,,,,,,,,,,,,,,,,,,,
null,,black_cross(without_color),288858,blue,,,,,null,US_Cities_List/nat_cornwall.png,US_Cities_List/mm_hanover.png,,,,,,,,,,,,,,,,,,,,,,,,,,,,
null,,rt_plussign_withcolor,289372,blue,,,,,null,US_Cities_List/nat_cornwall.png,US_Cities_List/mm_hanover.png,,,,,,,,,,,,,,,,,,,,,,,,,,,,
1264.2999999523163,,rt_thecrossant_black,290789,black_plus_sign,,,,,49,,,1,0.95,,,,,,,,,,,,,,,,,,,,,,,,,,
null,,color_black,290899,black_plus_sign,,,,,null,,,,,,,,,,,,,,,,,,,,,,,,,,,,,,
null,,learn_phase(without_color),293409,black_plus_sign,,,,,null,US_Cities_List/nat_shreveport.png,US_Cities_List/mm_peoria.png,,,,,,,,,,,,,,,,,,,,,,,,,,,,
null,,black_cross(without_color),294173,blue,,,,,null,US_Cities_List/nat_shreveport.png,US_Cities_List/mm_peoria.png,,,,,,,,,,,,,,,,,,,,,,,,,,,,
null,,rt_plussign_withcolor,294687,blue,,,,,null,US_Cities_List/nat_shreveport.png,US_Cities_List/mm_peoria.png,,,,,,,,,,,,,,,,,,,,,,,,,,,,
795.7999999523163,,rt_thecrossant_black,295931,black_plus_sign,,,,,49,,,1,0.9523809523809523,,,,,,,,,,,,,,,,,,,,,,,,,,
null,,color_black,296041,black_plus_sign,,,,,null,,,,,,,,,,,,,,,,,,,,,,,,,,,,,,
null,,learn_phase(without_color),298558,black_plus_sign,,,,,null,US_Cities_List/mm_peoria.png,US_Cities_List/nat_racine.png,,,,,,,,,,,,,,,,,,,,,,,,,,,,
null,,black_cross(without_color),299010,green,,,,,null,US_Cities_List/mm_peoria.png,US_Cities_List/nat_racine.png,,,,,,,,,,,,,,,,,,,,,,,,,,,,
null,,rt_plussign_withcolor,299524,green,,,,,null,US_Cities_List/mm_peoria.png,US_Cities_List/nat_racine.png,,,,,,,,,,,,,,,,,,,,,,,,,,,,
920.8999999761581,,rt_thecrossant_black,301079,black_plus_sign,,,,,50,,,1,0.9545454545454546,,,,,,,,,,,,,,,,,,,,,,,,,,
null,,color_black,301188,black_plus_sign,,,,,null,,,,,,,,,,,,,,,,,,,,,,,,,,,,,,
null,,learn_phase(without_color),303700,black_plus_sign,,,,,null,US_Cities_List/nat_shreveport.png,US_Cities_List/mm_peoria.png,,,,,,,,,,,,,,,,,,,,,,,,,,,,
null,,black_cross(without_color),304355,green,,,,,null,US_Cities_List/nat_shreveport.png,US_Cities_List/mm_peoria.png,,,,,,,,,,,,,,,,,,,,,,,,,,,,
null,,rt_plussign_withcolor,304867,green,,,,,null,US_Cities_List/nat_shreveport.png,US_Cities_List/mm_peoria.png,,,,,,,,,,,,,,,,,,,,,,,,,,,,
772.1000000238419,,rt_thecrossant_black,306220,black_plus_sign,,,,,50,,,1,0.9565217391304348,,,,,,,,,,,,,,,,,,,,,,,,,,
null,,color_black,306327,black_plus_sign,,,,,null,,,,,,,,,,,,,,,,,,,,,,,,,,,,,,
null,,learn_phase(without_color),308838,black_plus_sign,,,,,null,US_Cities_List/nat_cornwall.png,US_Cities_List/mm_huntsville.png,,,,,,,,,,,,,,,,,,,,,,,,,,,,
null,,black_cross(without_color),309290,blue,,,,,null,US_Cities_List/nat_cornwall.png,US_Cities_List/mm_huntsville.png,,,,,,,,,,,,,,,,,,,,,,,,,,,,
null,,rt_plussign_withcolor,309804,blue,,,,,null,US_Cities_List/nat_cornwall.png,US_Cities_List/mm_huntsville.png,,,,,,,,,,,,,,,,,,,,,,,,,,,,
1031.6999999284744,,rt_thecrossant_black,311362,black_plus_sign,,,,,49,,,1,0.9583333333333334,,,,,,,,,,,,,,,,,,,,,,,,,,
null,,color_black,311471,black_plus_sign,,,,,null,,,,,,,,,,,,,,,,,,,,,,,,,,,,,,
null,,learn_phase(without_color),313998,black_plus_sign,,,,,null,US_Cities_List/mm_leesburg.png,US_Cities_List/nat_shreveport.png,,,,,,,,,,,,,,,,,,,,,,,,,,,,
null,,black_cross(without_color),314963,green,,,,,null,US_Cities_List/mm_leesburg.png,US_Cities_List/nat_shreveport.png,,,,,,,,,,,,,,,,,,,,,,,,,,,,
null,,rt_plussign_withcolor,315478,green,,,,,null,US_Cities_List/mm_leesburg.png,US_Cities_List/nat_shreveport.png,,,,,,,,,,,,,,,,,,,,,,,,,,,,
751.1000000238419,,rt_thecrossant_black,316537,black_plus_sign,,,,,50,,,1,0.96,,,,,,,,,,,,,,,,,,,,,,,,,,
null,,color_black,316644,black_plus_sign,,,,,null,,,,,,,,,,,,,,,,,,,,,,,,,,,,,,
null,,learn_phase(without_color),319167,black_plus_sign,,,,,null,US_Cities_List/nat_shreveport.png,US_Cities_List/nat_gatlinburg.png,,,,,,,,,,,,,,,,,,,,,,,,,,,,
null,,black_cross(without_color),319791,green,,,,,null,US_Cities_List/nat_shreveport.png,US_Cities_List/nat_gatlinburg.png,,,,,,,,,,,,,,,,,,,,,,,,,,,,
null,,rt_plussign_withcolor,320304,green,,,,,null,US_Cities_List/nat_shreveport.png,US_Cities_List/nat_gatlinburg.png,,,,,,,,,,,,,,,,,,,,,,,,,,,,
1323.9000000953674,,rt_thecrossant_black,321687,black_plus_sign,,,,,50,,,1,0.9615384615384616,,,,,,,,,,,,,,,,,,,,,,,,,,
null,,color_black,321795,black_plus_sign,,,,,null,,,,,,,,,,,,,,,,,,,,,,,,,,,,,,
null,,learn_phase(without_color),324316,black_plus_sign,,,,,null,US_Cities_List/mm_leesburg.png,US_Cities_List/nat_shreveport.png,,,,,,,,,,,,,,,,,,,,,,,,,,,,
null,,black_cross(without_color),325034,blue,,,,,null,US_Cities_List/mm_leesburg.png,US_Cities_List/nat_shreveport.png,,,,,,,,,,,,,,,,,,,,,,,,,,,,
null,,rt_plussign_withcolor,325546,blue,,,,,null,US_Cities_List/mm_leesburg.png,US_Cities_List/nat_shreveport.png,,,,,,,,,,,,,,,,,,,,,,,,,,,,
872,,rt_thecrossant_black,326840,black_plus_sign,,,,,49,,,1,0.9629629629629629,,,,,,,,,,,,,,,,,,,,,,,,,,
null,,color_black,326950,black_plus_sign,,,,,null,,,,,,,,,,,,,,,,,,,,,,,,,,,,,,
null,,learn_phase(without_color),329474,black_plus_sign,,,,,null,US_Cities_List/nat_newhope.png,US_Cities_List/mm_leesburg.png,,,,,,,,,,,,,,,,,,,,,,,,,,,,
null,,black_cross(without_color),330206,green,,,,,null,US_Cities_List/nat_newhope.png,US_Cities_List/mm_leesburg.png,,,,,,,,,,,,,,,,,,,,,,,,,,,,
null,,rt_plussign_withcolor,330721,green,,,,,null,US_Cities_List/nat_newhope.png,US_Cities_List/mm_leesburg.png,,,,,,,,,,,,,,,,,,,,,,,,,,,,
null,,rt_thecrossant_black,332015,black_plus_sign,,,,,null,,,,0.9629629629629629,,,,,,,,,,,,,,,,,,,,,,,,,,
null,,color_black,332125,black_plus_sign,,,,,null,,,,,,,,,,,,,,,,,,,,,,,,,,,,,,
null,,learn_phase(without_color),334650,black_plus_sign,,,,,null,US_Cities_List/nat_cornwall.png,US_Cities_List/mm_hanover.png,,,,,,,,,,,,,,,,,,,,,,,,,,,,
null,,black_cross(without_color),335601,green,,,,,null,US_Cities_List/nat_cornwall.png,US_Cities_List/mm_hanover.png,,,,,,,,,,,,,,,,,,,,,,,,,,,,
null,,rt_plussign_withcolor,336116,green,,,,,null,US_Cities_List/nat_cornwall.png,US_Cities_List/mm_hanover.png,,,,,,,,,,,,,,,,,,,,,,,,,,,,
1034.8000000715256,,rt_thecrossant_black,337176,black_plus_sign,,,,,50,,,1,0.9642857142857143,,,,,,,,,,,,,,,,,,,,,,,,,,
null,,color_black,337284,black_plus_sign,,,,,null,,,,,,,,,,,,,,,,,,,,,,,,,,,,,,
null,,learn_phase(without_color),339800,black_plus_sign,,,,,null,US_Cities_List/mm_leesburg.png,US_Cities_List/nat_shreveport.png,,,,,,,,,,,,,,,,,,,,,,,,,,,,
null,,black_cross(without_color),340786,green,,,,,null,US_Cities_List/mm_leesburg.png,US_Cities_List/nat_shreveport.png,,,,,,,,,,,,,,,,,,,,,,,,,,,,
null,,rt_plussign_withcolor,341299,green,,,,,null,US_Cities_List/mm_leesburg.png,US_Cities_List/nat_shreveport.png,,,,,,,,,,,,,,,,,,,,,,,,,,,,
1434.5,,rt_thecrossant_black,342329,black_plus_sign,,,,,50,,,1,0.9655172413793104,,,,,,,,,,,,,,,,,,,,,,,,,,
null,,color_black,342438,black_plus_sign,,,,,null,,,,,,,,,,,,,,,,,,,,,,,,,,,,,,
null,,learn_phase(without_color),344962,black_plus_sign,,,,,null,US_Cities_List/nat_hotsprings.png,US_Cities_List/nat_racine.png,,,,,,,,,,,,,,,,,,,,,,,,,,,,
null,,black_cross(without_color),345463,blue,,,,,null,US_Cities_List/nat_hotsprings.png,US_Cities_List/nat_racine.png,,,,,,,,,,,,,,,,,,,,,,,,,,,,
null,,rt_plussign_withcolor,345976,blue,,,,,null,US_Cities_List/nat_hotsprings.png,US_Cities_List/nat_racine.png,,,,,,,,,,,,,,,,,,,,,,,,,,,,
1333.1999999284744,,rt_thecrossant_black,347491,black_plus_sign,,,,,49,,,1,0.9666666666666667,,,,,,,,,,,,,,,,,,,,,,,,,,
null,,color_black,347601,black_plus_sign,,,,,null,,,,,,,,,,,,,,,,,,,,,,,,,,,,,,
null,,learn_phase(without_color),350122,black_plus_sign,,,,,null,US_Cities_List/nat_carmel.png,US_Cities_List/mm_huntsville.png,,,,,,,,,,,,,,,,,,,,,,,,,,,,
null,,black_cross(without_color),351027,blue,,,,,null,US_Cities_List/nat_carmel.png,US_Cities_List/mm_huntsville.png,,,,,,,,,,,,,,,,,,,,,,,,,,,,
null,,rt_plussign_withcolor,351542,blue,,,,,null,US_Cities_List/nat_carmel.png,US_Cities_List/mm_huntsville.png,,,,,,,,,,,,,,,,,,,,,,,,,,,,
944.0999999046326,,rt_thecrossant_black,352665,black_plus_sign,,,,,49,,,1,0.967741935483871,,,,,,,,,,,,,,,,,,,,,,,,,,
null,,color_black,352775,black_plus_sign,,,,,null,,,,,,,,,,,,,,,,,,,,,,,,,,,,,,
null,,learn_phase(without_color),355298,black_plus_sign,,,,,null,US_Cities_List/nat_gatlinburg.png,US_Cities_List/nat_cornwall.png,,,,,,,,,,,,,,,,,,,,,,,,,,,,
null,,black_cross(without_color),356279,green,,,,,null,US_Cities_List/nat_gatlinburg.png,US_Cities_List/nat_cornwall.png,,,,,,,,,,,,,,,,,,,,,,,,,,,,
null,,rt_plussign_withcolor,356793,green,,,,,null,US_Cities_List/nat_gatlinburg.png,US_Cities_List/nat_cornwall.png,,,,,,,,,,,,,,,,,,,,,,,,,,,,
1136.8999999761581,,rt_thecrossant_black,357838,black_plus_sign,,,,,50,,,1,0.96875,,,,,,,,,,,,,,,,,,,,,,,,,,
null,,color_black,357947,black_plus_sign,,,,,null,,,,,,,,,,,,,,,,,,,,,,,,,,,,,,
null,,learn_phase(without_color),360458,black_plus_sign,,,,,null,US_Cities_List/mm_peoria.png,US_Cities_List/nat_racine.png,,,,,,,,,,,,,,,,,,,,,,,,,,,,
null,,black_cross(without_color),360958,green,,,,,null,US_Cities_List/mm_peoria.png,US_Cities_List/nat_racine.png,,,,,,,,,,,,,,,,,,,,,,,,,,,,
null,,rt_plussign_withcolor,361472,green,,,,,null,US_Cities_List/mm_peoria.png,US_Cities_List/nat_racine.png,,,,,,,,,,,,,,,,,,,,,,,,,,,,
1151.8999999761581,,rt_thecrossant_black,362987,black_plus_sign,,,,,50,,,1,0.9696969696969697,,,,,,,,,,,,,,,,,,,,,,,,,,
null,,color_black,363096,black_plus_sign,,,,,null,,,,,,,,,,,,,,,,,,,,,,,,,,,,,,
null,,learn_phase(without_color),365619,black_plus_sign,,,,,null,US_Cities_List/nat_carmel.png,US_Cities_List/mm_huntsville.png,,,,,,,,,,,,,,,,,,,,,,,,,,,,
null,,black_cross(without_color),366072,green,,,,,null,US_Cities_List/nat_carmel.png,US_Cities_List/mm_huntsville.png,,,,,,,,,,,,,,,,,,,,,,,,,,,,
null,,rt_plussign_withcolor,366586,green,,,,,null,US_Cities_List/nat_carmel.png,US_Cities_List/mm_huntsville.png,,,,,,,,,,,,,,,,,,,,,,,,,,,,
830,,rt_thecrossant_black,368161,black_plus_sign,,,,,50,,,1,0.9705882352941176,,,,,,,,,,,,,,,,,,,,,,,,,,
null,,color_black,368270,black_plus_sign,,,,,null,,,,,,,,,,,,,,,,,,,,,,,,,,,,,,
null,,learn_phase(without_color),370795,black_plus_sign,,,,,null,US_Cities_List/nat_hotsprings.png,US_Cities_List/mm_boulder.png,,,,,,,,,,,,,,,,,,,,,,,,,,,,
null,,black_cross(without_color),371529,green,,,,,null,US_Cities_List/nat_hotsprings.png,US_Cities_List/mm_boulder.png,,,,,,,,,,,,,,,,,,,,,,,,,,,,
null,,rt_plussign_withcolor,372043,green,,,,,null,US_Cities_List/nat_hotsprings.png,US_Cities_List/mm_boulder.png,,,,,,,,,,,,,,,,,,,,,,,,,,,,
676.7000000476837,,rt_thecrossant_black,373336,black_plus_sign,,,,,50,,,1,0.9714285714285714,,,,,,,,,,,,,,,,,,,,,,,,,,
null,,color_black,373445,black_plus_sign,,,,,null,,,,,,,,,,,,,,,,,,,,,,,,,,,,,,
null,,learn_phase(without_color),375969,black_plus_sign,,,,,null,US_Cities_List/mm_peoria.png,US_Cities_List/nat_racine.png,,,,,,,,,,,,,,,,,,,,,,,,,,,,
null,,black_cross(without_color),377027,green,,,,,null,US_Cities_List/mm_peoria.png,US_Cities_List/nat_racine.png,,,,,,,,,,,,,,,,,,,,,,,,,,,,
null,,rt_plussign_withcolor,377541,green,,,,,null,US_Cities_List/mm_peoria.png,US_Cities_List/nat_racine.png,,,,,,,,,,,,,,,,,,,,,,,,,,,,
940.2999999523163,,rt_thecrossant_black,378505,black_plus_sign,,,,,50,,,1,0.9722222222222222,,,,,,,,,,,,,,,,,,,,,,,,,,
null,,color_black,378614,black_plus_sign,,,,,null,,,,,,,,,,,,,,,,,,,,,,,,,,,,,,
null,,learn_phase(without_color),381136,black_plus_sign,,,,,null,US_Cities_List/nat_carmel.png,US_Cities_List/nat_westpalmbeach.png,,,,,,,,,,,,,,,,,,,,,,,,,,,,
null,,black_cross(without_color),381898,blue,,,,,null,US_Cities_List/nat_carmel.png,US_Cities_List/nat_westpalmbeach.png,,,,,,,,,,,,,,,,,,,,,,,,,,,,
null,,rt_plussign_withcolor,382399,blue,,,,,null,US_Cities_List/nat_carmel.png,US_Cities_List/nat_westpalmbeach.png,,,,,,,,,,,,,,,,,,,,,,,,,,,,
1342,,rt_thecrossant_black,383644,black_plus_sign,,,,,49,,,1,0.972972972972973,,,,,,,,,,,,,,,,,,,,,,,,,,
null,,color_black,383753,black_plus_sign,,,,,null,,,,,,,,,,,,,,,,,,,,,,,,,,,,,,
null,,learn_phase(without_color),386275,black_plus_sign,,,,,null,US_Cities_List/mm_leesburg.png,US_Cities_List/nat_shreveport.png,,,,,,,,,,,,,,,,,,,,,,,,,,,,
null,,black_cross(without_color),387276,green,,,,,null,US_Cities_List/mm_leesburg.png,US_Cities_List/nat_shreveport.png,,,,,,,,,,,,,,,,,,,,,,,,,,,,
null,,rt_plussign_withcolor,387791,green,,,,,null,US_Cities_List/mm_leesburg.png,US_Cities_List/nat_shreveport.png,,,,,,,,,,,,,,,,,,,,,,,,,,,,
1029,,rt_thecrossant_black,388816,black_plus_sign,,,,,50,,,1,0.9736842105263158,,,,,,,,,,,,,,,,,,,,,,,,,,
null,,color_black,388926,black_plus_sign,,,,,null,,,,,,,,,,,,,,,,,,,,,,,,,,,,,,
null,,learn_phase(without_color),391450,black_plus_sign,,,,,null,US_Cities_List/mm_peoria.png,US_Cities_List/nat_racine.png,,,,,,,,,,,,,,,,,,,,,,,,,,,,
null,,black_cross(without_color),392391,blue,,,,,null,US_Cities_List/mm_peoria.png,US_Cities_List/nat_racine.png,,,,,,,,,,,,,,,,,,,,,,,,,,,,
null,,rt_plussign_withcolor,392893,blue,,,,,null,US_Cities_List/mm_peoria.png,US_Cities_List/nat_racine.png,,,,,,,,,,,,,,,,,,,,,,,,,,,,
1590,,rt_thecrossant_black,393967,black_plus_sign,,,,,49,,,1,0.9743589743589743,,,,,,,,,,,,,,,,,,,,,,,,,,
null,,color_black,394075,black_plus_sign,,,,,null,,,,,,,,,,,,,,,,,,,,,,,,,,,,,,
null,,learn_phase(without_color),396598,black_plus_sign,,,,,null,US_Cities_List/nat_cornwall.png,US_Cities_List/nat_carmel.png,,,,,,,,,,,,,,,,,,,,,,,,,,,,
null,,black_cross(without_color),397003,green,,,,,null,US_Cities_List/nat_cornwall.png,US_Cities_List/nat_carmel.png,,,,,,,,,,,,,,,,,,,,,,,,,,,,
null,,rt_plussign_withcolor,397516,green,,,,,null,US_Cities_List/nat_cornwall.png,US_Cities_List/nat_carmel.png,,,,,,,,,,,,,,,,,,,,,,,,,,,,
1251.7000000476837,,rt_thecrossant_black,399121,black_plus_sign,,,,,50,,,1,0.975,,,,,,,,,,,,,,,,,,,,,,,,,,
null,,color_black,399230,black_plus_sign,,,,,null,,,,,,,,,,,,,,,,,,,,,,,,,,,,,,
null,,learn_phase(without_color),401751,black_plus_sign,,,,,null,US_Cities_List/nat_gatlinburg.png,US_Cities_List/nat_cornwall.png,,,,,,,,,,,,,,,,,,,,,,,,,,,,
null,,black_cross(without_color),402765,green,,,,,null,US_Cities_List/nat_gatlinburg.png,US_Cities_List/nat_cornwall.png,,,,,,,,,,,,,,,,,,,,,,,,,,,,
null,,rt_plussign_withcolor,403279,green,,,,,null,US_Cities_List/nat_gatlinburg.png,US_Cities_List/nat_cornwall.png,,,,,,,,,,,,,,,,,,,,,,,,,,,,
695.1000000238419,,rt_thecrossant_black,404279,black_plus_sign,,,,,50,,,1,0.975609756097561,,,,,,,,,,,,,,,,,,,,,,,,,,
null,,color_black,404388,black_plus_sign,,,,,null,,,,,,,,,,,,,,,,,,,,,,,,,,,,,,
null,,learn_phase(without_color),406899,black_plus_sign,,,,,null,US_Cities_List/nat_cornwall.png,US_Cities_List/mm_hanover.png,,,,,,,,,,,,,,,,,,,,,,,,,,,,
null,,black_cross(without_color),407431,blue,,,,,null,US_Cities_List/nat_cornwall.png,US_Cities_List/mm_hanover.png,,,,,,,,,,,,,,,,,,,,,,,,,,,,
null,,rt_plussign_withcolor,407943,blue,,,,,null,US_Cities_List/nat_cornwall.png,US_Cities_List/mm_hanover.png,,,,,,,,,,,,,,,,,,,,,,,,,,,,
1714,,rt_thecrossant_black,409425,black_plus_sign,,,,,49,,,1,0.9761904761904762,,,,,,,,,,,,,,,,,,,,,,,,,,
null,,color_black,409534,black_plus_sign,,,,,null,,,,,,,,,,,,,,,,,,,,,,,,,,,,,,
null,,learn_phase(without_color),412043,black_plus_sign,,,,,null,US_Cities_List/mm_huntsville.png,US_Cities_List/mm_peoria.png,,,,,,,,,,,,,,,,,,,,,,,,,,,,
null,,black_cross(without_color),412807,green,,,,,null,US_Cities_List/mm_huntsville.png,US_Cities_List/mm_peoria.png,,,,,,,,,,,,,,,,,,,,,,,,,,,,
null,,rt_plussign_withcolor,413322,green,,,,,null,US_Cities_List/mm_huntsville.png,US_Cities_List/mm_peoria.png,,,,,,,,,,,,,,,,,,,,,,,,,,,,
null,,rt_thecrossant_black,414569,black_plus_sign,,,,,null,,,,0.9761904761904762,,,,,,,,,,,,,,,,,,,,,,,,,,
null,,color_black,414677,black_plus_sign,,,,,null,,,,,,,,,,,,,,,,,,,,,,,,,,,,,,
null,,learn_phase(without_color),417187,black_plus_sign,,,,,null,US_Cities_List/nat_hotsprings.png,US_Cities_List/nat_racine.png,,,,,,,,,,,,,,,,,,,,,,,,,,,,
null,,black_cross(without_color),417825,green,,,,,null,US_Cities_List/nat_hotsprings.png,US_Cities_List/nat_racine.png,,,,,,,,,,,,,,,,,,,,,,,,,,,,
null,,rt_plussign_withcolor,418338,green,,,,,null,US_Cities_List/nat_hotsprings.png,US_Cities_List/nat_racine.png,,,,,,,,,,,,,,,,,,,,,,,,,,,,
1148.1000000238419,,rt_thecrossant_black,419723,black_plus_sign,,,,,50,,,1,0.9767441860465116,,,,,,,,,,,,,,,,,,,,,,,,,,
null,,color_black,419833,black_plus_sign,,,,,null,,,,,,,,,,,,,,,,,,,,,,,,,,,,,,
null,,learn_phase(without_color),422353,black_plus_sign,,,,,null,US_Cities_List/nat_hotsprings.png,US_Cities_List/mm_boulder.png,,,,,,,,,,,,,,,,,,,,,,,,,,,,
null,,black_cross(without_color),422914,green,,,,,null,US_Cities_List/nat_hotsprings.png,US_Cities_List/mm_boulder.png,,,,,,,,,,,,,,,,,,,,,,,,,,,,
null,,rt_plussign_withcolor,423415,green,,,,,null,US_Cities_List/nat_hotsprings.png,US_Cities_List/mm_boulder.png,,,,,,,,,,,,,,,,,,,,,,,,,,,,
1178.2000000476837,,rt_thecrossant_black,424879,black_plus_sign,,,,,50,,,1,0.9772727272727273,,,,,,,,,,,,,,,,,,,,,,,,,,
null,,color_black,424987,black_plus_sign,,,,,null,,,,,,,,,,,,,,,,,,,,,,,,,,,,,,
null,,learn_phase(without_color),427499,black_plus_sign,,,,,null,US_Cities_List/nat_cornwall.png,US_Cities_List/mm_hanover.png,,,,,,,,,,,,,,,,,,,,,,,,,,,,
null,,black_cross(without_color),428341,green,,,,,null,US_Cities_List/nat_cornwall.png,US_Cities_List/mm_hanover.png,,,,,,,,,,,,,,,,,,,,,,,,,,,,
null,,rt_plussign_withcolor,428854,green,,,,,null,US_Cities_List/nat_cornwall.png,US_Cities_List/mm_hanover.png,,,,,,,,,,,,,,,,,,,,,,,,,,,,
827.6999999284744,,rt_thecrossant_black,430036,black_plus_sign,,,,,50,,,1,0.9777777777777777,,,,,,,,,,,,,,,,,,,,,,,,,,
null,,color_black,430145,black_plus_sign,,,,,null,,,,,,,,,,,,,,,,,,,,,,,,,,,,,,
null,,learn_phase(without_color),432664,black_plus_sign,,,,,null,US_Cities_List/nat_shreveport.png,US_Cities_List/nat_gatlinburg.png,,,,,,,,,,,,,,,,,,,,,,,,,,,,
null,,black_cross(without_color),433265,green,,,,,null,US_Cities_List/nat_shreveport.png,US_Cities_List/nat_gatlinburg.png,,,,,,,,,,,,,,,,,,,,,,,,,,,,
null,,rt_plussign_withcolor,433780,green,,,,,null,US_Cities_List/nat_shreveport.png,US_Cities_List/nat_gatlinburg.png,,,,,,,,,,,,,,,,,,,,,,,,,,,,
1395,,rt_thecrossant_black,435197,black_plus_sign,,,,,50,,,1,0.9782608695652174,,,,,,,,,,,,,,,,,,,,,,,,,,
null,,color_black,435305,black_plus_sign,,,,,null,,,,,,,,,,,,,,,,,,,,,,,,,,,,,,
null,,learn_phase(without_color),437832,black_plus_sign,,,,,null,US_Cities_List/nat_hotsprings.png,US_Cities_List/mm_boulder.png,,,,,,,,,,,,,,,,,,,,,,,,,,,,
null,,black_cross(without_color),438411,green,,,,,null,US_Cities_List/nat_hotsprings.png,US_Cities_List/mm_boulder.png,,,,,,,,,,,,,,,,,,,,,,,,,,,,
null,,rt_plussign_withcolor,438924,green,,,,,null,US_Cities_List/nat_hotsprings.png,US_Cities_List/mm_boulder.png,,,,,,,,,,,,,,,,,,,,,,,,,,,,
704.7000000476837,,rt_thecrossant_black,440357,black_plus_sign,,,,,50,,,1,0.9787234042553191,,,,,,,,,,,,,,,,,,,,,,,,,,
null,,color_black,440467,black_plus_sign,,,,,null,,,,,,,,,,,,,,,,,,,,,,,,,,,,,,
null,,learn_phase(without_color),442979,black_plus_sign,,,,,null,US_Cities_List/mm_leesburg.png,US_Cities_List/nat_shreveport.png,,,,,,,,,,,,,,,,,,,,,,,,,,,,
null,,black_cross(without_color),443821,green,,,,,null,US_Cities_List/mm_leesburg.png,US_Cities_List/nat_shreveport.png,,,,,,,,,,,,,,,,,,,,,,,,,,,,
null,,rt_plussign_withcolor,444337,green,,,,,null,US_Cities_List/mm_leesburg.png,US_Cities_List/nat_shreveport.png,,,,,,,,,,,,,,,,,,,,,,,,,,,,
702.5,,rt_thecrossant_black,445522,black_plus_sign,,,,,50,,,1,0.9791666666666666,,,,,,,,,,,,,,,,,,,,,,,,,,
null,,color_black,445632,black_plus_sign,,,,,null,,,,,,,,,,,,,,,,,,,,,,,,,,,,,,
null,,learn_phase(without_color),448156,black_plus_sign,,,,,null,US_Cities_List/mm_peoria.png,US_Cities_List/nat_racine.png,,,,,,,,,,,,,,,,,,,,,,,,,,,,
null,,black_cross(without_color),448655,green,,,,,null,US_Cities_List/mm_peoria.png,US_Cities_List/nat_racine.png,,,,,,,,,,,,,,,,,,,,,,,,,,,,
null,,rt_plussign_withcolor,449156,green,,,,,null,US_Cities_List/mm_peoria.png,US_Cities_List/nat_racine.png,,,,,,,,,,,,,,,,,,,,,,,,,,,,
976.3999999761581,,rt_thecrossant_black,450671,black_plus_sign,,,,,50,,,1,0.9795918367346939,,,,,,,,,,,,,,,,,,,,,,,,,,
null,,color_black,450781,black_plus_sign,,,,,null,,,,,,,,,,,,,,,,,,,,,,,,,,,,,,
null,,learn_phase(without_color),453297,black_plus_sign,,,,,null,US_Cities_List/nat_cornwall.png,US_Cities_List/mm_hanover.png,,,,,,,,,,,,,,,,,,,,,,,,,,,,
null,,black_cross(without_color),454062,blue,,,,,null,US_Cities_List/nat_cornwall.png,US_Cities_List/mm_hanover.png,,,,,,,,,,,,,,,,,,,,,,,,,,,,
null,,rt_plussign_withcolor,454577,blue,,,,,null,US_Cities_List/nat_cornwall.png,US_Cities_List/mm_hanover.png,,,,,,,,,,,,,,,,,,,,,,,,,,,,
922,,rt_thecrossant_black,455822,black_plus_sign,,,,,49,,,1,0.98,,,,,,,,,,,,,,,,,,,,,,,,,,
null,,color_black,455931,black_plus_sign,,,,,null,,,,,,,,,,,,,,,,,,,,,,,,,,,,,,
null,,learn_phase(without_color),458455,black_plus_sign,,,,,null,US_Cities_List/nat_gatlinburg.png,US_Cities_List/nat_cornwall.png,,,,,,,,,,,,,,,,,,,,,,,,,,,,
null,,black_cross(without_color),458985,blue,,,,,null,US_Cities_List/nat_gatlinburg.png,US_Cities_List/nat_cornwall.png,,,,,,,,,,,,,,,,,,,,,,,,,,,,
null,,rt_plussign_withcolor,459500,blue,,,,,null,US_Cities_List/nat_gatlinburg.png,US_Cities_List/nat_cornwall.png,,,,,,,,,,,,,,,,,,,,,,,,,,,,
996,,rt_thecrossant_black,460997,black_plus_sign,,,,,49,,,1,0.9803921568627451,,,,,,,,,,,,,,,,,,,,,,,,,,
null,,color_black,461106,black_plus_sign,,,,,null,,,,,,,,,,,,,,,,,,,,,,,,,,,,,,
null,,learn_phase(without_color),463627,black_plus_sign,,,,,null,US_Cities_List/nat_newhope.png,US_Cities_List/mm_leesburg.png,,,,,,,,,,,,,,,,,,,,,,,,,,,,
null,,black_cross(without_color),464636,green,,,,,null,US_Cities_List/nat_newhope.png,US_Cities_List/mm_leesburg.png,,,,,,,,,,,,,,,,,,,,,,,,,,,,
null,,rt_plussign_withcolor,465151,green,,,,,null,US_Cities_List/nat_newhope.png,US_Cities_List/mm_leesburg.png,,,,,,,,,,,,,,,,,,,,,,,,,,,,
1000.1000000238419,,rt_thecrossant_black,466163,black_plus_sign,,,,,50,,,1,0.9807692307692307,,,,,,,,,,,,,,,,,,,,,,,,,,
null,,color_black,466273,black_plus_sign,,,,,null,,,,,,,,,,,,,,,,,,,,,,,,,,,,,,
null,,learn_phase(without_color),468786,black_plus_sign,,,,,null,US_Cities_List/nat_carmel.png,US_Cities_List/nat_westpalmbeach.png,,,,,,,,,,,,,,,,,,,,,,,,,,,,
null,,black_cross(without_color),469580,blue,,,,,null,US_Cities_List/nat_carmel.png,US_Cities_List/nat_westpalmbeach.png,,,,,,,,,,,,,,,,,,,,,,,,,,,,
null,,rt_plussign_withcolor,470093,blue,,,,,null,US_Cities_List/nat_carmel.png,US_Cities_List/nat_westpalmbeach.png,,,,,,,,,,,,,,,,,,,,,,,,,,,,
1237.2000000476837,,rt_thecrossant_black,471325,black_plus_sign,,,,,49,,,1,0.9811320754716981,,,,,,,,,,,,,,,,,,,,,,,,,,
null,,color_black,471435,black_plus_sign,,,,,null,,,,,,,,,,,,,,,,,,,,,,,,,,,,,,
null,,learn_phase(without_color),473959,black_plus_sign,,,,,null,US_Cities_List/nat_cornwall.png,US_Cities_List/mm_huntsville.png,,,,,,,,,,,,,,,,,,,,,,,,,,,,
null,,black_cross(without_color),474848,green,,,,,null,US_Cities_List/nat_cornwall.png,US_Cities_List/mm_huntsville.png,,,,,,,,,,,,,,,,,,,,,,,,,,,,
null,,rt_plussign_withcolor,475361,green,,,,,null,US_Cities_List/nat_cornwall.png,US_Cities_List/mm_huntsville.png,,,,,,,,,,,,,,,,,,,,,,,,,,,,
1087.1000000238419,,rt_thecrossant_black,476485,black_plus_sign,,,,,50,,,1,0.9814814814814815,,,,,,,,,,,,,,,,,,,,,,,,,,
null,,color_black,476596,black_plus_sign,,,,,null,,,,,,,,,,,,,,,,,,,,,,,,,,,,,,
null,,learn_phase(without_color),479120,black_plus_sign,,,,,null,US_Cities_List/nat_hotsprings.png,US_Cities_List/mm_boulder.png,,,,,,,,,,,,,,,,,,,,,,,,,,,,
null,,black_cross(without_color),480088,green,,,,,null,US_Cities_List/nat_hotsprings.png,US_Cities_List/mm_boulder.png,,,,,,,,,,,,,,,,,,,,,,,,,,,,
null,,rt_plussign_withcolor,480603,green,,,,,null,US_Cities_List/nat_hotsprings.png,US_Cities_List/mm_boulder.png,,,,,,,,,,,,,,,,,,,,,,,,,,,,
1120.2000000476837,,rt_thecrossant_black,481662,black_plus_sign,,,,,49,,,0,0.9636363636363636,,,,,,,,,,,,,,,,,,,,,,,,,,
null,,color_black,481772,black_plus_sign,,,,,null,,,,,,,,,,,,,,,,,,,,,,,,,,,,,,
null,,learn_phase(without_color),484284,black_plus_sign,,,,,null,US_Cities_List/nat_hotsprings.png,US_Cities_List/nat_racine.png,,,,,,,,,,,,,,,,,,,,,,,,,,,,
null,,black_cross(without_color),484704,blue,,,,,null,US_Cities_List/nat_hotsprings.png,US_Cities_List/nat_racine.png,,,,,,,,,,,,,,,,,,,,,,,,,,,,
null,,rt_plussign_withcolor,485218,blue,,,,,null,US_Cities_List/nat_hotsprings.png,US_Cities_List/nat_racine.png,,,,,,,,,,,,,,,,,,,,,,,,,,,,
null,,rt_thecrossant_black,486817,black_plus_sign,,,,,null,,,,0.9636363636363636,,,,,,,,,,,,,,,,,,,,,,,,,,
null,,warning_page,489827,warning,,,,,null,,,,,,,,,,,,,,,,,,,,,,,,,,,,,,
null,,color_black,489936,black_plus_sign,,,,,null,,,,,,,,,,,,,,,,,,,,,,,,,,,,,,
null,,learn_phase(without_color),492462,black_plus_sign,,,,,null,US_Cities_List/nat_newhope.png,US_Cities_List/mm_leesburg.png,,,,,,,,,,,,,,,,,,,,,,,,,,,,
null,,black_cross(without_color),493396,green,,,,,null,US_Cities_List/nat_newhope.png,US_Cities_List/mm_leesburg.png,,,,,,,,,,,,,,,,,,,,,,,,,,,,
null,,rt_plussign_withcolor,493897,green,,,,,null,US_Cities_List/nat_newhope.png,US_Cities_List/mm_leesburg.png,,,,,,,,,,,,,,,,,,,,,,,,,,,,
557.2999999523163,,rt_thecrossant_black,494988,black_plus_sign,,,,,50,,,1,0.9642857142857143,,,,,,,,,,,,,,,,,,,,,,,,,,
null,,color_black,495096,black_plus_sign,,,,,null,,,,,,,,,,,,,,,,,,,,,,,,,,,,,,
null,,learn_phase(without_color),497622,black_plus_sign,,,,,null,US_Cities_List/mm_leesburg.png,US_Cities_List/nat_hotsprings.png,,,,,,,,,,,,,,,,,,,,,,,,,,,,
null,,black_cross(without_color),498182,blue,,,,,null,US_Cities_List/mm_leesburg.png,US_Cities_List/nat_hotsprings.png,,,,,,,,,,,,,,,,,,,,,,,,,,,,
null,,rt_plussign_withcolor,498696,blue,,,,,null,US_Cities_List/mm_leesburg.png,US_Cities_List/nat_hotsprings.png,,,,,,,,,,,,,,,,,,,,,,,,,,,,
null,,rt_thecrossant_black,500146,black_plus_sign,,,,,null,,,,0.9642857142857143,,,,,,,,,,,,,,,,,,,,,,,,,,
null,,color_black,500256,black_plus_sign,,,,,null,,,,,,,,,,,,,,,,,,,,,,,,,,,,,,
null,,learn_phase(without_color),502776,black_plus_sign,,,,,null,US_Cities_List/nat_shreveport.png,US_Cities_List/nat_gatlinburg.png,,,,,,,,,,,,,,,,,,,,,,,,,,,,
null,,black_cross(without_color),503570,green,,,,,null,US_Cities_List/nat_shreveport.png,US_Cities_List/nat_gatlinburg.png,,,,,,,,,,,,,,,,,,,,,,,,,,,,
null,,rt_plussign_withcolor,504084,green,,,,,null,US_Cities_List/nat_shreveport.png,US_Cities_List/nat_gatlinburg.png,,,,,,,,,,,,,,,,,,,,,,,,,,,,
818.1000000238419,,rt_thecrossant_black,505301,black_plus_sign,,,,,50,,,1,0.9649122807017544,,,,,,,,,,,,,,,,,,,,,,,,,,
null,,color_black,505409,black_plus_sign,,,,,null,,,,,,,,,,,,,,,,,,,,,,,,,,,,,,
null,,learn_phase(without_color),507932,black_plus_sign,,,,,null,US_Cities_List/nat_shreveport.png,US_Cities_List/mm_peoria.png,,,,,,,,,,,,,,,,,,,,,,,,,,,,
null,,black_cross(without_color),508817,blue,,,,,null,US_Cities_List/nat_shreveport.png,US_Cities_List/mm_peoria.png,,,,,,,,,,,,,,,,,,,,,,,,,,,,
481.5,,rt_plussign_withcolor,509319,blue,,,,,49,US_Cities_List/nat_shreveport.png,US_Cities_List/mm_peoria.png,,,,,,,,,,,,,,,,,,,,,,,,,,,,
null,,rt_thecrossant_black,510457,black_plus_sign,,,,,null,,,1,0.9655172413793104,,,,,,,,,,,,,,,,,,,,,,,,,,
null,,color_black,510565,black_plus_sign,,,,,null,,,,,,,,,,,,,,,,,,,,,,,,,,,,,,
null,,learn_phase(without_color),513086,black_plus_sign,,,,,null,US_Cities_List/mm_leesburg.png,US_Cities_List/nat_shreveport.png,,,,,,,,,,,,,,,,,,,,,,,,,,,,
null,,black_cross(without_color),514174,green,,,,,null,US_Cities_List/mm_leesburg.png,US_Cities_List/nat_shreveport.png,,,,,,,,,,,,,,,,,,,,,,,,,,,,
null,,rt_plussign_withcolor,514689,green,,,,,null,US_Cities_List/mm_leesburg.png,US_Cities_List/nat_shreveport.png,,,,,,,,,,,,,,,,,,,,,,,,,,,,
1257.8000000715256,,rt_thecrossant_black,515624,black_plus_sign,,,,,50,,,1,0.9661016949152542,,,,,,,,,,,,,,,,,,,,,,,,,,
null,,color_black,515732,black_plus_sign,,,,,null,,,,,,,,,,,,,,,,,,,,,,,,,,,,,,
null,,learn_phase(without_color),518258,black_plus_sign,,,,,null,US_Cities_List/nat_hotsprings.png,US_Cities_List/mm_boulder.png,,,,,,,,,,,,,,,,,,,,,,,,,,,,
null,,black_cross(without_color),518818,blue,,,,,null,US_Cities_List/nat_hotsprings.png,US_Cities_List/mm_boulder.png,,,,,,,,,,,,,,,,,,,,,,,,,,,,
null,,rt_plussign_withcolor,519331,blue,,,,,null,US_Cities_List/nat_hotsprings.png,US_Cities_List/mm_boulder.png,,,,,,,,,,,,,,,,,,,,,,,,,,,,
1456.8999999761581,,rt_thecrossant_black,520792,black_plus_sign,,,,,49,,,1,0.9666666666666667,,,,,,,,,,,,,,,,,,,,,,,,,,
null,,color_black,520901,black_plus_sign,,,,,null,,,,,,,,,,,,,,,,,,,,,,,,,,,,,,
null,,learn_phase(without_color),523424,black_plus_sign,,,,,null,US_Cities_List/nat_gatlinburg.png,US_Cities_List/mm_huntsville.png,,,,,,,,,,,,,,,,,,,,,,,,,,,,
null,,black_cross(without_color),524435,green,,,,,null,US_Cities_List/nat_gatlinburg.png,US_Cities_List/mm_huntsville.png,,,,,,,,,,,,,,,,,,,,,,,,,,,,
448.89999997615814,,rt_plussign_withcolor,524949,green,,,,,50,US_Cities_List/nat_gatlinburg.png,US_Cities_List/mm_huntsville.png,,,,,,,,,,,,,,,,,,,,,,,,,,,,
null,,rt_thecrossant_black,525962,black_plus_sign,,,,,null,,,1,0.9672131147540983,,,,,,,,,,,,,,,,,,,,,,,,,,
null,,color_black,526070,black_plus_sign,,,,,null,,,,,,,,,,,,,,,,,,,,,,,,,,,,,,
null,,learn_phase(without_color),528592,black_plus_sign,,,,,null,US_Cities_List/nat_carmel.png,US_Cities_List/mm_huntsville.png,,,,,,,,,,,,,,,,,,,,,,,,,,,,
null,,black_cross(without_color),529430,green,,,,,null,US_Cities_List/nat_carmel.png,US_Cities_List/mm_huntsville.png,,,,,,,,,,,,,,,,,,,,,,,,,,,,
null,,rt_plussign_withcolor,529944,green,,,,,null,US_Cities_List/nat_carmel.png,US_Cities_List/mm_huntsville.png,,,,,,,,,,,,,,,,,,,,,,,,,,,,
1339.1000000238419,,rt_thecrossant_black,531116,black_plus_sign,,,,,50,,,1,0.967741935483871,,,,,,,,,,,,,,,,,,,,,,,,,,
null,,color_black,531225,black_plus_sign,,,,,null,,,,,,,,,,,,,,,,,,,,,,,,,,,,,,
null,,learn_phase(without_color),533749,black_plus_sign,,,,,null,US_Cities_List/nat_cornwall.png,US_Cities_List/mm_huntsville.png,,,,,,,,,,,,,,,,,,,,,,,,,,,,
null,,black_cross(without_color),534791,blue,,,,,null,US_Cities_List/nat_cornwall.png,US_Cities_List/mm_huntsville.png,,,,,,,,,,,,,,,,,,,,,,,,,,,,
416.2999999523163,,rt_plussign_withcolor,535304,blue,,,,,49,US_Cities_List/nat_cornwall.png,US_Cities_List/mm_huntsville.png,,,,,,,,,,,,,,,,,,,,,,,,,,,,
null,,rt_thecrossant_black,536286,black_plus_sign,,,,,null,,,1,0.9682539682539683,,,,,,,,,,,,,,,,,,,,,,,,,,
null,,color_black,536396,black_plus_sign,,,,,null,,,,,,,,,,,,,,,,,,,,,,,,,,,,,,
null,,learn_phase(without_color),538915,black_plus_sign,,,,,null,US_Cities_List/nat_cornwall.png,US_Cities_List/nat_carmel.png,,,,,,,,,,,,,,,,,,,,,,,,,,,,
null,,black_cross(without_color),539833,blue,,,,,null,US_Cities_List/nat_cornwall.png,US_Cities_List/nat_carmel.png,,,,,,,,,,,,,,,,,,,,,,,,,,,,
null,,rt_plussign_withcolor,540346,blue,,,,,null,US_Cities_List/nat_cornwall.png,US_Cities_List/nat_carmel.png,,,,,,,,,,,,,,,,,,,,,,,,,,,,
1163.6999999284744,,rt_thecrossant_black,541436,black_plus_sign,,,,,50,,,0,0.953125,,,,,,,,,,,,,,,,,,,,,,,,,,
null,,color_black,541545,black_plus_sign,,,,,null,,,,,,,,,,,,,,,,,,,,,,,,,,,,,,
null,,learn_phase(without_color),544056,black_plus_sign,,,,,null,US_Cities_List/nat_carmel.png,US_Cities_List/nat_westpalmbeach.png,,,,,,,,,,,,,,,,,,,,,,,,,,,,
null,,black_cross(without_color),545010,blue,,,,,null,US_Cities_List/nat_carmel.png,US_Cities_List/nat_westpalmbeach.png,,,,,,,,,,,,,,,,,,,,,,,,,,,,
null,,rt_plussign_withcolor,545524,blue,,,,,null,US_Cities_List/nat_carmel.png,US_Cities_List/nat_westpalmbeach.png,,,,,,,,,,,,,,,,,,,,,,,,,,,,
1151.0999999046326,,rt_thecrossant_black,546584,black_plus_sign,,,,,49,,,1,0.9538461538461539,,,,,,,,,,,,,,,,,,,,,,,,,,
null,,color_black,546694,black_plus_sign,,,,,null,,,,,,,,,,,,,,,,,,,,,,,,,,,,,,
null,,learn_phase(without_color),549219,black_plus_sign,,,,,null,US_Cities_List/mm_leesburg.png,US_Cities_List/nat_hotsprings.png,,,,,,,,,,,,,,,,,,,,,,,,,,,,
null,,black_cross(without_color),550221,blue,,,,,null,US_Cities_List/mm_leesburg.png,US_Cities_List/nat_hotsprings.png,,,,,,,,,,,,,,,,,,,,,,,,,,,,
null,,rt_plussign_withcolor,550735,blue,,,,,null,US_Cities_List/mm_leesburg.png,US_Cities_List/nat_hotsprings.png,,,,,,,,,,,,,,,,,,,,,,,,,,,,
1113.4000000953674,,rt_thecrossant_black,551763,black_plus_sign,,,,,49,,,1,0.9545454545454546,,,,,,,,,,,,,,,,,,,,,,,,,,
null,,color_black,551872,black_plus_sign,,,,,null,,,,,,,,,,,,,,,,,,,,,,,,,,,,,,
null,,learn_phase(without_color),554393,black_plus_sign,,,,,null,US_Cities_List/nat_carmel.png,US_Cities_List/mm_huntsville.png,,,,,,,,,,,,,,,,,,,,,,,,,,,,
null,,black_cross(without_color),554907,green,,,,,null,US_Cities_List/nat_carmel.png,US_Cities_List/mm_huntsville.png,,,,,,,,,,,,,,,,,,,,,,,,,,,,
null,,rt_plussign_withcolor,555421,green,,,,,null,US_Cities_List/nat_carmel.png,US_Cities_List/mm_huntsville.png,,,,,,,,,,,,,,,,,,,,,,,,,,,,
1098.8000000715256,,rt_thecrossant_black,556921,black_plus_sign,,,,,50,,,1,0.9552238805970149,,,,,,,,,,,,,,,,,,,,,,,,,,
null,,color_black,557032,black_plus_sign,,,,,null,,,,,,,,,,,,,,,,,,,,,,,,,,,,,,
null,,learn_phase(without_color),559554,black_plus_sign,,,,,null,US_Cities_List/nat_carmel.png,US_Cities_List/nat_westpalmbeach.png,,,,,,,,,,,,,,,,,,,,,,,,,,,,
null,,black_cross(without_color),560085,green,,,,,null,US_Cities_List/nat_carmel.png,US_Cities_List/nat_westpalmbeach.png,,,,,,,,,,,,,,,,,,,,,,,,,,,,
null,,rt_plussign_withcolor,560599,green,,,,,null,US_Cities_List/nat_carmel.png,US_Cities_List/nat_westpalmbeach.png,,,,,,,,,,,,,,,,,,,,,,,,,,,,
1512.8999999761581,,rt_thecrossant_black,562092,black_plus_sign,,,,,50,,,1,0.9558823529411765,,,,,,,,,,,,,,,,,,,,,,,,,,
null,,color_black,562201,black_plus_sign,,,,,null,,,,,,,,,,,,,,,,,,,,,,,,,,,,,,
null,,learn_phase(without_color),564727,black_plus_sign,,,,,null,US_Cities_List/nat_cornwall.png,US_Cities_List/mm_hanover.png,,,,,,,,,,,,,,,,,,,,,,,,,,,,
null,,black_cross(without_color),565693,blue,,,,,null,US_Cities_List/nat_cornwall.png,US_Cities_List/mm_hanover.png,,,,,,,,,,,,,,,,,,,,,,,,,,,,
null,,rt_plussign_withcolor,566207,blue,,,,,null,US_Cities_List/nat_cornwall.png,US_Cities_List/mm_hanover.png,,,,,,,,,,,,,,,,,,,,,,,,,,,,
724,,rt_thecrossant_black,567250,black_plus_sign,,,,,49,,,1,0.9565217391304348,,,,,,,,,,,,,,,,,,,,,,,,,,
null,,color_black,567358,black_plus_sign,,,,,null,,,,,,,,,,,,,,,,,,,,,,,,,,,,,,
null,,learn_phase(without_color),569870,black_plus_sign,,,,,null,US_Cities_List/nat_carmel.png,US_Cities_List/mm_huntsville.png,,,,,,,,,,,,,,,,,,,,,,,,,,,,
null,,black_cross(without_color),570855,blue,,,,,null,US_Cities_List/nat_carmel.png,US_Cities_List/mm_huntsville.png,,,,,,,,,,,,,,,,,,,,,,,,,,,,
null,,rt_plussign_withcolor,571367,blue,,,,,null,US_Cities_List/nat_carmel.png,US_Cities_List/mm_huntsville.png,,,,,,,,,,,,,,,,,,,,,,,,,,,,
1099.5999999046326,,rt_thecrossant_black,572396,black_plus_sign,,,,,49,,,1,0.9571428571428572,,,,,,,,,,,,,,,,,,,,,,,,,,
null,,color_black,572507,black_plus_sign,,,,,null,,,,,,,,,,,,,,,,,,,,,,,,,,,,,,
null,,learn_phase(without_color),575031,black_plus_sign,,,,,null,US_Cities_List/nat_cornwall.png,US_Cities_List/mm_huntsville.png,,,,,,,,,,,,,,,,,,,,,,,,,,,,
null,,black_cross(without_color),575996,blue,,,,,null,US_Cities_List/nat_cornwall.png,US_Cities_List/mm_huntsville.png,,,,,,,,,,,,,,,,,,,,,,,,,,,,
null,,rt_plussign_withcolor,576508,blue,,,,,null,US_Cities_List/nat_cornwall.png,US_Cities_List/mm_huntsville.png,,,,,,,,,,,,,,,,,,,,,,,,,,,,
1186.7999999523163,,rt_thecrossant_black,577565,black_plus_sign,,,,,49,,,1,0.9577464788732394,,,,,,,,,,,,,,,,,,,,,,,,,,
null,,color_black,577675,black_plus_sign,,,,,null,,,,,,,,,,,,,,,,,,,,,,,,,,,,,,
null,,learn_phase(without_color),580200,black_plus_sign,,,,,null,US_Cities_List/nat_shreveport.png,US_Cities_List/nat_gatlinburg.png,,,,,,,,,,,,,,,,,,,,,,,,,,,,
null,,black_cross(without_color),580779,blue,,,,,null,US_Cities_List/nat_shreveport.png,US_Cities_List/nat_gatlinburg.png,,,,,,,,,,,,,,,,,,,,,,,,,,,,
null,,rt_plussign_withcolor,581293,blue,,,,,null,US_Cities_List/nat_shreveport.png,US_Cities_List/nat_gatlinburg.png,,,,,,,,,,,,,,,,,,,,,,,,,,,,
1185.7000000476837,,rt_thecrossant_black,582727,black_plus_sign,,,,,49,,,1,0.9583333333333334,,,,,,,,,,,,,,,,,,,,,,,,,,
null,,color_black,582835,black_plus_sign,,,,,null,,,,,,,,,,,,,,,,,,,,,,,,,,,,,,
null,,learn_phase(without_color),585360,black_plus_sign,,,,,null,US_Cities_List/mm_leesburg.png,US_Cities_List/nat_shreveport.png,,,,,,,,,,,,,,,,,,,,,,,,,,,,
null,,black_cross(without_color),586153,green,,,,,null,US_Cities_List/mm_leesburg.png,US_Cities_List/nat_shreveport.png,,,,,,,,,,,,,,,,,,,,,,,,,,,,
null,,rt_plussign_withcolor,586668,green,,,,,null,US_Cities_List/mm_leesburg.png,US_Cities_List/nat_shreveport.png,,,,,,,,,,,,,,,,,,,,,,,,,,,,
695.5,,rt_thecrossant_black,587894,black_plus_sign,,,,,50,,,1,0.958904109589041,,,,,,,,,,,,,,,,,,,,,,,,,,
null,,color_black,588004,black_plus_sign,,,,,null,,,,,,,,,,,,,,,,,,,,,,,,,,,,,,
null,,learn_phase(without_color),590527,black_plus_sign,,,,,null,US_Cities_List/nat_gatlinburg.png,US_Cities_List/nat_cornwall.png,,,,,,,,,,,,,,,,,,,,,,,,,,,,
null,,black_cross(without_color),591524,blue,,,,,null,US_Cities_List/nat_gatlinburg.png,US_Cities_List/nat_cornwall.png,,,,,,,,,,,,,,,,,,,,,,,,,,,,
455.2999999523163,,rt_plussign_withcolor,592038,blue,,,,,49,US_Cities_List/nat_gatlinburg.png,US_Cities_List/nat_cornwall.png,,,,,,,,,,,,,,,,,,,,,,,,,,,,
null,,rt_thecrossant_black,593052,black_plus_sign,,,,,null,,,1,0.9594594594594594,,,,,,,,,,,,,,,,,,,,,,,,,,
null,,color_black,593161,black_plus_sign,,,,,null,,,,,,,,,,,,,,,,,,,,,,,,,,,,,,
null,,learn_phase(without_color),595682,black_plus_sign,,,,,null,US_Cities_List/mm_leesburg.png,US_Cities_List/nat_hotsprings.png,,,,,,,,,,,,,,,,,,,,,,,,,,,,
null,,black_cross(without_color),596677,blue,,,,,null,US_Cities_List/mm_leesburg.png,US_Cities_List/nat_hotsprings.png,,,,,,,,,,,,,,,,,,,,,,,,,,,,
null,,rt_plussign_withcolor,597190,blue,,,,,null,US_Cities_List/mm_leesburg.png,US_Cities_List/nat_hotsprings.png,,,,,,,,,,,,,,,,,,,,,,,,,,,,
1339.2000000476837,,rt_thecrossant_black,598204,black_plus_sign,,,,,49,,,1,0.96,,,,,,,,,,,,,,,,,,,,,,,,,,
null,,color_black,598313,black_plus_sign,,,,,null,,,,,,,,,,,,,,,,,,,,,,,,,,,,,,
null,,learn_phase(without_color),600828,black_plus_sign,,,,,null,US_Cities_List/nat_newhope.png,US_Cities_List/mm_leesburg.png,,,,,,,,,,,,,,,,,,,,,,,,,,,,
null,,black_cross(without_color),601514,blue,,,,,null,US_Cities_List/nat_newhope.png,US_Cities_List/mm_leesburg.png,,,,,,,,,,,,,,,,,,,,,,,,,,,,
459.2999999523163,,rt_plussign_withcolor,602027,blue,,,,,49,US_Cities_List/nat_newhope.png,US_Cities_List/mm_leesburg.png,,,,,,,,,,,,,,,,,,,,,,,,,,,,
null,,rt_thecrossant_black,603353,black_plus_sign,,,,,null,,,1,0.9605263157894737,,,,,,,,,,,,,,,,,,,,,,,,,,
null,,color_black,603462,black_plus_sign,,,,,null,,,,,,,,,,,,,,,,,,,,,,,,,,,,,,
null,,learn_phase(without_color),605989,black_plus_sign,,,,,null,US_Cities_List/nat_hotsprings.png,US_Cities_List/mm_boulder.png,,,,,,,,,,,,,,,,,,,,,,,,,,,,
null,,black_cross(without_color),606939,green,,,,,null,US_Cities_List/nat_hotsprings.png,US_Cities_List/mm_boulder.png,,,,,,,,,,,,,,,,,,,,,,,,,,,,
505,,rt_plussign_withcolor,607444,green,,,,,50,US_Cities_List/nat_hotsprings.png,US_Cities_List/mm_boulder.png,,,,,,,,,,,,,,,,,,,,,,,,,,,,
null,,rt_thecrossant_black,608514,black_plus_sign,,,,,null,,,1,0.961038961038961,,,,,,,,,,,,,,,,,,,,,,,,,,
null,,color_black,608624,black_plus_sign,,,,,null,,,,,,,,,,,,,,,,,,,,,,,,,,,,,,
null,,learn_phase(without_color),611147,black_plus_sign,,,,,null,US_Cities_List/nat_gatlinburg.png,US_Cities_List/mm_huntsville.png,,,,,,,,,,,,,,,,,,,,,,,,,,,,
null,,black_cross(without_color),611886,green,,,,,null,US_Cities_List/nat_gatlinburg.png,US_Cities_List/mm_huntsville.png,,,,,,,,,,,,,,,,,,,,,,,,,,,,
null,,rt_plussign_withcolor,612399,green,,,,,null,US_Cities_List/nat_gatlinburg.png,US_Cities_List/mm_huntsville.png,,,,,,,,,,,,,,,,,,,,,,,,,,,,
1420.0999999046326,,rt_thecrossant_black,613678,black_plus_sign,,,,,50,,,1,0.9615384615384616,,,,,,,,,,,,,,,,,,,,,,,,,,
null,,color_black,613787,black_plus_sign,,,,,null,,,,,,,,,,,,,,,,,,,,,,,,,,,,,,
null,,learn_phase(without_color),616312,black_plus_sign,,,,,null,US_Cities_List/nat_cornwall.png,US_Cities_List/nat_carmel.png,,,,,,,,,,,,,,,,,,,,,,,,,,,,
null,,black_cross(without_color),616857,green,,,,,null,US_Cities_List/nat_cornwall.png,US_Cities_List/nat_carmel.png,,,,,,,,,,,,,,,,,,,,,,,,,,,,
null,,rt_plussign_withcolor,617371,green,,,,,null,US_Cities_List/nat_cornwall.png,US_Cities_List/nat_carmel.png,,,,,,,,,,,,,,,,,,,,,,,,,,,,
900.8999999761581,,rt_thecrossant_black,618849,black_plus_sign,,,,,50,,,1,0.9620253164556962,,,,,,,,,,,,,,,,,,,,,,,,,,
null,,color_black,618957,black_plus_sign,,,,,null,,,,,,,,,,,,,,,,,,,,,,,,,,,,,,
null,,learn_phase(without_color),621483,black_plus_sign,,,,,null,US_Cities_List/nat_cornwall.png,US_Cities_List/mm_huntsville.png,,,,,,,,,,,,,,,,,,,,,,,,,,,,
null,,black_cross(without_color),622494,blue,,,,,null,US_Cities_List/nat_cornwall.png,US_Cities_List/mm_huntsville.png,,,,,,,,,,,,,,,,,,,,,,,,,,,,
502.3000000715256,,rt_plussign_withcolor,622997,blue,,,,,49,US_Cities_List/nat_cornwall.png,US_Cities_List/mm_huntsville.png,,,,,,,,,,,,,,,,,,,,,,,,,,,,
null,,rt_thecrossant_black,623999,black_plus_sign,,,,,null,,,1,0.9625,,,,,,,,,,,,,,,,,,,,,,,,,,
null,,color_black,624108,black_plus_sign,,,,,null,,,,,,,,,,,,,,,,,,,,,,,,,,,,,,
null,,learn_phase(without_color),626634,black_plus_sign,,,,,null,US_Cities_List/nat_gatlinburg.png,US_Cities_List/mm_huntsville.png,,,,,,,,,,,,,,,,,,,,,,,,,,,,
null,,black_cross(without_color),627114,blue,,,,,null,US_Cities_List/nat_gatlinburg.png,US_Cities_List/mm_huntsville.png,,,,,,,,,,,,,,,,,,,,,,,,,,,,
null,,rt_plussign_withcolor,627629,blue,,,,,null,US_Cities_List/nat_gatlinburg.png,US_Cities_List/mm_huntsville.png,,,,,,,,,,,,,,,,,,,,,,,,,,,,
1327.8999999761581,,rt_thecrossant_black,629172,black_plus_sign,,,,,49,,,1,0.9629629629629629,,,,,,,,,,,,,,,,,,,,,,,,,,
null,,color_black,629282,black_plus_sign,,,,,null,,,,,,,,,,,,,,,,,,,,,,,,,,,,,,
null,,learn_phase(without_color),631799,black_plus_sign,,,,,null,US_Cities_List/mm_huntsville.png,US_Cities_List/mm_peoria.png,,,,,,,,,,,,,,,,,,,,,,,,,,,,
null,,black_cross(without_color),632346,green,,,,,null,US_Cities_List/mm_huntsville.png,US_Cities_List/mm_peoria.png,,,,,,,,,,,,,,,,,,,,,,,,,,,,
null,,rt_plussign_withcolor,632859,green,,,,,null,US_Cities_List/mm_huntsville.png,US_Cities_List/mm_peoria.png,,,,,,,,,,,,,,,,,,,,,,,,,,,,
775.7999999523163,,rt_thecrossant_black,634340,black_plus_sign,,,,,50,,,1,0.9634146341463414,,,,,,,,,,,,,,,,,,,,,,,,,,
null,,color_black,634448,black_plus_sign,,,,,null,,,,,,,,,,,,,,,,,,,,,,,,,,,,,,
null,,learn_phase(without_color),636971,black_plus_sign,,,,,null,US_Cities_List/nat_carmel.png,US_Cities_List/nat_westpalmbeach.png,,,,,,,,,,,,,,,,,,,,,,,,,,,,
null,,black_cross(without_color),637611,blue,,,,,null,US_Cities_List/nat_carmel.png,US_Cities_List/nat_westpalmbeach.png,,,,,,,,,,,,,,,,,,,,,,,,,,,,
null,,rt_plussign_withcolor,638124,blue,,,,,null,US_Cities_List/nat_carmel.png,US_Cities_List/nat_westpalmbeach.png,,,,,,,,,,,,,,,,,,,,,,,,,,,,
953.1000000238419,,rt_thecrossant_black,639510,black_plus_sign,,,,,49,,,1,0.963855421686747,,,,,,,,,,,,,,,,,,,,,,,,,,
null,,color_black,639621,black_plus_sign,,,,,null,,,,,,,,,,,,,,,,,,,,,,,,,,,,,,
null,,learn_phase(without_color),642137,black_plus_sign,,,,,null,US_Cities_List/nat_gatlinburg.png,US_Cities_List/mm_huntsville.png,,,,,,,,,,,,,,,,,,,,,,,,,,,,
null,,black_cross(without_color),643164,blue,,,,,null,US_Cities_List/nat_gatlinburg.png,US_Cities_List/mm_huntsville.png,,,,,,,,,,,,,,,,,,,,,,,,,,,,
null,,rt_plussign_withcolor,643676,blue,,,,,null,US_Cities_List/nat_gatlinburg.png,US_Cities_List/mm_huntsville.png,,,,,,,,,,,,,,,,,,,,,,,,,,,,
925,,rt_thecrossant_black,644654,black_plus_sign,,,,,49,,,1,0.9642857142857143,,,,,,,,,,,,,,,,,,,,,,,,,,
null,,color_black,644762,black_plus_sign,,,,,null,,,,,,,,,,,,,,,,,,,,,,,,,,,,,,
null,,learn_phase(without_color),647273,black_plus_sign,,,,,null,US_Cities_List/nat_carmel.png,US_Cities_List/mm_huntsville.png,,,,,,,,,,,,,,,,,,,,,,,,,,,,
null,,black_cross(without_color),648206,blue,,,,,null,US_Cities_List/nat_carmel.png,US_Cities_List/mm_huntsville.png,,,,,,,,,,,,,,,,,,,,,,,,,,,,
472.89999997615814,,rt_plussign_withcolor,648719,blue,,,,,49,US_Cities_List/nat_carmel.png,US_Cities_List/mm_huntsville.png,,,,,,,,,,,,,,,,,,,,,,,,,,,,
null,,rt_thecrossant_black,649809,black_plus_sign,,,,,null,,,1,0.9647058823529412,,,,,,,,,,,,,,,,,,,,,,,,,,
null,,color_black,649917,black_plus_sign,,,,,null,,,,,,,,,,,,,,,,,,,,,,,,,,,,,,
null,,learn_phase(without_color),652437,black_plus_sign,,,,,null,US_Cities_List/nat_hotsprings.png,US_Cities_List/nat_racine.png,,,,,,,,,,,,,,,,,,,,,,,,,,,,
null,,black_cross(without_color),653449,blue,,,,,null,US_Cities_List/nat_hotsprings.png,US_Cities_List/nat_racine.png,,,,,,,,,,,,,,,,,,,,,,,,,,,,
null,,rt_plussign_withcolor,653961,blue,,,,,null,US_Cities_List/nat_hotsprings.png,US_Cities_List/nat_racine.png,,,,,,,,,,,,,,,,,,,,,,,,,,,,
1048.8999999761581,,rt_thecrossant_black,654972,black_plus_sign,,,,,49,,,1,0.9651162790697675,,,,,,,,,,,,,,,,,,,,,,,,,,
null,,color_black,655080,black_plus_sign,,,,,null,,,,,,,,,,,,,,,,,,,,,,,,,,,,,,
null,,learn_phase(without_color),657607,black_plus_sign,,,,,null,US_Cities_List/mm_peoria.png,US_Cities_List/nat_racine.png,,,,,,,,,,,,,,,,,,,,,,,,,,,,
null,,black_cross(without_color),658546,green,,,,,null,US_Cities_List/mm_peoria.png,US_Cities_List/nat_racine.png,,,,,,,,,,,,,,,,,,,,,,,,,,,,
null,,rt_plussign_withcolor,659061,green,,,,,null,US_Cities_List/mm_peoria.png,US_Cities_List/nat_racine.png,,,,,,,,,,,,,,,,,,,,,,,,,,,,
1280.8999999761581,,rt_thecrossant_black,660139,black_plus_sign,,,,,50,,,1,0.9655172413793104,,,,,,,,,,,,,,,,,,,,,,,,,,
null,,color_black,660247,black_plus_sign,,,,,null,,,,,,,,,,,,,,,,,,,,,,,,,,,,,,
null,,learn_phase(without_color),662768,black_plus_sign,,,,,null,US_Cities_List/nat_gatlinburg.png,US_Cities_List/mm_huntsville.png,,,,,,,,,,,,,,,,,,,,,,,,,,,,
null,,black_cross(without_color),663793,green,,,,,null,US_Cities_List/nat_gatlinburg.png,US_Cities_List/mm_huntsville.png,,,,,,,,,,,,,,,,,,,,,,,,,,,,
null,,rt_plussign_withcolor,664307,green,,,,,null,US_Cities_List/nat_gatlinburg.png,US_Cities_List/mm_huntsville.png,,,,,,,,,,,,,,,,,,,,,,,,,,,,
1223.1000000238419,,rt_thecrossant_black,665303,black_plus_sign,,,,,50,,,1,0.9659090909090909,,,,,,,,,,,,,,,,,,,,,,,,,,
null,,color_black,665412,black_plus_sign,,,,,null,,,,,,,,,,,,,,,,,,,,,,,,,,,,,,
null,,learn_phase(without_color),667923,black_plus_sign,,,,,null,US_Cities_List/nat_newhope.png,US_Cities_List/mm_leesburg.png,,,,,,,,,,,,,,,,,,,,,,,,,,,,
null,,black_cross(without_color),668549,green,,,,,null,US_Cities_List/nat_newhope.png,US_Cities_List/mm_leesburg.png,,,,,,,,,,,,,,,,,,,,,,,,,,,,
null,,rt_plussign_withcolor,669064,green,,,,,null,US_Cities_List/nat_newhope.png,US_Cities_List/mm_leesburg.png,,,,,,,,,,,,,,,,,,,,,,,,,,,,
1184.7999999523163,,rt_thecrossant_black,670452,black_plus_sign,,,,,50,,,1,0.9662921348314607,,,,,,,,,,,,,,,,,,,,,,,,,,
null,,color_black,670561,black_plus_sign,,,,,null,,,,,,,,,,,,,,,,,,,,,,,,,,,,,,
null,,learn_phase(without_color),673072,black_plus_sign,,,,,null,US_Cities_List/nat_cornwall.png,US_Cities_List/nat_carmel.png,,,,,,,,,,,,,,,,,,,,,,,,,,,,
null,,black_cross(without_color),674163,green,,,,,null,US_Cities_List/nat_cornwall.png,US_Cities_List/nat_carmel.png,,,,,,,,,,,,,,,,,,,,,,,,,,,,
null,,rt_plussign_withcolor,674677,green,,,,,null,US_Cities_List/nat_cornwall.png,US_Cities_List/nat_carmel.png,,,,,,,,,,,,,,,,,,,,,,,,,,,,
1301.1000000238419,,rt_thecrossant_black,675609,black_plus_sign,,,,,50,,,1,0.9666666666666667,,,,,,,,,,,,,,,,,,,,,,,,,,
null,,color_black,675717,black_plus_sign,,,,,null,,,,,,,,,,,,,,,,,,,,,,,,,,,,,,
null,,learn_phase(without_color),678236,black_plus_sign,,,,,null,US_Cities_List/nat_shreveport.png,US_Cities_List/mm_peoria.png,,,,,,,,,,,,,,,,,,,,,,,,,,,,
null,,black_cross(without_color),678640,blue,,,,,null,US_Cities_List/nat_shreveport.png,US_Cities_List/mm_peoria.png,,,,,,,,,,,,,,,,,,,,,,,,,,,,
null,,rt_plussign_withcolor,679154,blue,,,,,null,US_Cities_List/nat_shreveport.png,US_Cities_List/mm_peoria.png,,,,,,,,,,,,,,,,,,,,,,,,,,,,
1735.6999999284744,,rt_thecrossant_black,680756,black_plus_sign,,,,,49,,,1,0.967032967032967,,,,,,,,,,,,,,,,,,,,,,,,,,
null,,color_black,680864,black_plus_sign,,,,,null,,,,,,,,,,,,,,,,,,,,,,,,,,,,,,
null,,learn_phase(without_color),683385,black_plus_sign,,,,,null,US_Cities_List/mm_leesburg.png,US_Cities_List/nat_hotsprings.png,,,,,,,,,,,,,,,,,,,,,,,,,,,,
null,,black_cross(without_color),684463,blue,,,,,null,US_Cities_List/mm_leesburg.png,US_Cities_List/nat_hotsprings.png,,,,,,,,,,,,,,,,,,,,,,,,,,,,
null,,rt_plussign_withcolor,684977,blue,,,,,null,US_Cities_List/mm_leesburg.png,US_Cities_List/nat_hotsprings.png,,,,,,,,,,,,,,,,,,,,,,,,,,,,
718.7999999523163,,rt_thecrossant_black,685928,black_plus_sign,,,,,49,,,1,0.967391304347826,,,,,,,,,,,,,,,,,,,,,,,,,,
null,,color_black,686037,black_plus_sign,,,,,null,,,,,,,,,,,,,,,,,,,,,,,,,,,,,,
null,,learn_phase(without_color),688561,black_plus_sign,,,,,null,US_Cities_List/nat_gatlinburg.png,US_Cities_List/mm_huntsville.png,,,,,,,,,,,,,,,,,,,,,,,,,,,,
null,,black_cross(without_color),689063,green,,,,,null,US_Cities_List/nat_gatlinburg.png,US_Cities_List/mm_huntsville.png,,,,,,,,,,,,,,,,,,,,,,,,,,,,
487.1999999284744,,rt_plussign_withcolor,689576,green,,,,,50,US_Cities_List/nat_gatlinburg.png,US_Cities_List/mm_huntsville.png,,,,,,,,,,,,,,,,,,,,,,,,,,,,
null,,rt_thecrossant_black,691087,black_plus_sign,,,,,null,,,1,0.967741935483871,,,,,,,,,,,,,,,,,,,,,,,,,,
null,,color_black,691198,black_plus_sign,,,,,null,,,,,,,,,,,,,,,,,,,,,,,,,,,,,,
null,,learn_phase(without_color),693714,black_plus_sign,,,,,null,US_Cities_List/mm_peoria.png,US_Cities_List/nat_racine.png,,,,,,,,,,,,,,,,,,,,,,,,,,,,
null,,black_cross(without_color),694555,blue,,,,,null,US_Cities_List/mm_peoria.png,US_Cities_List/nat_racine.png,,,,,,,,,,,,,,,,,,,,,,,,,,,,
null,,rt_plussign_withcolor,695068,blue,,,,,null,US_Cities_List/mm_peoria.png,US_Cities_List/nat_racine.png,,,,,,,,,,,,,,,,,,,,,,,,,,,,
767.5,,rt_thecrossant_black,696235,black_plus_sign,,,,,49,,,1,0.9680851063829787,,,,,,,,,,,,,,,,,,,,,,,,,,
null,,color_black,696343,black_plus_sign,,,,,null,,,,,,,,,,,,,,,,,,,,,,,,,,,,,,
null,,learn_phase(without_color),698869,black_plus_sign,,,,,null,US_Cities_List/mm_leesburg.png,US_Cities_List/nat_hotsprings.png,,,,,,,,,,,,,,,,,,,,,,,,,,,,
null,,black_cross(without_color),699740,blue,,,,,null,US_Cities_List/mm_leesburg.png,US_Cities_List/nat_hotsprings.png,,,,,,,,,,,,,,,,,,,,,,,,,,,,
null,,rt_plussign_withcolor,700254,blue,,,,,null,US_Cities_List/mm_leesburg.png,US_Cities_List/nat_hotsprings.png,,,,,,,,,,,,,,,,,,,,,,,,,,,,
1631.8999999761581,,rt_thecrossant_black,701392,black_plus_sign,,,,,49,,,1,0.968421052631579,,,,,,,,,,,,,,,,,,,,,,,,,,
null,,color_black,701501,black_plus_sign,,,,,null,,,,,,,,,,,,,,,,,,,,,,,,,,,,,,
null,,learn_phase(without_color),704018,black_plus_sign,,,,,null,US_Cities_List/mm_leesburg.png,US_Cities_List/nat_shreveport.png,,,,,,,,,,,,,,,,,,,,,,,,,,,,
null,,black_cross(without_color),705031,blue,,,,,null,US_Cities_List/mm_leesburg.png,US_Cities_List/nat_shreveport.png,,,,,,,,,,,,,,,,,,,,,,,,,,,,
null,,rt_plussign_withcolor,705538,blue,,,,,null,US_Cities_List/mm_leesburg.png,US_Cities_List/nat_shreveport.png,,,,,,,,,,,,,,,,,,,,,,,,,,,,
1115.7999999523163,,rt_thecrossant_black,706555,black_plus_sign,,,,,49,,,1,0.96875,,,,,,,,,,,,,,,,,,,,,,,,,,
null,,color_black,706663,black_plus_sign,,,,,null,,,,,,,,,,,,,,,,,,,,,,,,,,,,,,
null,,learn_phase(without_color),709191,black_plus_sign,,,,,null,US_Cities_List/nat_shreveport.png,US_Cities_List/mm_peoria.png,,,,,,,,,,,,,,,,,,,,,,,,,,,,
null,,black_cross(without_color),709909,green,,,,,null,US_Cities_List/nat_shreveport.png,US_Cities_List/mm_peoria.png,,,,,,,,,,,,,,,,,,,,,,,,,,,,
null,,rt_plussign_withcolor,710423,green,,,,,null,US_Cities_List/nat_shreveport.png,US_Cities_List/mm_peoria.png,,,,,,,,,,,,,,,,,,,,,,,,,,,,
1389.2999999523163,,rt_thecrossant_black,711715,black_plus_sign,,,,,50,,,1,0.9690721649484536,,,,,,,,,,,,,,,,,,,,,,,,,,
null,,color_black,711823,black_plus_sign,,,,,null,,,,,,,,,,,,,,,,,,,,,,,,,,,,,,
null,,learn_phase(without_color),714344,black_plus_sign,,,,,null,US_Cities_List/nat_gatlinburg.png,US_Cities_List/nat_cornwall.png,,,,,,,,,,,,,,,,,,,,,,,,,,,,
null,,black_cross(without_color),715091,blue,,,,,null,US_Cities_List/nat_gatlinburg.png,US_Cities_List/nat_cornwall.png,,,,,,,,,,,,,,,,,,,,,,,,,,,,
null,,rt_plussign_withcolor,715606,blue,,,,,null,US_Cities_List/nat_gatlinburg.png,US_Cities_List/nat_cornwall.png,,,,,,,,,,,,,,,,,,,,,,,,,,,,
992,,rt_thecrossant_black,716867,black_plus_sign,,,,,49,,,1,0.9693877551020408,,,,,,,,,,,,,,,,,,,,,,,,,,
null,,color_black,716977,black_plus_sign,,,,,null,,,,,,,,,,,,,,,,,,,,,,,,,,,,,,
null,,learn_phase(without_color),719501,black_plus_sign,,,,,null,US_Cities_List/nat_cornwall.png,US_Cities_List/nat_carmel.png,,,,,,,,,,,,,,,,,,,,,,,,,,,,
null,,black_cross(without_color),720340,green,,,,,null,US_Cities_List/nat_cornwall.png,US_Cities_List/nat_carmel.png,,,,,,,,,,,,,,,,,,,,,,,,,,,,
null,,rt_plussign_withcolor,720856,green,,,,,null,US_Cities_List/nat_cornwall.png,US_Cities_List/nat_carmel.png,,,,,,,,,,,,,,,,,,,,,,,,,,,,
1093.6999999284744,,rt_thecrossant_black,722039,black_plus_sign,,,,,49,,,0,0.9595959595959596,,,,,,,,,,,,,,,,,,,,,,,,,,
null,,color_black,722148,black_plus_sign,,,,,null,,,,,,,,,,,,,,,,,,,,,,,,,,,,,,
null,,learn_phase(without_color),724674,black_plus_sign,,,,,null,US_Cities_List/nat_shreveport.png,US_Cities_List/nat_gatlinburg.png,,,,,,,,,,,,,,,,,,,,,,,,,,,,
null,,black_cross(without_color),725108,green,,,,,null,US_Cities_List/nat_shreveport.png,US_Cities_List/nat_gatlinburg.png,,,,,,,,,,,,,,,,,,,,,,,,,,,,
null,,rt_plussign_withcolor,725621,green,,,,,null,US_Cities_List/nat_shreveport.png,US_Cities_List/nat_gatlinburg.png,,,,,,,,,,,,,,,,,,,,,,,,,,,,
1243,,rt_thecrossant_black,727195,black_plus_sign,,,,,50,,,1,0.96,,,,,,,,,,,,,,,,,,,,,,,,,,
null,,color_black,727303,black_plus_sign,,,,,null,,,,,,,,,,,,,,,,,,,,,,,,,,,,,,
null,,learn_phase(without_color),729826,black_plus_sign,,,,,null,US_Cities_List/nat_carmel.png,US_Cities_List/mm_huntsville.png,,,,,,,,,,,,,,,,,,,,,,,,,,,,
null,,black_cross(without_color),730874,green,,,,,null,US_Cities_List/nat_carmel.png,US_Cities_List/mm_huntsville.png,,,,,,,,,,,,,,,,,,,,,,,,,,,,
488.60000002384186,,rt_plussign_withcolor,731375,green,,,,,50,US_Cities_List/nat_carmel.png,US_Cities_List/mm_huntsville.png,,,,,,,,,,,,,,,,,,,,,,,,,,,,
null,,rt_thecrossant_black,732335,black_plus_sign,,,,,null,,,1,0.9603960396039604,,,,,,,,,,,,,,,,,,,,,,,,,,
null,,color_black,732443,black_plus_sign,,,,,null,,,,,,,,,,,,,,,,,,,,,,,,,,,,,,
null,,learn_phase(without_color),734957,black_plus_sign,,,,,null,US_Cities_List/mm_leesburg.png,US_Cities_List/nat_hotsprings.png,,,,,,,,,,,,,,,,,,,,,,,,,,,,
null,,black_cross(without_color),735379,green,,,,,null,US_Cities_List/mm_leesburg.png,US_Cities_List/nat_hotsprings.png,,,,,,,,,,,,,,,,,,,,,,,,,,,,
null,,rt_plussign_withcolor,735892,green,,,,,null,US_Cities_List/mm_leesburg.png,US_Cities_List/nat_hotsprings.png,,,,,,,,,,,,,,,,,,,,,,,,,,,,
1266.5,,rt_thecrossant_black,737493,black_plus_sign,,,,,50,,,1,0.9607843137254902,,,,,,,,,,,,,,,,,,,,,,,,,,
null,,color_black,737604,black_plus_sign,,,,,null,,,,,,,,,,,,,,,,,,,,,,,,,,,,,,
null,,learn_phase(without_color),740125,black_plus_sign,,,,,null,US_Cities_List/mm_huntsville.png,US_Cities_List/mm_peoria.png,,,,,,,,,,,,,,,,,,,,,,,,,,,,
null,,black_cross(without_color),740717,blue,,,,,null,US_Cities_List/mm_huntsville.png,US_Cities_List/mm_peoria.png,,,,,,,,,,,,,,,,,,,,,,,,,,,,
395.09999990463257,,rt_plussign_withcolor,741229,blue,,,,,49,US_Cities_List/mm_huntsville.png,US_Cities_List/mm_peoria.png,,,,,,,,,,,,,,,,,,,,,,,,,,,,
null,,rt_thecrossant_black,742656,black_plus_sign,,,,,49,,,1,0.9611650485436893,,,,,,,,,,,,,,,,,,,,,,,,,,
null,,color_black,742766,black_plus_sign,,,,,null,,,,,,,,,,,,,,,,,,,,,,,,,,,,,,
null,,learn_phase(without_color),745290,black_plus_sign,,,,,null,US_Cities_List/nat_newhope.png,US_Cities_List/mm_leesburg.png,,,,,,,,,,,,,,,,,,,,,,,,,,,,
null,,black_cross(without_color),746195,blue,,,,,null,US_Cities_List/nat_newhope.png,US_Cities_List/mm_leesburg.png,,,,,,,,,,,,,,,,,,,,,,,,,,,,
null,,rt_plussign_withcolor,746712,blue,,,,,null,US_Cities_List/nat_newhope.png,US_Cities_List/mm_leesburg.png,,,,,,,,,,,,,,,,,,,,,,,,,,,,
688.5,,rt_thecrossant_black,747819,black_plus_sign,,,,,49,,,1,0.9615384615384616,,,,,,,,,,,,,,,,,,,,,,,,,,
null,,color_black,747928,black_plus_sign,,,,,null,,,,,,,,,,,,,,,,,,,,,,,,,,,,,,
null,,learn_phase(without_color),750454,black_plus_sign,,,,,null,US_Cities_List/nat_gatlinburg.png,US_Cities_List/mm_huntsville.png,,,,,,,,,,,,,,,,,,,,,,,,,,,,
null,,black_cross(without_color),751345,blue,,,,,null,US_Cities_List/nat_gatlinburg.png,US_Cities_List/mm_huntsville.png,,,,,,,,,,,,,,,,,,,,,,,,,,,,
null,,rt_plussign_withcolor,751858,blue,,,,,null,US_Cities_List/nat_gatlinburg.png,US_Cities_List/mm_huntsville.png,,,,,,,,,,,,,,,,,,,,,,,,,,,,
1094,,rt_thecrossant_black,752982,black_plus_sign,,,,,49,,,1,0.9619047619047619,,,,,,,,,,,,,,,,,,,,,,,,,,
null,,color_black,753092,black_plus_sign,,,,,null,,,,,,,,,,,,,,,,,,,,,,,,,,,,,,
null,,learn_phase(without_color),755608,black_plus_sign,,,,,null,US_Cities_List/nat_hotsprings.png,US_Cities_List/nat_racine.png,,,,,,,,,,,,,,,,,,,,,,,,,,,,
null,,black_cross(without_color),756558,blue,,,,,null,US_Cities_List/nat_hotsprings.png,US_Cities_List/nat_racine.png,,,,,,,,,,,,,,,,,,,,,,,,,,,,
null,,rt_plussign_withcolor,757072,blue,,,,,null,US_Cities_List/nat_hotsprings.png,US_Cities_List/nat_racine.png,,,,,,,,,,,,,,,,,,,,,,,,,,,,
1028.3999999761581,,rt_thecrossant_black,758149,black_plus_sign,,,,,49,,,1,0.9622641509433962,,,,,,,,,,,,,,,,,,,,,,,,,,
null,,color_black,758258,black_plus_sign,,,,,null,,,,,,,,,,,,,,,,,,,,,,,,,,,,,,
null,,learn_phase(without_color),760783,black_plus_sign,,,,,null,US_Cities_List/nat_cornwall.png,US_Cities_List/mm_huntsville.png,,,,,,,,,,,,,,,,,,,,,,,,,,,,
null,,black_cross(without_color),761471,blue,,,,,null,US_Cities_List/nat_cornwall.png,US_Cities_List/mm_huntsville.png,,,,,,,,,,,,,,,,,,,,,,,,,,,,
null,,rt_plussign_withcolor,761984,blue,,,,,null,US_Cities_List/nat_cornwall.png,US_Cities_List/mm_huntsville.png,,,,,,,,,,,,,,,,,,,,,,,,,,,,
1106.7000000476837,,rt_thecrossant_black,763305,black_plus_sign,,,,,49,,,1,0.9626168224299065,,,,,,,,,,,,,,,,,,,,,,,,,,
null,,color_black,763415,black_plus_sign,,,,,null,,,,,,,,,,,,,,,,,,,,,,,,,,,,,,
null,,learn_phase(without_color),765941,black_plus_sign,,,,,null,US_Cities_List/nat_gatlinburg.png,US_Cities_List/nat_cornwall.png,,,,,,,,,,,,,,,,,,,,,,,,,,,,
null,,black_cross(without_color),766656,blue,,,,,null,US_Cities_List/nat_gatlinburg.png,US_Cities_List/nat_cornwall.png,,,,,,,,,,,,,,,,,,,,,,,,,,,,
null,,rt_plussign_withcolor,767170,blue,,,,,null,US_Cities_List/nat_gatlinburg.png,US_Cities_List/nat_cornwall.png,,,,,,,,,,,,,,,,,,,,,,,,,,,,
901.8999999761581,,rt_thecrossant_black,768480,black_plus_sign,,,,,49,,,1,0.9629629629629629,,,,,,,,,,,,,,,,,,,,,,,,,,
null,,color_black,768589,black_plus_sign,,,,,null,,,,,,,,,,,,,,,,,,,,,,,,,,,,,,
null,,learn_phase(without_color),771115,black_plus_sign,,,,,null,US_Cities_List/nat_hotsprings.png,US_Cities_List/nat_racine.png,,,,,,,,,,,,,,,,,,,,,,,,,,,,
null,,black_cross(without_color),772142,blue,,,,,null,US_Cities_List/nat_hotsprings.png,US_Cities_List/nat_racine.png,,,,,,,,,,,,,,,,,,,,,,,,,,,,
null,,rt_plussign_withcolor,772655,blue,,,,,null,US_Cities_List/nat_hotsprings.png,US_Cities_List/nat_racine.png,,,,,,,,,,,,,,,,,,,,,,,,,,,,
879.8000000715256,,rt_thecrossant_black,773652,black_plus_sign,,,,,49,,,1,0.963302752293578,,,,,,,,,,,,,,,,,,,,,,,,,,
null,,color_black,773760,black_plus_sign,,,,,null,,,,,,,,,,,,,,,,,,,,,,,,,,,,,,
null,,learn_phase(without_color),776271,black_plus_sign,,,,,null,US_Cities_List/nat_hotsprings.png,US_Cities_List/mm_boulder.png,,,,,,,,,,,,,,,,,,,,,,,,,,,,
null,,black_cross(without_color),776740,green,,,,,null,US_Cities_List/nat_hotsprings.png,US_Cities_List/mm_boulder.png,,,,,,,,,,,,,,,,,,,,,,,,,,,,
null,,rt_plussign_withcolor,777241,green,,,,,null,US_Cities_List/nat_hotsprings.png,US_Cities_List/mm_boulder.png,,,,,,,,,,,,,,,,,,,,,,,,,,,,
1123.3999999761581,,rt_thecrossant_black,778782,black_plus_sign,,,,,50,,,1,0.9636363636363636,,,,,,,,,,,,,,,,,,,,,,,,,,
null,,color_black,778891,black_plus_sign,,,,,null,,,,,,,,,,,,,,,,,,,,,,,,,,,,,,
null,,learn_phase(without_color),781414,black_plus_sign,,,,,null,US_Cities_List/mm_peoria.png,US_Cities_List/nat_racine.png,,,,,,,,,,,,,,,,,,,,,,,,,,,,
null,,black_cross(without_color),781897,blue,,,,,null,US_Cities_List/mm_peoria.png,US_Cities_List/nat_racine.png,,,,,,,,,,,,,,,,,,,,,,,,,,,,
null,,rt_plussign_withcolor,782410,blue,,,,,null,US_Cities_List/mm_peoria.png,US_Cities_List/nat_racine.png,,,,,,,,,,,,,,,,,,,,,,,,,,,,
674.1000000238419,,rt_thecrossant_black,783952,black_plus_sign,,,,,49,,,1,0.963963963963964,,,,,,,,,,,,,,,,,,,,,,,,,,
null,,color_black,784061,black_plus_sign,,,,,null,,,,,,,,,,,,,,,,,,,,,,,,,,,,,,
null,,learn_phase(without_color),786570,black_plus_sign,,,,,null,US_Cities_List/nat_carmel.png,US_Cities_List/nat_westpalmbeach.png,,,,,,,,,,,,,,,,,,,,,,,,,,,,
null,,black_cross(without_color),787627,green,,,,,null,US_Cities_List/nat_carmel.png,US_Cities_List/nat_westpalmbeach.png,,,,,,,,,,,,,,,,,,,,,,,,,,,,
null,,rt_plussign_withcolor,788141,green,,,,,null,US_Cities_List/nat_carmel.png,US_Cities_List/nat_westpalmbeach.png,,,,,,,,,,,,,,,,,,,,,,,,,,,,
589.6999999284744,,rt_thecrossant_black,789106,black_plus_sign,,,,,49,,,0,0.9553571428571429,,,,,,,,,,,,,,,,,,,,,,,,,,
null,,color_black,789214,black_plus_sign,,,,,null,,,,,,,,,,,,,,,,,,,,,,,,,,,,,,
null,,learn_phase(without_color),791728,black_plus_sign,,,,,null,US_Cities_List/nat_gatlinburg.png,US_Cities_List/mm_huntsville.png,,,,,,,,,,,,,,,,,,,,,,,,,,,,
null,,black_cross(without_color),792444,green,,,,,null,US_Cities_List/nat_gatlinburg.png,US_Cities_List/mm_huntsville.png,,,,,,,,,,,,,,,,,,,,,,,,,,,,
null,,rt_plussign_withcolor,792958,green,,,,,null,US_Cities_List/nat_gatlinburg.png,US_Cities_List/mm_huntsville.png,,,,,,,,,,,,,,,,,,,,,,,,,,,,
1178.1999999284744,,rt_thecrossant_black,794269,black_plus_sign,,,,,50,,,1,0.9557522123893806,,,,,,,,,,,,,,,,,,,,,,,,,,
null,,color_black,794376,black_plus_sign,,,,,null,,,,,,,,,,,,,,,,,,,,,,,,,,,,,,
null,,learn_phase(without_color),796899,black_plus_sign,,,,,null,US_Cities_List/nat_newhope.png,US_Cities_List/mm_leesburg.png,,,,,,,,,,,,,,,,,,,,,,,,,,,,
null,,black_cross(without_color),797614,blue,,,,,null,US_Cities_List/nat_newhope.png,US_Cities_List/mm_leesburg.png,,,,,,,,,,,,,,,,,,,,,,,,,,,,
null,,rt_plussign_withcolor,798128,blue,,,,,null,US_Cities_List/nat_newhope.png,US_Cities_List/mm_leesburg.png,,,,,,,,,,,,,,,,,,,,,,,,,,,,
886.5,,rt_thecrossant_black,799432,black_plus_sign,,,,,49,,,1,0.956140350877193,,,,,,,,,,,,,,,,,,,,,,,,,,
null,,color_black,799541,black_plus_sign,,,,,null,,,,,,,,,,,,,,,,,,,,,,,,,,,,,,
null,,learn_phase(without_color),802065,black_plus_sign,,,,,null,US_Cities_List/nat_carmel.png,US_Cities_List/nat_westpalmbeach.png,,,,,,,,,,,,,,,,,,,,,,,,,,,,
null,,black_cross(without_color),802954,blue,,,,,null,US_Cities_List/nat_carmel.png,US_Cities_List/nat_westpalmbeach.png,,,,,,,,,,,,,,,,,,,,,,,,,,,,
null,,rt_plussign_withcolor,803469,blue,,,,,null,US_Cities_List/nat_carmel.png,US_Cities_List/nat_westpalmbeach.png,,,,,,,,,,,,,,,,,,,,,,,,,,,,
808,,rt_thecrossant_black,804591,black_plus_sign,,,,,49,,,1,0.9565217391304348,,,,,,,,,,,,,,,,,,,,,,,,,,
null,,color_black,804700,black_plus_sign,,,,,null,,,,,,,,,,,,,,,,,,,,,,,,,,,,,,
null,,learn_phase(without_color),807228,black_plus_sign,,,,,null,US_Cities_List/nat_shreveport.png,US_Cities_List/nat_gatlinburg.png,,,,,,,,,,,,,,,,,,,,,,,,,,,,
null,,black_cross(without_color),808023,green,,,,,null,US_Cities_List/nat_shreveport.png,US_Cities_List/nat_gatlinburg.png,,,,,,,,,,,,,,,,,,,,,,,,,,,,
null,,rt_plussign_withcolor,808535,green,,,,,null,US_Cities_List/nat_shreveport.png,US_Cities_List/nat_gatlinburg.png,,,,,,,,,,,,,,,,,,,,,,,,,,,,
987,,rt_thecrossant_black,809751,black_plus_sign,,,,,50,,,1,0.9568965517241379,,,,,,,,,,,,,,,,,,,,,,,,,,
null,,color_black,809861,black_plus_sign,,,,,null,,,,,,,,,,,,,,,,,,,,,,,,,,,,,,
null,,learn_phase(without_color),812384,black_plus_sign,,,,,null,US_Cities_List/nat_cornwall.png,US_Cities_List/mm_hanover.png,,,,,,,,,,,,,,,,,,,,,,,,,,,,
null,,black_cross(without_color),813102,blue,,,,,null,US_Cities_List/nat_cornwall.png,US_Cities_List/mm_hanover.png,,,,,,,,,,,,,,,,,,,,,,,,,,,,
null,,rt_plussign_withcolor,813618,blue,,,,,null,US_Cities_List/nat_cornwall.png,US_Cities_List/mm_hanover.png,,,,,,,,,,,,,,,,,,,,,,,,,,,,
994.5999999046326,,rt_thecrossant_black,814926,black_plus_sign,,,,,49,,,1,0.9572649572649573,,,,,,,,,,,,,,,,,,,,,,,,,,
null,,color_black,815034,black_plus_sign,,,,,null,,,,,,,,,,,,,,,,,,,,,,,,,,,,,,
null,,learn_phase(without_color),817553,black_plus_sign,,,,,null,US_Cities_List/nat_shreveport.png,US_Cities_List/mm_peoria.png,,,,,,,,,,,,,,,,,,,,,,,,,,,,
null,,black_cross(without_color),818177,green,,,,,null,US_Cities_List/nat_shreveport.png,US_Cities_List/mm_peoria.png,,,,,,,,,,,,,,,,,,,,,,,,,,,,
null,,rt_plussign_withcolor,818693,green,,,,,null,US_Cities_List/nat_shreveport.png,US_Cities_List/mm_peoria.png,,,,,,,,,,,,,,,,,,,,,,,,,,,,
1069.2000000476837,,rt_thecrossant_black,820083,black_plus_sign,,,,,50,,,1,0.9576271186440678,,,,,,,,,,,,,,,,,,,,,,,,,,
null,,color_black,820192,black_plus_sign,,,,,null,,,,,,,,,,,,,,,,,,,,,,,,,,,,,,
null,,learn_phase(without_color),822710,black_plus_sign,,,,,null,US_Cities_List/nat_gatlinburg.png,US_Cities_List/nat_cornwall.png,,,,,,,,,,,,,,,,,,,,,,,,,,,,
null,,black_cross(without_color),823130,green,,,,,null,US_Cities_List/nat_gatlinburg.png,US_Cities_List/nat_cornwall.png,,,,,,,,,,,,,,,,,,,,,,,,,,,,
null,,rt_plussign_withcolor,823643,green,,,,,null,US_Cities_List/nat_gatlinburg.png,US_Cities_List/nat_cornwall.png,,,,,,,,,,,,,,,,,,,,,,,,,,,,
944,,rt_thecrossant_black,825230,black_plus_sign,,,,,50,,,1,0.957983193277311,,,,,,,,,,,,,,,,,,,,,,,,,,
null,,color_black,825339,black_plus_sign,,,,,null,,,,,,,,,,,,,,,,,,,,,,,,,,,,,,
null,,learn_phase(without_color),827861,black_plus_sign,,,,,null,US_Cities_List/mm_huntsville.png,US_Cities_List/mm_peoria.png,,,,,,,,,,,,,,,,,,,,,,,,,,,,
null,,black_cross(without_color),828778,green,,,,,null,US_Cities_List/mm_huntsville.png,US_Cities_List/mm_peoria.png,,,,,,,,,,,,,,,,,,,,,,,,,,,,
null,,rt_plussign_withcolor,829280,green,,,,,null,US_Cities_List/mm_huntsville.png,US_Cities_List/mm_peoria.png,,,,,,,,,,,,,,,,,,,,,,,,,,,,
535.1999999284744,,rt_thecrossant_black,830381,black_plus_sign,,,,,50,,,1,0.9583333333333334,,,,,,,,,,,,,,,,,,,,,,,,,,
null,,color_black,830490,black_plus_sign,,,,,null,,,,,,,,,,,,,,,,,,,,,,,,,,,,,,
null,,learn_phase(without_color),833013,black_plus_sign,,,,,null,US_Cities_List/nat_carmel.png,US_Cities_List/nat_westpalmbeach.png,,,,,,,,,,,,,,,,,,,,,,,,,,,,
null,,black_cross(without_color),834088,green,,,,,null,US_Cities_List/nat_carmel.png,US_Cities_List/nat_westpalmbeach.png,,,,,,,,,,,,,,,,,,,,,,,,,,,,
null,,rt_plussign_withcolor,834603,green,,,,,null,US_Cities_List/nat_carmel.png,US_Cities_List/nat_westpalmbeach.png,,,,,,,,,,,,,,,,,,,,,,,,,,,,
1025.1000000238419,,rt_thecrossant_black,835537,black_plus_sign,,,,,50,,,1,0.9586776859504132,,,,,,,,,,,,,,,,,,,,,,,,,,
null,,color_black,835645,black_plus_sign,,,,,null,,,,,,,,,,,,,,,,,,,,,,,,,,,,,,
null,,learn_phase(without_color),838170,black_plus_sign,,,,,null,US_Cities_List/nat_carmel.png,US_Cities_List/mm_huntsville.png,,,,,,,,,,,,,,,,,,,,,,,,,,,,
null,,black_cross(without_color),838591,blue,,,,,null,US_Cities_List/nat_carmel.png,US_Cities_List/mm_huntsville.png,,,,,,,,,,,,,,,,,,,,,,,,,,,,
null,,rt_plussign_withcolor,839104,blue,,,,,null,US_Cities_List/nat_carmel.png,US_Cities_List/mm_huntsville.png,,,,,,,,,,,,,,,,,,,,,,,,,,,,
1191.8999999761581,,rt_thecrossant_black,840705,black_plus_sign,,,,,49,,,1,0.9590163934426229,,,,,,,,,,,,,,,,,,,,,,,,,,
null,,color_black,840813,black_plus_sign,,,,,null,,,,,,,,,,,,,,,,,,,,,,,,,,,,,,
null,,learn_phase(without_color),843328,black_plus_sign,,,,,null,US_Cities_List/nat_cornwall.png,US_Cities_List/mm_huntsville.png,,,,,,,,,,,,,,,,,,,,,,,,,,,,
null,,black_cross(without_color),843837,blue,,,,,null,US_Cities_List/nat_cornwall.png,US_Cities_List/mm_huntsville.png,,,,,,,,,,,,,,,,,,,,,,,,,,,,
null,,rt_plussign_withcolor,844352,blue,,,,,null,US_Cities_List/nat_cornwall.png,US_Cities_List/mm_huntsville.png,,,,,,,,,,,,,,,,,,,,,,,,,,,,
761.8000000715256,,rt_thecrossant_black,845862,black_plus_sign,,,,,49,,,1,0.959349593495935,,,,,,,,,,,,,,,,,,,,,,,,,,
null,,color_black,845972,black_plus_sign,,,,,null,,,,,,,,,,,,,,,,,,,,,,,,,,,,,,
null,,learn_phase(without_color),848497,black_plus_sign,,,,,null,US_Cities_List/mm_leesburg.png,US_Cities_List/nat_hotsprings.png,,,,,,,,,,,,,,,,,,,,,,,,,,,,
null,,black_cross(without_color),849588,green,,,,,null,US_Cities_List/mm_leesburg.png,US_Cities_List/nat_hotsprings.png,,,,,,,,,,,,,,,,,,,,,,,,,,,,
481.09999990463257,,rt_plussign_withcolor,850090,green,,,,,50,US_Cities_List/mm_leesburg.png,US_Cities_List/nat_hotsprings.png,,,,,,,,,,,,,,,,,,,,,,,,,,,,
null,,rt_thecrossant_black,851018,black_plus_sign,,,,,null,,,1,0.9596774193548387,,,,,,,,,,,,,,,,,,,,,,,,,,
null,,color_black,851127,black_plus_sign,,,,,null,,,,,,,,,,,,,,,,,,,,,,,,,,,,,,
50421.299999952316,,intro_1,901549,instruct,,,0,,,,,,,,,,,,,,,,,,,,,,,,,,,,,,,,
20144.5,,intro_2,921695,instruct,,,1,Next,,,,,,,,,,,,,,,,,,,,,,,,,,,,,,,
2744.5,,directmemory_phase,924456,../static/images/US_Cities_List/mm_huntsville.png,,,,,51,,,1,1,../static/images/US_Cities_List/mm_boulder.png,../static/images/US_Cities_List/nat_westpalmbeach.png,../static/images/US_Cities_List/nat_gatlinburg.png,../static/images/US_Cities_List/nat_gatlinburg.png,../static/images/US_Cities_List/nat_westpalmbeach.png,../static/images/US_Cities_List/mm_boulder.png,1,,,,,,,,,,,,,,,,,,,
null,,html-keyboard-response,925471,<p></p>,,,,,null,,,,,,,,,,,,,,,,,,,,,,,,,,,,,,
2183.2999999523163,,directmemory_phase,927674,../static/images/US_Cities_List/nat_carmel.png,,,,,50,,,1,1,../static/images/US_Cities_List/nat_gatlinburg.png,../static/images/US_Cities_List/nat_cornwall.png,../static/images/US_Cities_List/nat_racine.png,../static/images/US_Cities_List/nat_cornwall.png,../static/images/US_Cities_List/nat_gatlinburg.png,../static/images/US_Cities_List/nat_racine.png,1,,,,,,,,,,,,,,,,,,,
null,,html-keyboard-response,928676,<p></p>,,,,,null,,,,,,,,,,,,,,,,,,,,,,,,,,,,,,
3045.2999999523163,,directmemory_phase,931742,../static/images/US_Cities_List/nat_shreveport.png,,,,,50,,,0,0.6666666666666666,../static/images/US_Cities_List/mm_leesburg.png,../static/images/US_Cities_List/mm_boulder.png,../static/images/US_Cities_List/nat_racine.png,../static/images/US_Cities_List/mm_leesburg.png,../static/images/US_Cities_List/nat_racine.png,../static/images/US_Cities_List/mm_boulder.png,0.5,closer,,,,,,,,,,,,,,,,,,
null,,html-keyboard-response,932757,<p></p>,,,,,null,,,,,,,,,,,,,,,,,,,,,,,,,,,,,,
2230.600000023842,,directmemory_phase,935007,../static/images/US_Cities_List/mm_huntsville.png,,,,,49,,,1,0.75,../static/images/US_Cities_List/nat_carmel.png,../static/images/US_Cities_List/nat_hotsprings.png,../static/images/US_Cities_List/nat_westpalmbeach.png,../static/images/US_Cities_List/nat_carmel.png,../static/images/US_Cities_List/nat_westpalmbeach.png,../static/images/US_Cities_List/nat_hotsprings.png,1,,,,,,,,,,,,,,,,,,,
null,,html-keyboard-response,936013,<p></p>,,,,,null,,,,,,,,,,,,,,,,,,,,,,,,,,,,,,
2342.5,,directmemory_phase,938377,../static/images/US_Cities_List/nat_hotsprings.png,,,,,49,,,0,0.6,../static/images/US_Cities_List/mm_huntsville.png,../static/images/US_Cities_List/nat_shreveport.png,../static/images/US_Cities_List/mm_leesburg.png,../static/images/US_Cities_List/mm_leesburg.png,../static/images/US_Cities_List/nat_shreveport.png,../static/images/US_Cities_List/mm_huntsville.png,0.5,closer,,,,,,,,,,,,,,,,,,
null,,html-keyboard-response,939379,<p></p>,,,,,null,,,,,,,,,,,,,,,,,,,,,,,,,,,,,,
3934.7999999523163,,directmemory_phase,943334,../static/images/US_Cities_List/mm_huntsville.png,,,,,50,,,1,0.6666666666666666,../static/images/US_Cities_List/nat_shreveport.png,../static/images/US_Cities_List/mm_peoria.png,../static/images/US_Cities_List/nat_newhope.png,../static/images/US_Cities_List/mm_peoria.png,../static/images/US_Cities_List/nat_shreveport.png,../static/images/US_Cities_List/nat_newhope.png,1,,,,,,,,,,,,,,,,,,,
null,,html-keyboard-response,944341,<p></p>,,,,,null,,,,,,,,,,,,,,,,,,,,,,,,,,,,,,
4440.899999976158,,directmemory_phase,948806,../static/images/US_Cities_List/nat_shreveport.png,,,,,50,,,0,0.5714285714285714,../static/images/US_Cities_List/nat_westpalmbeach.png,../static/images/US_Cities_List/nat_hotsprings.png,../static/images/US_Cities_List/nat_gatlinburg.png,../static/images/US_Cities_List/nat_gatlinburg.png,../static/images/US_Cities_List/nat_hotsprings.png,../static/images/US_Cities_List/nat_westpalmbeach.png,0.5,closer,,,,,,,,,,,,,,,,,,
null,,html-keyboard-response,949810,<p></p>,,,,,null,,,,,,,,,,,,,,,,,,,,,,,,,,,,,,
3982,,directmemory_phase,953809,../static/images/US_Cities_List/nat_cornwall.png,,,,,49,,,0,0.5,../static/images/US_Cities_List/nat_newhope.png,../static/images/US_Cities_List/nat_westpalmbeach.png,../static/images/US_Cities_List/mm_huntsville.png,../static/images/US_Cities_List/mm_huntsville.png,../static/images/US_Cities_List/nat_westpalmbeach.png,../static/images/US_Cities_List/nat_newhope.png,0.5,closer,,,,,,,,,,,,,,,,,,
null,,html-keyboard-response,954812,<p></p>,,,,,null,,,,,,,,,,,,,,,,,,,,,,,,,,,,,,
3198.399999976158,,directmemory_phase,958033,../static/images/US_Cities_List/mm_peoria.png,,,,,49,,,1,0.5555555555555556,../static/images/US_Cities_List/nat_shreveport.png,../static/images/US_Cities_List/nat_westpalmbeach.png,../static/images/US_Cities_List/nat_gatlinburg.png,../static/images/US_Cities_List/nat_shreveport.png,../static/images/US_Cities_List/nat_gatlinburg.png,../static/images/US_Cities_List/nat_westpalmbeach.png,1,,,,,,,,,,,,,,,,,,,
null,,html-keyboard-response,959038,<p></p>,,,,,null,,,,,,,,,,,,,,,,,,,,,,,,,,,,,,
3084.5,,directmemory_phase,962145,../static/images/US_Cities_List/nat_gatlinburg.png,,,,,50,,,0,0.5,../static/images/US_Cities_List/nat_westpalmbeach.png,../static/images/US_Cities_List/mm_peoria.png,../static/images/US_Cities_List/nat_cornwall.png,../static/images/US_Cities_List/nat_cornwall.png,../static/images/US_Cities_List/mm_peoria.png,../static/images/US_Cities_List/nat_westpalmbeach.png,0.5,closer,,,,,,,,,,,,,,,,,,
null,,html-keyboard-response,963151,<p></p>,,,,,null,,,,,,,,,,,,,,,,,,,,,,,,,,,,,,
2311.2999999523163,,directmemory_phase,965484,../static/images/US_Cities_List/mm_peoria.png,,,,,49,,,0,0.45454545454545453,../static/images/US_Cities_List/nat_gatlinburg.png,../static/images/US_Cities_List/mm_huntsville.png,../static/images/US_Cities_List/mm_hanover.png,../static/images/US_Cities_List/mm_huntsville.png,../static/images/US_Cities_List/nat_gatlinburg.png,../static/images/US_Cities_List/mm_hanover.png,0.5,closer,,,,,,,,,,,,,,,,,,
null,,html-keyboard-response,966492,<p></p>,,,,,null,,,,,,,,,,,,,,,,,,,,,,,,,,,,,,
2923.3000000715256,,directmemory_phase,969435,../static/images/US_Cities_List/nat_westpalmbeach.png,,,,,51,,,0,0.4166666666666667,../static/images/US_Cities_List/nat_carmel.png,../static/images/US_Cities_List/nat_gatlinburg.png,../static/images/US_Cities_List/mm_huntsville.png,../static/images/US_Cities_List/nat_carmel.png,../static/images/US_Cities_List/mm_huntsville.png,../static/images/US_Cities_List/nat_gatlinburg.png,0.5,closer,,,,,,,,,,,,,,,,,,
null,,html-keyboard-response,970451,<p></p>,,,,,null,,,,,,,,,,,,,,,,,,,,,,,,,,,,,,
2914.100000023842,,directmemory_phase,973387,../static/images/US_Cities_List/mm_leesburg.png,,,,,51,,,1,0.46153846153846156,../static/images/US_Cities_List/mm_huntsville.png,../static/images/US_Cities_List/nat_gatlinburg.png,../static/images/US_Cities_List/nat_shreveport.png,../static/images/US_Cities_List/nat_shreveport.png,../static/images/US_Cities_List/nat_gatlinburg.png,../static/images/US_Cities_List/mm_huntsville.png,1,,,,,,,,,,,,,,,,,,,
null,,html-keyboard-response,974399,<p></p>,,,,,null,,,,,,,,,,,,,,,,,,,,,,,,,,,,,,
5303.100000023842,,directmemory_phase,979723,../static/images/US_Cities_List/nat_carmel.png,,,,,50,,,1,0.5,../static/images/US_Cities_List/mm_peoria.png,../static/images/US_Cities_List/mm_huntsville.png,../static/images/US_Cities_List/mm_leesburg.png,../static/images/US_Cities_List/mm_huntsville.png,../static/images/US_Cities_List/mm_peoria.png,../static/images/US_Cities_List/mm_leesburg.png,1,,,,,,,,,,,,,,,,,,,
null,,html-keyboard-response,980741,<p></p>,,,,,null,,,,,,,,,,,,,,,,,,,,,,,,,,,,,,
2143.7000000476837,,directmemory_phase,982905,../static/images/US_Cities_List/nat_shreveport.png,,,,,49,,,1,0.5333333333333333,../static/images/US_Cities_List/mm_peoria.png,../static/images/US_Cities_List/nat_westpalmbeach.png,../static/images/US_Cities_List/nat_hotsprings.png,../static/images/US_Cities_List/mm_peoria.png,../static/images/US_Cities_List/nat_hotsprings.png,../static/images/US_Cities_List/nat_westpalmbeach.png,1,,,,,,,,,,,,,,,,,,,
null,,html-keyboard-response,983917,<p></p>,,,,,null,,,,,,,,,,,,,,,,,,,,,,,,,,,,,,
5329.399999976158,,directmemory_phase,989267,../static/images/US_Cities_List/nat_racine.png,,,,,50,,,1,0.5625,../static/images/US_Cities_List/nat_shreveport.png,../static/images/US_Cities_List/nat_hotsprings.png,../static/images/US_Cities_List/nat_newhope.png,../static/images/US_Cities_List/nat_hotsprings.png,../static/images/US_Cities_List/nat_shreveport.png,../static/images/US_Cities_List/nat_newhope.png,1,,,,,,,,,,,,,,,,,,,
null,,html-keyboard-response,990280,<p></p>,,,,,null,,,,,,,,,,,,,,,,,,,,,,,,,,,,,,
1147.1000000238419,,directmemory_phase,991451,../static/images/US_Cities_List/nat_cornwall.png,,,,,49,,,1,0.5882352941176471,../static/images/US_Cities_List/nat_carmel.png,../static/images/US_Cities_List/nat_newhope.png,../static/images/US_Cities_List/mm_peoria.png,../static/images/US_Cities_List/nat_carmel.png,../static/images/US_Cities_List/mm_peoria.png,../static/images/US_Cities_List/nat_newhope.png,1,,,,,,,,,,,,,,,,,,,
null,,html-keyboard-response,992459,<p></p>,,,,,null,,,,,,,,,,,,,,,,,,,,,,,,,,,,,,
2853.899999976158,,directmemory_phase,995332,../static/images/US_Cities_List/nat_hotsprings.png,,,,,51,,,0,0.5555555555555556,../static/images/US_Cities_List/mm_boulder.png,../static/images/US_Cities_List/nat_carmel.png,../static/images/US_Cities_List/mm_peoria.png,../static/images/US_Cities_List/mm_boulder.png,../static/images/US_Cities_List/mm_peoria.png,../static/images/US_Cities_List/nat_carmel.png,0.5,closer,,,,,,,,,,,,,,,,,,
null,,html-keyboard-response,996341,<p></p>,,,,,null,,,,,,,,,,,,,,,,,,,,,,,,,,,,,,
3234.7000000476837,,directmemory_phase,999595,../static/images/US_Cities_List/nat_carmel.png,,,,,50,,,1,0.5789473684210527,../static/images/US_Cities_List/nat_gatlinburg.png,../static/images/US_Cities_List/nat_westpalmbeach.png,../static/images/US_Cities_List/nat_racine.png,../static/images/US_Cities_List/nat_westpalmbeach.png,../static/images/US_Cities_List/nat_gatlinburg.png,../static/images/US_Cities_List/nat_racine.png,1,,,,,,,,,,,,,,,,,,,
null,,html-keyboard-response,1000609,<p></p>,,,,,null,,,,,,,,,,,,,,,,,,,,,,,,,,,,,,
3044,,directmemory_phase,1003670,../static/images/US_Cities_List/nat_gatlinburg.png,,,,,49,,,0,0.55,../static/images/US_Cities_List/mm_boulder.png,../static/images/US_Cities_List/mm_hanover.png,../static/images/US_Cities_List/nat_shreveport.png,../static/images/US_Cities_List/nat_shreveport.png,../static/images/US_Cities_List/mm_hanover.png,../static/images/US_Cities_List/mm_boulder.png,0.5,closer,,,,,,,,,,,,,,,,,,
null,,html-keyboard-response,1004682,<p></p>,,,,,null,,,,,,,,,,,,,,,,,,,,,,,,,,,,,,
5404.100000023842,,directmemory_phase,1010103,../static/images/US_Cities_List/nat_hotsprings.png,,,,,51,,,0,0.5238095238095238,../static/images/US_Cities_List/mm_peoria.png,../static/images/US_Cities_List/nat_racine.png,../static/images/US_Cities_List/mm_huntsville.png,../static/images/US_Cities_List/nat_racine.png,../static/images/US_Cities_List/mm_peoria.png,../static/images/US_Cities_List/mm_huntsville.png,0.5,closer,,,,,,,,,,,,,,,,,,
null,,html-keyboard-response,1011105,<p></p>,,,,,null,,,,,,,,,,,,,,,,,,,,,,,,,,,,,,
1723.2000000476837,,directmemory_phase,1012850,../static/images/US_Cities_List/nat_cornwall.png,,,,,50,,,1,0.5454545454545454,../static/images/US_Cities_List/nat_westpalmbeach.png,../static/images/US_Cities_List/nat_gatlinburg.png,../static/images/US_Cities_List/nat_racine.png,../static/images/US_Cities_List/nat_gatlinburg.png,../static/images/US_Cities_List/nat_westpalmbeach.png,../static/images/US_Cities_List/nat_racine.png,1,,,,,,,,,,,,,,,,,,,
null,,html-keyboard-response,1013864,<p></p>,,,,,null,,,,,,,,,,,,,,,,,,,,,,,,,,,,,,
4947.199999928474,,directmemory_phase,1018832,../static/images/US_Cities_List/nat_racine.png,,,,,49,,,0,0.5217391304347826,../static/images/US_Cities_List/mm_huntsville.png,../static/images/US_Cities_List/mm_peoria.png,../static/images/US_Cities_List/nat_carmel.png,../static/images/US_Cities_List/mm_peoria.png,../static/images/US_Cities_List/mm_huntsville.png,../static/images/US_Cities_List/nat_carmel.png,0.5,closer,,,,,,,,,,,,,,,,,,
null,,html-keyboard-response,1019843,<p></p>,,,,,null,,,,,,,,,,,,,,,,,,,,,,,,,,,,,,
3711.399999976158,,directmemory_phase,1023578,../static/images/US_Cities_List/nat_gatlinburg.png,,,,,51,,,0,0.5,../static/images/US_Cities_List/mm_huntsville.png,../static/images/US_Cities_List/nat_hotsprings.png,../static/images/US_Cities_List/mm_peoria.png,../static/images/US_Cities_List/mm_huntsville.png,../static/images/US_Cities_List/mm_peoria.png,../static/images/US_Cities_List/nat_hotsprings.png,0.5,closer,,,,,,,,,,,,,,,,,,
null,,html-keyboard-response,1024584,<p></p>,,,,,null,,,,,,,,,,,,,,,,,,,,,,,,,,,,,,
