rt,responses,trial_type,time_elapsed,condition,stimulus,cities,city_images,button_pressed,response,key_press,stimulus_left,stimulus_right,accuracy,cumulative_accuracy,stimulus_down_left,stimulus_down_mid,stimulus_down_right,stimulus_correct,stimulus_short,stimulus_far,weighted_accuracy,missedtrial,specific_pairs,imgL_ID,imgR_ID,linedress,linedressed,detour_trial
5946.4000000003725,{worker_id:3007},id_enter,5948,1,intro,Cornwall; Huntsville; Carmel; Hot Springs; Boulder; Racine; Leesburg; Peoria; West Palm Beach; Hanover; Gatlinburg; New Hope; Shreveport,US_Cities_List/nat_cornwall.png; US_Cities_List/nat_huntsville.png; US_Cities_List/mm_carmel.png; US_Cities_List/nat_hotsprings.png; US_Cities_List/nat_boulder.png; US_Cities_List/mm_racine.png; US_Cities_List/mm_leesburg.png; US_Cities_List/mm_peoria.png; US_Cities_List/mm_westpalmbeach.png; US_Cities_List/mm_hanover.png; US_Cities_List/nat_gatlinburg.png; US_Cities_List/nat_newhope.png; US_Cities_List/mm_shreveport.png,,,,,,,,,,,,,,,,,,,,,
8336.900000000373,,fullscreen,14291,,make_fullscreen,,,0,,,,,,,,,,,,,,,,,,,,
6387.600000000559,,intro_1,20681,,instruct,,,0,,,,,,,,,,,,,,,,,,,,
8964.600000000559,,intro_2,29648,,instruct,,,1,Next,,,,,,,,,,,,,,,,,,,
13149,,intro_3,42799,,instruct,,,1,Next,,,,,,,,,,,,,,,,,,,
10032.400000000373,,intro_4,52834,,instruct,,,1,Next,,,,,,,,,,,,,,,,,,,
13663,,intro_5,66499,,instruct,,,1,Next,,,,,,,,,,,,,,,,,,,
11759.200000000186,,intro_6,78260,,instruct,,,1,Next,,,,,,,,,,,,,,,,,,,
null,,prac_atten_color_black,78974,,black_plus_sign,,,,,null,,,,,,,,,,,,,,,,,,
399.70000000018626,,prac_atten_color,79668,,prac_stop_color,,,,,49,,,,,,,,,,,,,,,,,,
null,,prac_atten_color_black,81672,,black_plus_sign,,,,,null,,,,,,,,,,,,,,,,,,
null,,prac_atten_color_black,82386,,black_plus_sign,,,,,null,,,,,,,,,,,,,,,,,,
530.8999999994412,,prac_atten_color,83032,,prac_stop_color,,,,,50,,,,,,,,,,,,,,,,,,
null,,prac_atten_color_black,85035,,black_plus_sign,,,,,null,,,,,,,,,,,,,,,,,,
null,,prac_atten_color_black,85796,,black_plus_sign,,,,,null,,,,,,,,,,,,,,,,,,
861.5999999996275,,prac_atten_color,86763,,prac_stop_color,,,,,50,,,,,,,,,,,,,,,,,,
null,,prac_atten_color_black,88765,,black_plus_sign,,,,,null,,,,,,,,,,,,,,,,,,
null,,prac_atten_color_black,89205,,black_plus_sign,,,,,null,,,,,,,,,,,,,,,,,,
477.5,,prac_atten_color,90224,,prac_stop_color,,,,,49,,,,,,,,,,,,,,,,,,
null,,prac_atten_color_black,92227,,black_plus_sign,,,,,null,,,,,,,,,,,,,,,,,,
null,,prac_atten_color_black,92616,,black_plus_sign,,,,,null,,,,,,,,,,,,,,,,,,
566.2000000001863,,prac_atten_color,93500,,prac_stop_color,,,,,50,,,,,,,,,,,,,,,,,,
null,,prac_atten_color_black,95503,,black_plus_sign,,,,,null,,,,,,,,,,,,,,,,,,
null,,prac_atten_color_black,96026,,black_plus_sign,,,,,null,,,,,,,,,,,,,,,,,,
481.8999999994412,,prac_atten_color,97093,,prac_stop_color,,,,,50,,,,,,,,,,,,,,,,,,
null,,prac_atten_color_black,99096,,black_plus_sign,,,,,null,,,,,,,,,,,,,,,,,,
null,,prac_atten_color_black,99437,,black_plus_sign,,,,,null,,,,,,,,,,,,,,,,,,
597.5,,prac_atten_color,100137,,prac_stop_color,,,,,49,,,,,,,,,,,,,,,,,,
null,,prac_atten_color_black,102140,,black_plus_sign,,,,,null,,,,,,,,,,,,,,,,,,
null,,prac_atten_color_black,102847,,black_plus_sign,,,,,null,,,,,,,,,,,,,,,,,,
null,,prac_atten_color,103295,,prac_stop_color,,,,,null,,,,,,,,,,,,,,,,,,
159.29999999981374,,prac_atten_color_black,105298,,black_plus_sign,,,,,50,,,,,,,,,,,,,,,,,,
null,,prac_atten_color_black,106257,,black_plus_sign,,,,,null,,,,,,,,,,,,,,,,,,
432.1000000005588,,prac_atten_color,107193,,prac_stop_color,,,,,49,,,,,,,,,,,,,,,,,,
null,,prac_atten_color_black,109196,,black_plus_sign,,,,,null,,,,,,,,,,,,,,,,,,
null,,prac_atten_color_black,109668,,black_plus_sign,,,,,null,,,,,,,,,,,,,,,,,,
577,,prac_atten_color,110273,,prac_stop_color,,,,,49,,,,,,,,,,,,,,,,,,
null,,prac_atten_color_black,112276,,black_plus_sign,,,,,null,,,,,,,,,,,,,,,,,,
6197.899999999441,,attentioncheck_feedback,118477,,cross_check_feedback,,,0,,,,,,,,,,,,,,,,,,,,
9300,,last_instruct,127778,,instruct,,,,,32,,,,,,,,,,,,,,,,,,
null,,learn_phase(without_color),130801,,black_plus_sign,,,,,null,US_Cities_List/nat_newhope.png,US_Cities_List/nat_gatlinburg.png,,,,,,,,,,,,,,,,
null,,black_cross(without_color),131494,,green,,,,,null,US_Cities_List/nat_newhope.png,US_Cities_List/nat_gatlinburg.png,,,,,,,,,,,,,,,,
null,,rt_plussign_withcolor,131997,,green,,,,,null,US_Cities_List/nat_newhope.png,US_Cities_List/nat_gatlinburg.png,,,,,,,,,,,,,,,,
920.4000000003725,,rt_thecrossant_black,133310,,black_plus_sign,,,,,50,,,1,1,,,,,,,,,,,,,,
null,,color_black,133414,,black_plus_sign,,,,,null,,,,,,,,,,,,,,,,,,
null,,learn_phase(without_color),136437,,black_plus_sign,,,,,null,US_Cities_List/mm_carmel.png,US_Cities_List/mm_racine.png,,,,,,,,,,,,,,,,
null,,black_cross(without_color),137202,,green,,,,,null,US_Cities_List/mm_carmel.png,US_Cities_List/mm_racine.png,,,,,,,,,,,,,,,,
null,,rt_plussign_withcolor,137705,,green,,,,,null,US_Cities_List/mm_carmel.png,US_Cities_List/mm_racine.png,,,,,,,,,,,,,,,,
1069.7000000001863,,rt_thecrossant_black,138946,,black_plus_sign,,,,,50,,,1,1,,,,,,,,,,,,,,
null,,color_black,139049,,black_plus_sign,,,,,null,,,,,,,,,,,,,,,,,,
null,,learn_phase(without_color),142070,,black_plus_sign,,,,,null,US_Cities_List/nat_hotsprings.png,US_Cities_List/nat_huntsville.png,,,,,,,,,,,,,,,,
null,,black_cross(without_color),143144,,blue,,,,,null,US_Cities_List/nat_hotsprings.png,US_Cities_List/nat_huntsville.png,,,,,,,,,,,,,,,,
null,,rt_plussign_withcolor,143647,,blue,,,,,null,US_Cities_List/nat_hotsprings.png,US_Cities_List/nat_huntsville.png,,,,,,,,,,,,,,,,
990.5,,rt_thecrossant_black,144579,,black_plus_sign,,,,,49,,,1,1,,,,,,,,,,,,,,
null,,color_black,144683,,black_plus_sign,,,,,null,,,,,,,,,,,,,,,,,,
null,,learn_phase(without_color),147704,,black_plus_sign,,,,,null,US_Cities_List/nat_gatlinburg.png,US_Cities_List/nat_newhope.png,,,,,,,,,,,,,,,,
null,,black_cross(without_color),148177,,green,,,,,null,US_Cities_List/nat_gatlinburg.png,US_Cities_List/nat_newhope.png,,,,,,,,,,,,,,,,
null,,rt_plussign_withcolor,148680,,green,,,,,null,US_Cities_List/nat_gatlinburg.png,US_Cities_List/nat_newhope.png,,,,,,,,,,,,,,,,
1615,,rt_thecrossant_black,150213,,black_plus_sign,,,,,50,,,1,1,,,,,,,,,,,,,,
null,,color_black,150316,,black_plus_sign,,,,,null,,,,,,,,,,,,,,,,,,
null,,learn_phase(without_color),153337,,black_plus_sign,,,,,null,US_Cities_List/nat_hotsprings.png,US_Cities_List/nat_huntsville.png,,,,,,,,,,,,,,,,
null,,black_cross(without_color),153962,,green,,,,,null,US_Cities_List/nat_hotsprings.png,US_Cities_List/nat_huntsville.png,,,,,,,,,,,,,,,,
null,,rt_plussign_withcolor,154465,,green,,,,,null,US_Cities_List/nat_hotsprings.png,US_Cities_List/nat_huntsville.png,,,,,,,,,,,,,,,,
847.8000000007451,,rt_thecrossant_black,155847,,black_plus_sign,,,,,50,,,1,1,,,,,,,,,,,,,,
null,,color_black,155951,,black_plus_sign,,,,,null,,,,,,,,,,,,,,,,,,
null,,learn_phase(without_color),158981,,black_plus_sign,,,,,null,US_Cities_List/nat_newhope.png,US_Cities_List/nat_gatlinburg.png,,,,,,,,,,,,,,,,
null,,black_cross(without_color),159668,,green,,,,,null,US_Cities_List/nat_newhope.png,US_Cities_List/nat_gatlinburg.png,,,,,,,,,,,,,,,,
null,,rt_plussign_withcolor,160170,,green,,,,,null,US_Cities_List/nat_newhope.png,US_Cities_List/nat_gatlinburg.png,,,,,,,,,,,,,,,,
826.7000000001863,,rt_thecrossant_black,161489,,black_plus_sign,,,,,50,,,1,1,,,,,,,,,,,,,,
null,,color_black,161591,,black_plus_sign,,,,,null,,,,,,,,,,,,,,,,,,
null,,learn_phase(without_color),164619,,black_plus_sign,,,,,null,US_Cities_List/nat_huntsville.png,US_Cities_List/nat_hotsprings.png,,,,,,,,,,,,,,,,
null,,black_cross(without_color),165573,,blue,,,,,null,US_Cities_List/nat_huntsville.png,US_Cities_List/nat_hotsprings.png,,,,,,,,,,,,,,,,
478.5,,rt_plussign_withcolor,166075,,blue,,,,,49,US_Cities_List/nat_huntsville.png,US_Cities_List/nat_hotsprings.png,,,,,,,,,,,,,,,,
null,,rt_thecrossant_black,167127,,black_plus_sign,,,,,null,,,1,1,,,,,,,,,,,,,,
null,,color_black,167230,,black_plus_sign,,,,,null,,,,,,,,,,,,,,,,,,
null,,learn_phase(without_color),170248,,black_plus_sign,,,,,null,US_Cities_List/mm_racine.png,US_Cities_List/mm_carmel.png,,,,,,,,,,,,,,,,
null,,black_cross(without_color),170945,,blue,,,,,null,US_Cities_List/mm_racine.png,US_Cities_List/mm_carmel.png,,,,,,,,,,,,,,,,
null,,rt_plussign_withcolor,171448,,blue,,,,,null,US_Cities_List/mm_racine.png,US_Cities_List/mm_carmel.png,,,,,,,,,,,,,,,,
1302.7999999998137,,rt_thecrossant_black,172757,,black_plus_sign,,,,,49,,,1,1,,,,,,,,,,,,,,
null,,color_black,172861,,black_plus_sign,,,,,null,,,,,,,,,,,,,,,,,,
null,,learn_phase(without_color),175885,,black_plus_sign,,,,,null,US_Cities_List/mm_westpalmbeach.png,US_Cities_List/mm_leesburg.png,,,,,,,,,,,,,,,,
null,,black_cross(without_color),176405,,blue,,,,,null,US_Cities_List/mm_westpalmbeach.png,US_Cities_List/mm_leesburg.png,,,,,,,,,,,,,,,,
null,,rt_plussign_withcolor,176908,,blue,,,,,null,US_Cities_List/mm_westpalmbeach.png,US_Cities_List/mm_leesburg.png,,,,,,,,,,,,,,,,
1211.5,,rt_thecrossant_black,178395,,black_plus_sign,,,,,49,,,1,1,,,,,,,,,,,,,,
null,,color_black,178498,,black_plus_sign,,,,,null,,,,,,,,,,,,,,,,,,
null,,learn_phase(without_color),181519,,black_plus_sign,,,,,null,US_Cities_List/mm_carmel.png,US_Cities_List/mm_racine.png,,,,,,,,,,,,,,,,
null,,black_cross(without_color),181981,,green,,,,,null,US_Cities_List/mm_carmel.png,US_Cities_List/mm_racine.png,,,,,,,,,,,,,,,,
null,,rt_plussign_withcolor,182484,,green,,,,,null,US_Cities_List/mm_carmel.png,US_Cities_List/mm_racine.png,,,,,,,,,,,,,,,,
765.5,,rt_thecrossant_black,184028,,black_plus_sign,,,,,50,,,1,1,,,,,,,,,,,,,,
null,,color_black,184132,,black_plus_sign,,,,,null,,,,,,,,,,,,,,,,,,
null,,learn_phase(without_color),187156,,black_plus_sign,,,,,null,US_Cities_List/mm_westpalmbeach.png,US_Cities_List/mm_leesburg.png,,,,,,,,,,,,,,,,
null,,black_cross(without_color),187880,,blue,,,,,null,US_Cities_List/mm_westpalmbeach.png,US_Cities_List/mm_leesburg.png,,,,,,,,,,,,,,,,
null,,rt_plussign_withcolor,188383,,blue,,,,,null,US_Cities_List/mm_westpalmbeach.png,US_Cities_List/mm_leesburg.png,,,,,,,,,,,,,,,,
751,,rt_thecrossant_black,189665,,black_plus_sign,,,,,49,,,1,1,,,,,,,,,,,,,,
null,,color_black,189768,,black_plus_sign,,,,,null,,,,,,,,,,,,,,,,,,
null,,learn_phase(without_color),192790,,black_plus_sign,,,,,null,US_Cities_List/mm_racine.png,US_Cities_List/mm_carmel.png,,,,,,,,,,,,,,,,
null,,black_cross(without_color),193754,,green,,,,,null,US_Cities_List/mm_racine.png,US_Cities_List/mm_carmel.png,,,,,,,,,,,,,,,,
null,,rt_plussign_withcolor,194258,,green,,,,,null,US_Cities_List/mm_racine.png,US_Cities_List/mm_carmel.png,,,,,,,,,,,,,,,,
968,,rt_thecrossant_black,195299,,black_plus_sign,,,,,50,,,1,1,,,,,,,,,,,,,,
null,,color_black,195403,,black_plus_sign,,,,,null,,,,,,,,,,,,,,,,,,
null,,learn_phase(without_color),198425,,black_plus_sign,,,,,null,US_Cities_List/nat_newhope.png,US_Cities_List/nat_gatlinburg.png,,,,,,,,,,,,,,,,
null,,black_cross(without_color),198854,,green,,,,,null,US_Cities_List/nat_newhope.png,US_Cities_List/nat_gatlinburg.png,,,,,,,,,,,,,,,,
null,,rt_plussign_withcolor,199357,,green,,,,,null,US_Cities_List/nat_newhope.png,US_Cities_List/nat_gatlinburg.png,,,,,,,,,,,,,,,,
1566.9000000003725,,rt_thecrossant_black,200935,,black_plus_sign,,,,,50,,,1,1,,,,,,,,,,,,,,
null,,color_black,201037,,black_plus_sign,,,,,null,,,,,,,,,,,,,,,,,,
null,,learn_phase(without_color),204063,,black_plus_sign,,,,,null,US_Cities_List/mm_carmel.png,US_Cities_List/mm_racine.png,,,,,,,,,,,,,,,,
null,,black_cross(without_color),204581,,green,,,,,null,US_Cities_List/mm_carmel.png,US_Cities_List/mm_racine.png,,,,,,,,,,,,,,,,
null,,rt_plussign_withcolor,205084,,green,,,,,null,US_Cities_List/mm_carmel.png,US_Cities_List/mm_racine.png,,,,,,,,,,,,,,,,
1026.6000000005588,,rt_thecrossant_black,206572,,black_plus_sign,,,,,50,,,1,1,,,,,,,,,,,,,,
null,,color_black,206675,,black_plus_sign,,,,,null,,,,,,,,,,,,,,,,,,
null,,learn_phase(without_color),209706,,black_plus_sign,,,,,null,US_Cities_List/mm_westpalmbeach.png,US_Cities_List/mm_leesburg.png,,,,,,,,,,,,,,,,
null,,black_cross(without_color),210181,,green,,,,,null,US_Cities_List/mm_westpalmbeach.png,US_Cities_List/mm_leesburg.png,,,,,,,,,,,,,,,,
null,,rt_plussign_withcolor,210683,,green,,,,,null,US_Cities_List/mm_westpalmbeach.png,US_Cities_List/mm_leesburg.png,,,,,,,,,,,,,,,,
962.2000000001863,,rt_thecrossant_black,212213,,black_plus_sign,,,,,50,,,1,1,,,,,,,,,,,,,,
null,,color_black,212316,,black_plus_sign,,,,,null,,,,,,,,,,,,,,,,,,
null,,learn_phase(without_color),215341,,black_plus_sign,,,,,null,US_Cities_List/nat_huntsville.png,US_Cities_List/nat_hotsprings.png,,,,,,,,,,,,,,,,
null,,black_cross(without_color),216114,,green,,,,,null,US_Cities_List/nat_huntsville.png,US_Cities_List/nat_hotsprings.png,,,,,,,,,,,,,,,,
null,,rt_plussign_withcolor,216617,,green,,,,,null,US_Cities_List/nat_huntsville.png,US_Cities_List/nat_hotsprings.png,,,,,,,,,,,,,,,,
780.7000000001863,,rt_thecrossant_black,217850,,black_plus_sign,,,,,50,,,1,1,,,,,,,,,,,,,,
null,,color_black,217952,,black_plus_sign,,,,,null,,,,,,,,,,,,,,,,,,
null,,learn_phase(without_color),220974,,black_plus_sign,,,,,null,US_Cities_List/nat_gatlinburg.png,US_Cities_List/nat_newhope.png,,,,,,,,,,,,,,,,
null,,black_cross(without_color),221820,,blue,,,,,null,US_Cities_List/nat_gatlinburg.png,US_Cities_List/nat_newhope.png,,,,,,,,,,,,,,,,
null,,rt_plussign_withcolor,222324,,blue,,,,,null,US_Cities_List/nat_gatlinburg.png,US_Cities_List/nat_newhope.png,,,,,,,,,,,,,,,,
1110.5,,rt_thecrossant_black,223484,,black_plus_sign,,,,,49,,,1,1,,,,,,,,,,,,,,
null,,color_black,223587,,black_plus_sign,,,,,null,,,,,,,,,,,,,,,,,,
null,,learn_phase(without_color),226617,,black_plus_sign,,,,,null,US_Cities_List/mm_leesburg.png,US_Cities_List/mm_westpalmbeach.png,,,,,,,,,,,,,,,,
null,,black_cross(without_color),227144,,blue,,,,,null,US_Cities_List/mm_leesburg.png,US_Cities_List/mm_westpalmbeach.png,,,,,,,,,,,,,,,,
null,,rt_plussign_withcolor,227646,,blue,,,,,null,US_Cities_List/mm_leesburg.png,US_Cities_List/mm_westpalmbeach.png,,,,,,,,,,,,,,,,
1346.4000000003725,,rt_thecrossant_black,229125,,black_plus_sign,,,,,49,,,1,1,,,,,,,,,,,,,,
null,,color_black,229229,,black_plus_sign,,,,,null,,,,,,,,,,,,,,,,,,
null,,learn_phase(without_color),232256,,black_plus_sign,,,,,null,US_Cities_List/nat_hotsprings.png,US_Cities_List/nat_huntsville.png,,,,,,,,,,,,,,,,
null,,black_cross(without_color),233136,,blue,,,,,null,US_Cities_List/nat_hotsprings.png,US_Cities_List/nat_huntsville.png,,,,,,,,,,,,,,,,
null,,rt_plussign_withcolor,233638,,blue,,,,,null,US_Cities_List/nat_hotsprings.png,US_Cities_List/nat_huntsville.png,,,,,,,,,,,,,,,,
723.1000000005588,,rt_thecrossant_black,234764,,black_plus_sign,,,,,49,,,1,1,,,,,,,,,,,,,,
null,,color_black,234868,,black_plus_sign,,,,,null,,,,,,,,,,,,,,,,,,
null,,learn_phase(without_color),237888,,black_plus_sign,,,,,null,US_Cities_List/mm_racine.png,US_Cities_List/mm_carmel.png,,,,,,,,,,,,,,,,
null,,black_cross(without_color),238477,,green,,,,,null,US_Cities_List/mm_racine.png,US_Cities_List/mm_carmel.png,,,,,,,,,,,,,,,,
null,,rt_plussign_withcolor,238979,,green,,,,,null,US_Cities_List/mm_racine.png,US_Cities_List/mm_carmel.png,,,,,,,,,,,,,,,,
1242.7999999998137,,rt_thecrossant_black,240397,,black_plus_sign,,,,,50,,,1,1,,,,,,,,,,,,,,
null,,color_black,240500,,black_plus_sign,,,,,null,,,,,,,,,,,,,,,,,,
null,,learn_phase(without_color),243522,,black_plus_sign,,,,,null,US_Cities_List/mm_westpalmbeach.png,US_Cities_List/mm_leesburg.png,,,,,,,,,,,,,,,,
null,,black_cross(without_color),244217,,blue,,,,,null,US_Cities_List/mm_westpalmbeach.png,US_Cities_List/mm_leesburg.png,,,,,,,,,,,,,,,,
null,,rt_plussign_withcolor,244721,,blue,,,,,null,US_Cities_List/mm_westpalmbeach.png,US_Cities_List/mm_leesburg.png,,,,,,,,,,,,,,,,
971.5,,rt_thecrossant_black,246032,,black_plus_sign,,,,,49,,,1,1,,,,,,,,,,,,,,
null,,color_black,246135,,black_plus_sign,,,,,null,,,,,,,,,,,,,,,,,,
null,,learn_phase(without_color),249155,,black_plus_sign,,,,,null,US_Cities_List/mm_carmel.png,US_Cities_List/mm_racine.png,,,,,,,,,,,,,,,,
null,,black_cross(without_color),249596,,blue,,,,,null,US_Cities_List/mm_carmel.png,US_Cities_List/mm_racine.png,,,,,,,,,,,,,,,,
null,,rt_plussign_withcolor,250100,,blue,,,,,null,US_Cities_List/mm_carmel.png,US_Cities_List/mm_racine.png,,,,,,,,,,,,,,,,
1528.7999999998137,,rt_thecrossant_black,251665,,black_plus_sign,,,,,49,,,1,1,,,,,,,,,,,,,,
null,,color_black,251768,,black_plus_sign,,,,,null,,,,,,,,,,,,,,,,,,
null,,learn_phase(without_color),254790,,black_plus_sign,,,,,null,US_Cities_List/nat_huntsville.png,US_Cities_List/nat_hotsprings.png,,,,,,,,,,,,,,,,
null,,black_cross(without_color),255420,,green,,,,,null,US_Cities_List/nat_huntsville.png,US_Cities_List/nat_hotsprings.png,,,,,,,,,,,,,,,,
null,,rt_plussign_withcolor,255922,,green,,,,,null,US_Cities_List/nat_huntsville.png,US_Cities_List/nat_hotsprings.png,,,,,,,,,,,,,,,,
953,,rt_thecrossant_black,257299,,black_plus_sign,,,,,50,,,1,1,,,,,,,,,,,,,,
null,,color_black,257403,,black_plus_sign,,,,,null,,,,,,,,,,,,,,,,,,
null,,learn_phase(without_color),260427,,black_plus_sign,,,,,null,US_Cities_List/mm_leesburg.png,US_Cities_List/mm_westpalmbeach.png,,,,,,,,,,,,,,,,
null,,black_cross(without_color),261283,,green,,,,,null,US_Cities_List/mm_leesburg.png,US_Cities_List/mm_westpalmbeach.png,,,,,,,,,,,,,,,,
null,,rt_plussign_withcolor,261786,,green,,,,,null,US_Cities_List/mm_leesburg.png,US_Cities_List/mm_westpalmbeach.png,,,,,,,,,,,,,,,,
870.5,,rt_thecrossant_black,262936,,black_plus_sign,,,,,50,,,1,1,,,,,,,,,,,,,,
null,,color_black,263040,,black_plus_sign,,,,,null,,,,,,,,,,,,,,,,,,
null,,learn_phase(without_color),266061,,black_plus_sign,,,,,null,US_Cities_List/nat_gatlinburg.png,US_Cities_List/nat_newhope.png,,,,,,,,,,,,,,,,
null,,black_cross(without_color),266657,,blue,,,,,null,US_Cities_List/nat_gatlinburg.png,US_Cities_List/nat_newhope.png,,,,,,,,,,,,,,,,
null,,rt_plussign_withcolor,267160,,blue,,,,,null,US_Cities_List/nat_gatlinburg.png,US_Cities_List/nat_newhope.png,,,,,,,,,,,,,,,,
1066.1000000005588,,rt_thecrossant_black,268571,,black_plus_sign,,,,,49,,,1,1,,,,,,,,,,,,,,
null,,color_black,268674,,black_plus_sign,,,,,null,,,,,,,,,,,,,,,,,,
null,,learn_phase(without_color),271701,,black_plus_sign,,,,,null,US_Cities_List/nat_huntsville.png,US_Cities_List/nat_hotsprings.png,,,,,,,,,,,,,,,,
null,,black_cross(without_color),272716,,green,,,,,null,US_Cities_List/nat_huntsville.png,US_Cities_List/nat_hotsprings.png,,,,,,,,,,,,,,,,
null,,rt_plussign_withcolor,273219,,green,,,,,null,US_Cities_List/nat_huntsville.png,US_Cities_List/nat_hotsprings.png,,,,,,,,,,,,,,,,
1018.2999999998137,,rt_thecrossant_black,274210,,black_plus_sign,,,,,50,,,1,1,,,,,,,,,,,,,,
null,,color_black,274314,,black_plus_sign,,,,,null,,,,,,,,,,,,,,,,,,
null,,learn_phase(without_color),277335,,black_plus_sign,,,,,null,US_Cities_List/mm_racine.png,US_Cities_List/mm_carmel.png,,,,,,,,,,,,,,,,
null,,black_cross(without_color),277833,,blue,,,,,null,US_Cities_List/mm_racine.png,US_Cities_List/mm_carmel.png,,,,,,,,,,,,,,,,
null,,rt_plussign_withcolor,278336,,blue,,,,,null,US_Cities_List/mm_racine.png,US_Cities_List/mm_carmel.png,,,,,,,,,,,,,,,,
1292.800000000745,,rt_thecrossant_black,279846,,black_plus_sign,,,,,49,,,1,1,,,,,,,,,,,,,,
null,,color_black,279949,,black_plus_sign,,,,,null,,,,,,,,,,,,,,,,,,
null,,learn_phase(without_color),282973,,black_plus_sign,,,,,null,US_Cities_List/mm_westpalmbeach.png,US_Cities_List/mm_leesburg.png,,,,,,,,,,,,,,,,
null,,black_cross(without_color),283504,,green,,,,,null,US_Cities_List/mm_westpalmbeach.png,US_Cities_List/mm_leesburg.png,,,,,,,,,,,,,,,,
null,,rt_plussign_withcolor,284007,,green,,,,,null,US_Cities_List/mm_westpalmbeach.png,US_Cities_List/mm_leesburg.png,,,,,,,,,,,,,,,,
931.2000000001863,,rt_thecrossant_black,285481,,black_plus_sign,,,,,50,,,1,1,,,,,,,,,,,,,,
null,,color_black,285584,,black_plus_sign,,,,,null,,,,,,,,,,,,,,,,,,
null,,learn_phase(without_color),288610,,black_plus_sign,,,,,null,US_Cities_List/nat_gatlinburg.png,US_Cities_List/nat_newhope.png,,,,,,,,,,,,,,,,
null,,black_cross(without_color),289538,,green,,,,,null,US_Cities_List/nat_gatlinburg.png,US_Cities_List/nat_newhope.png,,,,,,,,,,,,,,,,
456.29999999981374,,rt_plussign_withcolor,290041,,green,,,,,50,US_Cities_List/nat_gatlinburg.png,US_Cities_List/nat_newhope.png,,,,,,,,,,,,,,,,
null,,rt_thecrossant_black,291119,,black_plus_sign,,,,,null,,,1,1,,,,,,,,,,,,,,
null,,color_black,291223,,black_plus_sign,,,,,null,,,,,,,,,,,,,,,,,,
null,,learn_phase(without_color),294255,,black_plus_sign,,,,,null,US_Cities_List/nat_hotsprings.png,US_Cities_List/nat_huntsville.png,,,,,,,,,,,,,,,,
null,,black_cross(without_color),294899,,green,,,,,null,US_Cities_List/nat_hotsprings.png,US_Cities_List/nat_huntsville.png,,,,,,,,,,,,,,,,
468.79999999981374,,rt_plussign_withcolor,295402,,green,,,,,50,US_Cities_List/nat_hotsprings.png,US_Cities_List/nat_huntsville.png,,,,,,,,,,,,,,,,
null,,rt_thecrossant_black,296765,,black_plus_sign,,,,,null,,,1,1,,,,,,,,,,,,,,
null,,color_black,296868,,black_plus_sign,,,,,null,,,,,,,,,,,,,,,,,,
null,,learn_phase(without_color),299894,,black_plus_sign,,,,,null,US_Cities_List/mm_westpalmbeach.png,US_Cities_List/mm_leesburg.png,,,,,,,,,,,,,,,,
null,,black_cross(without_color),300953,,green,,,,,null,US_Cities_List/mm_westpalmbeach.png,US_Cities_List/mm_leesburg.png,,,,,,,,,,,,,,,,
436.90000000037253,,rt_plussign_withcolor,301456,,green,,,,,50,US_Cities_List/mm_westpalmbeach.png,US_Cities_List/mm_leesburg.png,,,,,,,,,,,,,,,,
null,,rt_thecrossant_black,302402,,black_plus_sign,,,,,null,,,1,1,,,,,,,,,,,,,,
null,,color_black,302506,,black_plus_sign,,,,,null,,,,,,,,,,,,,,,,,,
null,,learn_phase(without_color),305527,,black_plus_sign,,,,,null,US_Cities_List/nat_gatlinburg.png,US_Cities_List/nat_newhope.png,,,,,,,,,,,,,,,,
null,,black_cross(without_color),306051,,green,,,,,null,US_Cities_List/nat_gatlinburg.png,US_Cities_List/nat_newhope.png,,,,,,,,,,,,,,,,
null,,rt_plussign_withcolor,306554,,green,,,,,null,US_Cities_List/nat_gatlinburg.png,US_Cities_List/nat_newhope.png,,,,,,,,,,,,,,,,
1177.2999999998137,,rt_thecrossant_black,308037,,black_plus_sign,,,,,50,,,1,1,,,,,,,,,,,,,,
null,,color_black,308140,,black_plus_sign,,,,,null,,,,,,,,,,,,,,,,,,
null,,learn_phase(without_color),311162,,black_plus_sign,,,,,null,US_Cities_List/nat_boulder.png,US_Cities_List/nat_hotsprings.png,,,,,,,,,,,,,,,,
null,,black_cross(without_color),312107,,green,,,,,null,US_Cities_List/nat_boulder.png,US_Cities_List/nat_hotsprings.png,,,,,,,,,,,,,,,,
446.40000000037253,,rt_plussign_withcolor,312609,,green,,,,,50,US_Cities_List/nat_boulder.png,US_Cities_List/nat_hotsprings.png,,,,,,,,,,,,,,,,
null,,rt_thecrossant_black,313670,,black_plus_sign,,,,,null,,,1,1,,,,,,,,,,,,,,
null,,color_black,313773,,black_plus_sign,,,,,null,,,,,,,,,,,,,,,,,,
null,,learn_phase(without_color),316797,,black_plus_sign,,,,,null,US_Cities_List/mm_westpalmbeach.png,US_Cities_List/mm_racine.png,,,,,,,,,,,,,,,,
null,,black_cross(without_color),317394,,green,,,,,null,US_Cities_List/mm_westpalmbeach.png,US_Cities_List/mm_racine.png,,,,,,,,,,,,,,,,
476.5,,rt_plussign_withcolor,317897,,green,,,,,50,US_Cities_List/mm_westpalmbeach.png,US_Cities_List/mm_racine.png,,,,,,,,,,,,,,,,
null,,rt_thecrossant_black,319306,,black_plus_sign,,,,,null,,,1,1,,,,,,,,,,,,,,
null,,color_black,319410,,black_plus_sign,,,,,null,,,,,,,,,,,,,,,,,,
null,,learn_phase(without_color),322434,,black_plus_sign,,,,,null,US_Cities_List/mm_carmel.png,US_Cities_List/nat_gatlinburg.png,,,,,,,,,,,,,,,,
null,,black_cross(without_color),323048,,green,,,,,null,US_Cities_List/mm_carmel.png,US_Cities_List/nat_gatlinburg.png,,,,,,,,,,,,,,,,
null,,rt_plussign_withcolor,323552,,green,,,,,null,US_Cities_List/mm_carmel.png,US_Cities_List/nat_gatlinburg.png,,,,,,,,,,,,,,,,
770.6999999992549,,rt_thecrossant_black,324945,,black_plus_sign,,,,,50,,,1,1,,,,,,,,,,,,,,
null,,color_black,325048,,black_plus_sign,,,,,null,,,,,,,,,,,,,,,,,,
null,,learn_phase(without_color),328070,,black_plus_sign,,,,,null,US_Cities_List/mm_peoria.png,US_Cities_List/mm_leesburg.png,,,,,,,,,,,,,,,,
null,,black_cross(without_color),328728,,blue,,,,,null,US_Cities_List/mm_peoria.png,US_Cities_List/mm_leesburg.png,,,,,,,,,,,,,,,,
null,,rt_plussign_withcolor,329230,,blue,,,,,null,US_Cities_List/mm_peoria.png,US_Cities_List/mm_leesburg.png,,,,,,,,,,,,,,,,
815.2000000001863,,rt_thecrossant_black,330580,,black_plus_sign,,,,,49,,,1,1,,,,,,,,,,,,,,
null,,color_black,330683,,black_plus_sign,,,,,null,,,,,,,,,,,,,,,,,,
null,,learn_phase(without_color),333712,,black_plus_sign,,,,,null,US_Cities_List/mm_racine.png,US_Cities_List/mm_westpalmbeach.png,,,,,,,,,,,,,,,,
null,,black_cross(without_color),334472,,blue,,,,,null,US_Cities_List/mm_racine.png,US_Cities_List/mm_westpalmbeach.png,,,,,,,,,,,,,,,,
null,,rt_plussign_withcolor,334975,,blue,,,,,null,US_Cities_List/mm_racine.png,US_Cities_List/mm_westpalmbeach.png,,,,,,,,,,,,,,,,
983.7000000001863,,rt_thecrossant_black,336222,,black_plus_sign,,,,,49,,,1,1,,,,,,,,,,,,,,
null,,color_black,336325,,black_plus_sign,,,,,null,,,,,,,,,,,,,,,,,,
null,,learn_phase(without_color),339348,,black_plus_sign,,,,,null,US_Cities_List/nat_gatlinburg.png,US_Cities_List/mm_carmel.png,,,,,,,,,,,,,,,,
null,,black_cross(without_color),340012,,blue,,,,,null,US_Cities_List/nat_gatlinburg.png,US_Cities_List/mm_carmel.png,,,,,,,,,,,,,,,,
null,,rt_plussign_withcolor,340515,,blue,,,,,null,US_Cities_List/nat_gatlinburg.png,US_Cities_List/mm_carmel.png,,,,,,,,,,,,,,,,
1342,,rt_thecrossant_black,341858,,black_plus_sign,,,,,49,,,1,1,,,,,,,,,,,,,,
null,,color_black,341961,,black_plus_sign,,,,,null,,,,,,,,,,,,,,,,,,
null,,learn_phase(without_color),344981,,black_plus_sign,,,,,null,US_Cities_List/mm_peoria.png,US_Cities_List/mm_leesburg.png,,,,,,,,,,,,,,,,
null,,black_cross(without_color),345861,,blue,,,,,null,US_Cities_List/mm_peoria.png,US_Cities_List/mm_leesburg.png,,,,,,,,,,,,,,,,
null,,rt_plussign_withcolor,346363,,blue,,,,,null,US_Cities_List/mm_peoria.png,US_Cities_List/mm_leesburg.png,,,,,,,,,,,,,,,,
null,,rt_thecrossant_black,347491,,black_plus_sign,,,,,null,,,,1,,,,,,,,,,,,,,
null,,color_black,347594,,black_plus_sign,,,,,null,,,,,,,,,,,,,,,,,,
null,,learn_phase(without_color),350620,,black_plus_sign,,,,,null,US_Cities_List/mm_westpalmbeach.png,US_Cities_List/mm_racine.png,,,,,,,,,,,,,,,,
null,,black_cross(without_color),351177,,blue,,,,,null,US_Cities_List/mm_westpalmbeach.png,US_Cities_List/mm_racine.png,,,,,,,,,,,,,,,,
null,,rt_plussign_withcolor,351680,,blue,,,,,null,US_Cities_List/mm_westpalmbeach.png,US_Cities_List/mm_racine.png,,,,,,,,,,,,,,,,
989.2000000001863,,rt_thecrossant_black,353129,,black_plus_sign,,,,,49,,,1,1,,,,,,,,,,,,,,
null,,color_black,353232,,black_plus_sign,,,,,null,,,,,,,,,,,,,,,,,,
null,,learn_phase(without_color),356255,,black_plus_sign,,,,,null,US_Cities_List/nat_hotsprings.png,US_Cities_List/nat_boulder.png,,,,,,,,,,,,,,,,
null,,black_cross(without_color),356952,,blue,,,,,null,US_Cities_List/nat_hotsprings.png,US_Cities_List/nat_boulder.png,,,,,,,,,,,,,,,,
null,,rt_plussign_withcolor,357454,,blue,,,,,null,US_Cities_List/nat_hotsprings.png,US_Cities_List/nat_boulder.png,,,,,,,,,,,,,,,,
716.0999999996275,,rt_thecrossant_black,358764,,black_plus_sign,,,,,49,,,1,1,,,,,,,,,,,,,,
null,,color_black,358867,,black_plus_sign,,,,,null,,,,,,,,,,,,,,,,,,
null,,learn_phase(without_color),361892,,black_plus_sign,,,,,null,US_Cities_List/mm_leesburg.png,US_Cities_List/mm_peoria.png,,,,,,,,,,,,,,,,
null,,black_cross(without_color),362770,,blue,,,,,null,US_Cities_List/mm_leesburg.png,US_Cities_List/mm_peoria.png,,,,,,,,,,,,,,,,
null,,rt_plussign_withcolor,363273,,blue,,,,,null,US_Cities_List/mm_leesburg.png,US_Cities_List/mm_peoria.png,,,,,,,,,,,,,,,,
881.6000000005588,,rt_thecrossant_black,364402,,black_plus_sign,,,,,49,,,1,1,,,,,,,,,,,,,,
null,,color_black,364505,,black_plus_sign,,,,,null,,,,,,,,,,,,,,,,,,
null,,learn_phase(without_color),367530,,black_plus_sign,,,,,null,US_Cities_List/nat_gatlinburg.png,US_Cities_List/mm_carmel.png,,,,,,,,,,,,,,,,
null,,black_cross(without_color),368135,,blue,,,,,null,US_Cities_List/nat_gatlinburg.png,US_Cities_List/mm_carmel.png,,,,,,,,,,,,,,,,
null,,rt_plussign_withcolor,368639,,blue,,,,,null,US_Cities_List/nat_gatlinburg.png,US_Cities_List/mm_carmel.png,,,,,,,,,,,,,,,,
1043,,rt_thecrossant_black,370041,,black_plus_sign,,,,,49,,,1,1,,,,,,,,,,,,,,
null,,color_black,370145,,black_plus_sign,,,,,null,,,,,,,,,,,,,,,,,,
null,,learn_phase(without_color),373165,,black_plus_sign,,,,,null,US_Cities_List/nat_boulder.png,US_Cities_List/nat_hotsprings.png,,,,,,,,,,,,,,,,
null,,black_cross(without_color),374174,,blue,,,,,null,US_Cities_List/nat_boulder.png,US_Cities_List/nat_hotsprings.png,,,,,,,,,,,,,,,,
null,,rt_plussign_withcolor,374677,,blue,,,,,null,US_Cities_List/nat_boulder.png,US_Cities_List/nat_hotsprings.png,,,,,,,,,,,,,,,,
1268.7000000001863,,rt_thecrossant_black,375675,,black_plus_sign,,,,,49,,,1,1,,,,,,,,,,,,,,
null,,color_black,375779,,black_plus_sign,,,,,null,,,,,,,,,,,,,,,,,,
null,,learn_phase(without_color),378799,,black_plus_sign,,,,,null,US_Cities_List/mm_leesburg.png,US_Cities_List/mm_peoria.png,,,,,,,,,,,,,,,,
null,,black_cross(without_color),379767,,green,,,,,null,US_Cities_List/mm_leesburg.png,US_Cities_List/mm_peoria.png,,,,,,,,,,,,,,,,
null,,rt_plussign_withcolor,380270,,green,,,,,null,US_Cities_List/mm_leesburg.png,US_Cities_List/mm_peoria.png,,,,,,,,,,,,,,,,
1108.5999999996275,,rt_thecrossant_black,381310,,black_plus_sign,,,,,50,,,1,1,,,,,,,,,,,,,,
null,,color_black,381414,,black_plus_sign,,,,,null,,,,,,,,,,,,,,,,,,
null,,learn_phase(without_color),384436,,black_plus_sign,,,,,null,US_Cities_List/nat_gatlinburg.png,US_Cities_List/mm_carmel.png,,,,,,,,,,,,,,,,
null,,black_cross(without_color),384954,,blue,,,,,null,US_Cities_List/nat_gatlinburg.png,US_Cities_List/mm_carmel.png,,,,,,,,,,,,,,,,
427.29999999981374,,rt_plussign_withcolor,385458,,blue,,,,,49,US_Cities_List/nat_gatlinburg.png,US_Cities_List/mm_carmel.png,,,,,,,,,,,,,,,,
null,,rt_thecrossant_black,386945,,black_plus_sign,,,,,null,,,1,1,,,,,,,,,,,,,,
null,,color_black,387048,,black_plus_sign,,,,,null,,,,,,,,,,,,,,,,,,
null,,learn_phase(without_color),390071,,black_plus_sign,,,,,null,US_Cities_List/mm_westpalmbeach.png,US_Cities_List/mm_racine.png,,,,,,,,,,,,,,,,
null,,black_cross(without_color),390570,,green,,,,,null,US_Cities_List/mm_westpalmbeach.png,US_Cities_List/mm_racine.png,,,,,,,,,,,,,,,,
null,,rt_plussign_withcolor,391073,,green,,,,,null,US_Cities_List/mm_westpalmbeach.png,US_Cities_List/mm_racine.png,,,,,,,,,,,,,,,,
616.2000000001863,,rt_thecrossant_black,392581,,black_plus_sign,,,,,50,,,1,1,,,,,,,,,,,,,,
null,,color_black,392684,,black_plus_sign,,,,,null,,,,,,,,,,,,,,,,,,
null,,learn_phase(without_color),395709,,black_plus_sign,,,,,null,US_Cities_List/nat_boulder.png,US_Cities_List/nat_hotsprings.png,,,,,,,,,,,,,,,,
null,,black_cross(without_color),396205,,blue,,,,,null,US_Cities_List/nat_boulder.png,US_Cities_List/nat_hotsprings.png,,,,,,,,,,,,,,,,
null,,rt_plussign_withcolor,396708,,blue,,,,,null,US_Cities_List/nat_boulder.png,US_Cities_List/nat_hotsprings.png,,,,,,,,,,,,,,,,
737.7000000001863,,rt_thecrossant_black,398218,,black_plus_sign,,,,,49,,,1,1,,,,,,,,,,,,,,
null,,color_black,398321,,black_plus_sign,,,,,null,,,,,,,,,,,,,,,,,,
null,,learn_phase(without_color),401343,,black_plus_sign,,,,,null,US_Cities_List/mm_racine.png,US_Cities_List/mm_westpalmbeach.png,,,,,,,,,,,,,,,,
null,,black_cross(without_color),401993,,blue,,,,,null,US_Cities_List/mm_racine.png,US_Cities_List/mm_westpalmbeach.png,,,,,,,,,,,,,,,,
431.79999999981374,,rt_plussign_withcolor,402496,,blue,,,,,49,US_Cities_List/mm_racine.png,US_Cities_List/mm_westpalmbeach.png,,,,,,,,,,,,,,,,
null,,rt_thecrossant_black,403853,,black_plus_sign,,,,,null,,,1,1,,,,,,,,,,,,,,
null,,color_black,403955,,black_plus_sign,,,,,null,,,,,,,,,,,,,,,,,,
null,,learn_phase(without_color),406978,,black_plus_sign,,,,,null,US_Cities_List/nat_gatlinburg.png,US_Cities_List/mm_carmel.png,,,,,,,,,,,,,,,,
null,,black_cross(without_color),407562,,green,,,,,null,US_Cities_List/nat_gatlinburg.png,US_Cities_List/mm_carmel.png,,,,,,,,,,,,,,,,
null,,rt_plussign_withcolor,408065,,green,,,,,null,US_Cities_List/nat_gatlinburg.png,US_Cities_List/mm_carmel.png,,,,,,,,,,,,,,,,
757.9000000003725,,rt_thecrossant_black,409486,,black_plus_sign,,,,,50,,,1,1,,,,,,,,,,,,,,
null,,color_black,409590,,black_plus_sign,,,,,null,,,,,,,,,,,,,,,,,,
null,,learn_phase(without_color),412615,,black_plus_sign,,,,,null,US_Cities_List/mm_leesburg.png,US_Cities_List/mm_peoria.png,,,,,,,,,,,,,,,,
null,,black_cross(without_color),413353,,green,,,,,null,US_Cities_List/mm_leesburg.png,US_Cities_List/mm_peoria.png,,,,,,,,,,,,,,,,
null,,rt_plussign_withcolor,413856,,green,,,,,null,US_Cities_List/mm_leesburg.png,US_Cities_List/mm_peoria.png,,,,,,,,,,,,,,,,
742.4000000003725,,rt_thecrossant_black,415125,,black_plus_sign,,,,,50,,,1,1,,,,,,,,,,,,,,
null,,color_black,415228,,black_plus_sign,,,,,null,,,,,,,,,,,,,,,,,,
null,,learn_phase(without_color),418254,,black_plus_sign,,,,,null,US_Cities_List/mm_westpalmbeach.png,US_Cities_List/mm_racine.png,,,,,,,,,,,,,,,,
null,,black_cross(without_color),419331,,blue,,,,,null,US_Cities_List/mm_westpalmbeach.png,US_Cities_List/mm_racine.png,,,,,,,,,,,,,,,,
452,,rt_plussign_withcolor,419834,,blue,,,,,49,US_Cities_List/mm_westpalmbeach.png,US_Cities_List/mm_racine.png,,,,,,,,,,,,,,,,
null,,rt_thecrossant_black,420764,,black_plus_sign,,,,,null,,,1,1,,,,,,,,,,,,,,
null,,color_black,420868,,black_plus_sign,,,,,null,,,,,,,,,,,,,,,,,,
null,,learn_phase(without_color),423887,,black_plus_sign,,,,,null,US_Cities_List/nat_boulder.png,US_Cities_List/nat_hotsprings.png,,,,,,,,,,,,,,,,
null,,black_cross(without_color),424480,,green,,,,,null,US_Cities_List/nat_boulder.png,US_Cities_List/nat_hotsprings.png,,,,,,,,,,,,,,,,
501.09999999962747,,rt_plussign_withcolor,424983,,green,,,,,49,US_Cities_List/nat_boulder.png,US_Cities_List/nat_hotsprings.png,,,,,,,,,,,,,,,,
null,,rt_thecrossant_black,426397,,black_plus_sign,,,,,null,,,0,0.9807692307692307,,,,,,,,,,,,,,
null,,color_black,426500,,black_plus_sign,,,,,null,,,,,,,,,,,,,,,,,,
null,,learn_phase(without_color),429523,,black_plus_sign,,,,,null,US_Cities_List/mm_leesburg.png,US_Cities_List/mm_peoria.png,,,,,,,,,,,,,,,,
null,,black_cross(without_color),430276,,green,,,,,null,US_Cities_List/mm_leesburg.png,US_Cities_List/mm_peoria.png,,,,,,,,,,,,,,,,
431.59999999962747,,rt_plussign_withcolor,430778,,green,,,,,50,US_Cities_List/mm_leesburg.png,US_Cities_List/mm_peoria.png,,,,,,,,,,,,,,,,
null,,rt_thecrossant_black,432031,,black_plus_sign,,,,,null,,,1,0.9811320754716981,,,,,,,,,,,,,,
null,,color_black,432134,,black_plus_sign,,,,,null,,,,,,,,,,,,,,,,,,
null,,learn_phase(without_color),435164,,black_plus_sign,,,,,null,US_Cities_List/mm_racine.png,US_Cities_List/mm_westpalmbeach.png,,,,,,,,,,,,,,,,
null,,black_cross(without_color),435636,,green,,,,,null,US_Cities_List/mm_racine.png,US_Cities_List/mm_westpalmbeach.png,,,,,,,,,,,,,,,,
null,,rt_plussign_withcolor,436139,,green,,,,,null,US_Cities_List/mm_racine.png,US_Cities_List/mm_westpalmbeach.png,,,,,,,,,,,,,,,,
1070.5999999996275,,rt_thecrossant_black,437673,,black_plus_sign,,,,,50,,,1,0.9814814814814815,,,,,,,,,,,,,,
null,,color_black,437776,,black_plus_sign,,,,,null,,,,,,,,,,,,,,,,,,
null,,learn_phase(without_color),440800,,black_plus_sign,,,,,null,US_Cities_List/mm_carmel.png,US_Cities_List/nat_gatlinburg.png,,,,,,,,,,,,,,,,
null,,black_cross(without_color),441407,,green,,,,,null,US_Cities_List/mm_carmel.png,US_Cities_List/nat_gatlinburg.png,,,,,,,,,,,,,,,,
null,,rt_plussign_withcolor,441910,,green,,,,,null,US_Cities_List/mm_carmel.png,US_Cities_List/nat_gatlinburg.png,,,,,,,,,,,,,,,,
763.2999999998137,,rt_thecrossant_black,443310,,black_plus_sign,,,,,50,,,1,0.9818181818181818,,,,,,,,,,,,,,
null,,color_black,443413,,black_plus_sign,,,,,null,,,,,,,,,,,,,,,,,,
null,,learn_phase(without_color),446432,,black_plus_sign,,,,,null,US_Cities_List/nat_boulder.png,US_Cities_List/nat_hotsprings.png,,,,,,,,,,,,,,,,
null,,black_cross(without_color),447077,,green,,,,,null,US_Cities_List/nat_boulder.png,US_Cities_List/nat_hotsprings.png,,,,,,,,,,,,,,,,
479.29999999981374,,rt_plussign_withcolor,447580,,green,,,,,50,US_Cities_List/nat_boulder.png,US_Cities_List/nat_hotsprings.png,,,,,,,,,,,,,,,,
null,,rt_thecrossant_black,448942,,black_plus_sign,,,,,null,,,1,0.9821428571428571,,,,,,,,,,,,,,
null,,color_black,449046,,black_plus_sign,,,,,null,,,,,,,,,,,,,,,,,,
null,,learn_phase(without_color),452066,,black_plus_sign,,,,,null,US_Cities_List/mm_leesburg.png,US_Cities_List/mm_peoria.png,,,,,,,,,,,,,,,,
null,,black_cross(without_color),452550,,blue,,,,,null,US_Cities_List/mm_leesburg.png,US_Cities_List/mm_peoria.png,,,,,,,,,,,,,,,,
null,,rt_plussign_withcolor,453053,,blue,,,,,null,US_Cities_List/mm_leesburg.png,US_Cities_List/mm_peoria.png,,,,,,,,,,,,,,,,
830.5,,rt_thecrossant_black,454577,,black_plus_sign,,,,,49,,,1,0.9824561403508771,,,,,,,,,,,,,,
null,,color_black,454681,,black_plus_sign,,,,,null,,,,,,,,,,,,,,,,,,
null,,learn_phase(without_color),457701,,black_plus_sign,,,,,null,US_Cities_List/nat_boulder.png,US_Cities_List/nat_hotsprings.png,,,,,,,,,,,,,,,,
null,,black_cross(without_color),458797,,blue,,,,,null,US_Cities_List/nat_boulder.png,US_Cities_List/nat_hotsprings.png,,,,,,,,,,,,,,,,
null,,rt_plussign_withcolor,459300,,blue,,,,,null,US_Cities_List/nat_boulder.png,US_Cities_List/nat_hotsprings.png,,,,,,,,,,,,,,,,
707.7999999998137,,rt_thecrossant_black,460212,,black_plus_sign,,,,,49,,,1,0.9827586206896551,,,,,,,,,,,,,,
null,,color_black,460316,,black_plus_sign,,,,,null,,,,,,,,,,,,,,,,,,
null,,learn_phase(without_color),463338,,black_plus_sign,,,,,null,US_Cities_List/mm_carmel.png,US_Cities_List/nat_gatlinburg.png,,,,,,,,,,,,,,,,
null,,black_cross(without_color),464352,,green,,,,,null,US_Cities_List/mm_carmel.png,US_Cities_List/nat_gatlinburg.png,,,,,,,,,,,,,,,,
432.1000000005588,,rt_plussign_withcolor,464855,,green,,,,,50,US_Cities_List/mm_carmel.png,US_Cities_List/nat_gatlinburg.png,,,,,,,,,,,,,,,,
null,,rt_thecrossant_black,465847,,black_plus_sign,,,,,null,,,1,0.9830508474576272,,,,,,,,,,,,,,
null,,color_black,465951,,black_plus_sign,,,,,null,,,,,,,,,,,,,,,,,,
null,,learn_phase(without_color),468976,,black_plus_sign,,,,,null,US_Cities_List/nat_hotsprings.png,US_Cities_List/nat_boulder.png,,,,,,,,,,,,,,,,
null,,black_cross(without_color),469401,,blue,,,,,null,US_Cities_List/nat_hotsprings.png,US_Cities_List/nat_boulder.png,,,,,,,,,,,,,,,,
null,,rt_plussign_withcolor,469903,,blue,,,,,null,US_Cities_List/nat_hotsprings.png,US_Cities_List/nat_boulder.png,,,,,,,,,,,,,,,,
1451.9000000003725,,rt_thecrossant_black,471486,,black_plus_sign,,,,,49,,,1,0.9833333333333333,,,,,,,,,,,,,,
null,,color_black,471589,,black_plus_sign,,,,,null,,,,,,,,,,,,,,,,,,
null,,learn_phase(without_color),474614,,black_plus_sign,,,,,null,US_Cities_List/mm_leesburg.png,US_Cities_List/mm_peoria.png,,,,,,,,,,,,,,,,
null,,black_cross(without_color),475322,,green,,,,,null,US_Cities_List/mm_leesburg.png,US_Cities_List/mm_peoria.png,,,,,,,,,,,,,,,,
null,,rt_plussign_withcolor,475826,,green,,,,,null,US_Cities_List/mm_leesburg.png,US_Cities_List/mm_peoria.png,,,,,,,,,,,,,,,,
532.4000000003725,,rt_thecrossant_black,477124,,black_plus_sign,,,,,50,,,1,0.9836065573770492,,,,,,,,,,,,,,
null,,color_black,477227,,black_plus_sign,,,,,null,,,,,,,,,,,,,,,,,,
null,,learn_phase(without_color),480250,,black_plus_sign,,,,,null,US_Cities_List/mm_westpalmbeach.png,US_Cities_List/mm_racine.png,,,,,,,,,,,,,,,,
null,,black_cross(without_color),481167,,green,,,,,null,US_Cities_List/mm_westpalmbeach.png,US_Cities_List/mm_racine.png,,,,,,,,,,,,,,,,
null,,rt_plussign_withcolor,481671,,green,,,,,null,US_Cities_List/mm_westpalmbeach.png,US_Cities_List/mm_racine.png,,,,,,,,,,,,,,,,
1202.5,,rt_thecrossant_black,482760,,black_plus_sign,,,,,50,,,1,0.9838709677419355,,,,,,,,,,,,,,
null,,color_black,482863,,black_plus_sign,,,,,null,,,,,,,,,,,,,,,,,,
null,,learn_phase(without_color),485884,,black_plus_sign,,,,,null,US_Cities_List/nat_gatlinburg.png,US_Cities_List/mm_carmel.png,,,,,,,,,,,,,,,,
null,,black_cross(without_color),486947,,blue,,,,,null,US_Cities_List/nat_gatlinburg.png,US_Cities_List/mm_carmel.png,,,,,,,,,,,,,,,,
null,,rt_plussign_withcolor,487450,,blue,,,,,null,US_Cities_List/nat_gatlinburg.png,US_Cities_List/mm_carmel.png,,,,,,,,,,,,,,,,
1496.9000000003725,,rt_thecrossant_black,488394,,black_plus_sign,,,,,49,,,1,0.9841269841269841,,,,,,,,,,,,,,
null,,color_black,488498,,black_plus_sign,,,,,null,,,,,,,,,,,,,,,,,,
null,,learn_phase(without_color),491523,,black_plus_sign,,,,,null,US_Cities_List/nat_huntsville.png,US_Cities_List/mm_carmel.png,,,,,,,,,,,,,,,,
null,,black_cross(without_color),492011,,blue,,,,,null,US_Cities_List/nat_huntsville.png,US_Cities_List/mm_carmel.png,,,,,,,,,,,,,,,,
null,,rt_plussign_withcolor,492515,,blue,,,,,null,US_Cities_List/nat_huntsville.png,US_Cities_List/mm_carmel.png,,,,,,,,,,,,,,,,
1273.2999999998137,,rt_thecrossant_black,494034,,black_plus_sign,,,,,49,,,1,0.984375,,,,,,,,,,,,,,
null,,color_black,494137,,black_plus_sign,,,,,null,,,,,,,,,,,,,,,,,,
null,,learn_phase(without_color),497159,,black_plus_sign,,,,,null,US_Cities_List/mm_westpalmbeach.png,US_Cities_List/mm_peoria.png,,,,,,,,,,,,,,,,
null,,black_cross(without_color),497686,,green,,,,,null,US_Cities_List/mm_westpalmbeach.png,US_Cities_List/mm_peoria.png,,,,,,,,,,,,,,,,
460.29999999981374,,rt_plussign_withcolor,498189,,green,,,,,50,US_Cities_List/mm_westpalmbeach.png,US_Cities_List/mm_peoria.png,,,,,,,,,,,,,,,,
null,,rt_thecrossant_black,499669,,black_plus_sign,,,,,null,,,1,0.9846153846153847,,,,,,,,,,,,,,
null,,color_black,499772,,black_plus_sign,,,,,null,,,,,,,,,,,,,,,,,,
null,,learn_phase(without_color),502794,,black_plus_sign,,,,,null,US_Cities_List/mm_leesburg.png,US_Cities_List/mm_racine.png,,,,,,,,,,,,,,,,
null,,black_cross(without_color),503417,,blue,,,,,null,US_Cities_List/mm_leesburg.png,US_Cities_List/mm_racine.png,,,,,,,,,,,,,,,,
null,,rt_plussign_withcolor,503920,,blue,,,,,null,US_Cities_List/mm_leesburg.png,US_Cities_List/mm_racine.png,,,,,,,,,,,,,,,,
902.0999999996275,,rt_thecrossant_black,505305,,black_plus_sign,,,,,49,,,1,0.9848484848484849,,,,,,,,,,,,,,
null,,color_black,505408,,black_plus_sign,,,,,null,,,,,,,,,,,,,,,,,,
null,,learn_phase(without_color),508431,,black_plus_sign,,,,,null,US_Cities_List/nat_hotsprings.png,US_Cities_List/nat_newhope.png,,,,,,,,,,,,,,,,
null,,black_cross(without_color),509118,,green,,,,,null,US_Cities_List/nat_hotsprings.png,US_Cities_List/nat_newhope.png,,,,,,,,,,,,,,,,
null,,rt_plussign_withcolor,509621,,green,,,,,null,US_Cities_List/nat_hotsprings.png,US_Cities_List/nat_newhope.png,,,,,,,,,,,,,,,,
1436.5999999996275,,rt_thecrossant_black,510941,,black_plus_sign,,,,,50,,,1,0.9850746268656716,,,,,,,,,,,,,,
null,,color_black,511045,,black_plus_sign,,,,,null,,,,,,,,,,,,,,,,,,
null,,learn_phase(without_color),514068,,black_plus_sign,,,,,null,US_Cities_List/mm_racine.png,US_Cities_List/mm_leesburg.png,,,,,,,,,,,,,,,,
null,,black_cross(without_color),515037,,green,,,,,null,US_Cities_List/mm_racine.png,US_Cities_List/mm_leesburg.png,,,,,,,,,,,,,,,,
500.09999999962747,,rt_plussign_withcolor,515539,,green,,,,,50,US_Cities_List/mm_racine.png,US_Cities_List/mm_leesburg.png,,,,,,,,,,,,,,,,
null,,rt_thecrossant_black,516577,,black_plus_sign,,,,,null,,,1,0.9852941176470589,,,,,,,,,,,,,,
null,,color_black,516681,,black_plus_sign,,,,,null,,,,,,,,,,,,,,,,,,
null,,learn_phase(without_color),519704,,black_plus_sign,,,,,null,US_Cities_List/nat_huntsville.png,US_Cities_List/mm_carmel.png,,,,,,,,,,,,,,,,
null,,black_cross(without_color),520673,,green,,,,,null,US_Cities_List/nat_huntsville.png,US_Cities_List/mm_carmel.png,,,,,,,,,,,,,,,,
461.5,,rt_plussign_withcolor,521176,,green,,,,,50,US_Cities_List/nat_huntsville.png,US_Cities_List/mm_carmel.png,,,,,,,,,,,,,,,,
null,,rt_thecrossant_black,522213,,black_plus_sign,,,,,null,,,1,0.9855072463768116,,,,,,,,,,,,,,
null,,color_black,522317,,black_plus_sign,,,,,null,,,,,,,,,,,,,,,,,,
null,,learn_phase(without_color),525343,,black_plus_sign,,,,,null,US_Cities_List/mm_racine.png,US_Cities_List/mm_leesburg.png,,,,,,,,,,,,,,,,
null,,black_cross(without_color),525969,,blue,,,,,null,US_Cities_List/mm_racine.png,US_Cities_List/mm_leesburg.png,,,,,,,,,,,,,,,,
471,,rt_plussign_withcolor,526472,,blue,,,,,49,US_Cities_List/mm_racine.png,US_Cities_List/mm_leesburg.png,,,,,,,,,,,,,,,,
null,,rt_thecrossant_black,527853,,black_plus_sign,,,,,null,,,1,0.9857142857142858,,,,,,,,,,,,,,
null,,color_black,527957,,black_plus_sign,,,,,null,,,,,,,,,,,,,,,,,,
null,,learn_phase(without_color),530988,,black_plus_sign,,,,,null,US_Cities_List/mm_peoria.png,US_Cities_List/mm_westpalmbeach.png,,,,,,,,,,,,,,,,
null,,black_cross(without_color),531988,,blue,,,,,null,US_Cities_List/mm_peoria.png,US_Cities_List/mm_westpalmbeach.png,,,,,,,,,,,,,,,,
null,,rt_plussign_withcolor,532491,,blue,,,,,null,US_Cities_List/mm_peoria.png,US_Cities_List/mm_westpalmbeach.png,,,,,,,,,,,,,,,,
799.4000000003725,,rt_thecrossant_black,533498,,black_plus_sign,,,,,49,,,1,0.9859154929577465,,,,,,,,,,,,,,
null,,color_black,533601,,black_plus_sign,,,,,null,,,,,,,,,,,,,,,,,,
null,,learn_phase(without_color),536621,,black_plus_sign,,,,,null,US_Cities_List/mm_carmel.png,US_Cities_List/nat_huntsville.png,,,,,,,,,,,,,,,,
null,,black_cross(without_color),537432,,green,,,,,null,US_Cities_List/mm_carmel.png,US_Cities_List/nat_huntsville.png,,,,,,,,,,,,,,,,
null,,rt_plussign_withcolor,537935,,green,,,,,null,US_Cities_List/mm_carmel.png,US_Cities_List/nat_huntsville.png,,,,,,,,,,,,,,,,
1177.9000000003725,,rt_thecrossant_black,539131,,black_plus_sign,,,,,50,,,1,0.9861111111111112,,,,,,,,,,,,,,
null,,color_black,539233,,black_plus_sign,,,,,null,,,,,,,,,,,,,,,,,,
null,,learn_phase(without_color),542256,,black_plus_sign,,,,,null,US_Cities_List/mm_peoria.png,US_Cities_List/mm_westpalmbeach.png,,,,,,,,,,,,,,,,
null,,black_cross(without_color),543328,,green,,,,,null,US_Cities_List/mm_peoria.png,US_Cities_List/mm_westpalmbeach.png,,,,,,,,,,,,,,,,
null,,rt_plussign_withcolor,543832,,green,,,,,null,US_Cities_List/mm_peoria.png,US_Cities_List/mm_westpalmbeach.png,,,,,,,,,,,,,,,,
1356.5999999996275,,rt_thecrossant_black,544767,,black_plus_sign,,,,,50,,,1,0.9863013698630136,,,,,,,,,,,,,,
null,,color_black,544870,,black_plus_sign,,,,,null,,,,,,,,,,,,,,,,,,
null,,learn_phase(without_color),547892,,black_plus_sign,,,,,null,US_Cities_List/nat_hotsprings.png,US_Cities_List/nat_newhope.png,,,,,,,,,,,,,,,,
null,,black_cross(without_color),548591,,green,,,,,null,US_Cities_List/nat_hotsprings.png,US_Cities_List/nat_newhope.png,,,,,,,,,,,,,,,,
null,,rt_plussign_withcolor,549094,,green,,,,,null,US_Cities_List/nat_hotsprings.png,US_Cities_List/nat_newhope.png,,,,,,,,,,,,,,,,
1200.5,,rt_thecrossant_black,550403,,black_plus_sign,,,,,50,,,1,0.9864864864864865,,,,,,,,,,,,,,
null,,color_black,550506,,black_plus_sign,,,,,null,,,,,,,,,,,,,,,,,,
null,,learn_phase(without_color),553531,,black_plus_sign,,,,,null,US_Cities_List/mm_carmel.png,US_Cities_List/nat_huntsville.png,,,,,,,,,,,,,,,,
null,,black_cross(without_color),554383,,blue,,,,,null,US_Cities_List/mm_carmel.png,US_Cities_List/nat_huntsville.png,,,,,,,,,,,,,,,,
451,,rt_plussign_withcolor,554887,,blue,,,,,49,US_Cities_List/mm_carmel.png,US_Cities_List/nat_huntsville.png,,,,,,,,,,,,,,,,
null,,rt_thecrossant_black,556041,,black_plus_sign,,,,,null,,,1,0.9866666666666667,,,,,,,,,,,,,,
null,,color_black,556144,,black_plus_sign,,,,,null,,,,,,,,,,,,,,,,,,
null,,learn_phase(without_color),559165,,black_plus_sign,,,,,null,US_Cities_List/mm_racine.png,US_Cities_List/mm_leesburg.png,,,,,,,,,,,,,,,,
null,,black_cross(without_color),559806,,green,,,,,null,US_Cities_List/mm_racine.png,US_Cities_List/mm_leesburg.png,,,,,,,,,,,,,,,,
null,,rt_plussign_withcolor,560310,,green,,,,,null,US_Cities_List/mm_racine.png,US_Cities_List/mm_leesburg.png,,,,,,,,,,,,,,,,
1300,,rt_thecrossant_black,561675,,black_plus_sign,,,,,50,,,1,0.9868421052631579,,,,,,,,,,,,,,
null,,color_black,561779,,black_plus_sign,,,,,null,,,,,,,,,,,,,,,,,,
null,,learn_phase(without_color),564804,,black_plus_sign,,,,,null,US_Cities_List/nat_newhope.png,US_Cities_List/nat_hotsprings.png,,,,,,,,,,,,,,,,
null,,black_cross(without_color),565690,,blue,,,,,null,US_Cities_List/nat_newhope.png,US_Cities_List/nat_hotsprings.png,,,,,,,,,,,,,,,,
null,,rt_plussign_withcolor,566193,,blue,,,,,null,US_Cities_List/nat_newhope.png,US_Cities_List/nat_hotsprings.png,,,,,,,,,,,,,,,,
878.7000000001863,,rt_thecrossant_black,567315,,black_plus_sign,,,,,49,,,1,0.987012987012987,,,,,,,,,,,,,,
null,,color_black,567418,,black_plus_sign,,,,,null,,,,,,,,,,,,,,,,,,
null,,learn_phase(without_color),570446,,black_plus_sign,,,,,null,US_Cities_List/nat_huntsville.png,US_Cities_List/mm_carmel.png,,,,,,,,,,,,,,,,
null,,black_cross(without_color),571175,,green,,,,,null,US_Cities_List/nat_huntsville.png,US_Cities_List/mm_carmel.png,,,,,,,,,,,,,,,,
null,,rt_plussign_withcolor,571679,,green,,,,,null,US_Cities_List/nat_huntsville.png,US_Cities_List/mm_carmel.png,,,,,,,,,,,,,,,,
1251.7999999998137,,rt_thecrossant_black,572957,,black_plus_sign,,,,,50,,,1,0.9871794871794872,,,,,,,,,,,,,,
null,,color_black,573061,,black_plus_sign,,,,,null,,,,,,,,,,,,,,,,,,
null,,learn_phase(without_color),576088,,black_plus_sign,,,,,null,US_Cities_List/nat_hotsprings.png,US_Cities_List/nat_newhope.png,,,,,,,,,,,,,,,,
null,,black_cross(without_color),576870,,green,,,,,null,US_Cities_List/nat_hotsprings.png,US_Cities_List/nat_newhope.png,,,,,,,,,,,,,,,,
496.5,,rt_plussign_withcolor,577372,,green,,,,,50,US_Cities_List/nat_hotsprings.png,US_Cities_List/nat_newhope.png,,,,,,,,,,,,,,,,
null,,rt_thecrossant_black,578597,,black_plus_sign,,,,,null,,,1,0.9873417721518988,,,,,,,,,,,,,,
null,,color_black,578700,,black_plus_sign,,,,,null,,,,,,,,,,,,,,,,,,
null,,learn_phase(without_color),581727,,black_plus_sign,,,,,null,US_Cities_List/mm_carmel.png,US_Cities_List/nat_huntsville.png,,,,,,,,,,,,,,,,
null,,black_cross(without_color),582697,,green,,,,,null,US_Cities_List/mm_carmel.png,US_Cities_List/nat_huntsville.png,,,,,,,,,,,,,,,,
null,,rt_plussign_withcolor,583201,,green,,,,,null,US_Cities_List/mm_carmel.png,US_Cities_List/nat_huntsville.png,,,,,,,,,,,,,,,,
956.5999999996275,,rt_thecrossant_black,584237,,black_plus_sign,,,,,50,,,1,0.9875,,,,,,,,,,,,,,
null,,color_black,584341,,black_plus_sign,,,,,null,,,,,,,,,,,,,,,,,,
null,,learn_phase(without_color),587369,,black_plus_sign,,,,,null,US_Cities_List/nat_hotsprings.png,US_Cities_List/nat_newhope.png,,,,,,,,,,,,,,,,
null,,black_cross(without_color),587912,,blue,,,,,null,US_Cities_List/nat_hotsprings.png,US_Cities_List/nat_newhope.png,,,,,,,,,,,,,,,,
479.6000000005588,,rt_plussign_withcolor,588415,,blue,,,,,49,US_Cities_List/nat_hotsprings.png,US_Cities_List/nat_newhope.png,,,,,,,,,,,,,,,,
null,,rt_thecrossant_black,589878,,black_plus_sign,,,,,null,,,1,0.9876543209876543,,,,,,,,,,,,,,
null,,color_black,589982,,black_plus_sign,,,,,null,,,,,,,,,,,,,,,,,,
null,,learn_phase(without_color),593004,,black_plus_sign,,,,,null,US_Cities_List/mm_westpalmbeach.png,US_Cities_List/mm_peoria.png,,,,,,,,,,,,,,,,
null,,black_cross(without_color),593626,,blue,,,,,null,US_Cities_List/mm_westpalmbeach.png,US_Cities_List/mm_peoria.png,,,,,,,,,,,,,,,,
null,,rt_plussign_withcolor,594130,,blue,,,,,null,US_Cities_List/mm_westpalmbeach.png,US_Cities_List/mm_peoria.png,,,,,,,,,,,,,,,,
781.5,,rt_thecrossant_black,595515,,black_plus_sign,,,,,49,,,1,0.9878048780487805,,,,,,,,,,,,,,
null,,color_black,595619,,black_plus_sign,,,,,null,,,,,,,,,,,,,,,,,,
null,,learn_phase(without_color),598646,,black_plus_sign,,,,,null,US_Cities_List/mm_carmel.png,US_Cities_List/nat_huntsville.png,,,,,,,,,,,,,,,,
null,,black_cross(without_color),599592,,blue,,,,,null,US_Cities_List/mm_carmel.png,US_Cities_List/nat_huntsville.png,,,,,,,,,,,,,,,,
null,,rt_plussign_withcolor,600095,,blue,,,,,null,US_Cities_List/mm_carmel.png,US_Cities_List/nat_huntsville.png,,,,,,,,,,,,,,,,
1007.0999999996275,,rt_thecrossant_black,601157,,black_plus_sign,,,,,49,,,1,0.9879518072289156,,,,,,,,,,,,,,
null,,color_black,601260,,black_plus_sign,,,,,null,,,,,,,,,,,,,,,,,,
null,,learn_phase(without_color),604290,,black_plus_sign,,,,,null,US_Cities_List/mm_westpalmbeach.png,US_Cities_List/mm_peoria.png,,,,,,,,,,,,,,,,
null,,black_cross(without_color),604698,,green,,,,,null,US_Cities_List/mm_westpalmbeach.png,US_Cities_List/mm_peoria.png,,,,,,,,,,,,,,,,
null,,rt_plussign_withcolor,605201,,green,,,,,null,US_Cities_List/mm_westpalmbeach.png,US_Cities_List/mm_peoria.png,,,,,,,,,,,,,,,,
null,,rt_thecrossant_black,606800,,black_plus_sign,,,,,null,,,,0.9879518072289156,,,,,,,,,,,,,,
null,,color_black,606903,,black_plus_sign,,,,,null,,,,,,,,,,,,,,,,,,
null,,learn_phase(without_color),609931,,black_plus_sign,,,,,null,US_Cities_List/nat_hotsprings.png,US_Cities_List/nat_newhope.png,,,,,,,,,,,,,,,,
null,,black_cross(without_color),610348,,green,,,,,null,US_Cities_List/nat_hotsprings.png,US_Cities_List/nat_newhope.png,,,,,,,,,,,,,,,,
null,,rt_plussign_withcolor,610851,,green,,,,,null,US_Cities_List/nat_hotsprings.png,US_Cities_List/nat_newhope.png,,,,,,,,,,,,,,,,
608.2000000001863,,rt_thecrossant_black,612441,,black_plus_sign,,,,,49,,,0,0.9761904761904762,,,,,,,,,,,,,,
null,,warning_page,615444,,warning,,,,,null,,,,,,,,,,,,,,,,,,
null,,color_black,615548,,black_plus_sign,,,,,null,,,,,,,,,,,,,,,,,,
null,,learn_phase(without_color),618571,,black_plus_sign,,,,,null,US_Cities_List/mm_carmel.png,US_Cities_List/nat_huntsville.png,,,,,,,,,,,,,,,,
null,,black_cross(without_color),619435,,blue,,,,,null,US_Cities_List/mm_carmel.png,US_Cities_List/nat_huntsville.png,,,,,,,,,,,,,,,,
null,,rt_plussign_withcolor,619939,,blue,,,,,null,US_Cities_List/mm_carmel.png,US_Cities_List/nat_huntsville.png,,,,,,,,,,,,,,,,
782.2000000001863,,rt_thecrossant_black,621083,,black_plus_sign,,,,,49,,,1,0.9764705882352941,,,,,,,,,,,,,,
null,,color_black,621186,,black_plus_sign,,,,,null,,,,,,,,,,,,,,,,,,
null,,learn_phase(without_color),624212,,black_plus_sign,,,,,null,US_Cities_List/nat_newhope.png,US_Cities_List/nat_hotsprings.png,,,,,,,,,,,,,,,,
null,,black_cross(without_color),624669,,blue,,,,,null,US_Cities_List/nat_newhope.png,US_Cities_List/nat_hotsprings.png,,,,,,,,,,,,,,,,
null,,rt_plussign_withcolor,625173,,blue,,,,,null,US_Cities_List/nat_newhope.png,US_Cities_List/nat_hotsprings.png,,,,,,,,,,,,,,,,
1188,,rt_thecrossant_black,626723,,black_plus_sign,,,,,49,,,1,0.9767441860465116,,,,,,,,,,,,,,
null,,color_black,626828,,black_plus_sign,,,,,null,,,,,,,,,,,,,,,,,,
null,,learn_phase(without_color),629852,,black_plus_sign,,,,,null,US_Cities_List/mm_westpalmbeach.png,US_Cities_List/mm_peoria.png,,,,,,,,,,,,,,,,
null,,black_cross(without_color),630381,,blue,,,,,null,US_Cities_List/mm_westpalmbeach.png,US_Cities_List/mm_peoria.png,,,,,,,,,,,,,,,,
null,,rt_plussign_withcolor,630884,,blue,,,,,null,US_Cities_List/mm_westpalmbeach.png,US_Cities_List/mm_peoria.png,,,,,,,,,,,,,,,,
762.8999999994412,,rt_thecrossant_black,632363,,black_plus_sign,,,,,49,,,1,0.9770114942528736,,,,,,,,,,,,,,
null,,color_black,632467,,black_plus_sign,,,,,null,,,,,,,,,,,,,,,,,,
null,,learn_phase(without_color),635487,,black_plus_sign,,,,,null,US_Cities_List/mm_leesburg.png,US_Cities_List/mm_racine.png,,,,,,,,,,,,,,,,
null,,black_cross(without_color),635994,,blue,,,,,null,US_Cities_List/mm_leesburg.png,US_Cities_List/mm_racine.png,,,,,,,,,,,,,,,,
null,,rt_plussign_withcolor,636496,,blue,,,,,null,US_Cities_List/mm_leesburg.png,US_Cities_List/mm_racine.png,,,,,,,,,,,,,,,,
836,,rt_thecrossant_black,637995,,black_plus_sign,,,,,49,,,1,0.9772727272727273,,,,,,,,,,,,,,
null,,color_black,638099,,black_plus_sign,,,,,null,,,,,,,,,,,,,,,,,,
null,,learn_phase(without_color),641124,,black_plus_sign,,,,,null,US_Cities_List/nat_newhope.png,US_Cities_List/nat_hotsprings.png,,,,,,,,,,,,,,,,
null,,black_cross(without_color),642188,,green,,,,,null,US_Cities_List/nat_newhope.png,US_Cities_List/nat_hotsprings.png,,,,,,,,,,,,,,,,
null,,rt_plussign_withcolor,642691,,green,,,,,null,US_Cities_List/nat_newhope.png,US_Cities_List/nat_hotsprings.png,,,,,,,,,,,,,,,,
771.7000000001863,,rt_thecrossant_black,643635,,black_plus_sign,,,,,50,,,1,0.9775280898876404,,,,,,,,,,,,,,
null,,color_black,643738,,black_plus_sign,,,,,null,,,,,,,,,,,,,,,,,,
null,,learn_phase(without_color),646765,,black_plus_sign,,,,,null,US_Cities_List/mm_racine.png,US_Cities_List/mm_leesburg.png,,,,,,,,,,,,,,,,
null,,black_cross(without_color),647578,,green,,,,,null,US_Cities_List/mm_racine.png,US_Cities_List/mm_leesburg.png,,,,,,,,,,,,,,,,
null,,rt_plussign_withcolor,648082,,green,,,,,null,US_Cities_List/mm_racine.png,US_Cities_List/mm_leesburg.png,,,,,,,,,,,,,,,,
1351.5999999996275,,rt_thecrossant_black,649275,,black_plus_sign,,,,,50,,,1,0.9777777777777777,,,,,,,,,,,,,,
null,,color_black,649379,,black_plus_sign,,,,,null,,,,,,,,,,,,,,,,,,
null,,learn_phase(without_color),652408,,black_plus_sign,,,,,null,US_Cities_List/mm_peoria.png,US_Cities_List/mm_westpalmbeach.png,,,,,,,,,,,,,,,,
null,,black_cross(without_color),652960,,green,,,,,null,US_Cities_List/mm_peoria.png,US_Cities_List/mm_westpalmbeach.png,,,,,,,,,,,,,,,,
null,,rt_plussign_withcolor,653463,,green,,,,,null,US_Cities_List/mm_peoria.png,US_Cities_List/mm_westpalmbeach.png,,,,,,,,,,,,,,,,
1100.3999999994412,,rt_thecrossant_black,654918,,black_plus_sign,,,,,50,,,1,0.978021978021978,,,,,,,,,,,,,,
null,,color_black,655022,,black_plus_sign,,,,,null,,,,,,,,,,,,,,,,,,
null,,learn_phase(without_color),658046,,black_plus_sign,,,,,null,US_Cities_List/mm_leesburg.png,US_Cities_List/mm_racine.png,,,,,,,,,,,,,,,,
null,,black_cross(without_color),658532,,green,,,,,null,US_Cities_List/mm_leesburg.png,US_Cities_List/mm_racine.png,,,,,,,,,,,,,,,,
null,,rt_plussign_withcolor,659035,,green,,,,,null,US_Cities_List/mm_leesburg.png,US_Cities_List/mm_racine.png,,,,,,,,,,,,,,,,
875,,rt_thecrossant_black,660557,,black_plus_sign,,,,,50,,,1,0.9782608695652174,,,,,,,,,,,,,,
null,,color_black,660661,,black_plus_sign,,,,,null,,,,,,,,,,,,,,,,,,
null,,learn_phase(without_color),663686,,black_plus_sign,,,,,null,US_Cities_List/mm_leesburg.png,US_Cities_List/mm_racine.png,,,,,,,,,,,,,,,,
null,,black_cross(without_color),664718,,blue,,,,,null,US_Cities_List/mm_leesburg.png,US_Cities_List/mm_racine.png,,,,,,,,,,,,,,,,
null,,rt_plussign_withcolor,665222,,blue,,,,,null,US_Cities_List/mm_leesburg.png,US_Cities_List/mm_racine.png,,,,,,,,,,,,,,,,
592,,rt_thecrossant_black,666197,,black_plus_sign,,,,,49,,,1,0.978494623655914,,,,,,,,,,,,,,
null,,color_black,666301,,black_plus_sign,,,,,null,,,,,,,,,,,,,,,,,,
null,,learn_phase(without_color),669323,,black_plus_sign,,,,,null,US_Cities_List/mm_peoria.png,US_Cities_List/mm_westpalmbeach.png,,,,,,,,,,,,,,,,
null,,black_cross(without_color),670135,,green,,,,,null,US_Cities_List/mm_peoria.png,US_Cities_List/mm_westpalmbeach.png,,,,,,,,,,,,,,,,
null,,rt_plussign_withcolor,670638,,green,,,,,null,US_Cities_List/mm_peoria.png,US_Cities_List/mm_westpalmbeach.png,,,,,,,,,,,,,,,,
1428.5999999996275,,rt_thecrossant_black,671834,,black_plus_sign,,,,,50,,,1,0.9787234042553191,,,,,,,,,,,,,,
null,,color_black,671938,,black_plus_sign,,,,,null,,,,,,,,,,,,,,,,,,
null,,learn_phase(without_color),674967,,black_plus_sign,,,,,null,US_Cities_List/mm_westpalmbeach.png,US_Cities_List/nat_gatlinburg.png,,,,,,,,,,,,,,,,
null,,black_cross(without_color),675800,,green,,,,,null,US_Cities_List/mm_westpalmbeach.png,US_Cities_List/nat_gatlinburg.png,,,,,,,,,,,,,,,,
null,,rt_plussign_withcolor,676303,,green,,,,,null,US_Cities_List/mm_westpalmbeach.png,US_Cities_List/nat_gatlinburg.png,,,,,,,,,,,,,,,,
1033.3999999994412,,rt_thecrossant_black,677478,,black_plus_sign,,,,,50,,,1,0.9789473684210527,,,,,,,,,,,,,,
null,,color_black,677582,,black_plus_sign,,,,,null,,,,,,,,,,,,,,,,,,
null,,learn_phase(without_color),680607,,black_plus_sign,,,,,null,US_Cities_List/mm_shreveport.png,US_Cities_List/mm_leesburg.png,,,,,,,,,,,,,,,,
null,,black_cross(without_color),681456,,green,,,,,null,US_Cities_List/mm_shreveport.png,US_Cities_List/mm_leesburg.png,,,,,,,,,,,,,,,,
433.40000000037253,,rt_plussign_withcolor,681959,,green,,,,,50,US_Cities_List/mm_shreveport.png,US_Cities_List/mm_leesburg.png,,,,,,,,,,,,,,,,
null,,rt_thecrossant_black,683118,,black_plus_sign,,,,,null,,,1,0.9791666666666666,,,,,,,,,,,,,,
null,,color_black,683221,,black_plus_sign,,,,,null,,,,,,,,,,,,,,,,,,
null,,learn_phase(without_color),686245,,black_plus_sign,,,,,null,US_Cities_List/mm_hanover.png,US_Cities_List/mm_peoria.png,,,,,,,,,,,,,,,,
null,,black_cross(without_color),686867,,blue,,,,,null,US_Cities_List/mm_hanover.png,US_Cities_List/mm_peoria.png,,,,,,,,,,,,,,,,
null,,rt_plussign_withcolor,687370,,blue,,,,,null,US_Cities_List/mm_hanover.png,US_Cities_List/mm_peoria.png,,,,,,,,,,,,,,,,
1009.7000000001863,,rt_thecrossant_black,688756,,black_plus_sign,,,,,49,,,1,0.979381443298969,,,,,,,,,,,,,,
null,,color_black,688860,,black_plus_sign,,,,,null,,,,,,,,,,,,,,,,,,
null,,learn_phase(without_color),691891,,black_plus_sign,,,,,null,US_Cities_List/nat_gatlinburg.png,US_Cities_List/mm_westpalmbeach.png,,,,,,,,,,,,,,,,
null,,black_cross(without_color),692896,,green,,,,,null,US_Cities_List/nat_gatlinburg.png,US_Cities_List/mm_westpalmbeach.png,,,,,,,,,,,,,,,,
null,,rt_plussign_withcolor,693399,,green,,,,,null,US_Cities_List/nat_gatlinburg.png,US_Cities_List/mm_westpalmbeach.png,,,,,,,,,,,,,,,,
793.2000000001863,,rt_thecrossant_black,694402,,black_plus_sign,,,,,50,,,1,0.9795918367346939,,,,,,,,,,,,,,
null,,color_black,694506,,black_plus_sign,,,,,null,,,,,,,,,,,,,,,,,,
null,,learn_phase(without_color),697531,,black_plus_sign,,,,,null,US_Cities_List/mm_peoria.png,US_Cities_List/mm_hanover.png,,,,,,,,,,,,,,,,
null,,black_cross(without_color),698088,,blue,,,,,null,US_Cities_List/mm_peoria.png,US_Cities_List/mm_hanover.png,,,,,,,,,,,,,,,,
null,,rt_plussign_withcolor,698591,,blue,,,,,null,US_Cities_List/mm_peoria.png,US_Cities_List/mm_hanover.png,,,,,,,,,,,,,,,,
1207,,rt_thecrossant_black,700041,,black_plus_sign,,,,,49,,,1,0.9797979797979798,,,,,,,,,,,,,,
null,,color_black,700144,,black_plus_sign,,,,,null,,,,,,,,,,,,,,,,,,
null,,learn_phase(without_color),703170,,black_plus_sign,,,,,null,US_Cities_List/mm_leesburg.png,US_Cities_List/mm_shreveport.png,,,,,,,,,,,,,,,,
null,,black_cross(without_color),704106,,blue,,,,,null,US_Cities_List/mm_leesburg.png,US_Cities_List/mm_shreveport.png,,,,,,,,,,,,,,,,
null,,rt_plussign_withcolor,704609,,blue,,,,,null,US_Cities_List/mm_leesburg.png,US_Cities_List/mm_shreveport.png,,,,,,,,,,,,,,,,
1064.4000000003725,,rt_thecrossant_black,705681,,black_plus_sign,,,,,49,,,1,0.98,,,,,,,,,,,,,,
null,,color_black,705785,,black_plus_sign,,,,,null,,,,,,,,,,,,,,,,,,
null,,learn_phase(without_color),708807,,black_plus_sign,,,,,null,US_Cities_List/nat_huntsville.png,US_Cities_List/nat_cornwall.png,,,,,,,,,,,,,,,,
null,,black_cross(without_color),709599,,green,,,,,null,US_Cities_List/nat_huntsville.png,US_Cities_List/nat_cornwall.png,,,,,,,,,,,,,,,,
408.59999999962747,,rt_plussign_withcolor,710103,,green,,,,,50,US_Cities_List/nat_huntsville.png,US_Cities_List/nat_cornwall.png,,,,,,,,,,,,,,,,
null,,rt_thecrossant_black,711318,,black_plus_sign,,,,,null,,,1,0.9801980198019802,,,,,,,,,,,,,,
null,,color_black,711422,,black_plus_sign,,,,,null,,,,,,,,,,,,,,,,,,
null,,learn_phase(without_color),714447,,black_plus_sign,,,,,null,US_Cities_List/mm_peoria.png,US_Cities_List/mm_hanover.png,,,,,,,,,,,,,,,,
null,,black_cross(without_color),715416,,blue,,,,,null,US_Cities_List/mm_peoria.png,US_Cities_List/mm_hanover.png,,,,,,,,,,,,,,,,
454.20000000018626,,rt_plussign_withcolor,715919,,blue,,,,,49,US_Cities_List/mm_peoria.png,US_Cities_List/mm_hanover.png,,,,,,,,,,,,,,,,
null,,rt_thecrossant_black,716958,,black_plus_sign,,,,,null,,,1,0.9803921568627451,,,,,,,,,,,,,,
null,,color_black,717062,,black_plus_sign,,,,,null,,,,,,,,,,,,,,,,,,
null,,learn_phase(without_color),720093,,black_plus_sign,,,,,null,US_Cities_List/nat_gatlinburg.png,US_Cities_List/mm_westpalmbeach.png,,,,,,,,,,,,,,,,
null,,black_cross(without_color),721021,,blue,,,,,null,US_Cities_List/nat_gatlinburg.png,US_Cities_List/mm_westpalmbeach.png,,,,,,,,,,,,,,,,
null,,rt_plussign_withcolor,721524,,blue,,,,,null,US_Cities_List/nat_gatlinburg.png,US_Cities_List/mm_westpalmbeach.png,,,,,,,,,,,,,,,,
1185.6000000005588,,rt_thecrossant_black,722604,,black_plus_sign,,,,,49,,,1,0.9805825242718447,,,,,,,,,,,,,,
null,,color_black,722707,,black_plus_sign,,,,,null,,,,,,,,,,,,,,,,,,
null,,learn_phase(without_color),725728,,black_plus_sign,,,,,null,US_Cities_List/mm_shreveport.png,US_Cities_List/mm_leesburg.png,,,,,,,,,,,,,,,,
null,,black_cross(without_color),726222,,blue,,,,,null,US_Cities_List/mm_shreveport.png,US_Cities_List/mm_leesburg.png,,,,,,,,,,,,,,,,
null,,rt_plussign_withcolor,726726,,blue,,,,,null,US_Cities_List/mm_shreveport.png,US_Cities_List/mm_leesburg.png,,,,,,,,,,,,,,,,
1169.2000000001863,,rt_thecrossant_black,728239,,black_plus_sign,,,,,49,,,1,0.9807692307692307,,,,,,,,,,,,,,
null,,color_black,728343,,black_plus_sign,,,,,null,,,,,,,,,,,,,,,,,,
null,,learn_phase(without_color),731366,,black_plus_sign,,,,,null,US_Cities_List/nat_huntsville.png,US_Cities_List/nat_cornwall.png,,,,,,,,,,,,,,,,
null,,black_cross(without_color),731988,,green,,,,,null,US_Cities_List/nat_huntsville.png,US_Cities_List/nat_cornwall.png,,,,,,,,,,,,,,,,
null,,rt_plussign_withcolor,732491,,green,,,,,null,US_Cities_List/nat_huntsville.png,US_Cities_List/nat_cornwall.png,,,,,,,,,,,,,,,,
847.1999999992549,,rt_thecrossant_black,733877,,black_plus_sign,,,,,50,,,1,0.9809523809523809,,,,,,,,,,,,,,
null,,color_black,733981,,black_plus_sign,,,,,null,,,,,,,,,,,,,,,,,,
null,,learn_phase(without_color),737006,,black_plus_sign,,,,,null,US_Cities_List/mm_leesburg.png,US_Cities_List/mm_shreveport.png,,,,,,,,,,,,,,,,
null,,black_cross(without_color),737805,,green,,,,,null,US_Cities_List/mm_leesburg.png,US_Cities_List/mm_shreveport.png,,,,,,,,,,,,,,,,
null,,rt_plussign_withcolor,738308,,green,,,,,null,US_Cities_List/mm_leesburg.png,US_Cities_List/mm_shreveport.png,,,,,,,,,,,,,,,,
720.9000000003725,,rt_thecrossant_black,739517,,black_plus_sign,,,,,50,,,1,0.9811320754716981,,,,,,,,,,,,,,
null,,color_black,739620,,black_plus_sign,,,,,null,,,,,,,,,,,,,,,,,,
null,,learn_phase(without_color),742648,,black_plus_sign,,,,,null,US_Cities_List/nat_cornwall.png,US_Cities_List/nat_huntsville.png,,,,,,,,,,,,,,,,
null,,black_cross(without_color),743675,,green,,,,,null,US_Cities_List/nat_cornwall.png,US_Cities_List/nat_huntsville.png,,,,,,,,,,,,,,,,
456.20000000018626,,rt_plussign_withcolor,744178,,green,,,,,50,US_Cities_List/nat_cornwall.png,US_Cities_List/nat_huntsville.png,,,,,,,,,,,,,,,,
null,,rt_thecrossant_black,745159,,black_plus_sign,,,,,null,,,1,0.9813084112149533,,,,,,,,,,,,,,
null,,color_black,745263,,black_plus_sign,,,,,null,,,,,,,,,,,,,,,,,,
null,,learn_phase(without_color),748285,,black_plus_sign,,,,,null,US_Cities_List/mm_hanover.png,US_Cities_List/mm_peoria.png,,,,,,,,,,,,,,,,
null,,black_cross(without_color),748722,,blue,,,,,null,US_Cities_List/mm_hanover.png,US_Cities_List/mm_peoria.png,,,,,,,,,,,,,,,,
null,,rt_plussign_withcolor,749226,,blue,,,,,null,US_Cities_List/mm_hanover.png,US_Cities_List/mm_peoria.png,,,,,,,,,,,,,,,,
1300.4000000003725,,rt_thecrossant_black,750796,,black_plus_sign,,,,,49,,,1,0.9814814814814815,,,,,,,,,,,,,,
null,,color_black,750899,,black_plus_sign,,,,,null,,,,,,,,,,,,,,,,,,
null,,learn_phase(without_color),753924,,black_plus_sign,,,,,null,US_Cities_List/nat_huntsville.png,US_Cities_List/nat_cornwall.png,,,,,,,,,,,,,,,,
null,,black_cross(without_color),754851,,blue,,,,,null,US_Cities_List/nat_huntsville.png,US_Cities_List/nat_cornwall.png,,,,,,,,,,,,,,,,
null,,rt_plussign_withcolor,755354,,blue,,,,,null,US_Cities_List/nat_huntsville.png,US_Cities_List/nat_cornwall.png,,,,,,,,,,,,,,,,
606.2000000001863,,rt_thecrossant_black,756434,,black_plus_sign,,,,,49,,,1,0.981651376146789,,,,,,,,,,,,,,
null,,color_black,756538,,black_plus_sign,,,,,null,,,,,,,,,,,,,,,,,,
null,,learn_phase(without_color),759562,,black_plus_sign,,,,,null,US_Cities_List/mm_westpalmbeach.png,US_Cities_List/nat_gatlinburg.png,,,,,,,,,,,,,,,,
null,,black_cross(without_color),760094,,blue,,,,,null,US_Cities_List/mm_westpalmbeach.png,US_Cities_List/nat_gatlinburg.png,,,,,,,,,,,,,,,,
null,,rt_plussign_withcolor,760598,,blue,,,,,null,US_Cities_List/mm_westpalmbeach.png,US_Cities_List/nat_gatlinburg.png,,,,,,,,,,,,,,,,
1135.7999999998137,,rt_thecrossant_black,762074,,black_plus_sign,,,,,49,,,1,0.9818181818181818,,,,,,,,,,,,,,
null,,color_black,762178,,black_plus_sign,,,,,null,,,,,,,,,,,,,,,,,,
null,,learn_phase(without_color),765205,,black_plus_sign,,,,,null,US_Cities_List/mm_leesburg.png,US_Cities_List/mm_shreveport.png,,,,,,,,,,,,,,,,
null,,black_cross(without_color),766157,,blue,,,,,null,US_Cities_List/mm_leesburg.png,US_Cities_List/mm_shreveport.png,,,,,,,,,,,,,,,,
null,,rt_plussign_withcolor,766660,,blue,,,,,null,US_Cities_List/mm_leesburg.png,US_Cities_List/mm_shreveport.png,,,,,,,,,,,,,,,,
695.3999999994412,,rt_thecrossant_black,767716,,black_plus_sign,,,,,49,,,1,0.9819819819819819,,,,,,,,,,,,,,
null,,color_black,767819,,black_plus_sign,,,,,null,,,,,,,,,,,,,,,,,,
null,,learn_phase(without_color),770852,,black_plus_sign,,,,,null,US_Cities_List/nat_gatlinburg.png,US_Cities_List/mm_westpalmbeach.png,,,,,,,,,,,,,,,,
null,,black_cross(without_color),771453,,blue,,,,,null,US_Cities_List/nat_gatlinburg.png,US_Cities_List/mm_westpalmbeach.png,,,,,,,,,,,,,,,,
null,,rt_plussign_withcolor,771956,,blue,,,,,null,US_Cities_List/nat_gatlinburg.png,US_Cities_List/mm_westpalmbeach.png,,,,,,,,,,,,,,,,
null,,rt_thecrossant_black,773362,,black_plus_sign,,,,,null,,,,0.9819819819819819,,,,,,,,,,,,,,
null,,color_black,773466,,black_plus_sign,,,,,null,,,,,,,,,,,,,,,,,,
null,,learn_phase(without_color),776494,,black_plus_sign,,,,,null,US_Cities_List/mm_hanover.png,US_Cities_List/mm_peoria.png,,,,,,,,,,,,,,,,
null,,black_cross(without_color),777238,,blue,,,,,null,US_Cities_List/mm_hanover.png,US_Cities_List/mm_peoria.png,,,,,,,,,,,,,,,,
431.8999999994412,,rt_plussign_withcolor,777742,,blue,,,,,49,US_Cities_List/mm_hanover.png,US_Cities_List/mm_peoria.png,,,,,,,,,,,,,,,,
null,,rt_thecrossant_black,779005,,black_plus_sign,,,,,null,,,1,0.9821428571428571,,,,,,,,,,,,,,
null,,color_black,779108,,black_plus_sign,,,,,null,,,,,,,,,,,,,,,,,,
null,,learn_phase(without_color),782133,,black_plus_sign,,,,,null,US_Cities_List/nat_huntsville.png,US_Cities_List/nat_cornwall.png,,,,,,,,,,,,,,,,
null,,black_cross(without_color),783153,,blue,,,,,null,US_Cities_List/nat_huntsville.png,US_Cities_List/nat_cornwall.png,,,,,,,,,,,,,,,,
null,,rt_plussign_withcolor,783656,,blue,,,,,null,US_Cities_List/nat_huntsville.png,US_Cities_List/nat_cornwall.png,,,,,,,,,,,,,,,,
883.1000000005588,,rt_thecrossant_black,784645,,black_plus_sign,,,,,49,,,1,0.9823008849557522,,,,,,,,,,,,,,
null,,color_black,784748,,black_plus_sign,,,,,null,,,,,,,,,,,,,,,,,,
null,,learn_phase(without_color),787779,,black_plus_sign,,,,,null,US_Cities_List/nat_gatlinburg.png,US_Cities_List/mm_westpalmbeach.png,,,,,,,,,,,,,,,,
null,,black_cross(without_color),788278,,green,,,,,null,US_Cities_List/nat_gatlinburg.png,US_Cities_List/mm_westpalmbeach.png,,,,,,,,,,,,,,,,
null,,rt_plussign_withcolor,788781,,green,,,,,null,US_Cities_List/nat_gatlinburg.png,US_Cities_List/mm_westpalmbeach.png,,,,,,,,,,,,,,,,
1257.2999999998137,,rt_thecrossant_black,790290,,black_plus_sign,,,,,50,,,1,0.9824561403508771,,,,,,,,,,,,,,
null,,color_black,790393,,black_plus_sign,,,,,null,,,,,,,,,,,,,,,,,,
null,,learn_phase(without_color),793412,,black_plus_sign,,,,,null,US_Cities_List/mm_peoria.png,US_Cities_List/mm_hanover.png,,,,,,,,,,,,,,,,
null,,black_cross(without_color),793879,,blue,,,,,null,US_Cities_List/mm_peoria.png,US_Cities_List/mm_hanover.png,,,,,,,,,,,,,,,,
null,,rt_plussign_withcolor,794382,,blue,,,,,null,US_Cities_List/mm_peoria.png,US_Cities_List/mm_hanover.png,,,,,,,,,,,,,,,,
724.6000000005588,,rt_thecrossant_black,795922,,black_plus_sign,,,,,49,,,1,0.9826086956521739,,,,,,,,,,,,,,
null,,color_black,796026,,black_plus_sign,,,,,null,,,,,,,,,,,,,,,,,,
null,,learn_phase(without_color),799048,,black_plus_sign,,,,,null,US_Cities_List/mm_leesburg.png,US_Cities_List/mm_shreveport.png,,,,,,,,,,,,,,,,
null,,black_cross(without_color),799572,,green,,,,,null,US_Cities_List/mm_leesburg.png,US_Cities_List/mm_shreveport.png,,,,,,,,,,,,,,,,
449.5,,rt_plussign_withcolor,800075,,green,,,,,50,US_Cities_List/mm_leesburg.png,US_Cities_List/mm_shreveport.png,,,,,,,,,,,,,,,,
null,,rt_thecrossant_black,801559,,black_plus_sign,,,,,null,,,1,0.9827586206896551,,,,,,,,,,,,,,
null,,color_black,801664,,black_plus_sign,,,,,null,,,,,,,,,,,,,,,,,,
null,,learn_phase(without_color),804691,,black_plus_sign,,,,,null,US_Cities_List/mm_westpalmbeach.png,US_Cities_List/nat_gatlinburg.png,,,,,,,,,,,,,,,,
null,,black_cross(without_color),805793,,blue,,,,,null,US_Cities_List/mm_westpalmbeach.png,US_Cities_List/nat_gatlinburg.png,,,,,,,,,,,,,,,,
421,,rt_plussign_withcolor,806297,,blue,,,,,49,US_Cities_List/mm_westpalmbeach.png,US_Cities_List/nat_gatlinburg.png,,,,,,,,,,,,,,,,
null,,rt_thecrossant_black,807203,,black_plus_sign,,,,,null,,,1,0.9829059829059829,,,,,,,,,,,,,,
null,,color_black,807308,,black_plus_sign,,,,,null,,,,,,,,,,,,,,,,,,
null,,learn_phase(without_color),810329,,black_plus_sign,,,,,null,US_Cities_List/mm_hanover.png,US_Cities_List/mm_peoria.png,,,,,,,,,,,,,,,,
null,,black_cross(without_color),811084,,blue,,,,,null,US_Cities_List/mm_hanover.png,US_Cities_List/mm_peoria.png,,,,,,,,,,,,,,,,
null,,rt_plussign_withcolor,811587,,blue,,,,,null,US_Cities_List/mm_hanover.png,US_Cities_List/mm_peoria.png,,,,,,,,,,,,,,,,
1273.4000000003725,,rt_thecrossant_black,812841,,black_plus_sign,,,,,49,,,1,0.9830508474576272,,,,,,,,,,,,,,
null,,color_black,812945,,black_plus_sign,,,,,null,,,,,,,,,,,,,,,,,,
null,,learn_phase(without_color),815978,,black_plus_sign,,,,,null,US_Cities_List/nat_gatlinburg.png,US_Cities_List/mm_westpalmbeach.png,,,,,,,,,,,,,,,,
null,,black_cross(without_color),816702,,green,,,,,null,US_Cities_List/nat_gatlinburg.png,US_Cities_List/mm_westpalmbeach.png,,,,,,,,,,,,,,,,
477.5,,rt_plussign_withcolor,817204,,green,,,,,50,US_Cities_List/nat_gatlinburg.png,US_Cities_List/mm_westpalmbeach.png,,,,,,,,,,,,,,,,
null,,rt_thecrossant_black,818486,,black_plus_sign,,,,,null,,,1,0.9831932773109243,,,,,,,,,,,,,,
null,,color_black,818590,,black_plus_sign,,,,,null,,,,,,,,,,,,,,,,,,
null,,learn_phase(without_color),821611,,black_plus_sign,,,,,null,US_Cities_List/nat_cornwall.png,US_Cities_List/nat_huntsville.png,,,,,,,,,,,,,,,,
null,,black_cross(without_color),822521,,green,,,,,null,US_Cities_List/nat_cornwall.png,US_Cities_List/nat_huntsville.png,,,,,,,,,,,,,,,,
null,,rt_plussign_withcolor,823025,,green,,,,,null,US_Cities_List/nat_cornwall.png,US_Cities_List/nat_huntsville.png,,,,,,,,,,,,,,,,
871.7000000001863,,rt_thecrossant_black,824123,,black_plus_sign,,,,,50,,,1,0.9833333333333333,,,,,,,,,,,,,,
null,,color_black,824227,,black_plus_sign,,,,,null,,,,,,,,,,,,,,,,,,
null,,learn_phase(without_color),827251,,black_plus_sign,,,,,null,US_Cities_List/mm_hanover.png,US_Cities_List/mm_peoria.png,,,,,,,,,,,,,,,,
null,,black_cross(without_color),828262,,blue,,,,,null,US_Cities_List/mm_hanover.png,US_Cities_List/mm_peoria.png,,,,,,,,,,,,,,,,
404.8999999994412,,rt_plussign_withcolor,828765,,blue,,,,,49,US_Cities_List/mm_hanover.png,US_Cities_List/mm_peoria.png,,,,,,,,,,,,,,,,
null,,rt_thecrossant_black,829762,,black_plus_sign,,,,,null,,,1,0.9834710743801653,,,,,,,,,,,,,,
null,,color_black,829865,,black_plus_sign,,,,,null,,,,,,,,,,,,,,,,,,
null,,learn_phase(without_color),832891,,black_plus_sign,,,,,null,US_Cities_List/nat_huntsville.png,US_Cities_List/nat_cornwall.png,,,,,,,,,,,,,,,,
null,,black_cross(without_color),833396,,green,,,,,null,US_Cities_List/nat_huntsville.png,US_Cities_List/nat_cornwall.png,,,,,,,,,,,,,,,,
null,,rt_plussign_withcolor,833899,,green,,,,,null,US_Cities_List/nat_huntsville.png,US_Cities_List/nat_cornwall.png,,,,,,,,,,,,,,,,
1402.2999999998137,,rt_thecrossant_black,835401,,black_plus_sign,,,,,50,,,1,0.9836065573770492,,,,,,,,,,,,,,
null,,color_black,835505,,black_plus_sign,,,,,null,,,,,,,,,,,,,,,,,,
null,,learn_phase(without_color),838535,,black_plus_sign,,,,,null,US_Cities_List/mm_shreveport.png,US_Cities_List/mm_leesburg.png,,,,,,,,,,,,,,,,
null,,black_cross(without_color),839560,,green,,,,,null,US_Cities_List/mm_shreveport.png,US_Cities_List/mm_leesburg.png,,,,,,,,,,,,,,,,
467.19999999925494,,rt_plussign_withcolor,840063,,green,,,,,50,US_Cities_List/mm_shreveport.png,US_Cities_List/mm_leesburg.png,,,,,,,,,,,,,,,,
null,,rt_thecrossant_black,841045,,black_plus_sign,,,,,null,,,1,0.983739837398374,,,,,,,,,,,,,,
null,,color_black,841149,,black_plus_sign,,,,,null,,,,,,,,,,,,,,,,,,
null,,learn_phase(without_color),844178,,black_plus_sign,,,,,null,US_Cities_List/mm_leesburg.png,US_Cities_List/mm_shreveport.png,,,,,,,,,,,,,,,,
null,,black_cross(without_color),845122,,blue,,,,,null,US_Cities_List/mm_leesburg.png,US_Cities_List/mm_shreveport.png,,,,,,,,,,,,,,,,
null,,rt_plussign_withcolor,845626,,blue,,,,,null,US_Cities_List/mm_leesburg.png,US_Cities_List/mm_shreveport.png,,,,,,,,,,,,,,,,
1246.7999999998137,,rt_thecrossant_black,846689,,black_plus_sign,,,,,49,,,1,0.9838709677419355,,,,,,,,,,,,,,
null,,color_black,846792,,black_plus_sign,,,,,null,,,,,,,,,,,,,,,,,,
null,,learn_phase(without_color),849819,,black_plus_sign,,,,,null,US_Cities_List/nat_cornwall.png,US_Cities_List/nat_huntsville.png,,,,,,,,,,,,,,,,
null,,black_cross(without_color),850395,,green,,,,,null,US_Cities_List/nat_cornwall.png,US_Cities_List/nat_huntsville.png,,,,,,,,,,,,,,,,
423.79999999981374,,rt_plussign_withcolor,850898,,green,,,,,50,US_Cities_List/nat_cornwall.png,US_Cities_List/nat_huntsville.png,,,,,,,,,,,,,,,,
null,,rt_thecrossant_black,852330,,black_plus_sign,,,,,null,,,1,0.984,,,,,,,,,,,,,,
null,,color_black,852434,,black_plus_sign,,,,,null,,,,,,,,,,,,,,,,,,
6318,,intro_1,858756,,instruct,,,0,,,,,,,,,,,,,,,,,,,,
9284.400000000373,,intro_2,868043,,instruct,,,1,Next,,,,,,,,,,,,,,,,,,,
3316,,directmemory_phase,871398,,../static/images/US_Cities_List/mm_racine.png,,,,,51,,,1,1,../static/images/US_Cities_List/nat_newhope.png,../static/images/US_Cities_List/nat_gatlinburg.png,../static/images/US_Cities_List/mm_carmel.png,../static/images/US_Cities_List/mm_carmel.png,../static/images/US_Cities_List/nat_gatlinburg.png,../static/images/US_Cities_List/nat_newhope.png,1,,,,,,,
null,,html-keyboard-response,872405,,<p></p>,,,,,null,,,,,,,,,,,,,,,,,,
2933.5,,directmemory_phase,875369,,../static/images/US_Cities_List/mm_leesburg.png,,,,,51,,,0,0.5,../static/images/US_Cities_List/mm_westpalmbeach.png,../static/images/US_Cities_List/nat_cornwall.png,../static/images/US_Cities_List/mm_hanover.png,../static/images/US_Cities_List/mm_westpalmbeach.png,../static/images/US_Cities_List/mm_hanover.png,../static/images/US_Cities_List/nat_cornwall.png,0.5,closer,,,,,,
null,,html-keyboard-response,876375,,<p></p>,,,,,null,,,,,,,,,,,,,,,,,,
3017.800000000745,,directmemory_phase,879426,,../static/images/US_Cities_List/nat_newhope.png,,,,,51,,,1,0.6666666666666666,../static/images/US_Cities_List/mm_hanover.png,../static/images/US_Cities_List/mm_westpalmbeach.png,../static/images/US_Cities_List/nat_gatlinburg.png,../static/images/US_Cities_List/nat_gatlinburg.png,../static/images/US_Cities_List/mm_westpalmbeach.png,../static/images/US_Cities_List/mm_hanover.png,1,,,,,,,
null,,html-keyboard-response,880432,,<p></p>,,,,,null,,,,,,,,,,,,,,,,,,
4441.200000000186,,directmemory_phase,884912,,../static/images/US_Cities_List/mm_leesburg.png,,,,,49,,,1,0.75,../static/images/US_Cities_List/mm_racine.png,../static/images/US_Cities_List/nat_hotsprings.png,../static/images/US_Cities_List/nat_gatlinburg.png,../static/images/US_Cities_List/mm_racine.png,../static/images/US_Cities_List/nat_gatlinburg.png,../static/images/US_Cities_List/nat_hotsprings.png,1,,,,,,,
null,,html-keyboard-response,885917,,<p></p>,,,,,null,,,,,,,,,,,,,,,,,,
4005.5999999996275,,directmemory_phase,889954,,../static/images/US_Cities_List/mm_peoria.png,,,,,49,,,1,0.8,../static/images/US_Cities_List/mm_hanover.png,../static/images/US_Cities_List/nat_huntsville.png,../static/images/US_Cities_List/nat_gatlinburg.png,../static/images/US_Cities_List/mm_hanover.png,../static/images/US_Cities_List/nat_gatlinburg.png,../static/images/US_Cities_List/nat_huntsville.png,1,,,,,,,
null,,html-keyboard-response,890959,,<p></p>,,,,,null,,,,,,,,,,,,,,,,,,
2913.399999999441,,directmemory_phase,893911,,../static/images/US_Cities_List/nat_gatlinburg.png,,,,,49,,,1,0.8333333333333334,../static/images/US_Cities_List/nat_newhope.png,../static/images/US_Cities_List/nat_boulder.png,../static/images/US_Cities_List/mm_leesburg.png,../static/images/US_Cities_List/nat_newhope.png,../static/images/US_Cities_List/mm_leesburg.png,../static/images/US_Cities_List/nat_boulder.png,1,,,,,,,
null,,html-keyboard-response,894919,,<p></p>,,,,,null,,,,,,,,,,,,,,,,,,
2804.7000000001863,,directmemory_phase,897763,,../static/images/US_Cities_List/nat_cornwall.png,,,,,51,,,1,0.8571428571428571,../static/images/US_Cities_List/nat_newhope.png,../static/images/US_Cities_List/mm_carmel.png,../static/images/US_Cities_List/nat_huntsville.png,../static/images/US_Cities_List/nat_huntsville.png,../static/images/US_Cities_List/mm_carmel.png,../static/images/US_Cities_List/nat_newhope.png,1,,,,,,,
null,,html-keyboard-response,898769,,<p></p>,,,,,null,,,,,,,,,,,,,,,,,,
2539.899999999441,,directmemory_phase,901349,,../static/images/US_Cities_List/mm_westpalmbeach.png,,,,,49,,,1,0.875,../static/images/US_Cities_List/nat_gatlinburg.png,../static/images/US_Cities_List/nat_boulder.png,../static/images/US_Cities_List/mm_hanover.png,../static/images/US_Cities_List/nat_gatlinburg.png,../static/images/US_Cities_List/mm_hanover.png,../static/images/US_Cities_List/nat_boulder.png,1,,,,,,,
null,,html-keyboard-response,902355,,<p></p>,,,,,null,,,,,,,,,,,,,,,,,,
4972.299999999814,,directmemory_phase,907358,,../static/images/US_Cities_List/nat_boulder.png,,,,,50,,,0,0.7777777777777778,../static/images/US_Cities_List/nat_hotsprings.png,../static/images/US_Cities_List/mm_racine.png,../static/images/US_Cities_List/nat_newhope.png,../static/images/US_Cities_List/nat_hotsprings.png,../static/images/US_Cities_List/nat_newhope.png,../static/images/US_Cities_List/mm_racine.png,0.5,closer,,,,,,
null,,html-keyboard-response,908365,,<p></p>,,,,,null,,,,,,,,,,,,,,,,,,
5728.799999999814,,directmemory_phase,914130,,../static/images/US_Cities_List/mm_peoria.png,,,,,51,,,1,0.8,../static/images/US_Cities_List/mm_carmel.png,../static/images/US_Cities_List/nat_gatlinburg.png,../static/images/US_Cities_List/mm_westpalmbeach.png,../static/images/US_Cities_List/mm_westpalmbeach.png,../static/images/US_Cities_List/nat_gatlinburg.png,../static/images/US_Cities_List/mm_carmel.png,1,,,,,,,
null,,html-keyboard-response,915137,,<p></p>,,,,,null,,,,,,,,,,,,,,,,,,
1953,,directmemory_phase,917120,,../static/images/US_Cities_List/mm_leesburg.png,,,,,49,,,1,0.8181818181818182,../static/images/US_Cities_List/mm_shreveport.png,../static/images/US_Cities_List/nat_cornwall.png,../static/images/US_Cities_List/mm_hanover.png,../static/images/US_Cities_List/mm_shreveport.png,../static/images/US_Cities_List/mm_hanover.png,../static/images/US_Cities_List/nat_cornwall.png,1,,,,,,,
null,,html-keyboard-response,918127,,<p></p>,,,,,null,,,,,,,,,,,,,,,,,,
null,,directmemory_phase,924669,,../static/images/US_Cities_List/mm_racine.png,,,,,null,,,0,0.75,../static/images/US_Cities_List/nat_boulder.png,../static/images/US_Cities_List/mm_shreveport.png,../static/images/US_Cities_List/mm_westpalmbeach.png,../static/images/US_Cities_List/mm_westpalmbeach.png,../static/images/US_Cities_List/mm_shreveport.png,../static/images/US_Cities_List/nat_boulder.png,0,,,,,,,
null,,html-keyboard-response,925676,,<p></p>,,,,,null,,,,,,,,,,,,,,,,,,
4519.300000000745,,directmemory_phase,930233,,../static/images/US_Cities_List/nat_huntsville.png,,,,,51,,,0,0.6923076923076923,../static/images/US_Cities_List/nat_hotsprings.png,../static/images/US_Cities_List/mm_shreveport.png,../static/images/US_Cities_List/nat_gatlinburg.png,../static/images/US_Cities_List/nat_hotsprings.png,../static/images/US_Cities_List/nat_gatlinburg.png,../static/images/US_Cities_List/mm_shreveport.png,0.5,closer,,,,,,
null,,html-keyboard-response,931240,,<p></p>,,,,,null,,,,,,,,,,,,,,,,,,
2221.5,,directmemory_phase,933495,,../static/images/US_Cities_List/mm_hanover.png,,,,,51,,,0,0.6428571428571429,../static/images/US_Cities_List/mm_peoria.png,../static/images/US_Cities_List/nat_gatlinburg.png,../static/images/US_Cities_List/mm_leesburg.png,../static/images/US_Cities_List/mm_peoria.png,../static/images/US_Cities_List/mm_leesburg.png,../static/images/US_Cities_List/nat_gatlinburg.png,0.5,closer,,,,,,
null,,html-keyboard-response,934499,,<p></p>,,,,,null,,,,,,,,,,,,,,,,,,
3318.5,,directmemory_phase,937854,,../static/images/US_Cities_List/nat_hotsprings.png,,,,,51,,,1,0.6666666666666666,../static/images/US_Cities_List/mm_racine.png,../static/images/US_Cities_List/nat_cornwall.png,../static/images/US_Cities_List/nat_huntsville.png,../static/images/US_Cities_List/nat_huntsville.png,../static/images/US_Cities_List/nat_cornwall.png,../static/images/US_Cities_List/mm_racine.png,1,,,,,,,
null,,html-keyboard-response,938861,,<p></p>,,,,,null,,,,,,,,,,,,,,,,,,
3361.0999999996275,,directmemory_phase,942263,,../static/images/US_Cities_List/mm_westpalmbeach.png,,,,,50,,,1,0.6875,../static/images/US_Cities_List/mm_shreveport.png,../static/images/US_Cities_List/mm_peoria.png,../static/images/US_Cities_List/nat_cornwall.png,../static/images/US_Cities_List/mm_peoria.png,../static/images/US_Cities_List/mm_shreveport.png,../static/images/US_Cities_List/nat_cornwall.png,1,,,,,,,
null,,html-keyboard-response,943267,,<p></p>,,,,,null,,,,,,,,,,,,,,,,,,
4203.600000000559,,directmemory_phase,947506,,../static/images/US_Cities_List/nat_hotsprings.png,,,,,51,,,1,0.7058823529411765,../static/images/US_Cities_List/mm_peoria.png,../static/images/US_Cities_List/mm_carmel.png,../static/images/US_Cities_List/nat_newhope.png,../static/images/US_Cities_List/nat_newhope.png,../static/images/US_Cities_List/mm_carmel.png,../static/images/US_Cities_List/mm_peoria.png,1,,,,,,,
null,,html-keyboard-response,948512,,<p></p>,,,,,null,,,,,,,,,,,,,,,,,,
5943.5999999996275,,directmemory_phase,954495,,../static/images/US_Cities_List/mm_racine.png,,,,,49,,,0,0.6666666666666666,../static/images/US_Cities_List/nat_newhope.png,../static/images/US_Cities_List/mm_shreveport.png,../static/images/US_Cities_List/mm_leesburg.png,../static/images/US_Cities_List/mm_leesburg.png,../static/images/US_Cities_List/mm_shreveport.png,../static/images/US_Cities_List/nat_newhope.png,0.5,closer,,,,,,
null,,html-keyboard-response,955502,,<p></p>,,,,,null,,,,,,,,,,,,,,,,,,
3914.800000000745,,directmemory_phase,959451,,../static/images/US_Cities_List/nat_gatlinburg.png,,,,,51,,,1,0.6842105263157895,../static/images/US_Cities_List/nat_boulder.png,../static/images/US_Cities_List/mm_leesburg.png,../static/images/US_Cities_List/mm_carmel.png,../static/images/US_Cities_List/mm_carmel.png,../static/images/US_Cities_List/mm_leesburg.png,../static/images/US_Cities_List/nat_boulder.png,1,,,,,,,
null,,html-keyboard-response,960458,,<p></p>,,,,,null,,,,,,,,,,,,,,,,,,
4881,,directmemory_phase,965376,,../static/images/US_Cities_List/nat_hotsprings.png,,,,,51,,,1,0.7,../static/images/US_Cities_List/mm_leesburg.png,../static/images/US_Cities_List/mm_carmel.png,../static/images/US_Cities_List/nat_boulder.png,../static/images/US_Cities_List/nat_boulder.png,../static/images/US_Cities_List/mm_carmel.png,../static/images/US_Cities_List/mm_leesburg.png,1,,,,,,,
null,,html-keyboard-response,966382,,<p></p>,,,,,null,,,,,,,,,,,,,,,,,,
4266.799999999814,,directmemory_phase,970681,,../static/images/US_Cities_List/nat_gatlinburg.png,,,,,51,,,0,0.6666666666666666,../static/images/US_Cities_List/mm_westpalmbeach.png,../static/images/US_Cities_List/nat_boulder.png,../static/images/US_Cities_List/nat_huntsville.png,../static/images/US_Cities_List/mm_westpalmbeach.png,../static/images/US_Cities_List/nat_huntsville.png,../static/images/US_Cities_List/nat_boulder.png,0.5,closer,,,,,,
null,,html-keyboard-response,971688,,<p></p>,,,,,null,,,,,,,,,,,,,,,,,,
3717.5,,directmemory_phase,975439,,../static/images/US_Cities_List/nat_newhope.png,,,,,49,,,1,0.6818181818181818,../static/images/US_Cities_List/nat_hotsprings.png,../static/images/US_Cities_List/mm_leesburg.png,../static/images/US_Cities_List/nat_huntsville.png,../static/images/US_Cities_List/nat_hotsprings.png,../static/images/US_Cities_List/nat_huntsville.png,../static/images/US_Cities_List/mm_leesburg.png,1,,,,,,,
null,,html-keyboard-response,976445,,<p></p>,,,,,null,,,,,,,,,,,,,,,,,,
5240.200000000186,,directmemory_phase,981719,,../static/images/US_Cities_List/mm_westpalmbeach.png,,,,,50,,,0,0.6521739130434783,../static/images/US_Cities_List/nat_boulder.png,../static/images/US_Cities_List/mm_hanover.png,../static/images/US_Cities_List/mm_leesburg.png,../static/images/US_Cities_List/mm_leesburg.png,../static/images/US_Cities_List/mm_hanover.png,../static/images/US_Cities_List/nat_boulder.png,0.5,closer,,,,,,
null,,html-keyboard-response,982725,,<p></p>,,,,,null,,,,,,,,,,,,,,,,,,
4899.9000000003725,,directmemory_phase,987663,,../static/images/US_Cities_List/nat_huntsville.png,,,,,51,,,0,0.625,../static/images/US_Cities_List/nat_cornwall.png,../static/images/US_Cities_List/mm_shreveport.png,../static/images/US_Cities_List/nat_gatlinburg.png,../static/images/US_Cities_List/nat_cornwall.png,../static/images/US_Cities_List/nat_gatlinburg.png,../static/images/US_Cities_List/mm_shreveport.png,0.5,closer,,,,,,
null,,html-keyboard-response,988670,,<p></p>,,,,,null,,,,,,,,,,,,,,,,,,
5563.4000000003725,,directmemory_phase,994271,,../static/images/US_Cities_List/mm_shreveport.png,,,,,49,,,1,0.64,../static/images/US_Cities_List/mm_leesburg.png,../static/images/US_Cities_List/mm_carmel.png,../static/images/US_Cities_List/mm_peoria.png,../static/images/US_Cities_List/mm_leesburg.png,../static/images/US_Cities_List/mm_peoria.png,../static/images/US_Cities_List/mm_carmel.png,1,,,,,,,
null,,html-keyboard-response,995278,,<p></p>,,,,,null,,,,,,,,,,,,,,,,,,
5038.200000000186,,directmemory_phase,1000354,,../static/images/US_Cities_List/mm_carmel.png,,,,,51,,,1,0.6538461538461539,../static/images/US_Cities_List/mm_hanover.png,../static/images/US_Cities_List/mm_westpalmbeach.png,../static/images/US_Cities_List/nat_huntsville.png,../static/images/US_Cities_List/nat_huntsville.png,../static/images/US_Cities_List/mm_westpalmbeach.png,../static/images/US_Cities_List/mm_hanover.png,1,,,,,,,
null,,html-keyboard-response,1001360,,<p></p>,,,,,null,,,,,,,,,,,,,,,,,,
null,,directmemory_phase,1007901,,../static/images/US_Cities_List/mm_leesburg.png,,,,,null,,,0,0.6296296296296297,../static/images/US_Cities_List/nat_hotsprings.png,../static/images/US_Cities_List/mm_carmel.png,../static/images/US_Cities_List/mm_peoria.png,../static/images/US_Cities_List/mm_peoria.png,../static/images/US_Cities_List/mm_carmel.png,../static/images/US_Cities_List/nat_hotsprings.png,0,,,,,,,
null,,html-keyboard-response,1008907,,<p></p>,,,,,null,,,,,,,,,,,,,,,,,,
5769.5,,directmemory_phase,1014716,,../static/images/US_Cities_List/nat_huntsville.png,,,,,51,,,1,0.6428571428571429,../static/images/US_Cities_List/mm_peoria.png,../static/images/US_Cities_List/nat_boulder.png,../static/images/US_Cities_List/mm_carmel.png,../static/images/US_Cities_List/mm_carmel.png,../static/images/US_Cities_List/nat_boulder.png,../static/images/US_Cities_List/mm_peoria.png,1,,,,,,,
null,,html-keyboard-response,1015722,,<p></p>,,,,,null,,,,,,,,,,,,,,,,,,
5236,,directmemory_phase,1020999,,../static/images/US_Cities_List/mm_westpalmbeach.png,,,,,50,,,0,0.6206896551724138,../static/images/US_Cities_List/nat_boulder.png,../static/images/US_Cities_List/nat_newhope.png,../static/images/US_Cities_List/mm_racine.png,../static/images/US_Cities_List/mm_racine.png,../static/images/US_Cities_List/nat_newhope.png,../static/images/US_Cities_List/nat_boulder.png,0.5,closer,,,,,,
null,,html-keyboard-response,1022007,,<p></p>,,,,,null,,,,,,,,,,,,,,,,,,
3338.100000000559,,directmemory_phase,1025382,,../static/images/US_Cities_List/mm_carmel.png,,,,,51,,,1,0.6333333333333333,../static/images/US_Cities_List/mm_shreveport.png,../static/images/US_Cities_List/mm_leesburg.png,../static/images/US_Cities_List/nat_gatlinburg.png,../static/images/US_Cities_List/nat_gatlinburg.png,../static/images/US_Cities_List/mm_leesburg.png,../static/images/US_Cities_List/mm_shreveport.png,1,,,,,,,
null,,html-keyboard-response,1026389,,<p></p>,,,,,null,,,,,,,,,,,,,,,,,,
4798.5,,directmemory_phase,1031226,,../static/images/US_Cities_List/mm_peoria.png,,,,,49,,,1,0.6451612903225806,../static/images/US_Cities_List/mm_leesburg.png,../static/images/US_Cities_List/mm_carmel.png,../static/images/US_Cities_List/mm_shreveport.png,../static/images/US_Cities_List/mm_leesburg.png,../static/images/US_Cities_List/mm_shreveport.png,../static/images/US_Cities_List/mm_carmel.png,1,,,,,,,
null,,html-keyboard-response,1032233,,<p></p>,,,,,null,,,,,,,,,,,,,,,,,,
3436.4000000003725,,directmemory_phase,1035703,,../static/images/US_Cities_List/mm_carmel.png,,,,,49,,,0,0.625,../static/images/US_Cities_List/nat_newhope.png,../static/images/US_Cities_List/mm_racine.png,../static/images/US_Cities_List/mm_shreveport.png,../static/images/US_Cities_List/mm_racine.png,../static/images/US_Cities_List/nat_newhope.png,../static/images/US_Cities_List/mm_shreveport.png,0.5,closer,,,,,,
null,,html-keyboard-response,1036707,,<p></p>,,,,,null,,,,,,,,,,,,,,,,,,
20824.900000000373,,intro_1,1057534,,instruct,,,0,,,,,,,,,,,,,,,,,,,,
5581.9000000003725,,intro_2,1063120,,instruct,,,1,Next,,,,,,,,,,,,,,,,,,,
2988.699999999255,,intro_3,1066113,,instruct,,,0,Previous,,,,,,,,,,,,,,,,,,,
1544,,intro_2,1067661,,instruct,,,1,Next,,,,,,,,,,,,,,,,,,,
4265.5999999996275,,intro_3,1071931,,instruct,,,0,Previous,,,,,,,,,,,,,,,,,,,
5837.299999999814,,intro_2,1077772,,instruct,,,1,Next,,,,,,,,,,,,,,,,,,,
370.8999999994412,,intro_3,1078147,,instruct,,,1,Next,,,,,,,,,,,,,,,,,,,
10002.5,,intro_4,1088154,,instruct,,,1,Next,,,,,,,,,,,,,,,,,,,
6070.300000000745,,intro_5,1094227,,instruct,,,1,Next,,,,,,,,,,,,,,,,,,,
3164.4000000003725,,intro_6,1097396,,instruct,,,1,Next,,,,,,,,,,,,,,,,,,,
31659.10000000056,,intro_7,1129059,,instruct,,,1,Next,,,,,,,,,,,,,,,,,,,
3380.7000000001863,,intro_8,1132443,,instruct,,,1,Next,,,,,,,,,,,,,,,,,,,
8661.599999999627,,intro_9,1141109,,instruct,,,1,Next,,,,,,,,,,,,,,,,,,,
3038.2000000001863,,intro_10,1144151,,instruct,,,1,Next,,,,,,,,,,,,,,,,,,,
7820.899999999441,,intro_11,1151976,,instruct,,,1,Next,,,,,,,,,,,,,,,,,,,
null,,shortestpath_phase,1159507,One Edge Diff,../static/images/US_Cities_List/mm_hanover.png,,,,,null,../static/images/US_Cities_List/nat_gatlinburg.png,../static/images/US_Cities_List/mm_leesburg.png,0,0,,,,../static/images/US_Cities_List/mm_leesburg.png,,,,,Two Edge Three Edge,,,,,
null,,html-keyboard-response,1160514,,<p></p>,,,,,null,,,,,,,,,,,,,,,,,,
3398.5,,shortestpath_phase,1163948,One Edge Diff,../static/images/US_Cities_List/nat_boulder.png,,,,,49,../static/images/US_Cities_List/nat_gatlinburg.png,../static/images/US_Cities_List/mm_peoria.png,1,0.5,,,,../static/images/US_Cities_List/nat_gatlinburg.png,,,,,Five Edge Six Edge,,,,,
null,,html-keyboard-response,1164954,,<p></p>,,,,,null,,,,,,,,,,,,,,,,,,
5039.600000000559,,shortestpath_phase,1170023,One Edge Diff,../static/images/US_Cities_List/mm_carmel.png,,,,,50,../static/images/US_Cities_List/mm_hanover.png,../static/images/US_Cities_List/nat_cornwall.png,1,0.6666666666666666,,,,../static/images/US_Cities_List/nat_cornwall.png,,,,,Five Edge Six Edge,,,,,
null,,html-keyboard-response,1171029,,<p></p>,,,,,null,,,,,,,,,,,,,,,,,,
3548.5,,shortestpath_phase,1174608,One Edge Diff,../static/images/US_Cities_List/nat_boulder.png,,,,,49,../static/images/US_Cities_List/mm_peoria.png,../static/images/US_Cities_List/mm_hanover.png,1,0.75,,,,../static/images/US_Cities_List/mm_peoria.png,,,,,Five Edge Six Edge,,,,,
null,,html-keyboard-response,1175615,,<p></p>,,,,,null,,,,,,,,,,,,,,,,,,
2804.0999999996275,,shortestpath_phase,1178449,One Edge Diff,../static/images/US_Cities_List/mm_hanover.png,,,,,50,../static/images/US_Cities_List/nat_newhope.png,../static/images/US_Cities_List/mm_leesburg.png,1,0.8,,,,../static/images/US_Cities_List/mm_leesburg.png,,,,,Five Edge Six Edge,,,,,
null,,html-keyboard-response,1179455,,<p></p>,,,,,null,,,,,,,,,,,,,,,,,,
4677.0999999996275,,shortestpath_phase,1184162,Two Edge Diff,../static/images/US_Cities_List/nat_boulder.png,,,,,49,../static/images/US_Cities_List/nat_huntsville.png,../static/images/US_Cities_List/mm_peoria.png,1,0.8333333333333334,,,,../static/images/US_Cities_List/nat_huntsville.png,,,,,Four Edge Six Edge,,,,,
null,,html-keyboard-response,1185168,,<p></p>,,,,,null,,,,,,,,,,,,,,,,,,
4472.399999999441,,shortestpath_phase,1189672,One Edge Diff,../static/images/US_Cities_List/mm_shreveport.png,,,,,49,../static/images/US_Cities_List/nat_gatlinburg.png,../static/images/US_Cities_List/nat_hotsprings.png,1,0.8571428571428571,,,,../static/images/US_Cities_List/nat_gatlinburg.png,,,,,Five Edge Six Edge,,,,,
null,,html-keyboard-response,1190678,,<p></p>,,,,,null,,,,,,,,,,,,,,,,,,
5493.699999999255,,shortestpath_phase,1196199,One Edge Diff,../static/images/US_Cities_List/nat_boulder.png,,,,,49,../static/images/US_Cities_List/mm_racine.png,../static/images/US_Cities_List/mm_leesburg.png,1,0.875,,,,../static/images/US_Cities_List/mm_racine.png,,,,,Four Edge Five Edge,,,,,
null,,html-keyboard-response,1197205,,<p></p>,,,,,null,,,,,,,,,,,,,,,,,,
6357.700000000186,,shortestpath_phase,1203599,One Edge Diff,../static/images/US_Cities_List/mm_westpalmbeach.png,,,,,50,../static/images/US_Cities_List/nat_cornwall.png,../static/images/US_Cities_List/mm_shreveport.png,1,0.8888888888888888,,,,../static/images/US_Cities_List/mm_shreveport.png,,,,,Five Edge Six Edge,,,,,
null,,html-keyboard-response,1204604,,<p></p>,,,,,null,,,,,,,,,,,,,,,,,,
3919.5,,shortestpath_phase,1208550,Two Edge Diff,../static/images/US_Cities_List/mm_hanover.png,,,,,49,../static/images/US_Cities_List/mm_leesburg.png,../static/images/US_Cities_List/nat_cornwall.png,1,0.9,,,,../static/images/US_Cities_List/mm_leesburg.png,,,,,Four Edge Six Edge,,,,,
null,,html-keyboard-response,1209557,,<p></p>,,,,,null,,,,,,,,,,,,,,,,,,
5991,,shortestpath_phase,1215574,Two Edge Diff,../static/images/US_Cities_List/mm_shreveport.png,,,,,50,../static/images/US_Cities_List/nat_boulder.png,../static/images/US_Cities_List/mm_racine.png,1,0.9090909090909091,,,,../static/images/US_Cities_List/mm_racine.png,,,,,Four Edge Six Edge,,,,,
null,,html-keyboard-response,1216580,,<p></p>,,,,,null,,,,,,,,,,,,,,,,,,
