rt,responses,trial_type,time_elapsed,stimulus,cities,city_images,button_pressed,key_press,stimulus_left,stimulus_right,accuracy,cumulative_accuracy,stimulus_down_left,stimulus_down_mid,stimulus_down_right,stimulus_correct,stimulus_short,stimulus_far,weighted_accuracy,missedtrial,condition,specific_pairs,imgL_ID,imgR_ID,linedress,linedressed,image_position
8225.5,{worker_id:Kirthin V. Rajkumar},id_enter,8228,intro,Leesburg; New Hope; Racine; Boulder; Shreveport; Carmel; Hanover; Huntsville; Peoria; Hot Springs; Cornwall; West Palm Beach; Gatlinburg,US_Cities_List/mm_leesburg.png; US_Cities_List/nat_newhope.png; US_Cities_List/nat_racine.png; US_Cities_List/mm_boulder.png; US_Cities_List/mm_shreveport.png; US_Cities_List/nat_carmel.png; US_Cities_List/mm_hanover.png; US_Cities_List/nat_huntsville.png; US_Cities_List/nat_peoria.png; US_Cities_List/nat_hotsprings.png; US_Cities_List/mm_cornwall.png; US_Cities_List/nat_westpalmbeach.png; US_Cities_List/mm_gatlinburg.png,,,,,,,,,,,,,,,,,,,,,
2512.7000000029802,,fullscreen,10745,make_fullscreen,,,0,,,,,,,,,,,,,,,,,,,,
12311.59999999404,,intro_0,23059,instruct,,,,32,,,,,,,,,,,,,,,,,,,
11042.60000000894,,intro_1,34103,instruct,,,,32,,,,,,,,,,,,,,,,,,,
9833.20000000298,,intro_2,43938,instruct,,,,32,,,,,,,,,,,,,,,,,,,
7672.70000000298,,intro_3,51611,instruct,,,,32,,,,,,,,,,,,,,,,,,,
13394,,intro_4,65006,instruct,,,,32,,,,,,,,,,,,,,,,,,,
23073.60000000894,,intro_5,88081,instruct,,,,32,,,,,,,,,,,,,,,,,,,
null,,prac_atten_color_black,88474,black_plus_sign,,,,null,,,,,,,,,,,,,,,,,,,
836.3999999910593,,prac_atten_color,89487,prac_stop_color,,,,49,,,,,,,,,,,,,,,,,,,
null,,prac_atten_color_black,91490,black_plus_sign,,,,null,,,,,,,,,,,,,,,,,,,
null,,prac_atten_color_black,91884,black_plus_sign,,,,null,,,,,,,,,,,,,,,,,,,
null,,prac_atten_color,92404,prac_stop_color,,,,null,,,,,,,,,,,,,,,,,,,
314,,prac_atten_color_black,94407,black_plus_sign,,,,50,,,,,,,,,,,,,,,,,,,
null,,prac_atten_color_black,95294,black_plus_sign,,,,null,,,,,,,,,,,,,,,,,,,
743.3000000119209,,prac_atten_color,96361,prac_stop_color,,,,50,,,,,,,,,,,,,,,,,,,
null,,prac_atten_color_black,98364,black_plus_sign,,,,null,,,,,,,,,,,,,,,,,,,
null,,prac_atten_color_black,98704,black_plus_sign,,,,null,,,,,,,,,,,,,,,,,,,
400.19999998807907,,prac_atten_color,99219,prac_stop_color,,,,49,,,,,,,,,,,,,,,,,,,
null,,prac_atten_color_black,101222,black_plus_sign,,,,null,,,,,,,,,,,,,,,,,,,
null,,prac_atten_color_black,102113,black_plus_sign,,,,null,,,,,,,,,,,,,,,,,,,
645.6000000089407,,prac_atten_color,103043,prac_stop_color,,,,50,,,,,,,,,,,,,,,,,,,
null,,prac_atten_color_black,105047,black_plus_sign,,,,null,,,,,,,,,,,,,,,,,,,
null,,prac_atten_color_black,105524,black_plus_sign,,,,null,,,,,,,,,,,,,,,,,,,
585,,prac_atten_color,106306,prac_stop_color,,,,50,,,,,,,,,,,,,,,,,,,
null,,prac_atten_color_black,108309,black_plus_sign,,,,null,,,,,,,,,,,,,,,,,,,
null,,prac_atten_color_black,108933,black_plus_sign,,,,null,,,,,,,,,,,,,,,,,,,
605.6000000089407,,prac_atten_color,109926,prac_stop_color,,,,50,,,,,,,,,,,,,,,,,,,
null,,prac_atten_color_black,111928,black_plus_sign,,,,null,,,,,,,,,,,,,,,,,,,
3712.9000000059605,,attentioncheck_help,115643,instruct,,,,32,,,,,,,,,,,,,,,,,,,
null,,prac_atten_color_black,116055,black_plus_sign,,,,null,,,,,,,,,,,,,,,,,,,
null,,prac_atten_color,116647,prac_stop_color,,,,null,,,,,,,,,,,,,,,,,,,
950.7000000029802,,prac_atten_color_black,118650,black_plus_sign,,,,49,,,,,,,,,,,,,,,,,,,
1613.5999999940395,,attentioncheck_help,120266,instruct,,,,32,,,,,,,,,,,,,,,,,,,
null,,prac_atten_color_black,121080,black_plus_sign,,,,null,,,,,,,,,,,,,,,,,,,
null,,prac_atten_color,121620,prac_stop_color,,,,null,,,,,,,,,,,,,,,,,,,
543.7000000029802,,prac_atten_color_black,123624,black_plus_sign,,,,49,,,,,,,,,,,,,,,,,,,
null,,prac_atten_color_black,124491,black_plus_sign,,,,null,,,,,,,,,,,,,,,,,,,
467.1000000089407,,prac_atten_color,125076,prac_stop_color,,,,50,,,,,,,,,,,,,,,,,,,
null,,prac_atten_color_black,127079,black_plus_sign,,,,null,,,,,,,,,,,,,,,,,,,
7611.399999991059,,attentioncheck_feedback,134694,cross_check_feedback,,,0,,,,,,,,,,,,,,,,,,,,
10601.300000011921,,last_instruct,145296,instruct,,,,32,,,,,,,,,,,,,,,,,,,
null,,learn_phase(without_color),147325,black_plus_sign,,,,null,US_Cities_List/nat_racine.png,US_Cities_List/nat_carmel.png,,,,,,,,,,,,,,,,,
null,,black_cross(without_color),148337,blue,,,,null,US_Cities_List/nat_racine.png,US_Cities_List/nat_carmel.png,,,,,,,,,,,,,,,,,
null,,rt_plussign_withcolor,148840,blue,,,,null,US_Cities_List/nat_racine.png,US_Cities_List/nat_carmel.png,,,,,,,,,,,,,,,,,
1437.1000000089407,,rt_thecrossant_black,149835,black_plus_sign,,,,49,,,1,1,,,,,,,,,,,,,,,
null,,color_black,149939,black_plus_sign,,,,null,,,,,,,,,,,,,,,,,,,
null,,learn_phase(without_color),152467,black_plus_sign,,,,null,US_Cities_List/mm_hanover.png,US_Cities_List/mm_gatlinburg.png,,,,,,,,,,,,,,,,,
null,,black_cross(without_color),152899,green,,,,null,US_Cities_List/mm_hanover.png,US_Cities_List/mm_gatlinburg.png,,,,,,,,,,,,,,,,,
null,,rt_plussign_withcolor,153401,green,,,,null,US_Cities_List/mm_hanover.png,US_Cities_List/mm_gatlinburg.png,,,,,,,,,,,,,,,,,
927.7999999970198,,rt_thecrossant_black,154976,black_plus_sign,,,,50,,,1,1,,,,,,,,,,,,,,,
null,,color_black,155080,black_plus_sign,,,,null,,,,,,,,,,,,,,,,,,,
null,,learn_phase(without_color),157606,black_plus_sign,,,,null,US_Cities_List/mm_cornwall.png,US_Cities_List/nat_westpalmbeach.png,,,,,,,,,,,,,,,,,
null,,black_cross(without_color),158049,green,,,,null,US_Cities_List/mm_cornwall.png,US_Cities_List/nat_westpalmbeach.png,,,,,,,,,,,,,,,,,
null,,rt_plussign_withcolor,158552,green,,,,null,US_Cities_List/mm_cornwall.png,US_Cities_List/nat_westpalmbeach.png,,,,,,,,,,,,,,,,,
920.6999999880791,,rt_thecrossant_black,160114,black_plus_sign,,,,50,,,1,1,,,,,,,,,,,,,,,
null,,color_black,160218,black_plus_sign,,,,null,,,,,,,,,,,,,,,,,,,
null,,learn_phase(without_color),162749,black_plus_sign,,,,null,US_Cities_List/nat_huntsville.png,US_Cities_List/nat_hotsprings.png,,,,,,,,,,,,,,,,,
null,,black_cross(without_color),163384,blue,,,,null,US_Cities_List/nat_huntsville.png,US_Cities_List/nat_hotsprings.png,,,,,,,,,,,,,,,,,
null,,rt_plussign_withcolor,163887,blue,,,,null,US_Cities_List/nat_huntsville.png,US_Cities_List/nat_hotsprings.png,,,,,,,,,,,,,,,,,
635.7000000029802,,rt_thecrossant_black,165258,black_plus_sign,,,,49,,,1,1,,,,,,,,,,,,,,,
null,,color_black,165362,black_plus_sign,,,,null,,,,,,,,,,,,,,,,,,,
null,,learn_phase(without_color),167885,black_plus_sign,,,,null,US_Cities_List/mm_boulder.png,US_Cities_List/mm_shreveport.png,,,,,,,,,,,,,,,,,
null,,black_cross(without_color),168454,blue,,,,null,US_Cities_List/mm_boulder.png,US_Cities_List/mm_shreveport.png,,,,,,,,,,,,,,,,,
null,,rt_plussign_withcolor,168957,blue,,,,null,US_Cities_List/mm_boulder.png,US_Cities_List/mm_shreveport.png,,,,,,,,,,,,,,,,,
841.9000000059605,,rt_thecrossant_black,170395,black_plus_sign,,,,49,,,1,1,,,,,,,,,,,,,,,
null,,color_black,170498,black_plus_sign,,,,null,,,,,,,,,,,,,,,,,,,
null,,learn_phase(without_color),173036,black_plus_sign,,,,null,US_Cities_List/nat_newhope.png,US_Cities_List/mm_boulder.png,,,,,,,,,,,,,,,,,
null,,black_cross(without_color),173466,green,,,,null,US_Cities_List/nat_newhope.png,US_Cities_List/mm_boulder.png,,,,,,,,,,,,,,,,,
null,,rt_plussign_withcolor,173968,green,,,,null,US_Cities_List/nat_newhope.png,US_Cities_List/mm_boulder.png,,,,,,,,,,,,,,,,,
1618.0999999940395,,rt_thecrossant_black,175545,black_plus_sign,,,,50,,,1,1,,,,,,,,,,,,,,,
null,,color_black,175649,black_plus_sign,,,,null,,,,,,,,,,,,,,,,,,,
null,,learn_phase(without_color),178178,black_plus_sign,,,,null,US_Cities_List/mm_hanover.png,US_Cities_List/nat_peoria.png,,,,,,,,,,,,,,,,,
null,,black_cross(without_color),178835,green,,,,null,US_Cities_List/mm_hanover.png,US_Cities_List/nat_peoria.png,,,,,,,,,,,,,,,,,
null,,rt_plussign_withcolor,179338,green,,,,null,US_Cities_List/mm_hanover.png,US_Cities_List/nat_peoria.png,,,,,,,,,,,,,,,,,
568.7000000029802,,rt_thecrossant_black,180689,black_plus_sign,,,,50,,,1,1,,,,,,,,,,,,,,,
null,,color_black,180792,black_plus_sign,,,,null,,,,,,,,,,,,,,,,,,,
null,,learn_phase(without_color),183323,black_plus_sign,,,,null,US_Cities_List/nat_racine.png,US_Cities_List/mm_cornwall.png,,,,,,,,,,,,,,,,,
null,,black_cross(without_color),183846,green,,,,null,US_Cities_List/nat_racine.png,US_Cities_List/mm_cornwall.png,,,,,,,,,,,,,,,,,
null,,rt_plussign_withcolor,184348,green,,,,null,US_Cities_List/nat_racine.png,US_Cities_List/mm_cornwall.png,,,,,,,,,,,,,,,,,
2069.6000000089407,,rt_thecrossant_black,185833,black_plus_sign,,,,50,,,1,1,,,,,,,,,,,,,,,
null,,color_black,185935,black_plus_sign,,,,null,,,,,,,,,,,,,,,,,,,
null,,learn_phase(without_color),188467,black_plus_sign,,,,null,US_Cities_List/mm_cornwall.png,US_Cities_List/nat_westpalmbeach.png,,,,,,,,,,,,,,,,,
null,,black_cross(without_color),189519,green,,,,null,US_Cities_List/mm_cornwall.png,US_Cities_List/nat_westpalmbeach.png,,,,,,,,,,,,,,,,,
null,,rt_plussign_withcolor,190022,green,,,,null,US_Cities_List/mm_cornwall.png,US_Cities_List/nat_westpalmbeach.png,,,,,,,,,,,,,,,,,
1426.3999999910593,,rt_thecrossant_black,190977,black_plus_sign,,,,49,,,0,0.8888888888888888,,,,,,,,,,,,,,,
null,,color_black,191081,black_plus_sign,,,,null,,,,,,,,,,,,,,,,,,,
null,,learn_phase(without_color),193622,black_plus_sign,,,,null,US_Cities_List/mm_hanover.png,US_Cities_List/nat_peoria.png,,,,,,,,,,,,,,,,,
null,,black_cross(without_color),194331,green,,,,null,US_Cities_List/mm_hanover.png,US_Cities_List/nat_peoria.png,,,,,,,,,,,,,,,,,
null,,rt_plussign_withcolor,194834,green,,,,null,US_Cities_List/mm_hanover.png,US_Cities_List/nat_peoria.png,,,,,,,,,,,,,,,,,
1873.4000000059605,,rt_thecrossant_black,196132,black_plus_sign,,,,50,,,1,0.9,,,,,,,,,,,,,,,
null,,color_black,196235,black_plus_sign,,,,null,,,,,,,,,,,,,,,,,,,
null,,learn_phase(without_color),198770,black_plus_sign,,,,null,US_Cities_List/nat_huntsville.png,US_Cities_List/nat_peoria.png,,,,,,,,,,,,,,,,,
null,,black_cross(without_color),199809,green,,,,null,US_Cities_List/nat_huntsville.png,US_Cities_List/nat_peoria.png,,,,,,,,,,,,,,,,,
null,,rt_plussign_withcolor,200312,green,,,,null,US_Cities_List/nat_huntsville.png,US_Cities_List/nat_peoria.png,,,,,,,,,,,,,,,,,
930.5999999940395,,rt_thecrossant_black,201279,black_plus_sign,,,,50,,,1,0.9090909090909091,,,,,,,,,,,,,,,
null,,color_black,201382,black_plus_sign,,,,null,,,,,,,,,,,,,,,,,,,
null,,learn_phase(without_color),203915,black_plus_sign,,,,null,US_Cities_List/nat_newhope.png,US_Cities_List/nat_racine.png,,,,,,,,,,,,,,,,,
null,,black_cross(without_color),204789,blue,,,,null,US_Cities_List/nat_newhope.png,US_Cities_List/nat_racine.png,,,,,,,,,,,,,,,,,
null,,rt_plussign_withcolor,205291,blue,,,,null,US_Cities_List/nat_newhope.png,US_Cities_List/nat_racine.png,,,,,,,,,,,,,,,,,
1260.5,,rt_thecrossant_black,206422,black_plus_sign,,,,49,,,1,0.9166666666666666,,,,,,,,,,,,,,,
null,,color_black,206525,black_plus_sign,,,,null,,,,,,,,,,,,,,,,,,,
null,,learn_phase(without_color),209055,black_plus_sign,,,,null,US_Cities_List/nat_carmel.png,US_Cities_List/nat_peoria.png,,,,,,,,,,,,,,,,,
null,,black_cross(without_color),209726,blue,,,,null,US_Cities_List/nat_carmel.png,US_Cities_List/nat_peoria.png,,,,,,,,,,,,,,,,,
null,,rt_plussign_withcolor,210228,blue,,,,null,US_Cities_List/nat_carmel.png,US_Cities_List/nat_peoria.png,,,,,,,,,,,,,,,,,
1124.3999999910593,,rt_thecrossant_black,211563,black_plus_sign,,,,49,,,1,0.9230769230769231,,,,,,,,,,,,,,,
null,,color_black,211666,black_plus_sign,,,,null,,,,,,,,,,,,,,,,,,,
null,,learn_phase(without_color),214191,black_plus_sign,,,,null,US_Cities_List/mm_hanover.png,US_Cities_List/mm_gatlinburg.png,,,,,,,,,,,,,,,,,
null,,black_cross(without_color),214648,blue,,,,null,US_Cities_List/mm_hanover.png,US_Cities_List/mm_gatlinburg.png,,,,,,,,,,,,,,,,,
null,,rt_plussign_withcolor,215151,blue,,,,null,US_Cities_List/mm_hanover.png,US_Cities_List/mm_gatlinburg.png,,,,,,,,,,,,,,,,,
802.5999999940395,,rt_thecrossant_black,216700,black_plus_sign,,,,49,,,1,0.9285714285714286,,,,,,,,,,,,,,,
null,,color_black,216803,black_plus_sign,,,,null,,,,,,,,,,,,,,,,,,,
null,,learn_phase(without_color),219347,black_plus_sign,,,,null,US_Cities_List/nat_newhope.png,US_Cities_List/nat_racine.png,,,,,,,,,,,,,,,,,
null,,black_cross(without_color),220138,blue,,,,null,US_Cities_List/nat_newhope.png,US_Cities_List/nat_racine.png,,,,,,,,,,,,,,,,,
null,,rt_plussign_withcolor,220641,blue,,,,null,US_Cities_List/nat_newhope.png,US_Cities_List/nat_racine.png,,,,,,,,,,,,,,,,,
938.8000000119209,,rt_thecrossant_black,221857,black_plus_sign,,,,50,,,0,0.8666666666666667,,,,,,,,,,,,,,,
null,,color_black,221962,black_plus_sign,,,,null,,,,,,,,,,,,,,,,,,,
null,,learn_phase(without_color),224489,black_plus_sign,,,,null,US_Cities_List/mm_cornwall.png,US_Cities_List/nat_westpalmbeach.png,,,,,,,,,,,,,,,,,
null,,black_cross(without_color),225058,green,,,,null,US_Cities_List/mm_cornwall.png,US_Cities_List/nat_westpalmbeach.png,,,,,,,,,,,,,,,,,
null,,rt_plussign_withcolor,225560,green,,,,null,US_Cities_List/mm_cornwall.png,US_Cities_List/nat_westpalmbeach.png,,,,,,,,,,,,,,,,,
1087.7000000029802,,rt_thecrossant_black,226997,black_plus_sign,,,,50,,,1,0.875,,,,,,,,,,,,,,,
null,,color_black,227100,black_plus_sign,,,,null,,,,,,,,,,,,,,,,,,,
null,,learn_phase(without_color),229633,black_plus_sign,,,,null,US_Cities_List/nat_peoria.png,US_Cities_List/mm_cornwall.png,,,,,,,,,,,,,,,,,
null,,black_cross(without_color),230140,blue,,,,null,US_Cities_List/nat_peoria.png,US_Cities_List/mm_cornwall.png,,,,,,,,,,,,,,,,,
null,,rt_plussign_withcolor,230643,blue,,,,null,US_Cities_List/nat_peoria.png,US_Cities_List/mm_cornwall.png,,,,,,,,,,,,,,,,,
1077.9000000059605,,rt_thecrossant_black,232141,black_plus_sign,,,,49,,,1,0.8823529411764706,,,,,,,,,,,,,,,
null,,color_black,232243,black_plus_sign,,,,null,,,,,,,,,,,,,,,,,,,
null,,learn_phase(without_color),234779,black_plus_sign,,,,null,US_Cities_List/mm_cornwall.png,US_Cities_List/nat_westpalmbeach.png,,,,,,,,,,,,,,,,,
null,,black_cross(without_color),235561,blue,,,,null,US_Cities_List/mm_cornwall.png,US_Cities_List/nat_westpalmbeach.png,,,,,,,,,,,,,,,,,
null,,rt_plussign_withcolor,236065,blue,,,,null,US_Cities_List/mm_cornwall.png,US_Cities_List/nat_westpalmbeach.png,,,,,,,,,,,,,,,,,
679.1999999880791,,rt_thecrossant_black,237290,black_plus_sign,,,,49,,,1,0.8888888888888888,,,,,,,,,,,,,,,
null,,color_black,237393,black_plus_sign,,,,null,,,,,,,,,,,,,,,,,,,
null,,learn_phase(without_color),239933,black_plus_sign,,,,null,US_Cities_List/nat_peoria.png,US_Cities_List/mm_cornwall.png,,,,,,,,,,,,,,,,,
null,,black_cross(without_color),240977,green,,,,null,US_Cities_List/nat_peoria.png,US_Cities_List/mm_cornwall.png,,,,,,,,,,,,,,,,,
null,,rt_plussign_withcolor,241480,green,,,,null,US_Cities_List/nat_peoria.png,US_Cities_List/mm_cornwall.png,,,,,,,,,,,,,,,,,
1178.7999999970198,,rt_thecrossant_black,242442,black_plus_sign,,,,50,,,1,0.8947368421052632,,,,,,,,,,,,,,,
null,,color_black,242546,black_plus_sign,,,,null,,,,,,,,,,,,,,,,,,,
null,,learn_phase(without_color),245083,black_plus_sign,,,,null,US_Cities_List/nat_huntsville.png,US_Cities_List/nat_peoria.png,,,,,,,,,,,,,,,,,
null,,black_cross(without_color),245770,green,,,,null,US_Cities_List/nat_huntsville.png,US_Cities_List/nat_peoria.png,,,,,,,,,,,,,,,,,
null,,rt_plussign_withcolor,246273,green,,,,null,US_Cities_List/nat_huntsville.png,US_Cities_List/nat_peoria.png,,,,,,,,,,,,,,,,,
null,,rt_thecrossant_black,247594,black_plus_sign,,,,null,,,,0.8947368421052632,,,,,,,,,,,,,,,
null,,color_black,247698,black_plus_sign,,,,null,,,,,,,,,,,,,,,,,,,
null,,learn_phase(without_color),250229,black_plus_sign,,,,null,US_Cities_List/nat_racine.png,US_Cities_List/nat_carmel.png,,,,,,,,,,,,,,,,,
null,,black_cross(without_color),250719,blue,,,,null,US_Cities_List/nat_racine.png,US_Cities_List/nat_carmel.png,,,,,,,,,,,,,,,,,
null,,rt_plussign_withcolor,251222,blue,,,,null,US_Cities_List/nat_racine.png,US_Cities_List/nat_carmel.png,,,,,,,,,,,,,,,,,
1391.199999988079,,rt_thecrossant_black,252739,black_plus_sign,,,,49,,,1,0.9,,,,,,,,,,,,,,,
null,,color_black,252843,black_plus_sign,,,,null,,,,,,,,,,,,,,,,,,,
null,,learn_phase(without_color),255376,black_plus_sign,,,,null,US_Cities_List/mm_leesburg.png,US_Cities_List/nat_newhope.png,,,,,,,,,,,,,,,,,
null,,black_cross(without_color),256162,blue,,,,null,US_Cities_List/mm_leesburg.png,US_Cities_List/nat_newhope.png,,,,,,,,,,,,,,,,,
null,,rt_plussign_withcolor,256665,blue,,,,null,US_Cities_List/mm_leesburg.png,US_Cities_List/nat_newhope.png,,,,,,,,,,,,,,,,,
905,,rt_thecrossant_black,257886,black_plus_sign,,,,49,,,1,0.9047619047619048,,,,,,,,,,,,,,,
null,,color_black,257989,black_plus_sign,,,,null,,,,,,,,,,,,,,,,,,,
null,,learn_phase(without_color),260521,black_plus_sign,,,,null,US_Cities_List/nat_newhope.png,US_Cities_List/mm_boulder.png,,,,,,,,,,,,,,,,,
null,,black_cross(without_color),260973,blue,,,,null,US_Cities_List/nat_newhope.png,US_Cities_List/mm_boulder.png,,,,,,,,,,,,,,,,,
null,,rt_plussign_withcolor,261476,blue,,,,null,US_Cities_List/nat_newhope.png,US_Cities_List/mm_boulder.png,,,,,,,,,,,,,,,,,
1076.7999999970198,,rt_thecrossant_black,263030,black_plus_sign,,,,49,,,1,0.9090909090909091,,,,,,,,,,,,,,,
null,,color_black,263134,black_plus_sign,,,,null,,,,,,,,,,,,,,,,,,,
null,,learn_phase(without_color),265662,black_plus_sign,,,,null,US_Cities_List/mm_hanover.png,US_Cities_List/nat_peoria.png,,,,,,,,,,,,,,,,,
null,,black_cross(without_color),266752,blue,,,,null,US_Cities_List/mm_hanover.png,US_Cities_List/nat_peoria.png,,,,,,,,,,,,,,,,,
419,,rt_plussign_withcolor,267255,blue,,,,49,US_Cities_List/mm_hanover.png,US_Cities_List/nat_peoria.png,,,,,,,,,,,,,,,,,
null,,rt_thecrossant_black,268173,black_plus_sign,,,,null,,,1,0.9130434782608695,,,,,,,,,,,,,,,
null,,color_black,268277,black_plus_sign,,,,null,,,,,,,,,,,,,,,,,,,
null,,learn_phase(without_color),270812,black_plus_sign,,,,null,US_Cities_List/nat_carmel.png,US_Cities_List/nat_peoria.png,,,,,,,,,,,,,,,,,
null,,black_cross(without_color),271810,blue,,,,null,US_Cities_List/nat_carmel.png,US_Cities_List/nat_peoria.png,,,,,,,,,,,,,,,,,
407.90000000596046,,rt_plussign_withcolor,272314,blue,,,,49,US_Cities_List/nat_carmel.png,US_Cities_List/nat_peoria.png,,,,,,,,,,,,,,,,,
null,,rt_thecrossant_black,273323,black_plus_sign,,,,null,,,1,0.9166666666666666,,,,,,,,,,,,,,,
null,,color_black,273426,black_plus_sign,,,,null,,,,,,,,,,,,,,,,,,,
null,,learn_phase(without_color),275967,black_plus_sign,,,,null,US_Cities_List/nat_newhope.png,US_Cities_List/nat_racine.png,,,,,,,,,,,,,,,,,
null,,black_cross(without_color),276671,blue,,,,null,US_Cities_List/nat_newhope.png,US_Cities_List/nat_racine.png,,,,,,,,,,,,,,,,,
467,,rt_plussign_withcolor,277175,blue,,,,49,US_Cities_List/nat_newhope.png,US_Cities_List/nat_racine.png,,,,,,,,,,,,,,,,,
null,,rt_thecrossant_black,278478,black_plus_sign,,,,null,,,1,0.92,,,,,,,,,,,,,,,
null,,color_black,278582,black_plus_sign,,,,null,,,,,,,,,,,,,,,,,,,
null,,learn_phase(without_color),281116,black_plus_sign,,,,null,US_Cities_List/mm_hanover.png,US_Cities_List/mm_gatlinburg.png,,,,,,,,,,,,,,,,,
null,,black_cross(without_color),282014,blue,,,,null,US_Cities_List/mm_hanover.png,US_Cities_List/mm_gatlinburg.png,,,,,,,,,,,,,,,,,
495.20000000298023,,rt_plussign_withcolor,282516,blue,,,,49,US_Cities_List/mm_hanover.png,US_Cities_List/mm_gatlinburg.png,,,,,,,,,,,,,,,,,
null,,rt_thecrossant_black,283626,black_plus_sign,,,,null,,,1,0.9230769230769231,,,,,,,,,,,,,,,
null,,color_black,283729,black_plus_sign,,,,null,,,,,,,,,,,,,,,,,,,
null,,learn_phase(without_color),286256,black_plus_sign,,,,null,US_Cities_List/mm_boulder.png,US_Cities_List/nat_westpalmbeach.png,,,,,,,,,,,,,,,,,
null,,black_cross(without_color),286993,green,,,,null,US_Cities_List/mm_boulder.png,US_Cities_List/nat_westpalmbeach.png,,,,,,,,,,,,,,,,,
null,,rt_plussign_withcolor,287496,green,,,,null,US_Cities_List/mm_boulder.png,US_Cities_List/nat_westpalmbeach.png,,,,,,,,,,,,,,,,,
1221.7999999970198,,rt_thecrossant_black,288767,black_plus_sign,,,,50,,,1,0.9259259259259259,,,,,,,,,,,,,,,
null,,color_black,288871,black_plus_sign,,,,null,,,,,,,,,,,,,,,,,,,
null,,learn_phase(without_color),291405,black_plus_sign,,,,null,US_Cities_List/nat_carmel.png,US_Cities_List/mm_hanover.png,,,,,,,,,,,,,,,,,
null,,black_cross(without_color),292001,blue,,,,null,US_Cities_List/nat_carmel.png,US_Cities_List/mm_hanover.png,,,,,,,,,,,,,,,,,
387.69999998807907,,rt_plussign_withcolor,292504,blue,,,,49,US_Cities_List/nat_carmel.png,US_Cities_List/mm_hanover.png,,,,,,,,,,,,,,,,,
null,,rt_thecrossant_black,293916,black_plus_sign,,,,null,,,1,0.9285714285714286,,,,,,,,,,,,,,,
null,,color_black,294020,black_plus_sign,,,,null,,,,,,,,,,,,,,,,,,,
null,,learn_phase(without_color),296552,black_plus_sign,,,,null,US_Cities_List/mm_leesburg.png,US_Cities_List/nat_newhope.png,,,,,,,,,,,,,,,,,
null,,black_cross(without_color),297195,blue,,,,null,US_Cities_List/mm_leesburg.png,US_Cities_List/nat_newhope.png,,,,,,,,,,,,,,,,,
410.3999999910593,,rt_plussign_withcolor,297699,blue,,,,49,US_Cities_List/mm_leesburg.png,US_Cities_List/nat_newhope.png,,,,,,,,,,,,,,,,,
null,,rt_thecrossant_black,299063,black_plus_sign,,,,null,,,1,0.9310344827586207,,,,,,,,,,,,,,,
null,,color_black,299167,black_plus_sign,,,,null,,,,,,,,,,,,,,,,,,,
null,,learn_phase(without_color),301703,black_plus_sign,,,,null,US_Cities_List/nat_carmel.png,US_Cities_List/nat_peoria.png,,,,,,,,,,,,,,,,,
null,,black_cross(without_color),302535,green,,,,null,US_Cities_List/nat_carmel.png,US_Cities_List/nat_peoria.png,,,,,,,,,,,,,,,,,
null,,rt_plussign_withcolor,303038,green,,,,null,US_Cities_List/nat_carmel.png,US_Cities_List/nat_peoria.png,,,,,,,,,,,,,,,,,
1398.300000011921,,rt_thecrossant_black,304213,black_plus_sign,,,,50,,,1,0.9333333333333333,,,,,,,,,,,,,,,
null,,color_black,304317,black_plus_sign,,,,null,,,,,,,,,,,,,,,,,,,
null,,learn_phase(without_color),306854,black_plus_sign,,,,null,US_Cities_List/mm_hanover.png,US_Cities_List/mm_gatlinburg.png,,,,,,,,,,,,,,,,,
null,,black_cross(without_color),307493,blue,,,,null,US_Cities_List/mm_hanover.png,US_Cities_List/mm_gatlinburg.png,,,,,,,,,,,,,,,,,
46.900000005960464,,rt_plussign_withcolor,307996,blue,,,,49,US_Cities_List/mm_hanover.png,US_Cities_List/mm_gatlinburg.png,,,,,,,,,,,,,,,,,
null,,rt_thecrossant_black,309366,black_plus_sign,,,,null,,,1,0.9354838709677419,,,,,,,,,,,,,,,
null,,color_black,309469,black_plus_sign,,,,null,,,,,,,,,,,,,,,,,,,
null,,learn_phase(without_color),312002,black_plus_sign,,,,null,US_Cities_List/nat_huntsville.png,US_Cities_List/nat_peoria.png,,,,,,,,,,,,,,,,,
null,,black_cross(without_color),313017,blue,,,,null,US_Cities_List/nat_huntsville.png,US_Cities_List/nat_peoria.png,,,,,,,,,,,,,,,,,
null,,rt_plussign_withcolor,313520,blue,,,,null,US_Cities_List/nat_huntsville.png,US_Cities_List/nat_peoria.png,,,,,,,,,,,,,,,,,
923.2999999970198,,rt_thecrossant_black,314512,black_plus_sign,,,,49,,,1,0.9375,,,,,,,,,,,,,,,
null,,color_black,314616,black_plus_sign,,,,null,,,,,,,,,,,,,,,,,,,
null,,learn_phase(without_color),317153,black_plus_sign,,,,null,US_Cities_List/nat_carmel.png,US_Cities_List/nat_peoria.png,,,,,,,,,,,,,,,,,
null,,black_cross(without_color),318013,blue,,,,null,US_Cities_List/nat_carmel.png,US_Cities_List/nat_peoria.png,,,,,,,,,,,,,,,,,
null,,rt_plussign_withcolor,318517,blue,,,,null,US_Cities_List/nat_carmel.png,US_Cities_List/nat_peoria.png,,,,,,,,,,,,,,,,,
1424.800000011921,,rt_thecrossant_black,319664,black_plus_sign,,,,49,,,1,0.9393939393939394,,,,,,,,,,,,,,,
null,,color_black,319767,black_plus_sign,,,,null,,,,,,,,,,,,,,,,,,,
null,,learn_phase(without_color),322291,black_plus_sign,,,,null,US_Cities_List/mm_boulder.png,US_Cities_List/mm_shreveport.png,,,,,,,,,,,,,,,,,
null,,black_cross(without_color),322833,blue,,,,null,US_Cities_List/mm_boulder.png,US_Cities_List/mm_shreveport.png,,,,,,,,,,,,,,,,,
475.29999999701977,,rt_plussign_withcolor,323336,blue,,,,49,US_Cities_List/mm_boulder.png,US_Cities_List/mm_shreveport.png,,,,,,,,,,,,,,,,,
null,,rt_thecrossant_black,324802,black_plus_sign,,,,null,,,1,0.9411764705882353,,,,,,,,,,,,,,,
null,,color_black,324906,black_plus_sign,,,,null,,,,,,,,,,,,,,,,,,,
null,,learn_phase(without_color),327443,black_plus_sign,,,,null,US_Cities_List/nat_huntsville.png,US_Cities_List/nat_peoria.png,,,,,,,,,,,,,,,,,
null,,black_cross(without_color),328131,blue,,,,null,US_Cities_List/nat_huntsville.png,US_Cities_List/nat_peoria.png,,,,,,,,,,,,,,,,,
null,,rt_plussign_withcolor,328635,blue,,,,null,US_Cities_List/nat_huntsville.png,US_Cities_List/nat_peoria.png,,,,,,,,,,,,,,,,,
644.6000000089407,,rt_thecrossant_black,329954,black_plus_sign,,,,49,,,1,0.9428571428571428,,,,,,,,,,,,,,,
null,,color_black,330059,black_plus_sign,,,,null,,,,,,,,,,,,,,,,,,,
null,,learn_phase(without_color),332596,black_plus_sign,,,,null,US_Cities_List/mm_hanover.png,US_Cities_List/nat_huntsville.png,,,,,,,,,,,,,,,,,
null,,black_cross(without_color),333356,green,,,,null,US_Cities_List/mm_hanover.png,US_Cities_List/nat_huntsville.png,,,,,,,,,,,,,,,,,
null,,rt_plussign_withcolor,333858,green,,,,null,US_Cities_List/mm_hanover.png,US_Cities_List/nat_huntsville.png,,,,,,,,,,,,,,,,,
1056.3999999910593,,rt_thecrossant_black,335106,black_plus_sign,,,,50,,,1,0.9444444444444444,,,,,,,,,,,,,,,
null,,color_black,335211,black_plus_sign,,,,null,,,,,,,,,,,,,,,,,,,
null,,learn_phase(without_color),337756,black_plus_sign,,,,null,US_Cities_List/mm_boulder.png,US_Cities_List/mm_shreveport.png,,,,,,,,,,,,,,,,,
null,,black_cross(without_color),338463,blue,,,,null,US_Cities_List/mm_boulder.png,US_Cities_List/mm_shreveport.png,,,,,,,,,,,,,,,,,
null,,rt_plussign_withcolor,338966,blue,,,,null,US_Cities_List/mm_boulder.png,US_Cities_List/mm_shreveport.png,,,,,,,,,,,,,,,,,
1079.2999999970198,,rt_thecrossant_black,340267,black_plus_sign,,,,49,,,1,0.9459459459459459,,,,,,,,,,,,,,,
null,,color_black,340371,black_plus_sign,,,,null,,,,,,,,,,,,,,,,,,,
null,,learn_phase(without_color),342907,black_plus_sign,,,,null,US_Cities_List/nat_racine.png,US_Cities_List/nat_carmel.png,,,,,,,,,,,,,,,,,
null,,black_cross(without_color),343435,green,,,,null,US_Cities_List/nat_racine.png,US_Cities_List/nat_carmel.png,,,,,,,,,,,,,,,,,
null,,rt_plussign_withcolor,343938,green,,,,null,US_Cities_List/nat_racine.png,US_Cities_List/nat_carmel.png,,,,,,,,,,,,,,,,,
1797.1000000089407,,rt_thecrossant_black,345419,black_plus_sign,,,,50,,,1,0.9473684210526315,,,,,,,,,,,,,,,
null,,color_black,345523,black_plus_sign,,,,null,,,,,,,,,,,,,,,,,,,
null,,learn_phase(without_color),348057,black_plus_sign,,,,null,US_Cities_List/nat_newhope.png,US_Cities_List/mm_boulder.png,,,,,,,,,,,,,,,,,
null,,black_cross(without_color),349108,green,,,,null,US_Cities_List/nat_newhope.png,US_Cities_List/mm_boulder.png,,,,,,,,,,,,,,,,,
null,,rt_plussign_withcolor,349611,green,,,,null,US_Cities_List/nat_newhope.png,US_Cities_List/mm_boulder.png,,,,,,,,,,,,,,,,,
784.0999999940395,,rt_thecrossant_black,350567,black_plus_sign,,,,50,,,1,0.9487179487179487,,,,,,,,,,,,,,,
null,,color_black,350670,black_plus_sign,,,,null,,,,,,,,,,,,,,,,,,,
null,,learn_phase(without_color),353209,black_plus_sign,,,,null,US_Cities_List/mm_boulder.png,US_Cities_List/mm_shreveport.png,,,,,,,,,,,,,,,,,
null,,black_cross(without_color),354143,green,,,,null,US_Cities_List/mm_boulder.png,US_Cities_List/mm_shreveport.png,,,,,,,,,,,,,,,,,
null,,rt_plussign_withcolor,354646,green,,,,null,US_Cities_List/mm_boulder.png,US_Cities_List/mm_shreveport.png,,,,,,,,,,,,,,,,,
1403.300000011921,,rt_thecrossant_black,355720,black_plus_sign,,,,50,,,1,0.95,,,,,,,,,,,,,,,
null,,color_black,355823,black_plus_sign,,,,null,,,,,,,,,,,,,,,,,,,
null,,learn_phase(without_color),358362,black_plus_sign,,,,null,US_Cities_List/mm_leesburg.png,US_Cities_List/nat_newhope.png,,,,,,,,,,,,,,,,,
null,,black_cross(without_color),359221,blue,,,,null,US_Cities_List/mm_leesburg.png,US_Cities_List/nat_newhope.png,,,,,,,,,,,,,,,,,
477.59999999403954,,rt_plussign_withcolor,359724,blue,,,,49,US_Cities_List/mm_leesburg.png,US_Cities_List/nat_newhope.png,,,,,,,,,,,,,,,,,
null,,rt_thecrossant_black,360872,black_plus_sign,,,,null,,,1,0.9512195121951219,,,,,,,,,,,,,,,
null,,color_black,360977,black_plus_sign,,,,null,,,,,,,,,,,,,,,,,,,
null,,learn_phase(without_color),363518,black_plus_sign,,,,null,US_Cities_List/nat_racine.png,US_Cities_List/nat_carmel.png,,,,,,,,,,,,,,,,,
null,,black_cross(without_color),364257,green,,,,null,US_Cities_List/nat_racine.png,US_Cities_List/nat_carmel.png,,,,,,,,,,,,,,,,,
null,,rt_plussign_withcolor,364760,green,,,,null,US_Cities_List/nat_racine.png,US_Cities_List/nat_carmel.png,,,,,,,,,,,,,,,,,
1527,,rt_thecrossant_black,366030,black_plus_sign,,,,49,,,0,0.9285714285714286,,,,,,,,,,,,,,,
null,,color_black,366134,black_plus_sign,,,,null,,,,,,,,,,,,,,,,,,,
null,,learn_phase(without_color),368671,black_plus_sign,,,,null,US_Cities_List/nat_racine.png,US_Cities_List/mm_cornwall.png,,,,,,,,,,,,,,,,,
null,,black_cross(without_color),369258,blue,,,,null,US_Cities_List/nat_racine.png,US_Cities_List/mm_cornwall.png,,,,,,,,,,,,,,,,,
null,,rt_plussign_withcolor,369762,blue,,,,null,US_Cities_List/nat_racine.png,US_Cities_List/mm_cornwall.png,,,,,,,,,,,,,,,,,
1278.5999999940395,,rt_thecrossant_black,371183,black_plus_sign,,,,49,,,1,0.9302325581395349,,,,,,,,,,,,,,,
null,,color_black,371287,black_plus_sign,,,,null,,,,,,,,,,,,,,,,,,,
null,,learn_phase(without_color),373815,black_plus_sign,,,,null,US_Cities_List/nat_carmel.png,US_Cities_List/mm_hanover.png,,,,,,,,,,,,,,,,,
null,,black_cross(without_color),374600,blue,,,,null,US_Cities_List/nat_carmel.png,US_Cities_List/mm_hanover.png,,,,,,,,,,,,,,,,,
null,,rt_plussign_withcolor,375104,blue,,,,null,US_Cities_List/nat_carmel.png,US_Cities_List/mm_hanover.png,,,,,,,,,,,,,,,,,
1505.7000000029802,,rt_thecrossant_black,376326,black_plus_sign,,,,49,,,1,0.9318181818181818,,,,,,,,,,,,,,,
null,,color_black,376429,black_plus_sign,,,,null,,,,,,,,,,,,,,,,,,,
null,,learn_phase(without_color),378959,black_plus_sign,,,,null,US_Cities_List/mm_hanover.png,US_Cities_List/nat_peoria.png,,,,,,,,,,,,,,,,,
null,,black_cross(without_color),379497,blue,,,,null,US_Cities_List/mm_hanover.png,US_Cities_List/nat_peoria.png,,,,,,,,,,,,,,,,,
null,,rt_plussign_withcolor,380000,blue,,,,null,US_Cities_List/mm_hanover.png,US_Cities_List/nat_peoria.png,,,,,,,,,,,,,,,,,
887.9000000059605,,rt_thecrossant_black,381469,black_plus_sign,,,,49,,,1,0.9333333333333333,,,,,,,,,,,,,,,
null,,color_black,381573,black_plus_sign,,,,null,,,,,,,,,,,,,,,,,,,
null,,learn_phase(without_color),384102,black_plus_sign,,,,null,US_Cities_List/mm_cornwall.png,US_Cities_List/nat_westpalmbeach.png,,,,,,,,,,,,,,,,,
null,,black_cross(without_color),385017,blue,,,,null,US_Cities_List/mm_cornwall.png,US_Cities_List/nat_westpalmbeach.png,,,,,,,,,,,,,,,,,
null,,rt_plussign_withcolor,385520,blue,,,,null,US_Cities_List/mm_cornwall.png,US_Cities_List/nat_westpalmbeach.png,,,,,,,,,,,,,,,,,
794.7000000029802,,rt_thecrossant_black,386613,black_plus_sign,,,,49,,,1,0.9347826086956522,,,,,,,,,,,,,,,
null,,color_black,386716,black_plus_sign,,,,null,,,,,,,,,,,,,,,,,,,
null,,learn_phase(without_color),389248,black_plus_sign,,,,null,US_Cities_List/mm_leesburg.png,US_Cities_List/nat_newhope.png,,,,,,,,,,,,,,,,,
null,,black_cross(without_color),390015,green,,,,null,US_Cities_List/mm_leesburg.png,US_Cities_List/nat_newhope.png,,,,,,,,,,,,,,,,,
null,,rt_plussign_withcolor,390519,green,,,,null,US_Cities_List/mm_leesburg.png,US_Cities_List/nat_newhope.png,,,,,,,,,,,,,,,,,
1821.5999999940395,,rt_thecrossant_black,391759,black_plus_sign,,,,50,,,1,0.9361702127659575,,,,,,,,,,,,,,,
null,,color_black,391862,black_plus_sign,,,,null,,,,,,,,,,,,,,,,,,,
null,,learn_phase(without_color),394403,black_plus_sign,,,,null,US_Cities_List/nat_peoria.png,US_Cities_List/mm_cornwall.png,,,,,,,,,,,,,,,,,
null,,black_cross(without_color),395367,blue,,,,null,US_Cities_List/nat_peoria.png,US_Cities_List/mm_cornwall.png,,,,,,,,,,,,,,,,,
null,,rt_plussign_withcolor,395871,blue,,,,null,US_Cities_List/nat_peoria.png,US_Cities_List/mm_cornwall.png,,,,,,,,,,,,,,,,,
867.9000000059605,,rt_thecrossant_black,396913,black_plus_sign,,,,49,,,1,0.9375,,,,,,,,,,,,,,,
null,,color_black,397018,black_plus_sign,,,,null,,,,,,,,,,,,,,,,,,,
null,,learn_phase(without_color),399553,black_plus_sign,,,,null,US_Cities_List/nat_carmel.png,US_Cities_List/nat_peoria.png,,,,,,,,,,,,,,,,,
null,,black_cross(without_color),400641,blue,,,,null,US_Cities_List/nat_carmel.png,US_Cities_List/nat_peoria.png,,,,,,,,,,,,,,,,,
null,,rt_plussign_withcolor,401144,blue,,,,null,US_Cities_List/nat_carmel.png,US_Cities_List/nat_peoria.png,,,,,,,,,,,,,,,,,
1237.1000000089407,,rt_thecrossant_black,402064,black_plus_sign,,,,49,,,1,0.9387755102040817,,,,,,,,,,,,,,,
null,,color_black,402167,black_plus_sign,,,,null,,,,,,,,,,,,,,,,,,,
null,,learn_phase(without_color),404693,black_plus_sign,,,,null,US_Cities_List/nat_carmel.png,US_Cities_List/mm_hanover.png,,,,,,,,,,,,,,,,,
null,,black_cross(without_color),405545,green,,,,null,US_Cities_List/nat_carmel.png,US_Cities_List/mm_hanover.png,,,,,,,,,,,,,,,,,
null,,rt_plussign_withcolor,406049,green,,,,null,US_Cities_List/nat_carmel.png,US_Cities_List/mm_hanover.png,,,,,,,,,,,,,,,,,
1542.2000000029802,,rt_thecrossant_black,407206,black_plus_sign,,,,50,,,1,0.94,,,,,,,,,,,,,,,
null,,color_black,407310,black_plus_sign,,,,null,,,,,,,,,,,,,,,,,,,
null,,learn_phase(without_color),409842,black_plus_sign,,,,null,US_Cities_List/nat_racine.png,US_Cities_List/mm_cornwall.png,,,,,,,,,,,,,,,,,
null,,black_cross(without_color),410627,blue,,,,null,US_Cities_List/nat_racine.png,US_Cities_List/mm_cornwall.png,,,,,,,,,,,,,,,,,
null,,rt_plussign_withcolor,411130,blue,,,,null,US_Cities_List/nat_racine.png,US_Cities_List/mm_cornwall.png,,,,,,,,,,,,,,,,,
null,,rt_thecrossant_black,412352,black_plus_sign,,,,null,,,,0.94,,,,,,,,,,,,,,,
null,,color_black,412456,black_plus_sign,,,,null,,,,,,,,,,,,,,,,,,,
null,,learn_phase(without_color),414987,black_plus_sign,,,,null,US_Cities_List/nat_racine.png,US_Cities_List/nat_carmel.png,,,,,,,,,,,,,,,,,
null,,black_cross(without_color),416072,green,,,,null,US_Cities_List/nat_racine.png,US_Cities_List/nat_carmel.png,,,,,,,,,,,,,,,,,
null,,rt_plussign_withcolor,416575,green,,,,null,US_Cities_List/nat_racine.png,US_Cities_List/nat_carmel.png,,,,,,,,,,,,,,,,,
1256.9000000059605,,rt_thecrossant_black,417497,black_plus_sign,,,,50,,,1,0.9411764705882353,,,,,,,,,,,,,,,
null,,color_black,417602,black_plus_sign,,,,null,,,,,,,,,,,,,,,,,,,
null,,learn_phase(without_color),420129,black_plus_sign,,,,null,US_Cities_List/mm_boulder.png,US_Cities_List/nat_westpalmbeach.png,,,,,,,,,,,,,,,,,
null,,black_cross(without_color),420785,blue,,,,null,US_Cities_List/mm_boulder.png,US_Cities_List/nat_westpalmbeach.png,,,,,,,,,,,,,,,,,
405.30000001192093,,rt_plussign_withcolor,421288,blue,,,,49,US_Cities_List/mm_boulder.png,US_Cities_List/nat_westpalmbeach.png,,,,,,,,,,,,,,,,,
null,,rt_thecrossant_black,422640,black_plus_sign,,,,null,,,1,0.9423076923076923,,,,,,,,,,,,,,,
null,,color_black,422743,black_plus_sign,,,,null,,,,,,,,,,,,,,,,,,,
null,,learn_phase(without_color),425277,black_plus_sign,,,,null,US_Cities_List/nat_carmel.png,US_Cities_List/mm_hanover.png,,,,,,,,,,,,,,,,,
null,,black_cross(without_color),425908,green,,,,null,US_Cities_List/nat_carmel.png,US_Cities_List/mm_hanover.png,,,,,,,,,,,,,,,,,
null,,rt_plussign_withcolor,426411,green,,,,null,US_Cities_List/nat_carmel.png,US_Cities_List/mm_hanover.png,,,,,,,,,,,,,,,,,
980.5999999940395,,rt_thecrossant_black,427788,black_plus_sign,,,,50,,,1,0.9433962264150944,,,,,,,,,,,,,,,
null,,color_black,427892,black_plus_sign,,,,null,,,,,,,,,,,,,,,,,,,
null,,learn_phase(without_color),430431,black_plus_sign,,,,null,US_Cities_List/nat_newhope.png,US_Cities_List/nat_racine.png,,,,,,,,,,,,,,,,,
null,,black_cross(without_color),431141,green,,,,null,US_Cities_List/nat_newhope.png,US_Cities_List/nat_racine.png,,,,,,,,,,,,,,,,,
null,,rt_plussign_withcolor,431645,green,,,,null,US_Cities_List/nat_newhope.png,US_Cities_List/nat_racine.png,,,,,,,,,,,,,,,,,
981.7000000029802,,rt_thecrossant_black,432943,black_plus_sign,,,,50,,,1,0.9444444444444444,,,,,,,,,,,,,,,
null,,color_black,433046,black_plus_sign,,,,null,,,,,,,,,,,,,,,,,,,
null,,learn_phase(without_color),435582,black_plus_sign,,,,null,US_Cities_List/nat_carmel.png,US_Cities_List/nat_peoria.png,,,,,,,,,,,,,,,,,
null,,black_cross(without_color),436554,blue,,,,null,US_Cities_List/nat_carmel.png,US_Cities_List/nat_peoria.png,,,,,,,,,,,,,,,,,
474.40000000596046,,rt_plussign_withcolor,437057,blue,,,,49,US_Cities_List/nat_carmel.png,US_Cities_List/nat_peoria.png,,,,,,,,,,,,,,,,,
null,,rt_thecrossant_black,438093,black_plus_sign,,,,null,,,1,0.9454545454545454,,,,,,,,,,,,,,,
null,,color_black,438197,black_plus_sign,,,,null,,,,,,,,,,,,,,,,,,,
null,,learn_phase(without_color),440730,black_plus_sign,,,,null,US_Cities_List/nat_huntsville.png,US_Cities_List/nat_hotsprings.png,,,,,,,,,,,,,,,,,
null,,black_cross(without_color),441769,blue,,,,null,US_Cities_List/nat_huntsville.png,US_Cities_List/nat_hotsprings.png,,,,,,,,,,,,,,,,,
null,,rt_plussign_withcolor,442273,blue,,,,null,US_Cities_List/nat_huntsville.png,US_Cities_List/nat_hotsprings.png,,,,,,,,,,,,,,,,,
1316.5,,rt_thecrossant_black,443242,black_plus_sign,,,,49,,,1,0.9464285714285714,,,,,,,,,,,,,,,
null,,color_black,443346,black_plus_sign,,,,null,,,,,,,,,,,,,,,,,,,
null,,learn_phase(without_color),445874,black_plus_sign,,,,null,US_Cities_List/mm_hanover.png,US_Cities_List/mm_gatlinburg.png,,,,,,,,,,,,,,,,,
null,,black_cross(without_color),446440,green,,,,null,US_Cities_List/mm_hanover.png,US_Cities_List/mm_gatlinburg.png,,,,,,,,,,,,,,,,,
null,,rt_plussign_withcolor,446945,green,,,,null,US_Cities_List/mm_hanover.png,US_Cities_List/mm_gatlinburg.png,,,,,,,,,,,,,,,,,
1240.300000011921,,rt_thecrossant_black,448386,black_plus_sign,,,,50,,,1,0.9473684210526315,,,,,,,,,,,,,,,
null,,color_black,448490,black_plus_sign,,,,null,,,,,,,,,,,,,,,,,,,
null,,learn_phase(without_color),451023,black_plus_sign,,,,null,US_Cities_List/mm_boulder.png,US_Cities_List/mm_shreveport.png,,,,,,,,,,,,,,,,,
null,,black_cross(without_color),451651,green,,,,null,US_Cities_List/mm_boulder.png,US_Cities_List/mm_shreveport.png,,,,,,,,,,,,,,,,,
null,,rt_plussign_withcolor,452154,green,,,,null,US_Cities_List/mm_boulder.png,US_Cities_List/mm_shreveport.png,,,,,,,,,,,,,,,,,
818.9000000059605,,rt_thecrossant_black,453535,black_plus_sign,,,,50,,,1,0.9482758620689655,,,,,,,,,,,,,,,
null,,color_black,453639,black_plus_sign,,,,null,,,,,,,,,,,,,,,,,,,
null,,learn_phase(without_color),456172,black_plus_sign,,,,null,US_Cities_List/nat_huntsville.png,US_Cities_List/nat_hotsprings.png,,,,,,,,,,,,,,,,,
null,,black_cross(without_color),456901,blue,,,,null,US_Cities_List/nat_huntsville.png,US_Cities_List/nat_hotsprings.png,,,,,,,,,,,,,,,,,
null,,rt_plussign_withcolor,457404,blue,,,,null,US_Cities_List/nat_huntsville.png,US_Cities_List/nat_hotsprings.png,,,,,,,,,,,,,,,,,
897.9000000059605,,rt_thecrossant_black,458684,black_plus_sign,,,,49,,,1,0.9491525423728814,,,,,,,,,,,,,,,
null,,color_black,458787,black_plus_sign,,,,null,,,,,,,,,,,,,,,,,,,
null,,learn_phase(without_color),461316,black_plus_sign,,,,null,US_Cities_List/nat_carmel.png,US_Cities_List/mm_hanover.png,,,,,,,,,,,,,,,,,
null,,black_cross(without_color),461922,green,,,,null,US_Cities_List/nat_carmel.png,US_Cities_List/mm_hanover.png,,,,,,,,,,,,,,,,,
null,,rt_plussign_withcolor,462425,green,,,,null,US_Cities_List/nat_carmel.png,US_Cities_List/mm_hanover.png,,,,,,,,,,,,,,,,,
1065.300000011921,,rt_thecrossant_black,463827,black_plus_sign,,,,50,,,1,0.95,,,,,,,,,,,,,,,
null,,color_black,463931,black_plus_sign,,,,null,,,,,,,,,,,,,,,,,,,
null,,learn_phase(without_color),466475,black_plus_sign,,,,null,US_Cities_List/mm_hanover.png,US_Cities_List/nat_huntsville.png,,,,,,,,,,,,,,,,,
null,,black_cross(without_color),467246,blue,,,,null,US_Cities_List/mm_hanover.png,US_Cities_List/nat_huntsville.png,,,,,,,,,,,,,,,,,
null,,rt_plussign_withcolor,467750,blue,,,,null,US_Cities_List/mm_hanover.png,US_Cities_List/nat_huntsville.png,,,,,,,,,,,,,,,,,
1029.7000000029802,,rt_thecrossant_black,468986,black_plus_sign,,,,49,,,1,0.9508196721311475,,,,,,,,,,,,,,,
null,,color_black,469089,black_plus_sign,,,,null,,,,,,,,,,,,,,,,,,,
null,,learn_phase(without_color),471619,black_plus_sign,,,,null,US_Cities_List/mm_leesburg.png,US_Cities_List/nat_newhope.png,,,,,,,,,,,,,,,,,
null,,black_cross(without_color),472384,blue,,,,null,US_Cities_List/mm_leesburg.png,US_Cities_List/nat_newhope.png,,,,,,,,,,,,,,,,,
null,,rt_plussign_withcolor,472887,blue,,,,null,US_Cities_List/mm_leesburg.png,US_Cities_List/nat_newhope.png,,,,,,,,,,,,,,,,,
1350.8999999910593,,rt_thecrossant_black,474130,black_plus_sign,,,,49,,,1,0.9516129032258065,,,,,,,,,,,,,,,
null,,color_black,474234,black_plus_sign,,,,null,,,,,,,,,,,,,,,,,,,
null,,learn_phase(without_color),476774,black_plus_sign,,,,null,US_Cities_List/nat_newhope.png,US_Cities_List/nat_racine.png,,,,,,,,,,,,,,,,,
null,,black_cross(without_color),477400,green,,,,null,US_Cities_List/nat_newhope.png,US_Cities_List/nat_racine.png,,,,,,,,,,,,,,,,,
null,,rt_plussign_withcolor,477903,green,,,,null,US_Cities_List/nat_newhope.png,US_Cities_List/nat_racine.png,,,,,,,,,,,,,,,,,
1024.7000000029802,,rt_thecrossant_black,479286,black_plus_sign,,,,50,,,1,0.9523809523809523,,,,,,,,,,,,,,,
null,,color_black,479390,black_plus_sign,,,,null,,,,,,,,,,,,,,,,,,,
null,,learn_phase(without_color),481913,black_plus_sign,,,,null,US_Cities_List/mm_hanover.png,US_Cities_List/nat_peoria.png,,,,,,,,,,,,,,,,,
null,,black_cross(without_color),482469,green,,,,null,US_Cities_List/mm_hanover.png,US_Cities_List/nat_peoria.png,,,,,,,,,,,,,,,,,
null,,rt_plussign_withcolor,482972,green,,,,null,US_Cities_List/mm_hanover.png,US_Cities_List/nat_peoria.png,,,,,,,,,,,,,,,,,
null,,rt_thecrossant_black,484424,black_plus_sign,,,,null,,,,0.9523809523809523,,,,,,,,,,,,,,,
null,,color_black,484529,black_plus_sign,,,,null,,,,,,,,,,,,,,,,,,,
null,,learn_phase(without_color),487058,black_plus_sign,,,,null,US_Cities_List/mm_cornwall.png,US_Cities_List/nat_westpalmbeach.png,,,,,,,,,,,,,,,,,
null,,black_cross(without_color),487735,green,,,,null,US_Cities_List/mm_cornwall.png,US_Cities_List/nat_westpalmbeach.png,,,,,,,,,,,,,,,,,
null,,rt_plussign_withcolor,488239,green,,,,null,US_Cities_List/mm_cornwall.png,US_Cities_List/nat_westpalmbeach.png,,,,,,,,,,,,,,,,,
1009.5,,rt_thecrossant_black,489569,black_plus_sign,,,,50,,,1,0.953125,,,,,,,,,,,,,,,
null,,color_black,489674,black_plus_sign,,,,null,,,,,,,,,,,,,,,,,,,
null,,learn_phase(without_color),492204,black_plus_sign,,,,null,US_Cities_List/nat_racine.png,US_Cities_List/mm_cornwall.png,,,,,,,,,,,,,,,,,
null,,black_cross(without_color),493050,blue,,,,null,US_Cities_List/nat_racine.png,US_Cities_List/mm_cornwall.png,,,,,,,,,,,,,,,,,
null,,rt_plussign_withcolor,493553,blue,,,,null,US_Cities_List/nat_racine.png,US_Cities_List/mm_cornwall.png,,,,,,,,,,,,,,,,,
872.4000000059605,,rt_thecrossant_black,494715,black_plus_sign,,,,49,,,1,0.9538461538461539,,,,,,,,,,,,,,,
null,,color_black,494819,black_plus_sign,,,,null,,,,,,,,,,,,,,,,,,,
null,,learn_phase(without_color),497349,black_plus_sign,,,,null,US_Cities_List/mm_hanover.png,US_Cities_List/nat_peoria.png,,,,,,,,,,,,,,,,,
null,,black_cross(without_color),498379,green,,,,null,US_Cities_List/mm_hanover.png,US_Cities_List/nat_peoria.png,,,,,,,,,,,,,,,,,
null,,rt_plussign_withcolor,498882,green,,,,null,US_Cities_List/mm_hanover.png,US_Cities_List/nat_peoria.png,,,,,,,,,,,,,,,,,
1075.0999999940395,,rt_thecrossant_black,499860,black_plus_sign,,,,50,,,1,0.9545454545454546,,,,,,,,,,,,,,,
null,,color_black,499964,black_plus_sign,,,,null,,,,,,,,,,,,,,,,,,,
null,,learn_phase(without_color),502496,black_plus_sign,,,,null,US_Cities_List/nat_newhope.png,US_Cities_List/mm_boulder.png,,,,,,,,,,,,,,,,,
null,,black_cross(without_color),503551,blue,,,,null,US_Cities_List/nat_newhope.png,US_Cities_List/mm_boulder.png,,,,,,,,,,,,,,,,,
493.70000000298023,,rt_plussign_withcolor,504054,blue,,,,50,US_Cities_List/nat_newhope.png,US_Cities_List/mm_boulder.png,,,,,,,,,,,,,,,,,
null,,rt_thecrossant_black,505006,black_plus_sign,,,,49,,,0,0.9402985074626866,,,,,,,,,,,,,,,
null,,color_black,505110,black_plus_sign,,,,null,,,,,,,,,,,,,,,,,,,
null,,learn_phase(without_color),507647,black_plus_sign,,,,null,US_Cities_List/nat_racine.png,US_Cities_List/nat_carmel.png,,,,,,,,,,,,,,,,,
null,,black_cross(without_color),508308,blue,,,,null,US_Cities_List/nat_racine.png,US_Cities_List/nat_carmel.png,,,,,,,,,,,,,,,,,
null,,rt_plussign_withcolor,508812,blue,,,,null,US_Cities_List/nat_racine.png,US_Cities_List/nat_carmel.png,,,,,,,,,,,,,,,,,
1994.2000000029802,,rt_thecrossant_black,510158,black_plus_sign,,,,49,,,1,0.9411764705882353,,,,,,,,,,,,,,,
null,,color_black,510262,black_plus_sign,,,,null,,,,,,,,,,,,,,,,,,,
null,,learn_phase(without_color),512803,black_plus_sign,,,,null,US_Cities_List/nat_peoria.png,US_Cities_List/mm_cornwall.png,,,,,,,,,,,,,,,,,
null,,black_cross(without_color),513645,blue,,,,null,US_Cities_List/nat_peoria.png,US_Cities_List/mm_cornwall.png,,,,,,,,,,,,,,,,,
null,,rt_plussign_withcolor,514149,blue,,,,null,US_Cities_List/nat_peoria.png,US_Cities_List/mm_cornwall.png,,,,,,,,,,,,,,,,,
1067.5999999940395,,rt_thecrossant_black,515315,black_plus_sign,,,,49,,,1,0.9420289855072463,,,,,,,,,,,,,,,
null,,color_black,515419,black_plus_sign,,,,null,,,,,,,,,,,,,,,,,,,
null,,learn_phase(without_color),517952,black_plus_sign,,,,null,US_Cities_List/nat_huntsville.png,US_Cities_List/nat_hotsprings.png,,,,,,,,,,,,,,,,,
null,,black_cross(without_color),518953,blue,,,,null,US_Cities_List/nat_huntsville.png,US_Cities_List/nat_hotsprings.png,,,,,,,,,,,,,,,,,
null,,rt_plussign_withcolor,519456,blue,,,,null,US_Cities_List/nat_huntsville.png,US_Cities_List/nat_hotsprings.png,,,,,,,,,,,,,,,,,
962.7999999970198,,rt_thecrossant_black,520463,black_plus_sign,,,,49,,,1,0.9428571428571428,,,,,,,,,,,,,,,
null,,color_black,520567,black_plus_sign,,,,null,,,,,,,,,,,,,,,,,,,
null,,learn_phase(without_color),523111,black_plus_sign,,,,null,US_Cities_List/mm_hanover.png,US_Cities_List/nat_huntsville.png,,,,,,,,,,,,,,,,,
null,,black_cross(without_color),524111,green,,,,null,US_Cities_List/mm_hanover.png,US_Cities_List/nat_huntsville.png,,,,,,,,,,,,,,,,,
null,,rt_plussign_withcolor,524614,green,,,,null,US_Cities_List/mm_hanover.png,US_Cities_List/nat_huntsville.png,,,,,,,,,,,,,,,,,
1252.2000000029802,,rt_thecrossant_black,525623,black_plus_sign,,,,50,,,1,0.9436619718309859,,,,,,,,,,,,,,,
null,,color_black,525727,black_plus_sign,,,,null,,,,,,,,,,,,,,,,,,,
null,,learn_phase(without_color),528257,black_plus_sign,,,,null,US_Cities_List/nat_carmel.png,US_Cities_List/nat_peoria.png,,,,,,,,,,,,,,,,,
null,,black_cross(without_color),528719,green,,,,null,US_Cities_List/nat_carmel.png,US_Cities_List/nat_peoria.png,,,,,,,,,,,,,,,,,
null,,rt_plussign_withcolor,529222,green,,,,null,US_Cities_List/nat_carmel.png,US_Cities_List/nat_peoria.png,,,,,,,,,,,,,,,,,
1415.0999999940395,,rt_thecrossant_black,530767,black_plus_sign,,,,50,,,1,0.9444444444444444,,,,,,,,,,,,,,,
null,,color_black,530870,black_plus_sign,,,,null,,,,,,,,,,,,,,,,,,,
null,,learn_phase(without_color),533414,black_plus_sign,,,,null,US_Cities_List/mm_hanover.png,US_Cities_List/nat_huntsville.png,,,,,,,,,,,,,,,,,
null,,black_cross(without_color),534467,green,,,,null,US_Cities_List/mm_hanover.png,US_Cities_List/nat_huntsville.png,,,,,,,,,,,,,,,,,
null,,rt_plussign_withcolor,534971,green,,,,null,US_Cities_List/mm_hanover.png,US_Cities_List/nat_huntsville.png,,,,,,,,,,,,,,,,,
658.5999999940395,,rt_thecrossant_black,535925,black_plus_sign,,,,50,,,1,0.9452054794520548,,,,,,,,,,,,,,,
null,,color_black,536029,black_plus_sign,,,,null,,,,,,,,,,,,,,,,,,,
null,,learn_phase(without_color),538558,black_plus_sign,,,,null,US_Cities_List/mm_boulder.png,US_Cities_List/nat_westpalmbeach.png,,,,,,,,,,,,,,,,,
null,,black_cross(without_color),539538,blue,,,,null,US_Cities_List/mm_boulder.png,US_Cities_List/nat_westpalmbeach.png,,,,,,,,,,,,,,,,,
null,,rt_plussign_withcolor,540042,blue,,,,null,US_Cities_List/mm_boulder.png,US_Cities_List/nat_westpalmbeach.png,,,,,,,,,,,,,,,,,
1189.7999999970198,,rt_thecrossant_black,541069,black_plus_sign,,,,49,,,1,0.9459459459459459,,,,,,,,,,,,,,,
null,,color_black,541172,black_plus_sign,,,,null,,,,,,,,,,,,,,,,,,,
null,,learn_phase(without_color),543716,black_plus_sign,,,,null,US_Cities_List/mm_hanover.png,US_Cities_List/nat_huntsville.png,,,,,,,,,,,,,,,,,
null,,black_cross(without_color),544409,blue,,,,null,US_Cities_List/mm_hanover.png,US_Cities_List/nat_huntsville.png,,,,,,,,,,,,,,,,,
null,,rt_plussign_withcolor,544913,blue,,,,null,US_Cities_List/mm_hanover.png,US_Cities_List/nat_huntsville.png,,,,,,,,,,,,,,,,,
1347.7999999970198,,rt_thecrossant_black,546228,black_plus_sign,,,,49,,,1,0.9466666666666667,,,,,,,,,,,,,,,
null,,color_black,546332,black_plus_sign,,,,null,,,,,,,,,,,,,,,,,,,
null,,learn_phase(without_color),548875,black_plus_sign,,,,null,US_Cities_List/nat_huntsville.png,US_Cities_List/nat_peoria.png,,,,,,,,,,,,,,,,,
null,,black_cross(without_color),549638,blue,,,,null,US_Cities_List/nat_huntsville.png,US_Cities_List/nat_peoria.png,,,,,,,,,,,,,,,,,
null,,rt_plussign_withcolor,550141,blue,,,,null,US_Cities_List/nat_huntsville.png,US_Cities_List/nat_peoria.png,,,,,,,,,,,,,,,,,
1125.5,,rt_thecrossant_black,551387,black_plus_sign,,,,49,,,1,0.9473684210526315,,,,,,,,,,,,,,,
null,,color_black,551490,black_plus_sign,,,,null,,,,,,,,,,,,,,,,,,,
null,,learn_phase(without_color),554028,black_plus_sign,,,,null,US_Cities_List/nat_newhope.png,US_Cities_List/mm_boulder.png,,,,,,,,,,,,,,,,,
null,,black_cross(without_color),554932,blue,,,,null,US_Cities_List/nat_newhope.png,US_Cities_List/mm_boulder.png,,,,,,,,,,,,,,,,,
null,,rt_plussign_withcolor,555435,blue,,,,null,US_Cities_List/nat_newhope.png,US_Cities_List/mm_boulder.png,,,,,,,,,,,,,,,,,
1269.5,,rt_thecrossant_black,556539,black_plus_sign,,,,49,,,1,0.948051948051948,,,,,,,,,,,,,,,
null,,color_black,556643,black_plus_sign,,,,null,,,,,,,,,,,,,,,,,,,
null,,learn_phase(without_color),559186,black_plus_sign,,,,null,US_Cities_List/mm_hanover.png,US_Cities_List/nat_huntsville.png,,,,,,,,,,,,,,,,,
null,,black_cross(without_color),560051,blue,,,,null,US_Cities_List/mm_hanover.png,US_Cities_List/nat_huntsville.png,,,,,,,,,,,,,,,,,
471.3999999910593,,rt_plussign_withcolor,560554,blue,,,,49,US_Cities_List/mm_hanover.png,US_Cities_List/nat_huntsville.png,,,,,,,,,,,,,,,,,
null,,rt_thecrossant_black,561697,black_plus_sign,,,,null,,,1,0.9487179487179487,,,,,,,,,,,,,,,
null,,color_black,561801,black_plus_sign,,,,null,,,,,,,,,,,,,,,,,,,
null,,learn_phase(without_color),564345,black_plus_sign,,,,null,US_Cities_List/nat_huntsville.png,US_Cities_List/nat_peoria.png,,,,,,,,,,,,,,,,,
null,,black_cross(without_color),565329,green,,,,null,US_Cities_List/nat_huntsville.png,US_Cities_List/nat_peoria.png,,,,,,,,,,,,,,,,,
null,,rt_plussign_withcolor,565832,green,,,,null,US_Cities_List/nat_huntsville.png,US_Cities_List/nat_peoria.png,,,,,,,,,,,,,,,,,
null,,rt_thecrossant_black,566857,black_plus_sign,,,,null,,,,0.9487179487179487,,,,,,,,,,,,,,,
null,,color_black,566960,black_plus_sign,,,,null,,,,,,,,,,,,,,,,,,,
null,,learn_phase(without_color),569494,black_plus_sign,,,,null,US_Cities_List/nat_newhope.png,US_Cities_List/nat_racine.png,,,,,,,,,,,,,,,,,
null,,black_cross(without_color),570064,blue,,,,null,US_Cities_List/nat_newhope.png,US_Cities_List/nat_racine.png,,,,,,,,,,,,,,,,,
null,,rt_plussign_withcolor,570566,blue,,,,null,US_Cities_List/nat_newhope.png,US_Cities_List/nat_racine.png,,,,,,,,,,,,,,,,,
1505.8999999910593,,rt_thecrossant_black,572003,black_plus_sign,,,,49,,,1,0.9493670886075949,,,,,,,,,,,,,,,
null,,color_black,572108,black_plus_sign,,,,null,,,,,,,,,,,,,,,,,,,
null,,learn_phase(without_color),574640,black_plus_sign,,,,null,US_Cities_List/nat_newhope.png,US_Cities_List/mm_boulder.png,,,,,,,,,,,,,,,,,
null,,black_cross(without_color),575138,green,,,,null,US_Cities_List/nat_newhope.png,US_Cities_List/mm_boulder.png,,,,,,,,,,,,,,,,,
null,,rt_plussign_withcolor,575642,green,,,,null,US_Cities_List/nat_newhope.png,US_Cities_List/mm_boulder.png,,,,,,,,,,,,,,,,,
736.2000000029802,,rt_thecrossant_black,577151,black_plus_sign,,,,50,,,1,0.95,,,,,,,,,,,,,,,
null,,color_black,577255,black_plus_sign,,,,null,,,,,,,,,,,,,,,,,,,
null,,learn_phase(without_color),579789,black_plus_sign,,,,null,US_Cities_List/mm_boulder.png,US_Cities_List/nat_westpalmbeach.png,,,,,,,,,,,,,,,,,
null,,black_cross(without_color),580288,blue,,,,null,US_Cities_List/mm_boulder.png,US_Cities_List/nat_westpalmbeach.png,,,,,,,,,,,,,,,,,
null,,rt_plussign_withcolor,580791,blue,,,,null,US_Cities_List/mm_boulder.png,US_Cities_List/nat_westpalmbeach.png,,,,,,,,,,,,,,,,,
738,,rt_thecrossant_black,582300,black_plus_sign,,,,49,,,1,0.9506172839506173,,,,,,,,,,,,,,,
null,,color_black,582404,black_plus_sign,,,,null,,,,,,,,,,,,,,,,,,,
null,,learn_phase(without_color),584947,black_plus_sign,,,,null,US_Cities_List/nat_newhope.png,US_Cities_List/mm_boulder.png,,,,,,,,,,,,,,,,,
null,,black_cross(without_color),585568,blue,,,,null,US_Cities_List/nat_newhope.png,US_Cities_List/mm_boulder.png,,,,,,,,,,,,,,,,,
null,,rt_plussign_withcolor,586072,blue,,,,null,US_Cities_List/nat_newhope.png,US_Cities_List/mm_boulder.png,,,,,,,,,,,,,,,,,
669.5999999940395,,rt_thecrossant_black,587458,black_plus_sign,,,,49,,,1,0.9512195121951219,,,,,,,,,,,,,,,
null,,color_black,587563,black_plus_sign,,,,null,,,,,,,,,,,,,,,,,,,
null,,learn_phase(without_color),590091,black_plus_sign,,,,null,US_Cities_List/mm_hanover.png,US_Cities_List/mm_gatlinburg.png,,,,,,,,,,,,,,,,,
null,,black_cross(without_color),590524,green,,,,null,US_Cities_List/mm_hanover.png,US_Cities_List/mm_gatlinburg.png,,,,,,,,,,,,,,,,,
null,,rt_plussign_withcolor,591027,green,,,,null,US_Cities_List/mm_hanover.png,US_Cities_List/mm_gatlinburg.png,,,,,,,,,,,,,,,,,
883.3000000119209,,rt_thecrossant_black,592601,black_plus_sign,,,,50,,,1,0.9518072289156626,,,,,,,,,,,,,,,
null,,color_black,592704,black_plus_sign,,,,null,,,,,,,,,,,,,,,,,,,
null,,learn_phase(without_color),595232,black_plus_sign,,,,null,US_Cities_List/nat_peoria.png,US_Cities_List/mm_cornwall.png,,,,,,,,,,,,,,,,,
null,,black_cross(without_color),596226,blue,,,,null,US_Cities_List/nat_peoria.png,US_Cities_List/mm_cornwall.png,,,,,,,,,,,,,,,,,
469.79999999701977,,rt_plussign_withcolor,596728,blue,,,,49,US_Cities_List/nat_peoria.png,US_Cities_List/mm_cornwall.png,,,,,,,,,,,,,,,,,
null,,rt_thecrossant_black,597742,black_plus_sign,,,,null,,,1,0.9523809523809523,,,,,,,,,,,,,,,
null,,color_black,597847,black_plus_sign,,,,null,,,,,,,,,,,,,,,,,,,
null,,learn_phase(without_color),600384,black_plus_sign,,,,null,US_Cities_List/nat_racine.png,US_Cities_List/mm_cornwall.png,,,,,,,,,,,,,,,,,
null,,black_cross(without_color),600801,blue,,,,null,US_Cities_List/nat_racine.png,US_Cities_List/mm_cornwall.png,,,,,,,,,,,,,,,,,
null,,rt_plussign_withcolor,601305,blue,,,,null,US_Cities_List/nat_racine.png,US_Cities_List/mm_cornwall.png,,,,,,,,,,,,,,,,,
1285.5,,rt_thecrossant_black,602896,black_plus_sign,,,,49,,,1,0.9529411764705882,,,,,,,,,,,,,,,
null,,color_black,603000,black_plus_sign,,,,null,,,,,,,,,,,,,,,,,,,
null,,learn_phase(without_color),605540,black_plus_sign,,,,null,US_Cities_List/nat_peoria.png,US_Cities_List/mm_cornwall.png,,,,,,,,,,,,,,,,,
null,,black_cross(without_color),606620,green,,,,null,US_Cities_List/nat_peoria.png,US_Cities_List/mm_cornwall.png,,,,,,,,,,,,,,,,,
null,,rt_plussign_withcolor,607123,green,,,,null,US_Cities_List/nat_peoria.png,US_Cities_List/mm_cornwall.png,,,,,,,,,,,,,,,,,
1183,,rt_thecrossant_black,608051,black_plus_sign,,,,50,,,1,0.9534883720930233,,,,,,,,,,,,,,,
null,,color_black,608155,black_plus_sign,,,,null,,,,,,,,,,,,,,,,,,,
null,,learn_phase(without_color),610695,black_plus_sign,,,,null,US_Cities_List/mm_boulder.png,US_Cities_List/mm_shreveport.png,,,,,,,,,,,,,,,,,
null,,black_cross(without_color),611719,blue,,,,null,US_Cities_List/mm_boulder.png,US_Cities_List/mm_shreveport.png,,,,,,,,,,,,,,,,,
490.70000000298023,,rt_plussign_withcolor,612222,blue,,,,49,US_Cities_List/mm_boulder.png,US_Cities_List/mm_shreveport.png,,,,,,,,,,,,,,,,,
null,,rt_thecrossant_black,613206,black_plus_sign,,,,null,,,1,0.9540229885057471,,,,,,,,,,,,,,,
null,,color_black,613309,black_plus_sign,,,,null,,,,,,,,,,,,,,,,,,,
null,,learn_phase(without_color),615834,black_plus_sign,,,,null,US_Cities_List/mm_boulder.png,US_Cities_List/nat_westpalmbeach.png,,,,,,,,,,,,,,,,,
null,,black_cross(without_color),616324,green,,,,null,US_Cities_List/mm_boulder.png,US_Cities_List/nat_westpalmbeach.png,,,,,,,,,,,,,,,,,
null,,rt_plussign_withcolor,616828,green,,,,null,US_Cities_List/mm_boulder.png,US_Cities_List/nat_westpalmbeach.png,,,,,,,,,,,,,,,,,
1456.2000000029802,,rt_thecrossant_black,618347,black_plus_sign,,,,50,,,1,0.9545454545454546,,,,,,,,,,,,,,,
null,,color_black,618451,black_plus_sign,,,,null,,,,,,,,,,,,,,,,,,,
null,,learn_phase(without_color),620983,black_plus_sign,,,,null,US_Cities_List/mm_hanover.png,US_Cities_List/nat_huntsville.png,,,,,,,,,,,,,,,,,
null,,black_cross(without_color),621547,blue,,,,null,US_Cities_List/mm_hanover.png,US_Cities_List/nat_huntsville.png,,,,,,,,,,,,,,,,,
null,,rt_plussign_withcolor,622050,blue,,,,null,US_Cities_List/mm_hanover.png,US_Cities_List/nat_huntsville.png,,,,,,,,,,,,,,,,,
828.9000000059605,,rt_thecrossant_black,623496,black_plus_sign,,,,49,,,1,0.9550561797752809,,,,,,,,,,,,,,,
null,,color_black,623600,black_plus_sign,,,,null,,,,,,,,,,,,,,,,,,,
null,,learn_phase(without_color),626140,black_plus_sign,,,,null,US_Cities_List/nat_huntsville.png,US_Cities_List/nat_hotsprings.png,,,,,,,,,,,,,,,,,
null,,black_cross(without_color),626558,green,,,,null,US_Cities_List/nat_huntsville.png,US_Cities_List/nat_hotsprings.png,,,,,,,,,,,,,,,,,
null,,rt_plussign_withcolor,627062,green,,,,null,US_Cities_List/nat_huntsville.png,US_Cities_List/nat_hotsprings.png,,,,,,,,,,,,,,,,,
1068.9000000059605,,rt_thecrossant_black,628651,black_plus_sign,,,,50,,,1,0.9555555555555556,,,,,,,,,,,,,,,
null,,color_black,628756,black_plus_sign,,,,null,,,,,,,,,,,,,,,,,,,
null,,learn_phase(without_color),631294,black_plus_sign,,,,null,US_Cities_List/mm_boulder.png,US_Cities_List/nat_westpalmbeach.png,,,,,,,,,,,,,,,,,
null,,black_cross(without_color),631727,blue,,,,null,US_Cities_List/mm_boulder.png,US_Cities_List/nat_westpalmbeach.png,,,,,,,,,,,,,,,,,
478.90000000596046,,rt_plussign_withcolor,632230,blue,,,,49,US_Cities_List/mm_boulder.png,US_Cities_List/nat_westpalmbeach.png,,,,,,,,,,,,,,,,,
null,,rt_thecrossant_black,633806,black_plus_sign,,,,null,,,1,0.9560439560439561,,,,,,,,,,,,,,,
null,,color_black,633911,black_plus_sign,,,,null,,,,,,,,,,,,,,,,,,,
null,,learn_phase(without_color),636445,black_plus_sign,,,,null,US_Cities_List/nat_newhope.png,US_Cities_List/nat_racine.png,,,,,,,,,,,,,,,,,
null,,black_cross(without_color),637258,blue,,,,null,US_Cities_List/nat_newhope.png,US_Cities_List/nat_racine.png,,,,,,,,,,,,,,,,,
null,,rt_plussign_withcolor,637762,blue,,,,null,US_Cities_List/nat_newhope.png,US_Cities_List/nat_racine.png,,,,,,,,,,,,,,,,,
633.1000000089407,,rt_thecrossant_black,638957,black_plus_sign,,,,49,,,1,0.9565217391304348,,,,,,,,,,,,,,,
null,,color_black,639061,black_plus_sign,,,,null,,,,,,,,,,,,,,,,,,,
null,,learn_phase(without_color),641600,black_plus_sign,,,,null,US_Cities_List/mm_boulder.png,US_Cities_List/mm_shreveport.png,,,,,,,,,,,,,,,,,
null,,black_cross(without_color),642328,blue,,,,null,US_Cities_List/mm_boulder.png,US_Cities_List/mm_shreveport.png,,,,,,,,,,,,,,,,,
null,,rt_plussign_withcolor,642832,blue,,,,null,US_Cities_List/mm_boulder.png,US_Cities_List/mm_shreveport.png,,,,,,,,,,,,,,,,,
943.2000000029802,,rt_thecrossant_black,644111,black_plus_sign,,,,49,,,1,0.956989247311828,,,,,,,,,,,,,,,
null,,color_black,644215,black_plus_sign,,,,null,,,,,,,,,,,,,,,,,,,
null,,learn_phase(without_color),646748,black_plus_sign,,,,null,US_Cities_List/nat_carmel.png,US_Cities_List/mm_hanover.png,,,,,,,,,,,,,,,,,
null,,black_cross(without_color),647373,green,,,,null,US_Cities_List/nat_carmel.png,US_Cities_List/mm_hanover.png,,,,,,,,,,,,,,,,,
null,,rt_plussign_withcolor,647876,green,,,,null,US_Cities_List/nat_carmel.png,US_Cities_List/mm_hanover.png,,,,,,,,,,,,,,,,,
1172.5,,rt_thecrossant_black,649258,black_plus_sign,,,,50,,,1,0.9574468085106383,,,,,,,,,,,,,,,
null,,color_black,649363,black_plus_sign,,,,null,,,,,,,,,,,,,,,,,,,
null,,learn_phase(without_color),651897,black_plus_sign,,,,null,US_Cities_List/nat_peoria.png,US_Cities_List/mm_cornwall.png,,,,,,,,,,,,,,,,,
null,,black_cross(without_color),652325,green,,,,null,US_Cities_List/nat_peoria.png,US_Cities_List/mm_cornwall.png,,,,,,,,,,,,,,,,,
null,,rt_plussign_withcolor,652829,green,,,,null,US_Cities_List/nat_peoria.png,US_Cities_List/mm_cornwall.png,,,,,,,,,,,,,,,,,
860.7999999970198,,rt_thecrossant_black,654411,black_plus_sign,,,,50,,,1,0.9578947368421052,,,,,,,,,,,,,,,
null,,color_black,654515,black_plus_sign,,,,null,,,,,,,,,,,,,,,,,,,
null,,learn_phase(without_color),657055,black_plus_sign,,,,null,US_Cities_List/mm_boulder.png,US_Cities_List/nat_westpalmbeach.png,,,,,,,,,,,,,,,,,
null,,black_cross(without_color),658062,blue,,,,null,US_Cities_List/mm_boulder.png,US_Cities_List/nat_westpalmbeach.png,,,,,,,,,,,,,,,,,
null,,rt_plussign_withcolor,658566,blue,,,,null,US_Cities_List/mm_boulder.png,US_Cities_List/nat_westpalmbeach.png,,,,,,,,,,,,,,,,,
618.2000000029802,,rt_thecrossant_black,659568,black_plus_sign,,,,49,,,1,0.9583333333333334,,,,,,,,,,,,,,,
null,,color_black,659672,black_plus_sign,,,,null,,,,,,,,,,,,,,,,,,,
null,,learn_phase(without_color),662207,black_plus_sign,,,,null,US_Cities_List/nat_huntsville.png,US_Cities_List/nat_peoria.png,,,,,,,,,,,,,,,,,
null,,black_cross(without_color),663154,blue,,,,null,US_Cities_List/nat_huntsville.png,US_Cities_List/nat_peoria.png,,,,,,,,,,,,,,,,,
428.19999998807907,,rt_plussign_withcolor,663658,blue,,,,49,US_Cities_List/nat_huntsville.png,US_Cities_List/nat_peoria.png,,,,,,,,,,,,,,,,,
null,,rt_thecrossant_black,664720,black_plus_sign,,,,null,,,1,0.9587628865979382,,,,,,,,,,,,,,,
null,,color_black,664824,black_plus_sign,,,,null,,,,,,,,,,,,,,,,,,,
null,,learn_phase(without_color),667358,black_plus_sign,,,,null,US_Cities_List/mm_leesburg.png,US_Cities_List/nat_newhope.png,,,,,,,,,,,,,,,,,
null,,black_cross(without_color),668412,blue,,,,null,US_Cities_List/mm_leesburg.png,US_Cities_List/nat_newhope.png,,,,,,,,,,,,,,,,,
497.09999999403954,,rt_plussign_withcolor,668915,blue,,,,49,US_Cities_List/mm_leesburg.png,US_Cities_List/nat_newhope.png,,,,,,,,,,,,,,,,,
null,,rt_thecrossant_black,669870,black_plus_sign,,,,null,,,1,0.9591836734693877,,,,,,,,,,,,,,,
null,,color_black,669974,black_plus_sign,,,,null,,,,,,,,,,,,,,,,,,,
null,,learn_phase(without_color),672515,black_plus_sign,,,,null,US_Cities_List/nat_huntsville.png,US_Cities_List/nat_hotsprings.png,,,,,,,,,,,,,,,,,
null,,black_cross(without_color),673256,green,,,,null,US_Cities_List/nat_huntsville.png,US_Cities_List/nat_hotsprings.png,,,,,,,,,,,,,,,,,
null,,rt_plussign_withcolor,673760,green,,,,null,US_Cities_List/nat_huntsville.png,US_Cities_List/nat_hotsprings.png,,,,,,,,,,,,,,,,,
1509.4000000059605,,rt_thecrossant_black,675028,black_plus_sign,,,,50,,,1,0.9595959595959596,,,,,,,,,,,,,,,
null,,color_black,675133,black_plus_sign,,,,null,,,,,,,,,,,,,,,,,,,
null,,learn_phase(without_color),677664,black_plus_sign,,,,null,US_Cities_List/nat_racine.png,US_Cities_List/nat_carmel.png,,,,,,,,,,,,,,,,,
null,,black_cross(without_color),678526,blue,,,,null,US_Cities_List/nat_racine.png,US_Cities_List/nat_carmel.png,,,,,,,,,,,,,,,,,
null,,rt_plussign_withcolor,679030,blue,,,,null,US_Cities_List/nat_racine.png,US_Cities_List/nat_carmel.png,,,,,,,,,,,,,,,,,
1076.4000000059605,,rt_thecrossant_black,680177,black_plus_sign,,,,49,,,1,0.96,,,,,,,,,,,,,,,
null,,color_black,680281,black_plus_sign,,,,null,,,,,,,,,,,,,,,,,,,
null,,learn_phase(without_color),682810,black_plus_sign,,,,null,US_Cities_List/mm_boulder.png,US_Cities_List/nat_westpalmbeach.png,,,,,,,,,,,,,,,,,
null,,black_cross(without_color),683693,blue,,,,null,US_Cities_List/mm_boulder.png,US_Cities_List/nat_westpalmbeach.png,,,,,,,,,,,,,,,,,
null,,rt_plussign_withcolor,684196,blue,,,,null,US_Cities_List/mm_boulder.png,US_Cities_List/nat_westpalmbeach.png,,,,,,,,,,,,,,,,,
1019,,rt_thecrossant_black,685322,black_plus_sign,,,,49,,,1,0.9603960396039604,,,,,,,,,,,,,,,
null,,color_black,685426,black_plus_sign,,,,null,,,,,,,,,,,,,,,,,,,
null,,learn_phase(without_color),687974,black_plus_sign,,,,null,US_Cities_List/nat_huntsville.png,US_Cities_List/nat_hotsprings.png,,,,,,,,,,,,,,,,,
null,,black_cross(without_color),688455,blue,,,,null,US_Cities_List/nat_huntsville.png,US_Cities_List/nat_hotsprings.png,,,,,,,,,,,,,,,,,
null,,rt_plussign_withcolor,688959,blue,,,,null,US_Cities_List/nat_huntsville.png,US_Cities_List/nat_hotsprings.png,,,,,,,,,,,,,,,,,
1104,,rt_thecrossant_black,690487,black_plus_sign,,,,49,,,1,0.9607843137254902,,,,,,,,,,,,,,,
null,,color_black,690591,black_plus_sign,,,,null,,,,,,,,,,,,,,,,,,,
null,,learn_phase(without_color),693130,black_plus_sign,,,,null,US_Cities_List/nat_racine.png,US_Cities_List/mm_cornwall.png,,,,,,,,,,,,,,,,,
null,,black_cross(without_color),693970,green,,,,null,US_Cities_List/nat_racine.png,US_Cities_List/mm_cornwall.png,,,,,,,,,,,,,,,,,
403,,rt_plussign_withcolor,694475,green,,,,50,US_Cities_List/nat_racine.png,US_Cities_List/mm_cornwall.png,,,,,,,,,,,,,,,,,
null,,rt_thecrossant_black,695642,black_plus_sign,,,,null,,,1,0.9611650485436893,,,,,,,,,,,,,,,
null,,color_black,695747,black_plus_sign,,,,null,,,,,,,,,,,,,,,,,,,
null,,learn_phase(without_color),698292,black_plus_sign,,,,null,US_Cities_List/nat_newhope.png,US_Cities_List/mm_boulder.png,,,,,,,,,,,,,,,,,
null,,black_cross(without_color),698738,blue,,,,null,US_Cities_List/nat_newhope.png,US_Cities_List/mm_boulder.png,,,,,,,,,,,,,,,,,
null,,rt_plussign_withcolor,699242,blue,,,,null,US_Cities_List/nat_newhope.png,US_Cities_List/mm_boulder.png,,,,,,,,,,,,,,,,,
1235.2999999970198,,rt_thecrossant_black,700806,black_plus_sign,,,,49,,,1,0.9615384615384616,,,,,,,,,,,,,,,
null,,color_black,700911,black_plus_sign,,,,null,,,,,,,,,,,,,,,,,,,
null,,learn_phase(without_color),703441,black_plus_sign,,,,null,US_Cities_List/mm_hanover.png,US_Cities_List/mm_gatlinburg.png,,,,,,,,,,,,,,,,,
null,,black_cross(without_color),704333,blue,,,,null,US_Cities_List/mm_hanover.png,US_Cities_List/mm_gatlinburg.png,,,,,,,,,,,,,,,,,
null,,rt_plussign_withcolor,704836,blue,,,,null,US_Cities_List/mm_hanover.png,US_Cities_List/mm_gatlinburg.png,,,,,,,,,,,,,,,,,
587,,rt_thecrossant_black,705953,black_plus_sign,,,,49,,,1,0.9619047619047619,,,,,,,,,,,,,,,
null,,color_black,706057,black_plus_sign,,,,null,,,,,,,,,,,,,,,,,,,
null,,learn_phase(without_color),708598,black_plus_sign,,,,null,US_Cities_List/nat_peoria.png,US_Cities_List/mm_cornwall.png,,,,,,,,,,,,,,,,,
null,,black_cross(without_color),709185,green,,,,null,US_Cities_List/nat_peoria.png,US_Cities_List/mm_cornwall.png,,,,,,,,,,,,,,,,,
null,,rt_plussign_withcolor,709690,green,,,,null,US_Cities_List/nat_peoria.png,US_Cities_List/mm_cornwall.png,,,,,,,,,,,,,,,,,
1169.7000000029802,,rt_thecrossant_black,711110,black_plus_sign,,,,50,,,1,0.9622641509433962,,,,,,,,,,,,,,,
null,,color_black,711214,black_plus_sign,,,,null,,,,,,,,,,,,,,,,,,,
null,,learn_phase(without_color),713747,black_plus_sign,,,,null,US_Cities_List/mm_leesburg.png,US_Cities_List/nat_newhope.png,,,,,,,,,,,,,,,,,
null,,black_cross(without_color),714700,blue,,,,null,US_Cities_List/mm_leesburg.png,US_Cities_List/nat_newhope.png,,,,,,,,,,,,,,,,,
null,,rt_plussign_withcolor,715204,blue,,,,null,US_Cities_List/mm_leesburg.png,US_Cities_List/nat_newhope.png,,,,,,,,,,,,,,,,,
859.0999999940395,,rt_thecrossant_black,716261,black_plus_sign,,,,49,,,1,0.9626168224299065,,,,,,,,,,,,,,,
null,,color_black,716366,black_plus_sign,,,,null,,,,,,,,,,,,,,,,,,,
null,,learn_phase(without_color),718900,black_plus_sign,,,,null,US_Cities_List/mm_boulder.png,US_Cities_List/mm_shreveport.png,,,,,,,,,,,,,,,,,
null,,black_cross(without_color),719596,blue,,,,null,US_Cities_List/mm_boulder.png,US_Cities_List/mm_shreveport.png,,,,,,,,,,,,,,,,,
null,,rt_plussign_withcolor,720099,blue,,,,null,US_Cities_List/mm_boulder.png,US_Cities_List/mm_shreveport.png,,,,,,,,,,,,,,,,,
1213.199999988079,,rt_thecrossant_black,721413,black_plus_sign,,,,49,,,1,0.9629629629629629,,,,,,,,,,,,,,,
null,,color_black,721518,black_plus_sign,,,,null,,,,,,,,,,,,,,,,,,,
null,,learn_phase(without_color),724051,black_plus_sign,,,,null,US_Cities_List/nat_racine.png,US_Cities_List/nat_carmel.png,,,,,,,,,,,,,,,,,
null,,black_cross(without_color),724522,green,,,,null,US_Cities_List/nat_racine.png,US_Cities_List/nat_carmel.png,,,,,,,,,,,,,,,,,
null,,rt_plussign_withcolor,725026,green,,,,null,US_Cities_List/nat_racine.png,US_Cities_List/nat_carmel.png,,,,,,,,,,,,,,,,,
950.2999999970198,,rt_thecrossant_black,726564,black_plus_sign,,,,50,,,1,0.963302752293578,,,,,,,,,,,,,,,
null,,color_black,726668,black_plus_sign,,,,null,,,,,,,,,,,,,,,,,,,
null,,learn_phase(without_color),729206,black_plus_sign,,,,null,US_Cities_List/nat_newhope.png,US_Cities_List/nat_racine.png,,,,,,,,,,,,,,,,,
null,,black_cross(without_color),730102,blue,,,,null,US_Cities_List/nat_newhope.png,US_Cities_List/nat_racine.png,,,,,,,,,,,,,,,,,
null,,rt_plussign_withcolor,730605,blue,,,,null,US_Cities_List/nat_newhope.png,US_Cities_List/nat_racine.png,,,,,,,,,,,,,,,,,
648.2000000029802,,rt_thecrossant_black,731719,black_plus_sign,,,,49,,,1,0.9636363636363636,,,,,,,,,,,,,,,
null,,color_black,731823,black_plus_sign,,,,null,,,,,,,,,,,,,,,,,,,
null,,learn_phase(without_color),734357,black_plus_sign,,,,null,US_Cities_List/nat_huntsville.png,US_Cities_List/nat_peoria.png,,,,,,,,,,,,,,,,,
null,,black_cross(without_color),735351,green,,,,null,US_Cities_List/nat_huntsville.png,US_Cities_List/nat_peoria.png,,,,,,,,,,,,,,,,,
502.19999998807907,,rt_plussign_withcolor,735857,green,,,,50,US_Cities_List/nat_huntsville.png,US_Cities_List/nat_peoria.png,,,,,,,,,,,,,,,,,
null,,rt_thecrossant_black,736871,black_plus_sign,,,,null,,,1,0.963963963963964,,,,,,,,,,,,,,,
null,,color_black,736976,black_plus_sign,,,,null,,,,,,,,,,,,,,,,,,,
null,,learn_phase(without_color),739515,black_plus_sign,,,,null,US_Cities_List/mm_hanover.png,US_Cities_List/nat_huntsville.png,,,,,,,,,,,,,,,,,
null,,black_cross(without_color),740036,blue,,,,null,US_Cities_List/mm_hanover.png,US_Cities_List/nat_huntsville.png,,,,,,,,,,,,,,,,,
null,,rt_plussign_withcolor,740540,blue,,,,null,US_Cities_List/mm_hanover.png,US_Cities_List/nat_huntsville.png,,,,,,,,,,,,,,,,,
1769.699999988079,,rt_thecrossant_black,742029,black_plus_sign,,,,49,,,1,0.9642857142857143,,,,,,,,,,,,,,,
null,,color_black,742134,black_plus_sign,,,,null,,,,,,,,,,,,,,,,,,,
null,,learn_phase(without_color),744674,black_plus_sign,,,,null,US_Cities_List/mm_hanover.png,US_Cities_List/nat_peoria.png,,,,,,,,,,,,,,,,,
null,,black_cross(without_color),745097,blue,,,,null,US_Cities_List/mm_hanover.png,US_Cities_List/nat_peoria.png,,,,,,,,,,,,,,,,,
null,,rt_plussign_withcolor,745599,blue,,,,null,US_Cities_List/mm_hanover.png,US_Cities_List/nat_peoria.png,,,,,,,,,,,,,,,,,
739.7000000029802,,rt_thecrossant_black,747182,black_plus_sign,,,,49,,,1,0.9646017699115044,,,,,,,,,,,,,,,
null,,color_black,747287,black_plus_sign,,,,null,,,,,,,,,,,,,,,,,,,
null,,learn_phase(without_color),749819,black_plus_sign,,,,null,US_Cities_List/nat_carmel.png,US_Cities_List/nat_peoria.png,,,,,,,,,,,,,,,,,
null,,black_cross(without_color),750820,blue,,,,null,US_Cities_List/nat_carmel.png,US_Cities_List/nat_peoria.png,,,,,,,,,,,,,,,,,
null,,rt_plussign_withcolor,751323,blue,,,,null,US_Cities_List/nat_carmel.png,US_Cities_List/nat_peoria.png,,,,,,,,,,,,,,,,,
520.2000000029802,,rt_thecrossant_black,752332,black_plus_sign,,,,49,,,1,0.9649122807017544,,,,,,,,,,,,,,,
null,,color_black,752436,black_plus_sign,,,,null,,,,,,,,,,,,,,,,,,,
null,,learn_phase(without_color),754971,black_plus_sign,,,,null,US_Cities_List/nat_carmel.png,US_Cities_List/mm_hanover.png,,,,,,,,,,,,,,,,,
null,,black_cross(without_color),755473,blue,,,,null,US_Cities_List/nat_carmel.png,US_Cities_List/mm_hanover.png,,,,,,,,,,,,,,,,,
466.40000000596046,,rt_plussign_withcolor,755977,blue,,,,49,US_Cities_List/nat_carmel.png,US_Cities_List/mm_hanover.png,,,,,,,,,,,,,,,,,
null,,rt_thecrossant_black,757484,black_plus_sign,,,,null,,,1,0.9652173913043478,,,,,,,,,,,,,,,
null,,color_black,757589,black_plus_sign,,,,null,,,,,,,,,,,,,,,,,,,
null,,learn_phase(without_color),760123,black_plus_sign,,,,null,US_Cities_List/mm_leesburg.png,US_Cities_List/nat_newhope.png,,,,,,,,,,,,,,,,,
null,,black_cross(without_color),760593,blue,,,,null,US_Cities_List/mm_leesburg.png,US_Cities_List/nat_newhope.png,,,,,,,,,,,,,,,,,
null,,rt_plussign_withcolor,761097,blue,,,,null,US_Cities_List/mm_leesburg.png,US_Cities_List/nat_newhope.png,,,,,,,,,,,,,,,,,
731.5,,rt_thecrossant_black,762635,black_plus_sign,,,,49,,,1,0.9655172413793104,,,,,,,,,,,,,,,
null,,color_black,762740,black_plus_sign,,,,null,,,,,,,,,,,,,,,,,,,
null,,learn_phase(without_color),765281,black_plus_sign,,,,null,US_Cities_List/mm_hanover.png,US_Cities_List/nat_peoria.png,,,,,,,,,,,,,,,,,
null,,black_cross(without_color),766215,blue,,,,null,US_Cities_List/mm_hanover.png,US_Cities_List/nat_peoria.png,,,,,,,,,,,,,,,,,
null,,rt_plussign_withcolor,766719,blue,,,,null,US_Cities_List/mm_hanover.png,US_Cities_List/nat_peoria.png,,,,,,,,,,,,,,,,,
617.5,,rt_thecrossant_black,767793,black_plus_sign,,,,49,,,1,0.9658119658119658,,,,,,,,,,,,,,,
null,,color_black,767897,black_plus_sign,,,,null,,,,,,,,,,,,,,,,,,,
null,,learn_phase(without_color),770426,black_plus_sign,,,,null,US_Cities_List/mm_cornwall.png,US_Cities_List/nat_westpalmbeach.png,,,,,,,,,,,,,,,,,
null,,black_cross(without_color),771069,blue,,,,null,US_Cities_List/mm_cornwall.png,US_Cities_List/nat_westpalmbeach.png,,,,,,,,,,,,,,,,,
395.30000001192093,,rt_plussign_withcolor,771573,blue,,,,49,US_Cities_List/mm_cornwall.png,US_Cities_List/nat_westpalmbeach.png,,,,,,,,,,,,,,,,,
null,,rt_thecrossant_black,772938,black_plus_sign,,,,null,,,1,0.9661016949152542,,,,,,,,,,,,,,,
null,,color_black,773042,black_plus_sign,,,,null,,,,,,,,,,,,,,,,,,,
null,,learn_phase(without_color),775572,black_plus_sign,,,,null,US_Cities_List/mm_hanover.png,US_Cities_List/mm_gatlinburg.png,,,,,,,,,,,,,,,,,
null,,black_cross(without_color),776105,green,,,,null,US_Cities_List/mm_hanover.png,US_Cities_List/mm_gatlinburg.png,,,,,,,,,,,,,,,,,
null,,rt_plussign_withcolor,776609,green,,,,null,US_Cities_List/mm_hanover.png,US_Cities_List/mm_gatlinburg.png,,,,,,,,,,,,,,,,,
927.0999999940395,,rt_thecrossant_black,778084,black_plus_sign,,,,50,,,1,0.9663865546218487,,,,,,,,,,,,,,,
null,,color_black,778188,black_plus_sign,,,,null,,,,,,,,,,,,,,,,,,,
null,,learn_phase(without_color),780722,black_plus_sign,,,,null,US_Cities_List/nat_carmel.png,US_Cities_List/mm_hanover.png,,,,,,,,,,,,,,,,,
null,,black_cross(without_color),781742,green,,,,null,US_Cities_List/nat_carmel.png,US_Cities_List/mm_hanover.png,,,,,,,,,,,,,,,,,
null,,rt_plussign_withcolor,782246,green,,,,null,US_Cities_List/nat_carmel.png,US_Cities_List/mm_hanover.png,,,,,,,,,,,,,,,,,
1033.7000000029802,,rt_thecrossant_black,783235,black_plus_sign,,,,50,,,1,0.9666666666666667,,,,,,,,,,,,,,,
null,,color_black,783339,black_plus_sign,,,,null,,,,,,,,,,,,,,,,,,,
null,,learn_phase(without_color),785877,black_plus_sign,,,,null,US_Cities_List/nat_racine.png,US_Cities_List/mm_cornwall.png,,,,,,,,,,,,,,,,,
null,,black_cross(without_color),786402,blue,,,,null,US_Cities_List/nat_racine.png,US_Cities_List/mm_cornwall.png,,,,,,,,,,,,,,,,,
null,,rt_plussign_withcolor,786907,blue,,,,null,US_Cities_List/nat_racine.png,US_Cities_List/mm_cornwall.png,,,,,,,,,,,,,,,,,
1261,,rt_thecrossant_black,788390,black_plus_sign,,,,49,,,1,0.9669421487603306,,,,,,,,,,,,,,,
null,,color_black,788495,black_plus_sign,,,,null,,,,,,,,,,,,,,,,,,,
null,,learn_phase(without_color),791027,black_plus_sign,,,,null,US_Cities_List/nat_huntsville.png,US_Cities_List/nat_hotsprings.png,,,,,,,,,,,,,,,,,
null,,black_cross(without_color),791662,blue,,,,null,US_Cities_List/nat_huntsville.png,US_Cities_List/nat_hotsprings.png,,,,,,,,,,,,,,,,,
null,,rt_plussign_withcolor,792166,blue,,,,null,US_Cities_List/nat_huntsville.png,US_Cities_List/nat_hotsprings.png,,,,,,,,,,,,,,,,,
744.2000000029802,,rt_thecrossant_black,793539,black_plus_sign,,,,49,,,1,0.9672131147540983,,,,,,,,,,,,,,,
null,,color_black,793643,black_plus_sign,,,,null,,,,,,,,,,,,,,,,,,,
null,,learn_phase(without_color),796182,black_plus_sign,,,,null,US_Cities_List/mm_cornwall.png,US_Cities_List/nat_westpalmbeach.png,,,,,,,,,,,,,,,,,
null,,black_cross(without_color),797033,blue,,,,null,US_Cities_List/mm_cornwall.png,US_Cities_List/nat_westpalmbeach.png,,,,,,,,,,,,,,,,,
null,,rt_plussign_withcolor,797537,blue,,,,null,US_Cities_List/mm_cornwall.png,US_Cities_List/nat_westpalmbeach.png,,,,,,,,,,,,,,,,,
797.6999999880791,,rt_thecrossant_black,798694,black_plus_sign,,,,50,,,0,0.959349593495935,,,,,,,,,,,,,,,
null,,color_black,798799,black_plus_sign,,,,null,,,,,,,,,,,,,,,,,,,
null,,learn_phase(without_color),801342,black_plus_sign,,,,null,US_Cities_List/nat_racine.png,US_Cities_List/mm_cornwall.png,,,,,,,,,,,,,,,,,
null,,black_cross(without_color),802093,green,,,,null,US_Cities_List/nat_racine.png,US_Cities_List/mm_cornwall.png,,,,,,,,,,,,,,,,,
null,,rt_plussign_withcolor,802597,green,,,,null,US_Cities_List/nat_racine.png,US_Cities_List/mm_cornwall.png,,,,,,,,,,,,,,,,,
1019.5,,rt_thecrossant_black,803855,black_plus_sign,,,,49,,,0,0.9516129032258065,,,,,,,,,,,,,,,
null,,warning_page,806860,warning,,,,null,,,,,,,,,,,,,,,,,,,
null,,color_black,806964,black_plus_sign,,,,null,,,,,,,,,,,,,,,,,,,
null,,thebreak,807068,<p></p>,,,,null,,,,,,,,,,,,,,,,,,,
6423.5999999940395,,intro_0,813495,instruct,,,,32,,,,,,,,,,,,,,,,,,,
18368.89999999106,,intro_1,831866,instruct,,,,32,,,,,,,,,,,,,,,,,,,
3331,,directmemory_phase,838423,../static/images/US_Cities_List/mm_cornwall.png,,,,50,,,0,0,../static/images/US_Cities_List/nat_peoria.png,../static/images/US_Cities_List/mm_gatlinburg.png,../static/images/US_Cities_List/mm_hanover.png,../static/images/US_Cities_List/nat_peoria.png,../static/images/US_Cities_List/mm_hanover.png,../static/images/US_Cities_List/mm_gatlinburg.png,0.5,closer,,,,,,,
5576.5,,directmemory_phase,844985,../static/images/US_Cities_List/nat_carmel.png,,,,49,,,1,0.5,../static/images/US_Cities_List/nat_racine.png,../static/images/US_Cities_List/mm_shreveport.png,../static/images/US_Cities_List/nat_newhope.png,../static/images/US_Cities_List/nat_racine.png,../static/images/US_Cities_List/nat_newhope.png,../static/images/US_Cities_List/mm_shreveport.png,1,,,,,,,,
3704,,directmemory_phase,851544,../static/images/US_Cities_List/nat_peoria.png,,,,51,,,1,0.6666666666666666,../static/images/US_Cities_List/mm_leesburg.png,../static/images/US_Cities_List/nat_westpalmbeach.png,../static/images/US_Cities_List/mm_cornwall.png,../static/images/US_Cities_List/mm_cornwall.png,../static/images/US_Cities_List/nat_westpalmbeach.png,../static/images/US_Cities_List/mm_leesburg.png,1,,,,,,,,
2675.800000011921,,directmemory_phase,858110,../static/images/US_Cities_List/nat_huntsville.png,,,,49,,,0,0.5,../static/images/US_Cities_List/nat_racine.png,../static/images/US_Cities_List/mm_gatlinburg.png,../static/images/US_Cities_List/mm_hanover.png,../static/images/US_Cities_List/mm_hanover.png,../static/images/US_Cities_List/mm_gatlinburg.png,../static/images/US_Cities_List/nat_racine.png,0.5,closer,,,,,,,
3368.2999999970198,,directmemory_phase,864657,../static/images/US_Cities_List/mm_boulder.png,,,,49,,,1,0.6,../static/images/US_Cities_List/mm_shreveport.png,../static/images/US_Cities_List/nat_peoria.png,../static/images/US_Cities_List/mm_leesburg.png,../static/images/US_Cities_List/mm_shreveport.png,../static/images/US_Cities_List/mm_leesburg.png,../static/images/US_Cities_List/nat_peoria.png,1,,,,,,,,
3922.7999999970198,,directmemory_phase,871217,../static/images/US_Cities_List/nat_peoria.png,,,,51,,,1,0.6666666666666666,../static/images/US_Cities_List/mm_leesburg.png,../static/images/US_Cities_List/nat_hotsprings.png,../static/images/US_Cities_List/mm_hanover.png,../static/images/US_Cities_List/mm_hanover.png,../static/images/US_Cities_List/nat_hotsprings.png,../static/images/US_Cities_List/mm_leesburg.png,1,,,,,,,,
null,,directmemory_phase,877778,../static/images/US_Cities_List/mm_hanover.png,,,,null,,,0,0.5714285714285714,../static/images/US_Cities_List/mm_leesburg.png,../static/images/US_Cities_List/nat_hotsprings.png,../static/images/US_Cities_List/mm_gatlinburg.png,../static/images/US_Cities_List/mm_gatlinburg.png,../static/images/US_Cities_List/nat_hotsprings.png,../static/images/US_Cities_List/mm_leesburg.png,0,,,,,,,,
356.59999999403954,,directmemory_phase,884337,../static/images/US_Cities_List/nat_peoria.png,,,,51,,,0,0.5,../static/images/US_Cities_List/nat_carmel.png,../static/images/US_Cities_List/nat_newhope.png,../static/images/US_Cities_List/mm_gatlinburg.png,../static/images/US_Cities_List/nat_carmel.png,../static/images/US_Cities_List/mm_gatlinburg.png,../static/images/US_Cities_List/nat_newhope.png,0.5,closer,,,,,,,
3935.8999999910593,,directmemory_phase,890896,../static/images/US_Cities_List/nat_hotsprings.png,,,,51,,,0,0.4444444444444444,../static/images/US_Cities_List/mm_hanover.png,../static/images/US_Cities_List/nat_huntsville.png,../static/images/US_Cities_List/mm_gatlinburg.png,../static/images/US_Cities_List/nat_huntsville.png,../static/images/US_Cities_List/mm_hanover.png,../static/images/US_Cities_List/mm_gatlinburg.png,0.5,closer,,,,,,,
2234.2999999970198,,directmemory_phase,897453,../static/images/US_Cities_List/nat_westpalmbeach.png,,,,50,,,0,0.4,../static/images/US_Cities_List/nat_huntsville.png,../static/images/US_Cities_List/nat_racine.png,../static/images/US_Cities_List/mm_boulder.png,../static/images/US_Cities_List/mm_boulder.png,../static/images/US_Cities_List/nat_racine.png,../static/images/US_Cities_List/nat_huntsville.png,0.5,closer,,,,,,,
3432.9000000059605,,directmemory_phase,904018,../static/images/US_Cities_List/nat_carmel.png,,,,51,,,1,0.45454545454545453,../static/images/US_Cities_List/nat_westpalmbeach.png,../static/images/US_Cities_List/nat_huntsville.png,../static/images/US_Cities_List/nat_peoria.png,../static/images/US_Cities_List/nat_peoria.png,../static/images/US_Cities_List/nat_huntsville.png,../static/images/US_Cities_List/nat_westpalmbeach.png,1,,,,,,,,
4467.4000000059605,,directmemory_phase,910581,../static/images/US_Cities_List/nat_racine.png,,,,49,,,0,0.4166666666666667,../static/images/US_Cities_List/nat_westpalmbeach.png,../static/images/US_Cities_List/mm_cornwall.png,../static/images/US_Cities_List/nat_huntsville.png,../static/images/US_Cities_List/mm_cornwall.png,../static/images/US_Cities_List/nat_westpalmbeach.png,../static/images/US_Cities_List/nat_huntsville.png,0.5,closer,,,,,,,
5684.79999999702,,directmemory_phase,917145,../static/images/US_Cities_List/mm_leesburg.png,,,,50,,,0,0.38461538461538464,../static/images/US_Cities_List/nat_westpalmbeach.png,../static/images/US_Cities_List/mm_boulder.png,../static/images/US_Cities_List/nat_newhope.png,../static/images/US_Cities_List/nat_newhope.png,../static/images/US_Cities_List/mm_boulder.png,../static/images/US_Cities_List/nat_westpalmbeach.png,0.5,closer,,,,,,,
3436.2000000029802,,directmemory_phase,923710,../static/images/US_Cities_List/mm_hanover.png,,,,49,,,1,0.42857142857142855,../static/images/US_Cities_List/nat_peoria.png,../static/images/US_Cities_List/mm_leesburg.png,../static/images/US_Cities_List/nat_hotsprings.png,../static/images/US_Cities_List/nat_peoria.png,../static/images/US_Cities_List/nat_hotsprings.png,../static/images/US_Cities_List/mm_leesburg.png,1,,,,,,,,
2419.5999999940395,,directmemory_phase,930266,../static/images/US_Cities_List/mm_gatlinburg.png,,,,51,,,0,0.4,../static/images/US_Cities_List/nat_peoria.png,../static/images/US_Cities_List/mm_hanover.png,../static/images/US_Cities_List/mm_cornwall.png,../static/images/US_Cities_List/mm_hanover.png,../static/images/US_Cities_List/nat_peoria.png,../static/images/US_Cities_List/mm_cornwall.png,0.5,closer,,,,,,,
3856.7000000029802,,directmemory_phase,936827,../static/images/US_Cities_List/nat_huntsville.png,,,,50,,,1,0.4375,../static/images/US_Cities_List/mm_cornwall.png,../static/images/US_Cities_List/nat_peoria.png,../static/images/US_Cities_List/nat_newhope.png,../static/images/US_Cities_List/nat_peoria.png,../static/images/US_Cities_List/mm_cornwall.png,../static/images/US_Cities_List/nat_newhope.png,1,,,,,,,,
5748.79999999702,,directmemory_phase,943388,../static/images/US_Cities_List/mm_hanover.png,,,,51,,,0,0.4117647058823529,../static/images/US_Cities_List/nat_huntsville.png,../static/images/US_Cities_List/mm_boulder.png,../static/images/US_Cities_List/nat_racine.png,../static/images/US_Cities_List/nat_huntsville.png,../static/images/US_Cities_List/nat_racine.png,../static/images/US_Cities_List/mm_boulder.png,0.5,closer,,,,,,,
3871.4000000059605,,directmemory_phase,949954,../static/images/US_Cities_List/nat_peoria.png,,,,49,,,0,0.3888888888888889,../static/images/US_Cities_List/mm_gatlinburg.png,../static/images/US_Cities_List/nat_huntsville.png,../static/images/US_Cities_List/mm_boulder.png,../static/images/US_Cities_List/nat_huntsville.png,../static/images/US_Cities_List/mm_gatlinburg.png,../static/images/US_Cities_List/mm_boulder.png,0.5,closer,,,,,,,
2738.2000000029802,,directmemory_phase,956522,../static/images/US_Cities_List/nat_newhope.png,,,,50,,,0,0.3684210526315789,../static/images/US_Cities_List/nat_huntsville.png,../static/images/US_Cities_List/mm_shreveport.png,../static/images/US_Cities_List/mm_boulder.png,../static/images/US_Cities_List/mm_boulder.png,../static/images/US_Cities_List/mm_shreveport.png,../static/images/US_Cities_List/nat_huntsville.png,0.5,closer,,,,,,,
3240,,directmemory_phase,963080,../static/images/US_Cities_List/nat_carmel.png,,,,50,,,0,0.35,../static/images/US_Cities_List/mm_hanover.png,../static/images/US_Cities_List/nat_westpalmbeach.png,../static/images/US_Cities_List/nat_huntsville.png,../static/images/US_Cities_List/mm_hanover.png,../static/images/US_Cities_List/nat_huntsville.png,../static/images/US_Cities_List/nat_westpalmbeach.png,0.5,closer,,,,,,,
4487.0999999940395,,directmemory_phase,969643,../static/images/US_Cities_List/nat_racine.png,,,,50,,,0,0.3333333333333333,../static/images/US_Cities_List/nat_hotsprings.png,../static/images/US_Cities_List/nat_westpalmbeach.png,../static/images/US_Cities_List/nat_newhope.png,../static/images/US_Cities_List/nat_newhope.png,../static/images/US_Cities_List/nat_westpalmbeach.png,../static/images/US_Cities_List/nat_hotsprings.png,0.5,closer,,,,,,,
3529.5,,directmemory_phase,976206,../static/images/US_Cities_List/nat_newhope.png,,,,51,,,0,0.3181818181818182,../static/images/US_Cities_List/nat_westpalmbeach.png,../static/images/US_Cities_List/mm_leesburg.png,../static/images/US_Cities_List/nat_huntsville.png,../static/images/US_Cities_List/mm_leesburg.png,../static/images/US_Cities_List/nat_westpalmbeach.png,../static/images/US_Cities_List/nat_huntsville.png,0.5,closer,,,,,,,
1541.2999999970198,,directmemory_phase,982773,../static/images/US_Cities_List/mm_shreveport.png,,,,49,,,1,0.34782608695652173,../static/images/US_Cities_List/mm_boulder.png,../static/images/US_Cities_List/mm_cornwall.png,../static/images/US_Cities_List/nat_westpalmbeach.png,../static/images/US_Cities_List/mm_boulder.png,../static/images/US_Cities_List/nat_westpalmbeach.png,../static/images/US_Cities_List/mm_cornwall.png,1,,,,,,,,
2216.5,,directmemory_phase,989317,../static/images/US_Cities_List/mm_boulder.png,,,,51,,,0,0.3333333333333333,../static/images/US_Cities_List/mm_cornwall.png,../static/images/US_Cities_List/nat_westpalmbeach.png,../static/images/US_Cities_List/nat_carmel.png,../static/images/US_Cities_List/nat_westpalmbeach.png,../static/images/US_Cities_List/mm_cornwall.png,../static/images/US_Cities_List/nat_carmel.png,0.5,closer,,,,,,,
3783.7000000029802,,directmemory_phase,995886,../static/images/US_Cities_List/nat_huntsville.png,,,,49,,,0,0.32,../static/images/US_Cities_List/nat_newhope.png,../static/images/US_Cities_List/nat_carmel.png,../static/images/US_Cities_List/nat_hotsprings.png,../static/images/US_Cities_List/nat_hotsprings.png,../static/images/US_Cities_List/nat_carmel.png,../static/images/US_Cities_List/nat_newhope.png,0.5,closer,,,,,,,
5353.4000000059605,,directmemory_phase,1002444,../static/images/US_Cities_List/nat_racine.png,,,,50,,,0,0.3076923076923077,../static/images/US_Cities_List/nat_hotsprings.png,../static/images/US_Cities_List/nat_westpalmbeach.png,../static/images/US_Cities_List/nat_carmel.png,../static/images/US_Cities_List/nat_carmel.png,../static/images/US_Cities_List/nat_westpalmbeach.png,../static/images/US_Cities_List/nat_hotsprings.png,0.5,closer,,,,,,,
5675.79999999702,,directmemory_phase,1009009,../static/images/US_Cities_List/mm_cornwall.png,,,,49,,,0,0.2962962962962963,../static/images/US_Cities_List/mm_shreveport.png,../static/images/US_Cities_List/nat_huntsville.png,../static/images/US_Cities_List/nat_racine.png,../static/images/US_Cities_List/nat_racine.png,../static/images/US_Cities_List/nat_huntsville.png,../static/images/US_Cities_List/mm_shreveport.png,0.5,closer,,,,,,,
4120.20000000298,,directmemory_phase,1015574,../static/images/US_Cities_List/nat_newhope.png,,,,49,,,1,0.32142857142857145,../static/images/US_Cities_List/nat_racine.png,../static/images/US_Cities_List/mm_hanover.png,../static/images/US_Cities_List/nat_carmel.png,../static/images/US_Cities_List/nat_racine.png,../static/images/US_Cities_List/nat_carmel.png,../static/images/US_Cities_List/mm_hanover.png,1,,,,,,,,
3636,,directmemory_phase,1022135,../static/images/US_Cities_List/mm_hanover.png,,,,49,,,0,0.3103448275862069,../static/images/US_Cities_List/nat_racine.png,../static/images/US_Cities_List/nat_carmel.png,../static/images/US_Cities_List/mm_boulder.png,../static/images/US_Cities_List/nat_carmel.png,../static/images/US_Cities_List/nat_racine.png,../static/images/US_Cities_List/mm_boulder.png,0.5,closer,,,,,,,
5637.0999999940395,,directmemory_phase,1028673,../static/images/US_Cities_List/mm_cornwall.png,,,,50,,,0,0.3,../static/images/US_Cities_List/nat_westpalmbeach.png,../static/images/US_Cities_List/mm_leesburg.png,../static/images/US_Cities_List/nat_carmel.png,../static/images/US_Cities_List/nat_westpalmbeach.png,../static/images/US_Cities_List/nat_carmel.png,../static/images/US_Cities_List/mm_leesburg.png,0.5,closer,,,,,,,
5498.5999999940395,,directmemory_phase,1035245,../static/images/US_Cities_List/mm_boulder.png,,,,50,,,1,0.3225806451612903,../static/images/US_Cities_List/nat_racine.png,../static/images/US_Cities_List/nat_newhope.png,../static/images/US_Cities_List/nat_huntsville.png,../static/images/US_Cities_List/nat_newhope.png,../static/images/US_Cities_List/nat_racine.png,../static/images/US_Cities_List/nat_huntsville.png,1,,,,,,,,
2536.2000000029802,,directmemory_phase,1041804,../static/images/US_Cities_List/nat_westpalmbeach.png,,,,49,,,0,0.3125,../static/images/US_Cities_List/mm_leesburg.png,../static/images/US_Cities_List/nat_peoria.png,../static/images/US_Cities_List/mm_cornwall.png,../static/images/US_Cities_List/mm_cornwall.png,../static/images/US_Cities_List/nat_peoria.png,../static/images/US_Cities_List/mm_leesburg.png,0.5,closer,,,,,,,
null,,thebreak,1041909,<p></p>,,,,null,,,,,,,,,,,,,,,,,,,
9738,,intro_0,1051650,instruct,,,,32,,,,,,,,,,,,,,,,,,,
5857.9000000059605,,intro_1,1057510,instruct,,,,32,,,,,,,,,,,,,,,,,,,
2154.4000000059605,,intro_2,1059667,instruct,,,,32,,,,,,,,,,,,,,,,,,,
5795.29999999702,,intro_3,1065465,instruct,,,,32,,,,,,,,,,,,,,,,,,,
849.2999999970198,,intro_4,1066316,instruct,,,,32,,,,,,,,,,,,,,,,,,,
1448.9000000059605,,intro_5,1067767,instruct,,,,32,,,,,,,,,,,,,,,,,,,
2425,,intro_6,1070194,instruct,,,,32,,,,,,,,,,,,,,,,,,,
5307.5,,intro_7,1075503,instruct,,,,32,,,,,,,,,,,,,,,,,,,
1806,,intro_8,1077311,instruct,,,,32,,,,,,,,,,,,,,,,,,,
839.0999999940395,,intro_9,1078152,instruct,,,,32,,,,,,,,,,,,,,,,,,,
9630.5,,intro_10,1087784,instruct,,,,32,,,,,,,,,,,,,,,,,,,
3442,,shortestpath_phase,1095342,../static/images/US_Cities_List/nat_peoria.png,,,,49,../static/images/US_Cities_List/nat_racine.png,../static/images/US_Cities_List/nat_newhope.png,1,1,,,,../static/images/US_Cities_List/nat_racine.png,,,,,One Edge Diff,Two Edge Three Edge,,,,,
5934.100000008941,,shortestpath_phase,1102878,../static/images/US_Cities_List/mm_gatlinburg.png,,,,50,../static/images/US_Cities_List/nat_hotsprings.png,../static/images/US_Cities_List/nat_carmel.png,1,1,,,,../static/images/US_Cities_List/nat_carmel.png,,,,,One Edge Diff,Two Edge Three Edge,,,,,
4033.5,,shortestpath_phase,1110424,../static/images/US_Cities_List/mm_boulder.png,,,,49,../static/images/US_Cities_List/mm_gatlinburg.png,../static/images/US_Cities_List/nat_carmel.png,0,0.6666666666666666,,,,../static/images/US_Cities_List/nat_carmel.png,,,,,Two Edge Diff,Three Edge Five Edge,,,,,
1954.2999999970198,,shortestpath_phase,1117975,../static/images/US_Cities_List/mm_shreveport.png,,,,50,../static/images/US_Cities_List/nat_westpalmbeach.png,../static/images/US_Cities_List/nat_hotsprings.png,0,0.5,,,,../static/images/US_Cities_List/nat_westpalmbeach.png,,,,,Four Edge Diff,Two Edge Six Edge,,,,,
7474.899999991059,,shortestpath_phase,1125523,../static/images/US_Cities_List/nat_peoria.png,,,,49,../static/images/US_Cities_List/mm_boulder.png,../static/images/US_Cities_List/mm_leesburg.png,1,0.6,,,,../static/images/US_Cities_List/mm_boulder.png,,,,,One Edge Diff,Three Edge Four Edge,,,,,
2019.4000000059605,,shortestpath_phase,1133073,../static/images/US_Cities_List/mm_gatlinburg.png,,,,50,../static/images/US_Cities_List/mm_leesburg.png,../static/images/US_Cities_List/nat_newhope.png,1,0.6666666666666666,,,,../static/images/US_Cities_List/nat_newhope.png,,,,,One Edge Diff,Four Edge Five Edge,,,,,
1803.9000000059605,,shortestpath_phase,1140627,../static/images/US_Cities_List/nat_hotsprings.png,,,,49,../static/images/US_Cities_List/mm_gatlinburg.png,../static/images/US_Cities_List/nat_racine.png,1,0.7142857142857143,,,,../static/images/US_Cities_List/mm_gatlinburg.png,,,,,One Edge Diff,Three Edge Four Edge,,,,,
3274.7999999970198,,shortestpath_phase,1148184,../static/images/US_Cities_List/mm_leesburg.png,,,,49,../static/images/US_Cities_List/nat_racine.png,../static/images/US_Cities_List/nat_hotsprings.png,1,0.75,,,,../static/images/US_Cities_List/nat_racine.png,,,,,Four Edge Diff,Two Edge Six Edge,,,,,
4650.899999991059,,shortestpath_phase,1155736,../static/images/US_Cities_List/nat_hotsprings.png,,,,50,../static/images/US_Cities_List/mm_leesburg.png,../static/images/US_Cities_List/nat_westpalmbeach.png,1,0.7777777777777778,,,,../static/images/US_Cities_List/nat_westpalmbeach.png,,,,,Two Edge Diff,Four Edge Six Edge,,,,,
2638.9000000059605,,shortestpath_phase,1163297,../static/images/US_Cities_List/mm_shreveport.png,,,,50,../static/images/US_Cities_List/nat_hotsprings.png,../static/images/US_Cities_List/nat_newhope.png,1,0.8,,,,../static/images/US_Cities_List/nat_newhope.png,,,,,Four Edge Diff,Two Edge Six Edge,,,,,
4513.899999991059,,shortestpath_phase,1170849,../static/images/US_Cities_List/nat_huntsville.png,,,,50,../static/images/US_Cities_List/mm_cornwall.png,../static/images/US_Cities_List/mm_leesburg.png,0,0.7272727272727273,,,,../static/images/US_Cities_List/mm_cornwall.png,,,,,Three Edge Diff,Two Edge Five Edge,,,,,
3492.7999999970198,,shortestpath_phase,1178410,../static/images/US_Cities_List/nat_hotsprings.png,,,,49,../static/images/US_Cities_List/nat_newhope.png,../static/images/US_Cities_List/mm_shreveport.png,1,0.75,,,,../static/images/US_Cities_List/nat_newhope.png,,,,,One Edge Diff,Five Edge Six Edge,,,,,
1629.199999988079,,shortestpath_phase,1185962,../static/images/US_Cities_List/mm_gatlinburg.png,,,,50,../static/images/US_Cities_List/mm_leesburg.png,../static/images/US_Cities_List/nat_peoria.png,1,0.7692307692307693,,,,../static/images/US_Cities_List/nat_peoria.png,,,,,Three Edge Diff,Two Edge Five Edge,,,,,
1382.7000000029802,,shortestpath_phase,1193519,../static/images/US_Cities_List/mm_shreveport.png,,,,50,../static/images/US_Cities_List/nat_westpalmbeach.png,../static/images/US_Cities_List/nat_huntsville.png,0,0.7142857142857143,,,,../static/images/US_Cities_List/nat_westpalmbeach.png,,,,,Three Edge Diff,Two Edge Five Edge,,,,,
903.5,,shortestpath_phase,1201074,../static/images/US_Cities_List/nat_hotsprings.png,,,,49,../static/images/US_Cities_List/nat_westpalmbeach.png,../static/images/US_Cities_List/mm_shreveport.png,1,0.7333333333333333,,,,../static/images/US_Cities_List/nat_westpalmbeach.png,,,,,Two Edge Diff,Four Edge Six Edge,,,,,
1339.2000000029802,,shortestpath_phase,1208627,../static/images/US_Cities_List/mm_gatlinburg.png,,,,50,../static/images/US_Cities_List/nat_peoria.png,../static/images/US_Cities_List/mm_boulder.png,0,0.6875,,,,../static/images/US_Cities_List/nat_peoria.png,,,,,Three Edge Diff,Two Edge Five Edge,,,,,
5560.9000000059605,,shortestpath_phase,1216172,../static/images/US_Cities_List/nat_hotsprings.png,,,,50,../static/images/US_Cities_List/nat_racine.png,../static/images/US_Cities_List/nat_newhope.png,0,0.6470588235294118,,,,../static/images/US_Cities_List/nat_racine.png,,,,,One Edge Diff,Four Edge Five Edge,,,,,
4163.4000000059605,,shortestpath_phase,1223718,../static/images/US_Cities_List/mm_leesburg.png,,,,49,../static/images/US_Cities_List/nat_hotsprings.png,../static/images/US_Cities_List/mm_hanover.png,0,0.6111111111111112,,,,../static/images/US_Cities_List/mm_hanover.png,,,,,Two Edge Diff,Four Edge Six Edge,,,,,
3495.0999999940395,,shortestpath_phase,1231268,../static/images/US_Cities_List/nat_hotsprings.png,,,,50,../static/images/US_Cities_List/mm_leesburg.png,../static/images/US_Cities_List/mm_boulder.png,1,0.631578947368421,,,,../static/images/US_Cities_List/mm_boulder.png,,,,,One Edge Diff,Five Edge Six Edge,,,,,
6471.899999991059,,shortestpath_phase,1238817,../static/images/US_Cities_List/mm_gatlinburg.png,,,,50,../static/images/US_Cities_List/nat_racine.png,../static/images/US_Cities_List/nat_huntsville.png,1,0.65,,,,../static/images/US_Cities_List/nat_huntsville.png,,,,,One Edge Diff,Two Edge Three Edge,,,,,
7261.399999991059,,shortestpath_phase,1246365,../static/images/US_Cities_List/mm_hanover.png,,,,50,../static/images/US_Cities_List/mm_cornwall.png,../static/images/US_Cities_List/mm_shreveport.png,0,0.6190476190476191,,,,../static/images/US_Cities_List/mm_cornwall.png,,,,,Three Edge Diff,Two Edge Five Edge,,,,,
null,,shortestpath_phase,1253916,../static/images/US_Cities_List/nat_westpalmbeach.png,,,,null,../static/images/US_Cities_List/mm_shreveport.png,../static/images/US_Cities_List/mm_gatlinburg.png,0,0.5909090909090909,,,,../static/images/US_Cities_List/mm_shreveport.png,,,,,Two Edge Diff,Two Edge Four Edge,,,,,
