rt,responses,trial_type,time_elapsed,stimulus,button_pressed,key_press,name_trial,city_type,rating,probe,probe_accuracy,response,correct,accuracy,problems,smooth,distraction,strategies,familiar,memorable,unique,realistic,similar,comments,detectfocus,warning
19910.299999952316,{worker_id:6678c37722059e0a2e718dbb},id_enter,19913,,,,,,,,,,,,,,,,,,,,,,,
23145.400000095367,,fullscreen,43061,fullscreen,0,,,,,,,,,,,,,,,,,,,,,
21582.299999952316,,intro_0,64648,instruct,,32,,,,,,,,,,,,,,,,,,,,
20359.5,,intro_1,85008,instruct,,32,,,,,,,,,,,,,,,,,,,,
39841.800000190735,,intro_2,124851,instruct,,32,,,,,,,,,,,,,,,,,,,,
null,,instruct_dir_4,126357,instruct,,null,,,,,,,,,,,,,,,,,,,,
null,,thebreak,126858,break,,null,,,,,,,,,,,,,,,,,,,,
7808.599999904633,,familiar_rating,134669,Highvale,,51,Highvale,Fictional,3,,,,,,,,,,,,,,,,,
null,,confidence_buffer,134770,confidence_buffer,,null,,,,,,,,,,,,,,,,,,,,
8128,,unique_rating,142899,Highvale,,51,,,3,,,,,,,,,,,,,,,,,
null,,confidence_buffer,143001,confidence_buffer,,null,,,,,,,,,,,,,,,,,,,,
5666.5,,memorable_rating,148668,Highvale,,52,,,4,,,,,,,,,,,,,,,,,
null,,confidence_buffer,148770,confidence_buffer,,null,,,,,,,,,,,,,,,,,,,,
null,,thebreak,149270,break,,null,,,,,,,,,,,,,,,,,,,,
11580.600000143051,,familiar_rating,160852,Claywater,,52,Claywater,Fictional,4,,,,,,,,,,,,,,,,,
null,,confidence_buffer,160954,confidence_buffer,,null,,,,,,,,,,,,,,,,,,,,
2384.600000143051,,unique_rating,163339,Claywater,,52,,,4,,,,,,,,,,,,,,,,,
null,,confidence_buffer,163440,confidence_buffer,,null,,,,,,,,,,,,,,,,,,,,
3520,,memorable_rating,166960,Claywater,,52,,,4,,,,,,,,,,,,,,,,,
null,,confidence_buffer,167062,confidence_buffer,,null,,,,,,,,,,,,,,,,,,,,
null,,thebreak,167563,break,,null,,,,,,,,,,,,,,,,,,,,
4034.5,,familiar_rating,171599,Delaware City,,53,Delaware City,US,5,,,,,,,,,,,,,,,,,
null,,confidence_buffer,171700,confidence_buffer,,null,,,,,,,,,,,,,,,,,,,,
2563.2000000476837,,unique_rating,174265,Delaware City,,52,,,4,,,,,,,,,,,,,,,,,
null,,confidence_buffer,174367,confidence_buffer,,null,,,,,,,,,,,,,,,,,,,,
2952.4000000953674,,memorable_rating,177321,Delaware City,,53,,,5,,,,,,,,,,,,,,,,,
null,,confidence_buffer,177422,confidence_buffer,,null,,,,,,,,,,,,,,,,,,,,
null,,thebreak,177924,break,,null,,,,,,,,,,,,,,,,,,,,
3307.100000143051,,familiar_rating,181232,Silverpine,,51,Silverpine,Fictional,3,,,,,,,,,,,,,,,,,
null,,confidence_buffer,181334,confidence_buffer,,null,,,,,,,,,,,,,,,,,,,,
1962.2000000476837,,unique_rating,183298,Silverpine,,51,,,3,,,,,,,,,,,,,,,,,
null,,confidence_buffer,183399,confidence_buffer,,null,,,,,,,,,,,,,,,,,,,,
2828.199999809265,,probe_rating,186228,probe_rating,,49,,,,1,1,,,,,,,,,,,,,,,
null,,confidence_buffer,186331,confidence_buffer,,null,,,,,,,,,,,,,,,,,,,,
5143.400000095367,,memorable_rating,191475,Silverpine,,52,,,4,,,,,,,,,,,,,,,,,
null,,confidence_buffer,191577,confidence_buffer,,null,,,,,,,,,,,,,,,,,,,,
null,,thebreak,192078,break,,null,,,,,,,,,,,,,,,,,,,,
15297.400000095367,,familiar_rating,207376,Rosehollow,,52,Rosehollow,Fictional,4,,,,,,,,,,,,,,,,,
null,,confidence_buffer,207477,confidence_buffer,,null,,,,,,,,,,,,,,,,,,,,
5060.5,,unique_rating,212538,Rosehollow,,53,,,5,,,,,,,,,,,,,,,,,
null,,confidence_buffer,212640,confidence_buffer,,null,,,,,,,,,,,,,,,,,,,,
3774.7000000476837,,memorable_rating,216415,Rosehollow,,52,,,4,,,,,,,,,,,,,,,,,
null,,confidence_buffer,216517,confidence_buffer,,null,,,,,,,,,,,,,,,,,,,,
null,,thebreak,217019,break,,null,,,,,,,,,,,,,,,,,,,,
9321.599999904633,,familiar_rating,226341,Lakehaven,,50,Lakehaven,Fictional,2,,,,,,,,,,,,,,,,,
null,,confidence_buffer,226442,confidence_buffer,,null,,,,,,,,,,,,,,,,,,,,
3683.9000000953674,,unique_rating,230127,Lakehaven,,51,,,3,,,,,,,,,,,,,,,,,
null,,confidence_buffer,230228,confidence_buffer,,null,,,,,,,,,,,,,,,,,,,,
2863.7000000476837,,memorable_rating,233092,Lakehaven,,51,,,3,,,,,,,,,,,,,,,,,
null,,confidence_buffer,233193,confidence_buffer,,null,,,,,,,,,,,,,,,,,,,,
null,,thebreak,233695,break,,null,,,,,,,,,,,,,,,,,,,,
18919.200000047684,,familiar_rating,252615,Sitka,,52,Sitka,US,4,,,,,,,,,,,,,,,,,
null,,confidence_buffer,252718,confidence_buffer,,null,,,,,,,,,,,,,,,,,,,,
2931.7000000476837,,unique_rating,255650,Sitka,,52,,,4,,,,,,,,,,,,,,,,,
null,,confidence_buffer,255751,confidence_buffer,,null,,,,,,,,,,,,,,,,,,,,
3100.7000000476837,,memorable_rating,258853,Sitka,,53,,,5,,,,,,,,,,,,,,,,,
null,,confidence_buffer,258955,confidence_buffer,,null,,,,,,,,,,,,,,,,,,,,
2560,,probe_rating,261516,probe_rating,,51,,,,3,0,,,,,,,,,,,,,,,
null,,confidence_buffer,261617,confidence_buffer,,null,,,,,,,,,,,,,,,,,,,,
null,,thebreak,262118,break,,null,,,,,,,,,,,,,,,,,,,,
14863.399999856949,,familiar_rating,276982,Okoboji,,50,Okoboji,US,2,,,,,,,,,,,,,,,,,
null,,confidence_buffer,277084,confidence_buffer,,null,,,,,,,,,,,,,,,,,,,,
1538.2000000476837,,unique_rating,278623,Okoboji,,50,,,2,,,,,,,,,,,,,,,,,
null,,confidence_buffer,278724,confidence_buffer,,null,,,,,,,,,,,,,,,,,,,,
2010.2999999523163,,memorable_rating,280735,Okoboji,,51,,,3,,,,,,,,,,,,,,,,,
null,,confidence_buffer,280838,confidence_buffer,,null,,,,,,,,,,,,,,,,,,,,
null,,thebreak,281347,break,,null,,,,,,,,,,,,,,,,,,,,
4530.399999856949,,familiar_rating,285879,New Hope,,52,New Hope,US,4,,,,,,,,,,,,,,,,,
null,,confidence_buffer,285980,confidence_buffer,,null,,,,,,,,,,,,,,,,,,,,
1958.3999998569489,,unique_rating,287940,New Hope,,52,,,4,,,,,,,,,,,,,,,,,
null,,confidence_buffer,288040,confidence_buffer,,null,,,,,,,,,,,,,,,,,,,,
3628.699999809265,,memorable_rating,291670,New Hope,,53,,,5,,,,,,,,,,,,,,,,,
null,,confidence_buffer,291778,confidence_buffer,,null,,,,,,,,,,,,,,,,,,,,
null,,thebreak,292279,break,,null,,,,,,,,,,,,,,,,,,,,
6847.700000047684,,familiar_rating,299128,Huntsville,,53,Huntsville,US,5,,,,,,,,,,,,,,,,,
null,,confidence_buffer,299230,confidence_buffer,,null,,,,,,,,,,,,,,,,,,,,
4583.599999904633,,unique_rating,303814,Huntsville,,53,,,5,,,,,,,,,,,,,,,,,
null,,confidence_buffer,303917,confidence_buffer,,null,,,,,,,,,,,,,,,,,,,,
4306.299999952316,,memorable_rating,308224,Huntsville,,53,,,5,,,,,,,,,,,,,,,,,
null,,confidence_buffer,308325,confidence_buffer,,null,,,,,,,,,,,,,,,,,,,,
null,,thebreak,308828,break,,null,,,,,,,,,,,,,,,,,,,,
6936.5,,familiar_rating,315766,Briarfield,,51,Briarfield,Fictional,3,,,,,,,,,,,,,,,,,
null,,confidence_buffer,315867,confidence_buffer,,null,,,,,,,,,,,,,,,,,,,,
2784.7000000476837,,unique_rating,318652,Briarfield,,51,,,3,,,,,,,,,,,,,,,,,
null,,confidence_buffer,318753,confidence_buffer,,null,,,,,,,,,,,,,,,,,,,,
2365,,memorable_rating,321119,Briarfield,,52,,,4,,,,,,,,,,,,,,,,,
null,,confidence_buffer,321220,confidence_buffer,,null,,,,,,,,,,,,,,,,,,,,
null,,thebreak,321727,break,,null,,,,,,,,,,,,,,,,,,,,
5948.400000095367,,familiar_rating,327676,Hollendale,,52,Hollendale,Fictional,4,,,,,,,,,,,,,,,,,
null,,confidence_buffer,327778,confidence_buffer,,null,,,,,,,,,,,,,,,,,,,,
1558.7000000476837,,unique_rating,329337,Hollendale,,51,,,3,,,,,,,,,,,,,,,,,
null,,confidence_buffer,329438,confidence_buffer,,null,,,,,,,,,,,,,,,,,,,,
1880.2000000476837,,memorable_rating,331319,Hollendale,,50,,,2,,,,,,,,,,,,,,,,,
null,,confidence_buffer,331421,confidence_buffer,,null,,,,,,,,,,,,,,,,,,,,
null,,thebreak,331922,break,,null,,,,,,,,,,,,,,,,,,,,
5869.5,,familiar_rating,337792,New Verdan,,52,New Verdan,Fictional,4,,,,,,,,,,,,,,,,,
null,,confidence_buffer,337893,confidence_buffer,,null,,,,,,,,,,,,,,,,,,,,
1744.9000000953674,,unique_rating,339639,New Verdan,,51,,,3,,,,,,,,,,,,,,,,,
null,,confidence_buffer,339740,confidence_buffer,,null,,,,,,,,,,,,,,,,,,,,
4333.099999904633,,memorable_rating,344074,New Verdan,,49,,,1,,,,,,,,,,,,,,,,,
null,,confidence_buffer,344175,confidence_buffer,,null,,,,,,,,,,,,,,,,,,,,
null,,thebreak,344677,break,,null,,,,,,,,,,,,,,,,,,,,
5386.5,,familiar_rating,350065,Coeur d'Alene,,53,Coeur d'Alene,US,5,,,,,,,,,,,,,,,,,
null,,confidence_buffer,350168,confidence_buffer,,null,,,,,,,,,,,,,,,,,,,,
2998.2999999523163,,unique_rating,353167,Coeur d'Alene,,53,,,5,,,,,,,,,,,,,,,,,
null,,confidence_buffer,353268,confidence_buffer,,null,,,,,,,,,,,,,,,,,,,,
1699.7999999523163,,memorable_rating,354969,Coeur d'Alene,,53,,,5,,,,,,,,,,,,,,,,,
null,,confidence_buffer,355070,confidence_buffer,,null,,,,,,,,,,,,,,,,,,,,
null,,thebreak,355571,break,,null,,,,,,,,,,,,,,,,,,,,
7130.5,,familiar_rating,362702,Bowling Green,,53,Bowling Green,US,5,,,,,,,,,,,,,,,,,
null,,confidence_buffer,362805,confidence_buffer,,null,,,,,,,,,,,,,,,,,,,,
2374.5,,unique_rating,365180,Bowling Green,,53,,,5,,,,,,,,,,,,,,,,,
null,,confidence_buffer,365281,confidence_buffer,,null,,,,,,,,,,,,,,,,,,,,
1549.1000001430511,,memorable_rating,366831,Bowling Green,,53,,,5,,,,,,,,,,,,,,,,,
null,,confidence_buffer,366932,confidence_buffer,,null,,,,,,,,,,,,,,,,,,,,
null,,thebreak,367434,break,,null,,,,,,,,,,,,,,,,,,,,
5348.200000047684,,familiar_rating,372783,Orr,,51,Orr,US,3,,,,,,,,,,,,,,,,,
null,,confidence_buffer,372884,confidence_buffer,,null,,,,,,,,,,,,,,,,,,,,
2279.199999809265,,unique_rating,375164,Orr,,50,,,2,,,,,,,,,,,,,,,,,
null,,confidence_buffer,375266,confidence_buffer,,null,,,,,,,,,,,,,,,,,,,,
1629.2000000476837,,memorable_rating,376896,Orr,,50,,,2,,,,,,,,,,,,,,,,,
null,,confidence_buffer,376997,confidence_buffer,,null,,,,,,,,,,,,,,,,,,,,
null,,thebreak,377499,break,,null,,,,,,,,,,,,,,,,,,,,
6090.099999904633,,familiar_rating,383590,Linden Trace,,49,Linden Trace,Fictional,1,,,,,,,,,,,,,,,,,
null,,confidence_buffer,383691,confidence_buffer,,null,,,,,,,,,,,,,,,,,,,,
2479.7000000476837,,unique_rating,386172,Linden Trace,,50,,,2,,,,,,,,,,,,,,,,,
null,,confidence_buffer,386272,confidence_buffer,,null,,,,,,,,,,,,,,,,,,,,
3465.0999999046326,,memorable_rating,389738,Linden Trace,,50,,,2,,,,,,,,,,,,,,,,,
null,,confidence_buffer,389839,confidence_buffer,,null,,,,,,,,,,,,,,,,,,,,
null,,thebreak,390341,break,,null,,,,,,,,,,,,,,,,,,,,
6998.100000143051,,familiar_rating,397340,Ravenport,,51,Ravenport,Fictional,3,,,,,,,,,,,,,,,,,
null,,confidence_buffer,397441,confidence_buffer,,null,,,,,,,,,,,,,,,,,,,,
1659.3999998569489,,unique_rating,399101,Ravenport,,52,,,4,,,,,,,,,,,,,,,,,
null,,confidence_buffer,399202,confidence_buffer,,null,,,,,,,,,,,,,,,,,,,,
4335.900000095367,,memorable_rating,403539,Ravenport,,50,,,2,,,,,,,,,,,,,,,,,
null,,confidence_buffer,403640,confidence_buffer,,null,,,,,,,,,,,,,,,,,,,,
3348.4000000953674,,probe_rating,406989,probe_rating,,53,,,,5,1,,,,,,,,,,,,,,,
null,,confidence_buffer,407091,confidence_buffer,,null,,,,,,,,,,,,,,,,,,,,
null,,thebreak,407592,break,,null,,,,,,,,,,,,,,,,,,,,
5391.299999952316,,familiar_rating,412984,Gloucester,,52,Gloucester,US,4,,,,,,,,,,,,,,,,,
null,,confidence_buffer,413085,confidence_buffer,,null,,,,,,,,,,,,,,,,,,,,
1324.5,,unique_rating,414410,Gloucester,,52,,,4,,,,,,,,,,,,,,,,,
null,,confidence_buffer,414511,confidence_buffer,,null,,,,,,,,,,,,,,,,,,,,
2336.5,,memorable_rating,416848,Gloucester,,53,,,5,,,,,,,,,,,,,,,,,
null,,confidence_buffer,416950,confidence_buffer,,null,,,,,,,,,,,,,,,,,,,,
null,,thebreak,417451,break,,null,,,,,,,,,,,,,,,,,,,,
3351.7000000476837,,familiar_rating,420804,Hawthorne Bluffs,,51,Hawthorne Bluffs,Fictional,3,,,,,,,,,,,,,,,,,
null,,confidence_buffer,420905,confidence_buffer,,null,,,,,,,,,,,,,,,,,,,,
2460.7000000476837,,unique_rating,423366,Hawthorne Bluffs,,50,,,2,,,,,,,,,,,,,,,,,
null,,confidence_buffer,423468,confidence_buffer,,null,,,,,,,,,,,,,,,,,,,,
1429.2000000476837,,memorable_rating,424898,Hawthorne Bluffs,,50,,,2,,,,,,,,,,,,,,,,,
null,,confidence_buffer,425000,confidence_buffer,,null,,,,,,,,,,,,,,,,,,,,
null,,thebreak,425500,break,,null,,,,,,,,,,,,,,,,,,,,
3267.7999999523163,,familiar_rating,428769,Cody,,52,Cody,US,4,,,,,,,,,,,,,,,,,
null,,confidence_buffer,428870,confidence_buffer,,null,,,,,,,,,,,,,,,,,,,,
2283.899999856949,,unique_rating,431155,Cody,,52,,,4,,,,,,,,,,,,,,,,,
null,,confidence_buffer,431256,confidence_buffer,,null,,,,,,,,,,,,,,,,,,,,
1328,,memorable_rating,432585,Cody,,53,,,5,,,,,,,,,,,,,,,,,
null,,confidence_buffer,432686,confidence_buffer,,null,,,,,,,,,,,,,,,,,,,,
null,,thebreak,433187,break,,null,,,,,,,,,,,,,,,,,,,,
4540.799999952316,,familiar_rating,437728,Boulder,,50,Boulder,US,2,,,,,,,,,,,,,,,,,
null,,confidence_buffer,437829,confidence_buffer,,null,,,,,,,,,,,,,,,,,,,,
2195.5,,unique_rating,440026,Boulder,,52,,,4,,,,,,,,,,,,,,,,,
null,,confidence_buffer,440127,confidence_buffer,,null,,,,,,,,,,,,,,,,,,,,
1611.6999998092651,,memorable_rating,441740,Boulder,,52,,,4,,,,,,,,,,,,,,,,,
null,,confidence_buffer,441841,confidence_buffer,,null,,,,,,,,,,,,,,,,,,,,
null,,thebreak,442341,break,,null,,,,,,,,,,,,,,,,,,,,
5333.900000095367,,familiar_rating,447676,Folly Beach,,51,Folly Beach,US,3,,,,,,,,,,,,,,,,,
null,,confidence_buffer,447777,confidence_buffer,,null,,,,,,,,,,,,,,,,,,,,
3211.9000000953674,,unique_rating,450990,Folly Beach,,51,,,3,,,,,,,,,,,,,,,,,
null,,confidence_buffer,451091,confidence_buffer,,null,,,,,,,,,,,,,,,,,,,,
1817.5,,memorable_rating,452909,Folly Beach,,50,,,2,,,,,,,,,,,,,,,,,
null,,confidence_buffer,453010,confidence_buffer,,null,,,,,,,,,,,,,,,,,,,,
null,,thebreak,453511,break,,null,,,,,,,,,,,,,,,,,,,,
2937.7000000476837,,familiar_rating,456450,Redgrove,,51,Redgrove,Fictional,3,,,,,,,,,,,,,,,,,
null,,confidence_buffer,456551,confidence_buffer,,null,,,,,,,,,,,,,,,,,,,,
2279.9000000953674,,probe_rating,458832,probe_rating,,49,,,,1,1,,,,,,,,,,,,,,,
null,,confidence_buffer,458933,confidence_buffer,,null,,,,,,,,,,,,,,,,,,,,
2432.2999999523163,,unique_rating,461366,Redgrove,,52,,,4,,,,,,,,,,,,,,,,,
null,,confidence_buffer,461467,confidence_buffer,,null,,,,,,,,,,,,,,,,,,,,
1961,,memorable_rating,463429,Redgrove,,51,,,3,,,,,,,,,,,,,,,,,
null,,confidence_buffer,463530,confidence_buffer,,null,,,,,,,,,,,,,,,,,,,,
null,,thebreak,464031,break,,null,,,,,,,,,,,,,,,,,,,,
2278.5999999046326,,familiar_rating,466311,Tamarisk Hills,,52,Tamarisk Hills,Fictional,4,,,,,,,,,,,,,,,,,
null,,confidence_buffer,466412,confidence_buffer,,null,,,,,,,,,,,,,,,,,,,,
3624.5,,unique_rating,470037,Tamarisk Hills,,50,,,2,,,,,,,,,,,,,,,,,
null,,confidence_buffer,470138,confidence_buffer,,null,,,,,,,,,,,,,,,,,,,,
3120.2999999523163,,memorable_rating,473259,Tamarisk Hills,,50,,,2,,,,,,,,,,,,,,,,,
null,,confidence_buffer,473360,confidence_buffer,,null,,,,,,,,,,,,,,,,,,,,
null,,thebreak,473862,break,,null,,,,,,,,,,,,,,,,,,,,
2924,,familiar_rating,476786,Barnard,,52,Barnard,US,4,,,,,,,,,,,,,,,,,
null,,confidence_buffer,476888,confidence_buffer,,null,,,,,,,,,,,,,,,,,,,,
2041.6000001430511,,unique_rating,478930,Barnard,,52,,,4,,,,,,,,,,,,,,,,,
null,,confidence_buffer,479031,confidence_buffer,,null,,,,,,,,,,,,,,,,,,,,
1955.2000000476837,,memorable_rating,480987,Barnard,,53,,,5,,,,,,,,,,,,,,,,,
null,,confidence_buffer,481089,confidence_buffer,,null,,,,,,,,,,,,,,,,,,,,
null,,thebreak,481591,break,,null,,,,,,,,,,,,,,,,,,,,
3578.7999999523163,,familiar_rating,485171,Livingston,,52,Livingston,US,4,,,,,,,,,,,,,,,,,
null,,confidence_buffer,485273,confidence_buffer,,null,,,,,,,,,,,,,,,,,,,,
2195.0999999046326,,unique_rating,487469,Livingston,,52,,,4,,,,,,,,,,,,,,,,,
null,,confidence_buffer,487570,confidence_buffer,,null,,,,,,,,,,,,,,,,,,,,
1210,,memorable_rating,488781,Livingston,,52,,,4,,,,,,,,,,,,,,,,,
null,,confidence_buffer,488882,confidence_buffer,,null,,,,,,,,,,,,,,,,,,,,
null,,thebreak,489385,break,,null,,,,,,,,,,,,,,,,,,,,
4775.399999856949,,familiar_rating,494161,Meadowspire,,51,Meadowspire,Fictional,3,,,,,,,,,,,,,,,,,
null,,confidence_buffer,494262,confidence_buffer,,null,,,,,,,,,,,,,,,,,,,,
1723.1999998092651,,unique_rating,495986,Meadowspire,,50,,,2,,,,,,,,,,,,,,,,,
null,,confidence_buffer,496088,confidence_buffer,,null,,,,,,,,,,,,,,,,,,,,
2383.4000000953674,,memorable_rating,498472,Meadowspire,,50,,,2,,,,,,,,,,,,,,,,,
null,,confidence_buffer,498574,confidence_buffer,,null,,,,,,,,,,,,,,,,,,,,
null,,thebreak,499075,break,,null,,,,,,,,,,,,,,,,,,,,
6115.200000047684,,familiar_rating,505191,Racine,,52,Racine,US,4,,,,,,,,,,,,,,,,,
null,,confidence_buffer,505292,confidence_buffer,,null,,,,,,,,,,,,,,,,,,,,
1592.6000001430511,,unique_rating,506886,Racine,,52,,,4,,,,,,,,,,,,,,,,,
null,,confidence_buffer,506987,confidence_buffer,,null,,,,,,,,,,,,,,,,,,,,
1294.0999999046326,,memorable_rating,508282,Racine,,51,,,3,,,,,,,,,,,,,,,,,
null,,confidence_buffer,508383,confidence_buffer,,null,,,,,,,,,,,,,,,,,,,,
null,,thebreak,508885,break,,null,,,,,,,,,,,,,,,,,,,,
6253.899999856949,,familiar_rating,515140,Crestwood,,52,Crestwood,Fictional,4,,,,,,,,,,,,,,,,,
null,,confidence_buffer,515242,confidence_buffer,,null,,,,,,,,,,,,,,,,,,,,
388.90000009536743,,unique_rating,515632,Crestwood,,50,,,2,,,,,,,,,,,,,,,,,
null,,confidence_buffer,515733,confidence_buffer,,null,,,,,,,,,,,,,,,,,,,,
1966.8000001907349,,memorable_rating,517701,Crestwood,,53,,,5,,,,,,,,,,,,,,,,,
null,,confidence_buffer,517802,confidence_buffer,,null,,,,,,,,,,,,,,,,,,,,
null,,thebreak,518304,break,,null,,,,,,,,,,,,,,,,,,,,
12291.399999856949,,intro_0,530596,instruct,,32,,,,,,,,,,,,,,,,,,,,
26180.89999985695,,intro_1,556778,instruct,,32,,,,,,,,,,,,,,,,,,,,
29930.099999904633,,intro_2,586708,instruct,,32,,,,,,,,,,,,,,,,,,,,
null,,instruct_dir_4,588210,instruct,,null,,,,,,,,,,,,,,,,,,,,
10532.400000095367,,realistic_rating,598744,Hollendale,,52,Hollendale,Fictional,4,,,,,,,,,,,,,,,,,
null,,confidence_buffer,598844,confidence_buffer,,null,,,,,,,,,,,,,,,,,,,,
3598.5,,pt2_unique_rating,602444,Hollendale,,51,,,3,,,,,,,,,,,,,,,,,
null,,confidence_buffer,602546,confidence_buffer,,null,,,,,,,,,,,,,,,,,,,,
4976.200000047684,,pt2_memorable_rating,607523,Hollendale,,53,,,5,,,,,,,,,,,,,,,,,
null,,confidence_buffer,607624,confidence_buffer,,null,,,,,,,,,,,,,,,,,,,,
12950.299999952316,,recognition_phase,620575,Hollendale,,52,,,,,,new,0,0,,,,,,,,,,,,
null,,confidence_buffer,620677,confidence_buffer,,null,,,,,,,,,,,,,,,,,,,,
null,,thebreak,621178,break,,null,,,,,,,,,,,,,,,,,,,,
7841.200000047684,,realistic_rating,629020,Assateague Island,,51,Assateague Island,US,3,,,,,,,,,,,,,,,,,
null,,confidence_buffer,629121,confidence_buffer,,null,,,,,,,,,,,,,,,,,,,,
2285.9000000953674,,pt2_unique_rating,631408,Assateague Island,,51,,,3,,,,,,,,,,,,,,,,,
null,,confidence_buffer,631510,confidence_buffer,,null,,,,,,,,,,,,,,,,,,,,
2521.5,,pt2_memorable_rating,634032,Assateague Island,,52,,,4,,,,,,,,,,,,,,,,,
null,,confidence_buffer,634133,confidence_buffer,,null,,,,,,,,,,,,,,,,,,,,
10822.599999904633,,recognition_phase,644957,Assateague Island,,52,,,,,,new,1,0.5,,,,,,,,,,,,
null,,confidence_buffer,645060,confidence_buffer,,null,,,,,,,,,,,,,,,,,,,,
null,,thebreak,645561,break,,null,,,,,,,,,,,,,,,,,,,,
3386.2000000476837,,realistic_rating,648948,Athens,,51,Athens,US,3,,,,,,,,,,,,,,,,,
null,,confidence_buffer,649049,confidence_buffer,,null,,,,,,,,,,,,,,,,,,,,
3547.7999999523163,,pt2_unique_rating,652598,Athens,,52,,,4,,,,,,,,,,,,,,,,,
null,,confidence_buffer,652700,confidence_buffer,,null,,,,,,,,,,,,,,,,,,,,
1709.9000000953674,,pt2_memorable_rating,654410,Athens,,52,,,4,,,,,,,,,,,,,,,,,
null,,confidence_buffer,654511,confidence_buffer,,null,,,,,,,,,,,,,,,,,,,,
2626.2999999523163,,recognition_phase,657138,Athens,,52,,,,,,new,1,0.6666666666666666,,,,,,,,,,,,
null,,confidence_buffer,657240,confidence_buffer,,null,,,,,,,,,,,,,,,,,,,,
null,,thebreak,657741,break,,null,,,,,,,,,,,,,,,,,,,,
5619,,realistic_rating,663361,Racine,,51,Racine,US,3,,,,,,,,,,,,,,,,,
null,,confidence_buffer,663463,confidence_buffer,,null,,,,,,,,,,,,,,,,,,,,
2604.7000000476837,,pt2_unique_rating,666068,Racine,,51,,,3,,,,,,,,,,,,,,,,,
null,,confidence_buffer,666170,confidence_buffer,,null,,,,,,,,,,,,,,,,,,,,
1017.7000000476837,,pt2_memorable_rating,667188,Racine,,51,,,3,,,,,,,,,,,,,,,,,
null,,confidence_buffer,667290,confidence_buffer,,null,,,,,,,,,,,,,,,,,,,,
5695.099999904633,,recognition_phase,672986,Racine,,49,,,,,,old,1,0.75,,,,,,,,,,,,
null,,confidence_buffer,673087,confidence_buffer,,null,,,,,,,,,,,,,,,,,,,,
null,,thebreak,673589,break,,null,,,,,,,,,,,,,,,,,,,,
4847.299999952316,,realistic_rating,678437,Bar Harbor,,52,Bar Harbor,US,4,,,,,,,,,,,,,,,,,
null,,confidence_buffer,678539,confidence_buffer,,null,,,,,,,,,,,,,,,,,,,,
2695.9000000953674,,pt2_unique_rating,681236,Bar Harbor,,51,,,3,,,,,,,,,,,,,,,,,
null,,confidence_buffer,681337,confidence_buffer,,null,,,,,,,,,,,,,,,,,,,,
2250.5999999046326,,pt2_memorable_rating,683589,Bar Harbor,,52,,,4,,,,,,,,,,,,,,,,,
null,,confidence_buffer,683691,confidence_buffer,,null,,,,,,,,,,,,,,,,,,,,
2272.5,,recognition_phase,685964,Bar Harbor,,52,,,,,,new,1,0.8,,,,,,,,,,,,
null,,confidence_buffer,686065,confidence_buffer,,null,,,,,,,,,,,,,,,,,,,,
null,,thebreak,686567,break,,null,,,,,,,,,,,,,,,,,,,,
5902.5,,realistic_rating,692470,Ravenport,,51,Ravenport,Fictional,3,,,,,,,,,,,,,,,,,
null,,confidence_buffer,692571,confidence_buffer,,null,,,,,,,,,,,,,,,,,,,,
1693.7999999523163,,pt2_unique_rating,694266,Ravenport,,51,,,3,,,,,,,,,,,,,,,,,
null,,confidence_buffer,694367,confidence_buffer,,null,,,,,,,,,,,,,,,,,,,,
1421,,pt2_memorable_rating,695789,Ravenport,,51,,,3,,,,,,,,,,,,,,,,,
null,,confidence_buffer,695894,confidence_buffer,,null,,,,,,,,,,,,,,,,,,,,
2596.100000143051,,recognition_phase,698491,Ravenport,,50,,,,,,old,1,0.8333333333333334,,,,,,,,,,,,
null,,confidence_buffer,698592,confidence_buffer,,null,,,,,,,,,,,,,,,,,,,,
null,,thebreak,699093,break,,null,,,,,,,,,,,,,,,,,,,,
6062.399999856949,,realistic_rating,705156,Westridge,,52,Westridge,Fictional,4,,,,,,,,,,,,,,,,,
null,,confidence_buffer,705257,confidence_buffer,,null,,,,,,,,,,,,,,,,,,,,
4419,,pt2_unique_rating,709677,Westridge,,51,,,3,,,,,,,,,,,,,,,,,
null,,confidence_buffer,709778,confidence_buffer,,null,,,,,,,,,,,,,,,,,,,,
3178.5,,pt2_memorable_rating,712958,Westridge,,52,,,4,,,,,,,,,,,,,,,,,
null,,confidence_buffer,713059,confidence_buffer,,null,,,,,,,,,,,,,,,,,,,,
6253.5,,recognition_phase,719313,Westridge,,50,,,,,,old,0,0.7142857142857143,,,,,,,,,,,,
null,,confidence_buffer,719415,confidence_buffer,,null,,,,,,,,,,,,,,,,,,,,
null,,thebreak,719917,break,,null,,,,,,,,,,,,,,,,,,,,
4018.7999999523163,,realistic_rating,723937,Okoboji,,51,Okoboji,US,3,,,,,,,,,,,,,,,,,
null,,confidence_buffer,724038,confidence_buffer,,null,,,,,,,,,,,,,,,,,,,,
869.8999998569489,,pt2_unique_rating,724909,Okoboji,,51,,,3,,,,,,,,,,,,,,,,,
null,,confidence_buffer,725010,confidence_buffer,,null,,,,,,,,,,,,,,,,,,,,
2403.2999999523163,,probe_rating,727414,probe_rating,,49,,,,1,1,,,,,,,,,,,,,,,
null,,confidence_buffer,727515,confidence_buffer,,null,,,,,,,,,,,,,,,,,,,,
2869.7000000476837,,pt2_memorable_rating,730386,Okoboji,,51,,,3,,,,,,,,,,,,,,,,,
null,,confidence_buffer,730487,confidence_buffer,,null,,,,,,,,,,,,,,,,,,,,
3527.4000000953674,,recognition_phase,734015,Okoboji,,49,,,,,,old,1,0.75,,,,,,,,,,,,
null,,confidence_buffer,734116,confidence_buffer,,null,,,,,,,,,,,,,,,,,,,,
null,,thebreak,734617,break,,null,,,,,,,,,,,,,,,,,,,,
5659.600000143051,,realistic_rating,740278,Gardnerville,,52,Gardnerville,US,4,,,,,,,,,,,,,,,,,
null,,confidence_buffer,740379,confidence_buffer,,null,,,,,,,,,,,,,,,,,,,,
1752.2999999523163,,pt2_unique_rating,742132,Gardnerville,,51,,,3,,,,,,,,,,,,,,,,,
null,,confidence_buffer,742234,confidence_buffer,,null,,,,,,,,,,,,,,,,,,,,
1443.7999999523163,,pt2_memorable_rating,743679,Gardnerville,,51,,,3,,,,,,,,,,,,,,,,,
null,,confidence_buffer,743780,confidence_buffer,,null,,,,,,,,,,,,,,,,,,,,
2419.100000143051,,recognition_phase,746200,Gardnerville,,52,,,,,,new,1,0.7777777777777778,,,,,,,,,,,,
null,,confidence_buffer,746302,confidence_buffer,,null,,,,,,,,,,,,,,,,,,,,
null,,thebreak,746803,break,,null,,,,,,,,,,,,,,,,,,,,
4899.400000095367,,realistic_rating,751704,Highvale,,51,Highvale,Fictional,3,,,,,,,,,,,,,,,,,
null,,confidence_buffer,751805,confidence_buffer,,null,,,,,,,,,,,,,,,,,,,,
935.7000000476837,,pt2_unique_rating,752742,Highvale,,52,,,4,,,,,,,,,,,,,,,,,
null,,confidence_buffer,752844,confidence_buffer,,null,,,,,,,,,,,,,,,,,,,,
1567,,pt2_memorable_rating,754412,Highvale,,51,,,3,,,,,,,,,,,,,,,,,
null,,confidence_buffer,754513,confidence_buffer,,null,,,,,,,,,,,,,,,,,,,,
2264.7999999523163,,recognition_phase,756779,Highvale,,50,,,,,,old,1,0.8,,,,,,,,,,,,
null,,confidence_buffer,756881,confidence_buffer,,null,,,,,,,,,,,,,,,,,,,,
null,,thebreak,757383,break,,null,,,,,,,,,,,,,,,,,,,,
3194.300000190735,,realistic_rating,760578,Alliance,,52,Alliance,US,4,,,,,,,,,,,,,,,,,
null,,confidence_buffer,760680,confidence_buffer,,null,,,,,,,,,,,,,,,,,,,,
1814.7999999523163,,pt2_unique_rating,762495,Alliance,,52,,,4,,,,,,,,,,,,,,,,,
null,,confidence_buffer,762597,confidence_buffer,,null,,,,,,,,,,,,,,,,,,,,
922.6999998092651,,pt2_memorable_rating,763520,Alliance,,52,,,4,,,,,,,,,,,,,,,,,
null,,confidence_buffer,763622,confidence_buffer,,null,,,,,,,,,,,,,,,,,,,,
4714.900000095367,,recognition_phase,768338,Alliance,,51,,,,,,new,1,0.8181818181818182,,,,,,,,,,,,
null,,confidence_buffer,768440,confidence_buffer,,null,,,,,,,,,,,,,,,,,,,,
null,,thebreak,768941,break,,null,,,,,,,,,,,,,,,,,,,,
6166.700000047684,,realistic_rating,775108,Folly Beach,,52,Folly Beach,US,4,,,,,,,,,,,,,,,,,
null,,confidence_buffer,775210,confidence_buffer,,null,,,,,,,,,,,,,,,,,,,,
2497.399999856949,,pt2_unique_rating,777708,Folly Beach,,51,,,3,,,,,,,,,,,,,,,,,
null,,confidence_buffer,777809,confidence_buffer,,null,,,,,,,,,,,,,,,,,,,,
1149.4000000953674,,pt2_memorable_rating,778959,Folly Beach,,50,,,2,,,,,,,,,,,,,,,,,
null,,confidence_buffer,779060,confidence_buffer,,null,,,,,,,,,,,,,,,,,,,,
3015.7000000476837,,recognition_phase,782077,Folly Beach,,52,,,,,,new,0,0.75,,,,,,,,,,,,
null,,confidence_buffer,782178,confidence_buffer,,null,,,,,,,,,,,,,,,,,,,,
null,,thebreak,782680,break,,null,,,,,,,,,,,,,,,,,,,,
4021.100000143051,,realistic_rating,786702,Rosehollow,,51,Rosehollow,Fictional,3,,,,,,,,,,,,,,,,,
null,,confidence_buffer,786805,confidence_buffer,,null,,,,,,,,,,,,,,,,,,,,
1125,,pt2_unique_rating,787931,Rosehollow,,51,,,3,,,,,,,,,,,,,,,,,
null,,confidence_buffer,788033,confidence_buffer,,null,,,,,,,,,,,,,,,,,,,,
3209.9000000953674,,pt2_memorable_rating,791244,Rosehollow,,51,,,3,,,,,,,,,,,,,,,,,
null,,confidence_buffer,791346,confidence_buffer,,null,,,,,,,,,,,,,,,,,,,,
6138.399999856949,,recognition_phase,797485,Rosehollow,,51,,,,,,new,0,0.6923076923076923,,,,,,,,,,,,
null,,confidence_buffer,797587,confidence_buffer,,null,,,,,,,,,,,,,,,,,,,,
null,,thebreak,798089,break,,null,,,,,,,,,,,,,,,,,,,,
1998.3999998569489,,realistic_rating,800088,Maplehurst,,51,Maplehurst,Fictional,3,,,,,,,,,,,,,,,,,
null,,confidence_buffer,800190,confidence_buffer,,null,,,,,,,,,,,,,,,,,,,,
1097,,pt2_unique_rating,801288,Maplehurst,,51,,,3,,,,,,,,,,,,,,,,,
null,,confidence_buffer,801390,confidence_buffer,,null,,,,,,,,,,,,,,,,,,,,
2877.0999999046326,,pt2_memorable_rating,804268,Maplehurst,,50,,,2,,,,,,,,,,,,,,,,,
null,,confidence_buffer,804369,confidence_buffer,,null,,,,,,,,,,,,,,,,,,,,
2826.9000000953674,,recognition_phase,807196,Maplehurst,,51,,,,,,new,1,0.7142857142857143,,,,,,,,,,,,
null,,confidence_buffer,807298,confidence_buffer,,null,,,,,,,,,,,,,,,,,,,,
null,,thebreak,807799,break,,null,,,,,,,,,,,,,,,,,,,,
5024.900000095367,,realistic_rating,812825,Boulder,,52,Boulder,US,4,,,,,,,,,,,,,,,,,
null,,confidence_buffer,812926,confidence_buffer,,null,,,,,,,,,,,,,,,,,,,,
1567.5999999046326,,pt2_unique_rating,814495,Boulder,,52,,,4,,,,,,,,,,,,,,,,,
null,,confidence_buffer,814597,confidence_buffer,,null,,,,,,,,,,,,,,,,,,,,
1045.7000000476837,,pt2_memorable_rating,815644,Boulder,,52,,,4,,,,,,,,,,,,,,,,,
null,,confidence_buffer,815747,confidence_buffer,,null,,,,,,,,,,,,,,,,,,,,
1928.0999999046326,,recognition_phase,817676,Boulder,,49,,,,,,old,1,0.7333333333333333,,,,,,,,,,,,
null,,confidence_buffer,817777,confidence_buffer,,null,,,,,,,,,,,,,,,,,,,,
null,,thebreak,818279,break,,null,,,,,,,,,,,,,,,,,,,,
8510.899999856949,,realistic_rating,826791,Gatlinburg,,51,Gatlinburg,US,3,,,,,,,,,,,,,,,,,
null,,confidence_buffer,826892,confidence_buffer,,null,,,,,,,,,,,,,,,,,,,,
714.3000001907349,,pt2_unique_rating,827607,Gatlinburg,,50,,,2,,,,,,,,,,,,,,,,,
null,,confidence_buffer,827709,confidence_buffer,,null,,,,,,,,,,,,,,,,,,,,
837.9000000953674,,pt2_memorable_rating,828547,Gatlinburg,,51,,,3,,,,,,,,,,,,,,,,,
null,,confidence_buffer,828648,confidence_buffer,,null,,,,,,,,,,,,,,,,,,,,
2235,,recognition_phase,830884,Gatlinburg,,52,,,,,,new,1,0.75,,,,,,,,,,,,
null,,confidence_buffer,830986,confidence_buffer,,null,,,,,,,,,,,,,,,,,,,,
null,,thebreak,831487,break,,null,,,,,,,,,,,,,,,,,,,,
2595.4000000953674,,realistic_rating,834083,Crestwood,,51,Crestwood,Fictional,3,,,,,,,,,,,,,,,,,
null,,confidence_buffer,834185,confidence_buffer,,null,,,,,,,,,,,,,,,,,,,,
2152.2000000476837,,probe_rating,836339,probe_rating,,49,,,,1,1,,,,,,,,,,,,,,,
null,,confidence_buffer,836440,confidence_buffer,,null,,,,,,,,,,,,,,,,,,,,
2395.699999809265,,pt2_unique_rating,838837,Crestwood,,50,,,2,,,,,,,,,,,,,,,,,
null,,confidence_buffer,838939,confidence_buffer,,null,,,,,,,,,,,,,,,,,,,,
1051.4000000953674,,pt2_memorable_rating,839991,Crestwood,,51,,,3,,,,,,,,,,,,,,,,,
null,,confidence_buffer,840092,confidence_buffer,,null,,,,,,,,,,,,,,,,,,,,
5732,,recognition_phase,845825,Crestwood,,49,,,,,,old,1,0.7647058823529411,,,,,,,,,,,,
null,,confidence_buffer,845927,confidence_buffer,,null,,,,,,,,,,,,,,,,,,,,
null,,thebreak,846429,break,,null,,,,,,,,,,,,,,,,,,,,
2267.2000000476837,,realistic_rating,848697,Delaware City,,52,Delaware City,US,4,,,,,,,,,,,,,,,,,
null,,confidence_buffer,848798,confidence_buffer,,null,,,,,,,,,,,,,,,,,,,,
1384.1000001430511,,pt2_unique_rating,850184,Delaware City,,52,,,4,,,,,,,,,,,,,,,,,
null,,confidence_buffer,850285,confidence_buffer,,null,,,,,,,,,,,,,,,,,,,,
2500.4000000953674,,pt2_memorable_rating,852787,Delaware City,,53,,,5,,,,,,,,,,,,,,,,,
null,,confidence_buffer,852888,confidence_buffer,,null,,,,,,,,,,,,,,,,,,,,
2462.7000000476837,,recognition_phase,855352,Delaware City,,49,,,,,,old,1,0.7777777777777778,,,,,,,,,,,,
null,,confidence_buffer,855453,confidence_buffer,,null,,,,,,,,,,,,,,,,,,,,
null,,thebreak,855955,break,,null,,,,,,,,,,,,,,,,,,,,
2038.9000000953674,,realistic_rating,857995,Briarfield,,52,Briarfield,Fictional,4,,,,,,,,,,,,,,,,,
null,,confidence_buffer,858097,confidence_buffer,,null,,,,,,,,,,,,,,,,,,,,
1537.6000001430511,,pt2_unique_rating,859635,Briarfield,,51,,,3,,,,,,,,,,,,,,,,,
null,,confidence_buffer,859737,confidence_buffer,,null,,,,,,,,,,,,,,,,,,,,
683.8999998569489,,pt2_memorable_rating,860421,Briarfield,,52,,,4,,,,,,,,,,,,,,,,,
null,,confidence_buffer,860523,confidence_buffer,,null,,,,,,,,,,,,,,,,,,,,
2482.4000000953674,,recognition_phase,863006,Briarfield,,52,,,,,,new,0,0.7368421052631579,,,,,,,,,,,,
null,,confidence_buffer,863107,confidence_buffer,,null,,,,,,,,,,,,,,,,,,,,
null,,thebreak,863609,break,,null,,,,,,,,,,,,,,,,,,,,
6027.299999952316,,realistic_rating,869637,Baymarsh,,52,Baymarsh,Fictional,4,,,,,,,,,,,,,,,,,
null,,confidence_buffer,869739,confidence_buffer,,null,,,,,,,,,,,,,,,,,,,,
1546.3999998569489,,pt2_unique_rating,871286,Baymarsh,,52,,,4,,,,,,,,,,,,,,,,,
null,,confidence_buffer,871388,confidence_buffer,,null,,,,,,,,,,,,,,,,,,,,
1714.6999998092651,,probe_rating,873103,probe_rating,,49,,,,1,1,,,,,,,,,,,,,,,
null,,confidence_buffer,873204,confidence_buffer,,null,,,,,,,,,,,,,,,,,,,,
1815.3999998569489,,pt2_memorable_rating,875021,Baymarsh,,51,,,3,,,,,,,,,,,,,,,,,
null,,confidence_buffer,875123,confidence_buffer,,null,,,,,,,,,,,,,,,,,,,,
2626.7000000476837,,recognition_phase,877751,Baymarsh,,52,,,,,,new,1,0.75,,,,,,,,,,,,
null,,confidence_buffer,877852,confidence_buffer,,null,,,,,,,,,,,,,,,,,,,,
null,,thebreak,878353,break,,null,,,,,,,,,,,,,,,,,,,,
2470.9000000953674,,realistic_rating,880825,Sunmere,,51,Sunmere,Fictional,3,,,,,,,,,,,,,,,,,
null,,confidence_buffer,880926,confidence_buffer,,null,,,,,,,,,,,,,,,,,,,,
1126,,pt2_unique_rating,882053,Sunmere,,51,,,3,,,,,,,,,,,,,,,,,
null,,confidence_buffer,882156,confidence_buffer,,null,,,,,,,,,,,,,,,,,,,,
1284.5,,pt2_memorable_rating,883441,Sunmere,,51,,,3,,,,,,,,,,,,,,,,,
null,,confidence_buffer,883542,confidence_buffer,,null,,,,,,,,,,,,,,,,,,,,
2691,,recognition_phase,886234,Sunmere,,52,,,,,,new,1,0.7619047619047619,,,,,,,,,,,,
null,,confidence_buffer,886336,confidence_buffer,,null,,,,,,,,,,,,,,,,,,,,
null,,thebreak,886837,break,,null,,,,,,,,,,,,,,,,,,,,
2552.5999999046326,,realistic_rating,889391,Meadowspire,,50,Meadowspire,Fictional,2,,,,,,,,,,,,,,,,,
null,,confidence_buffer,889492,confidence_buffer,,null,,,,,,,,,,,,,,,,,,,,
2844.2000000476837,,probe_rating,892337,probe_rating,,52,,,,4,1,,,,,,,,,,,,,,,
null,,confidence_buffer,892439,confidence_buffer,,null,,,,,,,,,,,,,,,,,,,,
3626,,pt2_unique_rating,896066,Meadowspire,,51,,,3,,,,,,,,,,,,,,,,,
null,,confidence_buffer,896167,confidence_buffer,,null,,,,,,,,,,,,,,,,,,,,
2754.399999856949,,pt2_memorable_rating,898923,Meadowspire,,52,,,4,,,,,,,,,,,,,,,,,
null,,confidence_buffer,899023,confidence_buffer,,null,,,,,,,,,,,,,,,,,,,,
4542.599999904633,,recognition_phase,903567,Meadowspire,,51,,,,,,new,0,0.7272727272727273,,,,,,,,,,,,
null,,confidence_buffer,903667,confidence_buffer,,null,,,,,,,,,,,,,,,,,,,,
null,,thebreak,904169,break,,null,,,,,,,,,,,,,,,,,,,,
2599.7000000476837,,realistic_rating,906769,Cody,,51,Cody,US,3,,,,,,,,,,,,,,,,,
null,,confidence_buffer,906870,confidence_buffer,,null,,,,,,,,,,,,,,,,,,,,
978.0999999046326,,pt2_unique_rating,907849,Cody,,52,,,4,,,,,,,,,,,,,,,,,
null,,confidence_buffer,907951,confidence_buffer,,null,,,,,,,,,,,,,,,,,,,,
1031.7999999523163,,pt2_memorable_rating,908984,Cody,,51,,,3,,,,,,,,,,,,,,,,,
null,,confidence_buffer,909086,confidence_buffer,,null,,,,,,,,,,,,,,,,,,,,
3695.5,,recognition_phase,912782,Cody,,50,,,,,,old,1,0.7391304347826086,,,,,,,,,,,,
null,,confidence_buffer,912884,confidence_buffer,,null,,,,,,,,,,,,,,,,,,,,
null,,thebreak,913385,break,,null,,,,,,,,,,,,,,,,,,,,
3169.9000000953674,,realistic_rating,916556,Silverpine,,51,Silverpine,Fictional,3,,,,,,,,,,,,,,,,,
null,,confidence_buffer,916658,confidence_buffer,,null,,,,,,,,,,,,,,,,,,,,
945.2000000476837,,pt2_unique_rating,917604,Silverpine,,52,,,4,,,,,,,,,,,,,,,,,
null,,confidence_buffer,917705,confidence_buffer,,null,,,,,,,,,,,,,,,,,,,,
895.3999998569489,,pt2_memorable_rating,918601,Silverpine,,51,,,3,,,,,,,,,,,,,,,,,
null,,confidence_buffer,918703,confidence_buffer,,null,,,,,,,,,,,,,,,,,,,,
7161.199999809265,,recognition_phase,925865,Silverpine,,50,,,,,,old,1,0.75,,,,,,,,,,,,
null,,confidence_buffer,925967,confidence_buffer,,null,,,,,,,,,,,,,,,,,,,,
null,,thebreak,926468,break,,null,,,,,,,,,,,,,,,,,,,,
4005.899999856949,,realistic_rating,930475,Redgrove,,52,Redgrove,Fictional,4,,,,,,,,,,,,,,,,,
null,,confidence_buffer,930577,confidence_buffer,,null,,,,,,,,,,,,,,,,,,,,
904.8999998569489,,pt2_unique_rating,931483,Redgrove,,51,,,3,,,,,,,,,,,,,,,,,
null,,confidence_buffer,931584,confidence_buffer,,null,,,,,,,,,,,,,,,,,,,,
1689.5999999046326,,pt2_memorable_rating,933275,Redgrove,,50,,,2,,,,,,,,,,,,,,,,,
null,,confidence_buffer,933377,confidence_buffer,,null,,,,,,,,,,,,,,,,,,,,
3335.7999999523163,,recognition_phase,936713,Redgrove,,51,,,,,,new,0,0.72,,,,,,,,,,,,
null,,confidence_buffer,936815,confidence_buffer,,null,,,,,,,,,,,,,,,,,,,,
null,,thebreak,937317,break,,null,,,,,,,,,,,,,,,,,,,,
3088.7000000476837,,realistic_rating,940407,Orr,,51,Orr,US,3,,,,,,,,,,,,,,,,,
null,,confidence_buffer,940507,confidence_buffer,,null,,,,,,,,,,,,,,,,,,,,
714.6999998092651,,pt2_unique_rating,941223,Orr,,51,,,3,,,,,,,,,,,,,,,,,
null,,confidence_buffer,941326,confidence_buffer,,null,,,,,,,,,,,,,,,,,,,,
891.5,,pt2_memorable_rating,942218,Orr,,51,,,3,,,,,,,,,,,,,,,,,
null,,confidence_buffer,942319,confidence_buffer,,null,,,,,,,,,,,,,,,,,,,,
2073,,recognition_phase,944393,Orr,,49,,,,,,old,1,0.7307692307692307,,,,,,,,,,,,
null,,confidence_buffer,944495,confidence_buffer,,null,,,,,,,,,,,,,,,,,,,,
null,,thebreak,944997,break,,null,,,,,,,,,,,,,,,,,,,,
6074.200000047684,,realistic_rating,951072,Stonebrook,,52,Stonebrook,Fictional,4,,,,,,,,,,,,,,,,,
null,,confidence_buffer,951174,confidence_buffer,,null,,,,,,,,,,,,,,,,,,,,
1598.7999999523163,,pt2_unique_rating,952774,Stonebrook,,51,,,3,,,,,,,,,,,,,,,,,
null,,confidence_buffer,952876,confidence_buffer,,null,,,,,,,,,,,,,,,,,,,,
1397,,pt2_memorable_rating,954274,Stonebrook,,51,,,3,,,,,,,,,,,,,,,,,
null,,confidence_buffer,954376,confidence_buffer,,null,,,,,,,,,,,,,,,,,,,,
3577.100000143051,,recognition_phase,957954,Stonebrook,,50,,,,,,old,0,0.7037037037037037,,,,,,,,,,,,
null,,confidence_buffer,958056,confidence_buffer,,null,,,,,,,,,,,,,,,,,,,,
null,,thebreak,958557,break,,null,,,,,,,,,,,,,,,,,,,,
4421.899999856949,,realistic_rating,962980,New Hope,,53,New Hope,US,5,,,,,,,,,,,,,,,,,
null,,confidence_buffer,963082,confidence_buffer,,null,,,,,,,,,,,,,,,,,,,,
2833.4000000953674,,pt2_unique_rating,965916,New Hope,,53,,,5,,,,,,,,,,,,,,,,,
null,,confidence_buffer,966018,confidence_buffer,,null,,,,,,,,,,,,,,,,,,,,
958.3999998569489,,pt2_memorable_rating,966978,New Hope,,53,,,5,,,,,,,,,,,,,,,,,
null,,confidence_buffer,967080,confidence_buffer,,null,,,,,,,,,,,,,,,,,,,,
2046.4000000953674,,recognition_phase,969128,New Hope,,52,,,,,,new,0,0.6785714285714286,,,,,,,,,,,,
null,,confidence_buffer,969229,confidence_buffer,,null,,,,,,,,,,,,,,,,,,,,
null,,thebreak,969731,break,,null,,,,,,,,,,,,,,,,,,,,
3740.7999999523163,,realistic_rating,973472,New Verdan,,51,New Verdan,Fictional,3,,,,,,,,,,,,,,,,,
null,,confidence_buffer,973573,confidence_buffer,,null,,,,,,,,,,,,,,,,,,,,
1936.7999999523163,,pt2_unique_rating,975511,New Verdan,,52,,,4,,,,,,,,,,,,,,,,,
null,,confidence_buffer,975613,confidence_buffer,,null,,,,,,,,,,,,,,,,,,,,
1073.7999999523163,,pt2_memorable_rating,976688,New Verdan,,52,,,4,,,,,,,,,,,,,,,,,
null,,confidence_buffer,976790,confidence_buffer,,null,,,,,,,,,,,,,,,,,,,,
2146.199999809265,,recognition_phase,978937,New Verdan,,51,,,,,,new,0,0.6551724137931034,,,,,,,,,,,,
null,,confidence_buffer,979039,confidence_buffer,,null,,,,,,,,,,,,,,,,,,,,
null,,thebreak,979547,break,,null,,,,,,,,,,,,,,,,,,,,
6994.700000047684,,realistic_rating,986543,Hawthorne Bluffs,,52,Hawthorne Bluffs,Fictional,4,,,,,,,,,,,,,,,,,
null,,confidence_buffer,986643,confidence_buffer,,null,,,,,,,,,,,,,,,,,,,,
1922.0999999046326,,pt2_unique_rating,988566,Hawthorne Bluffs,,51,,,3,,,,,,,,,,,,,,,,,
null,,confidence_buffer,988668,confidence_buffer,,null,,,,,,,,,,,,,,,,,,,,
721.2999999523163,,pt2_memorable_rating,989391,Hawthorne Bluffs,,51,,,3,,,,,,,,,,,,,,,,,
null,,confidence_buffer,989492,confidence_buffer,,null,,,,,,,,,,,,,,,,,,,,
4011.2000000476837,,recognition_phase,993505,Hawthorne Bluffs,,52,,,,,,new,0,0.6333333333333333,,,,,,,,,,,,
null,,confidence_buffer,993607,confidence_buffer,,null,,,,,,,,,,,,,,,,,,,,
null,,thebreak,994109,break,,null,,,,,,,,,,,,,,,,,,,,
2731.7999999523163,,realistic_rating,996842,Bowling Green,,51,Bowling Green,US,3,,,,,,,,,,,,,,,,,
null,,confidence_buffer,996943,confidence_buffer,,null,,,,,,,,,,,,,,,,,,,,
3529.2999999523163,,pt2_unique_rating,1000473,Bowling Green,,52,,,4,,,,,,,,,,,,,,,,,
null,,confidence_buffer,1000576,confidence_buffer,,null,,,,,,,,,,,,,,,,,,,,
1189.2000000476837,,pt2_memorable_rating,1001766,Bowling Green,,52,,,4,,,,,,,,,,,,,,,,,
null,,confidence_buffer,1001868,confidence_buffer,,null,,,,,,,,,,,,,,,,,,,,
6657.5,,recognition_phase,1008526,Bowling Green,,49,,,,,,old,1,0.6451612903225806,,,,,,,,,,,,
null,,confidence_buffer,1008627,confidence_buffer,,null,,,,,,,,,,,,,,,,,,,,
null,,thebreak,1009129,break,,null,,,,,,,,,,,,,,,,,,,,
2296.2999999523163,,realistic_rating,1011426,Livingston,,52,Livingston,US,4,,,,,,,,,,,,,,,,,
null,,confidence_buffer,1011527,confidence_buffer,,null,,,,,,,,,,,,,,,,,,,,
980.2000000476837,,pt2_unique_rating,1012508,Livingston,,51,,,3,,,,,,,,,,,,,,,,,
null,,confidence_buffer,1012610,confidence_buffer,,null,,,,,,,,,,,,,,,,,,,,
723.5,,pt2_memorable_rating,1013335,Livingston,,51,,,3,,,,,,,,,,,,,,,,,
null,,confidence_buffer,1013436,confidence_buffer,,null,,,,,,,,,,,,,,,,,,,,
2126,,recognition_phase,1015564,Livingston,,50,,,,,,old,1,0.65625,,,,,,,,,,,,
null,,confidence_buffer,1015666,confidence_buffer,,null,,,,,,,,,,,,,,,,,,,,
null,,thebreak,1016167,break,,null,,,,,,,,,,,,,,,,,,,,
2594.199999809265,,realistic_rating,1018762,Granton Ridge,,52,Granton Ridge,Fictional,4,,,,,,,,,,,,,,,,,
null,,confidence_buffer,1018865,confidence_buffer,,null,,,,,,,,,,,,,,,,,,,,
1162.4000000953674,,pt2_unique_rating,1020028,Granton Ridge,,51,,,3,,,,,,,,,,,,,,,,,
null,,confidence_buffer,1020130,confidence_buffer,,null,,,,,,,,,,,,,,,,,,,,
613.0999999046326,,pt2_memorable_rating,1020744,Granton Ridge,,51,,,3,,,,,,,,,,,,,,,,,
null,,confidence_buffer,1020846,confidence_buffer,,null,,,,,,,,,,,,,,,,,,,,
1579.7000000476837,,recognition_phase,1022427,Granton Ridge,,51,,,,,,new,1,0.6666666666666666,,,,,,,,,,,,
null,,confidence_buffer,1022529,confidence_buffer,,null,,,,,,,,,,,,,,,,,,,,
null,,thebreak,1023030,break,,null,,,,,,,,,,,,,,,,,,,,
5667.599999904633,,realistic_rating,1028698,Bayshore Haven,,50,Bayshore Haven,Fictional,2,,,,,,,,,,,,,,,,,
null,,confidence_buffer,1028800,confidence_buffer,,null,,,,,,,,,,,,,,,,,,,,
1188.5,,pt2_unique_rating,1029989,Bayshore Haven,,51,,,3,,,,,,,,,,,,,,,,,
null,,confidence_buffer,1030092,confidence_buffer,,null,,,,,,,,,,,,,,,,,,,,
872.4000000953674,,pt2_memorable_rating,1030966,Bayshore Haven,,51,,,3,,,,,,,,,,,,,,,,,
null,,confidence_buffer,1031067,confidence_buffer,,null,,,,,,,,,,,,,,,,,,,,
1948.8999998569489,,recognition_phase,1033017,Bayshore Haven,,50,,,,,,old,0,0.6470588235294118,,,,,,,,,,,,
null,,confidence_buffer,1033119,confidence_buffer,,null,,,,,,,,,,,,,,,,,,,,
null,,thebreak,1033621,break,,null,,,,,,,,,,,,,,,,,,,,
2412.2999999523163,,realistic_rating,1036034,Gloucester,,51,Gloucester,US,3,,,,,,,,,,,,,,,,,
null,,confidence_buffer,1036136,confidence_buffer,,null,,,,,,,,,,,,,,,,,,,,
998,,pt2_unique_rating,1037135,Gloucester,,50,,,2,,,,,,,,,,,,,,,,,
null,,confidence_buffer,1037237,confidence_buffer,,null,,,,,,,,,,,,,,,,,,,,
701.1000001430511,,pt2_memorable_rating,1037939,Gloucester,,51,,,3,,,,,,,,,,,,,,,,,
null,,confidence_buffer,1038041,confidence_buffer,,null,,,,,,,,,,,,,,,,,,,,
2473.399999856949,,probe_rating,1040516,probe_rating,,50,,,,2,1,,,,,,,,,,,,,,,
null,,confidence_buffer,1040617,confidence_buffer,,null,,,,,,,,,,,,,,,,,,,,
6051.099999904633,,recognition_phase,1046669,Gloucester,,49,,,,,,old,1,0.6571428571428571,,,,,,,,,,,,
null,,confidence_buffer,1046771,confidence_buffer,,null,,,,,,,,,,,,,,,,,,,,
null,,thebreak,1047272,break,,null,,,,,,,,,,,,,,,,,,,,
9526.399999856949,,realistic_rating,1056799,Linden Trace,,52,Linden Trace,Fictional,4,,,,,,,,,,,,,,,,,
null,,confidence_buffer,1056900,confidence_buffer,,null,,,,,,,,,,,,,,,,,,,,
682.7000000476837,,pt2_unique_rating,1057584,Linden Trace,,51,,,3,,,,,,,,,,,,,,,,,
null,,confidence_buffer,1057686,confidence_buffer,,null,,,,,,,,,,,,,,,,,,,,
1312.5999999046326,,pt2_memorable_rating,1058999,Linden Trace,,51,,,3,,,,,,,,,,,,,,,,,
null,,confidence_buffer,1059100,confidence_buffer,,null,,,,,,,,,,,,,,,,,,,,
2762.2999999523163,,recognition_phase,1061864,Linden Trace,,51,,,,,,new,0,0.6388888888888888,,,,,,,,,,,,
null,,confidence_buffer,1061966,confidence_buffer,,null,,,,,,,,,,,,,,,,,,,,
null,,thebreak,1062467,break,,null,,,,,,,,,,,,,,,,,,,,
1550.4000000953674,,realistic_rating,1064019,Abilene,,51,Abilene,US,3,,,,,,,,,,,,,,,,,
null,,confidence_buffer,1064120,confidence_buffer,,null,,,,,,,,,,,,,,,,,,,,
2035.7999999523163,,probe_rating,1066157,probe_rating,,52,,,,4,1,,,,,,,,,,,,,,,
null,,confidence_buffer,1066259,confidence_buffer,,null,,,,,,,,,,,,,,,,,,,,
3062.0999999046326,,pt2_unique_rating,1069322,Abilene,,51,,,3,,,,,,,,,,,,,,,,,
null,,confidence_buffer,1069425,confidence_buffer,,null,,,,,,,,,,,,,,,,,,,,
1643.2999999523163,,pt2_memorable_rating,1071069,Abilene,,51,,,3,,,,,,,,,,,,,,,,,
null,,confidence_buffer,1071170,confidence_buffer,,null,,,,,,,,,,,,,,,,,,,,
2823.9000000953674,,recognition_phase,1073995,Abilene,,52,,,,,,new,1,0.6486486486486487,,,,,,,,,,,,
null,,confidence_buffer,1074096,confidence_buffer,,null,,,,,,,,,,,,,,,,,,,,
null,,thebreak,1074597,break,,null,,,,,,,,,,,,,,,,,,,,
2428.5,,realistic_rating,1077026,Claywater,,51,Claywater,Fictional,3,,,,,,,,,,,,,,,,,
null,,confidence_buffer,1077127,confidence_buffer,,null,,,,,,,,,,,,,,,,,,,,
995.9000000953674,,pt2_unique_rating,1078124,Claywater,,51,,,3,,,,,,,,,,,,,,,,,
null,,confidence_buffer,1078226,confidence_buffer,,null,,,,,,,,,,,,,,,,,,,,
573.6000001430511,,pt2_memorable_rating,1078801,Claywater,,51,,,3,,,,,,,,,,,,,,,,,
null,,confidence_buffer,1078901,confidence_buffer,,null,,,,,,,,,,,,,,,,,,,,
2076.399999856949,,recognition_phase,1080978,Claywater,,50,,,,,,old,1,0.6578947368421053,,,,,,,,,,,,
null,,confidence_buffer,1081080,confidence_buffer,,null,,,,,,,,,,,,,,,,,,,,
null,,thebreak,1081581,break,,null,,,,,,,,,,,,,,,,,,,,
2500.7000000476837,,realistic_rating,1084083,Juniper Creek,,51,Juniper Creek,Fictional,3,,,,,,,,,,,,,,,,,
null,,confidence_buffer,1084184,confidence_buffer,,null,,,,,,,,,,,,,,,,,,,,
640.2999999523163,,pt2_unique_rating,1084825,Juniper Creek,,52,,,4,,,,,,,,,,,,,,,,,
null,,confidence_buffer,1084927,confidence_buffer,,null,,,,,,,,,,,,,,,,,,,,
564.8000001907349,,pt2_memorable_rating,1085493,Juniper Creek,,51,,,3,,,,,,,,,,,,,,,,,
null,,confidence_buffer,1085595,confidence_buffer,,null,,,,,,,,,,,,,,,,,,,,
2319.7999999523163,,recognition_phase,1087916,Juniper Creek,,52,,,,,,new,1,0.6666666666666666,,,,,,,,,,,,
null,,confidence_buffer,1088017,confidence_buffer,,null,,,,,,,,,,,,,,,,,,,,
null,,thebreak,1088518,break,,null,,,,,,,,,,,,,,,,,,,,
3111.899999856949,,realistic_rating,1091631,Sitka,,51,Sitka,US,3,,,,,,,,,,,,,,,,,
null,,confidence_buffer,1091732,confidence_buffer,,null,,,,,,,,,,,,,,,,,,,,
798.2999999523163,,pt2_unique_rating,1092532,Sitka,,52,,,4,,,,,,,,,,,,,,,,,
null,,confidence_buffer,1092635,confidence_buffer,,null,,,,,,,,,,,,,,,,,,,,
1502.5,,pt2_memorable_rating,1094139,Sitka,,53,,,5,,,,,,,,,,,,,,,,,
null,,confidence_buffer,1094240,confidence_buffer,,null,,,,,,,,,,,,,,,,,,,,
3081,,recognition_phase,1097322,Sitka,,49,,,,,,old,1,0.675,,,,,,,,,,,,
null,,confidence_buffer,1097424,confidence_buffer,,null,,,,,,,,,,,,,,,,,,,,
null,,thebreak,1097925,break,,null,,,,,,,,,,,,,,,,,,,,
2325.7000000476837,,realistic_rating,1100252,Medora,,51,Medora,US,3,,,,,,,,,,,,,,,,,
null,,confidence_buffer,1100357,confidence_buffer,,null,,,,,,,,,,,,,,,,,,,,
1222.2999999523163,,pt2_unique_rating,1101580,Medora,,52,,,4,,,,,,,,,,,,,,,,,
null,,confidence_buffer,1101682,confidence_buffer,,null,,,,,,,,,,,,,,,,,,,,
589.9000000953674,,pt2_memorable_rating,1102273,Medora,,50,,,2,,,,,,,,,,,,,,,,,
null,,confidence_buffer,1102375,confidence_buffer,,null,,,,,,,,,,,,,,,,,,,,
2917.5,,recognition_phase,1105293,Medora,,52,,,,,,new,1,0.6829268292682927,,,,,,,,,,,,
null,,confidence_buffer,1105395,confidence_buffer,,null,,,,,,,,,,,,,,,,,,,,
null,,thebreak,1105897,break,,null,,,,,,,,,,,,,,,,,,,,
2642.9000000953674,,realistic_rating,1108541,Cleveland,,52,Cleveland,US,4,,,,,,,,,,,,,,,,,
null,,confidence_buffer,1108642,confidence_buffer,,null,,,,,,,,,,,,,,,,,,,,
632.7999999523163,,pt2_unique_rating,1109276,Cleveland,,51,,,3,,,,,,,,,,,,,,,,,
null,,confidence_buffer,1109377,confidence_buffer,,null,,,,,,,,,,,,,,,,,,,,
651.5,,pt2_memorable_rating,1110029,Cleveland,,51,,,3,,,,,,,,,,,,,,,,,
null,,confidence_buffer,1110130,confidence_buffer,,null,,,,,,,,,,,,,,,,,,,,
2182,,recognition_phase,1112313,Cleveland,,52,,,,,,new,1,0.6904761904761905,,,,,,,,,,,,
null,,confidence_buffer,1112417,confidence_buffer,,null,,,,,,,,,,,,,,,,,,,,
null,,thebreak,1112919,break,,null,,,,,,,,,,,,,,,,,,,,
2914.4000000953674,,realistic_rating,1115835,Natchez,,51,Natchez,US,3,,,,,,,,,,,,,,,,,
null,,confidence_buffer,1115937,confidence_buffer,,null,,,,,,,,,,,,,,,,,,,,
671.7999999523163,,pt2_unique_rating,1116610,Natchez,,52,,,4,,,,,,,,,,,,,,,,,
null,,confidence_buffer,1116712,confidence_buffer,,null,,,,,,,,,,,,,,,,,,,,
1012.2999999523163,,pt2_memorable_rating,1117726,Natchez,,51,,,3,,,,,,,,,,,,,,,,,
null,,confidence_buffer,1117827,confidence_buffer,,null,,,,,,,,,,,,,,,,,,,,
2498.300000190735,,recognition_phase,1120326,Natchez,,52,,,,,,new,1,0.6976744186046512,,,,,,,,,,,,
null,,confidence_buffer,1120428,confidence_buffer,,null,,,,,,,,,,,,,,,,,,,,
null,,thebreak,1120929,break,,null,,,,,,,,,,,,,,,,,,,,
3558.5999999046326,,realistic_rating,1124488,Shreveport,,51,Shreveport,US,3,,,,,,,,,,,,,,,,,
null,,confidence_buffer,1124590,confidence_buffer,,null,,,,,,,,,,,,,,,,,,,,
860.7000000476837,,pt2_unique_rating,1125452,Shreveport,,50,,,2,,,,,,,,,,,,,,,,,
null,,confidence_buffer,1125554,confidence_buffer,,null,,,,,,,,,,,,,,,,,,,,
673.7999999523163,,pt2_memorable_rating,1126229,Shreveport,,50,,,2,,,,,,,,,,,,,,,,,
null,,confidence_buffer,1126331,confidence_buffer,,null,,,,,,,,,,,,,,,,,,,,
2215.5999999046326,,recognition_phase,1128547,Shreveport,,49,,,,,,old,0,0.6818181818181818,,,,,,,,,,,,
null,,confidence_buffer,1128649,confidence_buffer,,null,,,,,,,,,,,,,,,,,,,,
null,,thebreak,1129150,break,,null,,,,,,,,,,,,,,,,,,,,
3002.9000000953674,,realistic_rating,1132154,Lakehaven,,51,Lakehaven,Fictional,3,,,,,,,,,,,,,,,,,
null,,confidence_buffer,1132257,confidence_buffer,,null,,,,,,,,,,,,,,,,,,,,
852.5,,pt2_unique_rating,1133110,Lakehaven,,51,,,3,,,,,,,,,,,,,,,,,
null,,confidence_buffer,1133212,confidence_buffer,,null,,,,,,,,,,,,,,,,,,,,
715.5999999046326,,pt2_memorable_rating,1133928,Lakehaven,,51,,,3,,,,,,,,,,,,,,,,,
null,,confidence_buffer,1134029,confidence_buffer,,null,,,,,,,,,,,,,,,,,,,,
2017.1000001430511,,recognition_phase,1136048,Lakehaven,,51,,,,,,new,0,0.6666666666666666,,,,,,,,,,,,
null,,confidence_buffer,1136149,confidence_buffer,,null,,,,,,,,,,,,,,,,,,,,
null,,thebreak,1136650,break,,null,,,,,,,,,,,,,,,,,,,,
6635.700000047684,,realistic_rating,1143287,Oakridge,,52,Oakridge,Fictional,4,,,,,,,,,,,,,,,,,
null,,confidence_buffer,1143389,confidence_buffer,,null,,,,,,,,,,,,,,,,,,,,
2108.2999999523163,,pt2_unique_rating,1145498,Oakridge,,51,,,3,,,,,,,,,,,,,,,,,
null,,confidence_buffer,1145599,confidence_buffer,,null,,,,,,,,,,,,,,,,,,,,
1265.5999999046326,,pt2_memorable_rating,1146866,Oakridge,,51,,,3,,,,,,,,,,,,,,,,,
null,,confidence_buffer,1146967,confidence_buffer,,null,,,,,,,,,,,,,,,,,,,,
2091.2000000476837,,recognition_phase,1149060,Oakridge,,50,,,,,,old,0,0.6521739130434783,,,,,,,,,,,,
null,,confidence_buffer,1149161,confidence_buffer,,null,,,,,,,,,,,,,,,,,,,,
null,,thebreak,1149663,break,,null,,,,,,,,,,,,,,,,,,,,
16097.199999809265,,realistic_rating,1165761,Barnard,,52,Barnard,US,4,,,,,,,,,,,,,,,,,
null,,confidence_buffer,1165864,confidence_buffer,,null,,,,,,,,,,,,,,,,,,,,
1252,,pt2_unique_rating,1167117,Barnard,,51,,,3,,,,,,,,,,,,,,,,,
null,,confidence_buffer,1167219,confidence_buffer,,null,,,,,,,,,,,,,,,,,,,,
639.5999999046326,,pt2_memorable_rating,1167859,Barnard,,51,,,3,,,,,,,,,,,,,,,,,
null,,confidence_buffer,1167961,confidence_buffer,,null,,,,,,,,,,,,,,,,,,,,
2174.5999999046326,,recognition_phase,1170136,Barnard,,50,,,,,,old,1,0.6595744680851063,,,,,,,,,,,,
null,,confidence_buffer,1170237,confidence_buffer,,null,,,,,,,,,,,,,,,,,,,,
null,,thebreak,1170739,break,,null,,,,,,,,,,,,,,,,,,,,
2752.399999856949,,realistic_rating,1173492,Huntsville,,51,Huntsville,US,3,,,,,,,,,,,,,,,,,
null,,confidence_buffer,1173593,confidence_buffer,,null,,,,,,,,,,,,,,,,,,,,
710.2000000476837,,pt2_unique_rating,1174305,Huntsville,,51,,,3,,,,,,,,,,,,,,,,,
null,,confidence_buffer,1174407,confidence_buffer,,null,,,,,,,,,,,,,,,,,,,,
804.2000000476837,,pt2_memorable_rating,1175212,Huntsville,,51,,,3,,,,,,,,,,,,,,,,,
null,,confidence_buffer,1175315,confidence_buffer,,null,,,,,,,,,,,,,,,,,,,,
2632.7999999523163,,recognition_phase,1177950,Huntsville,,49,,,,,,old,1,0.6666666666666666,,,,,,,,,,,,
null,,confidence_buffer,1178051,confidence_buffer,,null,,,,,,,,,,,,,,,,,,,,
null,,thebreak,1178554,break,,null,,,,,,,,,,,,,,,,,,,,
2196.7000000476837,,realistic_rating,1180751,Clearbrook,,51,Clearbrook,Fictional,3,,,,,,,,,,,,,,,,,
null,,confidence_buffer,1180852,confidence_buffer,,null,,,,,,,,,,,,,,,,,,,,
627,,pt2_unique_rating,1181480,Clearbrook,,52,,,4,,,,,,,,,,,,,,,,,
null,,confidence_buffer,1181581,confidence_buffer,,null,,,,,,,,,,,,,,,,,,,,
796,,pt2_memorable_rating,1182378,Clearbrook,,51,,,3,,,,,,,,,,,,,,,,,
null,,confidence_buffer,1182480,confidence_buffer,,null,,,,,,,,,,,,,,,,,,,,
1642,,recognition_phase,1184123,Clearbrook,,50,,,,,,old,0,0.6530612244897959,,,,,,,,,,,,
null,,confidence_buffer,1184226,confidence_buffer,,null,,,,,,,,,,,,,,,,,,,,
null,,thebreak,1184728,break,,null,,,,,,,,,,,,,,,,,,,,
3040.7999999523163,,realistic_rating,1187770,Orchard Bend,,51,Orchard Bend,Fictional,3,,,,,,,,,,,,,,,,,
null,,confidence_buffer,1187872,confidence_buffer,,null,,,,,,,,,,,,,,,,,,,,
1617,,pt2_unique_rating,1189490,Orchard Bend,,52,,,4,,,,,,,,,,,,,,,,,
null,,confidence_buffer,1189592,confidence_buffer,,null,,,,,,,,,,,,,,,,,,,,
1331.2999999523163,,pt2_memorable_rating,1190924,Orchard Bend,,52,,,4,,,,,,,,,,,,,,,,,
null,,confidence_buffer,1191026,confidence_buffer,,null,,,,,,,,,,,,,,,,,,,,
2653.2999999523163,,recognition_phase,1193680,Orchard Bend,,52,,,,,,new,1,0.66,,,,,,,,,,,,
null,,confidence_buffer,1193782,confidence_buffer,,null,,,,,,,,,,,,,,,,,,,,
null,,thebreak,1194284,break,,null,,,,,,,,,,,,,,,,,,,,
4902.799999952316,,realistic_rating,1199188,Custer,,51,Custer,US,3,,,,,,,,,,,,,,,,,
null,,confidence_buffer,1199289,confidence_buffer,,null,,,,,,,,,,,,,,,,,,,,
1018.7000000476837,,pt2_unique_rating,1200309,Custer,,51,,,3,,,,,,,,,,,,,,,,,
null,,confidence_buffer,1200410,confidence_buffer,,null,,,,,,,,,,,,,,,,,,,,
599.2000000476837,,pt2_memorable_rating,1201010,Custer,,51,,,3,,,,,,,,,,,,,,,,,
null,,confidence_buffer,1201111,confidence_buffer,,null,,,,,,,,,,,,,,,,,,,,
2901.9000000953674,,recognition_phase,1204015,Custer,,51,,,,,,new,1,0.6666666666666666,,,,,,,,,,,,
null,,confidence_buffer,1204116,confidence_buffer,,null,,,,,,,,,,,,,,,,,,,,
null,,thebreak,1204617,break,,null,,,,,,,,,,,,,,,,,,,,
2188.2999999523163,,realistic_rating,1206806,Hanover,,50,Hanover,US,2,,,,,,,,,,,,,,,,,
null,,confidence_buffer,1206908,confidence_buffer,,null,,,,,,,,,,,,,,,,,,,,
1784.3000001907349,,probe_rating,1208694,probe_rating,,50,,,,2,1,,,,,,,,,,,,,,,
null,,confidence_buffer,1208795,confidence_buffer,,null,,,,,,,,,,,,,,,,,,,,
1441.3000001907349,,pt2_unique_rating,1210238,Hanover,,51,,,3,,,,,,,,,,,,,,,,,
null,,confidence_buffer,1210339,confidence_buffer,,null,,,,,,,,,,,,,,,,,,,,
564,,pt2_memorable_rating,1210904,Hanover,,51,,,3,,,,,,,,,,,,,,,,,
null,,confidence_buffer,1211006,confidence_buffer,,null,,,,,,,,,,,,,,,,,,,,
2007.9000000953674,,recognition_phase,1213015,Hanover,,50,,,,,,old,0,0.6538461538461539,,,,,,,,,,,,
null,,confidence_buffer,1213116,confidence_buffer,,null,,,,,,,,,,,,,,,,,,,,
null,,thebreak,1213618,break,,null,,,,,,,,,,,,,,,,,,,,
4629.799999952316,,realistic_rating,1218249,Millstone,,51,Millstone,Fictional,3,,,,,,,,,,,,,,,,,
null,,confidence_buffer,1218350,confidence_buffer,,null,,,,,,,,,,,,,,,,,,,,
1291.3999998569489,,pt2_unique_rating,1219642,Millstone,,51,,,3,,,,,,,,,,,,,,,,,
null,,confidence_buffer,1219744,confidence_buffer,,null,,,,,,,,,,,,,,,,,,,,
1963.9000000953674,,probe_rating,1221709,probe_rating,,53,,,,5,1,,,,,,,,,,,,,,,
null,,confidence_buffer,1221811,confidence_buffer,,null,,,,,,,,,,,,,,,,,,,,
1986.0999999046326,,pt2_memorable_rating,1223798,Millstone,,51,,,3,,,,,,,,,,,,,,,,,
null,,confidence_buffer,1223899,confidence_buffer,,null,,,,,,,,,,,,,,,,,,,,
3285.199999809265,,recognition_phase,1227186,Millstone,,51,,,,,,new,1,0.660377358490566,,,,,,,,,,,,
null,,confidence_buffer,1227287,confidence_buffer,,null,,,,,,,,,,,,,,,,,,,,
null,,thebreak,1227788,break,,null,,,,,,,,,,,,,,,,,,,,
3750.5,,realistic_rating,1231539,Yukon,,51,Yukon,US,3,,,,,,,,,,,,,,,,,
null,,confidence_buffer,1231641,confidence_buffer,,null,,,,,,,,,,,,,,,,,,,,
1060.6000001430511,,pt2_unique_rating,1232702,Yukon,,51,,,3,,,,,,,,,,,,,,,,,
null,,confidence_buffer,1232804,confidence_buffer,,null,,,,,,,,,,,,,,,,,,,,
527.2000000476837,,pt2_memorable_rating,1233332,Yukon,,52,,,4,,,,,,,,,,,,,,,,,
null,,confidence_buffer,1233433,confidence_buffer,,null,,,,,,,,,,,,,,,,,,,,
5149,,recognition_phase,1238583,Yukon,,52,,,,,,new,1,0.6666666666666666,,,,,,,,,,,,
null,,confidence_buffer,1238685,confidence_buffer,,null,,,,,,,,,,,,,,,,,,,,
null,,thebreak,1239187,break,,null,,,,,,,,,,,,,,,,,,,,
2341.2000000476837,,realistic_rating,1241529,Tamarisk Hills,,51,Tamarisk Hills,Fictional,3,,,,,,,,,,,,,,,,,
null,,confidence_buffer,1241631,confidence_buffer,,null,,,,,,,,,,,,,,,,,,,,
2073.600000143051,,pt2_unique_rating,1243705,Tamarisk Hills,,51,,,3,,,,,,,,,,,,,,,,,
null,,confidence_buffer,1243807,confidence_buffer,,null,,,,,,,,,,,,,,,,,,,,
2084.5999999046326,,probe_rating,1245893,probe_rating,,51,,,,3,1,,,,,,,,,,,,,,,
null,,confidence_buffer,1245995,confidence_buffer,,null,,,,,,,,,,,,,,,,,,,,
1993.0999999046326,,pt2_memorable_rating,1247989,Tamarisk Hills,,51,,,3,,,,,,,,,,,,,,,,,
null,,confidence_buffer,1248091,confidence_buffer,,null,,,,,,,,,,,,,,,,,,,,
2212.0999999046326,,recognition_phase,1250304,Tamarisk Hills,,50,,,,,,old,1,0.6727272727272727,,,,,,,,,,,,
null,,confidence_buffer,1250406,confidence_buffer,,null,,,,,,,,,,,,,,,,,,,,
null,,thebreak,1250908,break,,null,,,,,,,,,,,,,,,,,,,,
1937.3999998569489,,realistic_rating,1252846,Berkeley Springs,,51,Berkeley Springs,US,3,,,,,,,,,,,,,,,,,
null,,confidence_buffer,1252948,confidence_buffer,,null,,,,,,,,,,,,,,,,,,,,
867.0999999046326,,pt2_unique_rating,1253816,Berkeley Springs,,52,,,4,,,,,,,,,,,,,,,,,
null,,confidence_buffer,1253918,confidence_buffer,,null,,,,,,,,,,,,,,,,,,,,
1281.1999998092651,,pt2_memorable_rating,1255200,Berkeley Springs,,52,,,4,,,,,,,,,,,,,,,,,
null,,confidence_buffer,1255302,confidence_buffer,,null,,,,,,,,,,,,,,,,,,,,
2536,,probe_rating,1257839,probe_rating,,51,,,,3,1,,,,,,,,,,,,,,,
null,,confidence_buffer,1257940,confidence_buffer,,null,,,,,,,,,,,,,,,,,,,,
3719.7999999523163,,recognition_phase,1261661,Berkeley Springs,,51,,,,,,new,1,0.6785714285714286,,,,,,,,,,,,
null,,confidence_buffer,1261764,confidence_buffer,,null,,,,,,,,,,,,,,,,,,,,
null,,thebreak,1262266,break,,null,,,,,,,,,,,,,,,,,,,,
3531.7999999523163,,realistic_rating,1265798,Driftwood Bay,,51,Driftwood Bay,Fictional,3,,,,,,,,,,,,,,,,,
null,,confidence_buffer,1265900,confidence_buffer,,null,,,,,,,,,,,,,,,,,,,,
951.7000000476837,,pt2_unique_rating,1266853,Driftwood Bay,,51,,,3,,,,,,,,,,,,,,,,,
null,,confidence_buffer,1266955,confidence_buffer,,null,,,,,,,,,,,,,,,,,,,,
713.7999999523163,,pt2_memorable_rating,1267670,Driftwood Bay,,51,,,3,,,,,,,,,,,,,,,,,
null,,confidence_buffer,1267772,confidence_buffer,,null,,,,,,,,,,,,,,,,,,,,
3083.0999999046326,,recognition_phase,1270856,Driftwood Bay,,52,,,,,,new,1,0.6842105263157895,,,,,,,,,,,,
null,,confidence_buffer,1270958,confidence_buffer,,null,,,,,,,,,,,,,,,,,,,,
null,,thebreak,1271459,break,,null,,,,,,,,,,,,,,,,,,,,
2496.7999999523163,,realistic_rating,1273957,Coeur d'Alene,,50,Coeur d'Alene,US,2,,,,,,,,,,,,,,,,,
null,,confidence_buffer,1274058,confidence_buffer,,null,,,,,,,,,,,,,,,,,,,,
2141.399999856949,,probe_rating,1276200,probe_rating,,51,,,,3,1,,,,,,,,,,,,,,,
null,,confidence_buffer,1276302,confidence_buffer,,null,,,,,,,,,,,,,,,,,,,,
1724.3999998569489,,pt2_unique_rating,1278027,Coeur d'Alene,,51,,,3,,,,,,,,,,,,,,,,,
null,,confidence_buffer,1278129,confidence_buffer,,null,,,,,,,,,,,,,,,,,,,,
1440.0999999046326,,pt2_memorable_rating,1279570,Coeur d'Alene,,52,,,4,,,,,,,,,,,,,,,,,
null,,confidence_buffer,1279672,confidence_buffer,,null,,,,,,,,,,,,,,,,,,,,
1997.1000001430511,,recognition_phase,1281670,Coeur d'Alene,,49,,,,,,old,1,0.6896551724137931,,,,,,,,,,,,
null,,confidence_buffer,1281772,confidence_buffer,,null,,,,,,,,,,,,,,,,,,,,
null,,thebreak,1282273,break,,null,,,,,,,,,,,,,,,,,,,,
2671.5,,realistic_rating,1284946,Summershade,,51,Summershade,Fictional,3,,,,,,,,,,,,,,,,,
null,,confidence_buffer,1285048,confidence_buffer,,null,,,,,,,,,,,,,,,,,,,,
765.5,,pt2_unique_rating,1285814,Summershade,,52,,,4,,,,,,,,,,,,,,,,,
null,,confidence_buffer,1285916,confidence_buffer,,null,,,,,,,,,,,,,,,,,,,,
591.7000000476837,,pt2_memorable_rating,1286508,Summershade,,51,,,3,,,,,,,,,,,,,,,,,
null,,confidence_buffer,1286610,confidence_buffer,,null,,,,,,,,,,,,,,,,,,,,
2890.100000143051,,recognition_phase,1289501,Summershade,,52,,,,,,new,1,0.6949152542372882,,,,,,,,,,,,
null,,confidence_buffer,1289602,confidence_buffer,,null,,,,,,,,,,,,,,,,,,,,
null,,thebreak,1290104,break,,null,,,,,,,,,,,,,,,,,,,,
2222.7000000476837,,realistic_rating,1292327,Coralridge,,51,Coralridge,Fictional,3,,,,,,,,,,,,,,,,,
null,,confidence_buffer,1292430,confidence_buffer,,null,,,,,,,,,,,,,,,,,,,,
2090.9000000953674,,probe_rating,1294522,probe_rating,,51,,,,3,1,,,,,,,,,,,,,,,
null,,confidence_buffer,1294624,confidence_buffer,,null,,,,,,,,,,,,,,,,,,,,
1885.9000000953674,,pt2_unique_rating,1296511,Coralridge,,52,,,4,,,,,,,,,,,,,,,,,
null,,confidence_buffer,1296612,confidence_buffer,,null,,,,,,,,,,,,,,,,,,,,
601.5,,pt2_memorable_rating,1297215,Coralridge,,52,,,4,,,,,,,,,,,,,,,,,
null,,confidence_buffer,1297316,confidence_buffer,,null,,,,,,,,,,,,,,,,,,,,
1268.5999999046326,,recognition_phase,1298585,Coralridge,,50,,,,,,old,0,0.6833333333333333,,,,,,,,,,,,
null,,confidence_buffer,1298687,confidence_buffer,,null,,,,,,,,,,,,,,,,,,,,
null,,thebreak,1299188,break,,null,,,,,,,,,,,,,,,,,,,,
,,survey,1572816,survey-questions,,,,,,,,,,,none,high,nothing,try to rembere back the best thatr I could,Some of them were easy to rember,It was memorable to me,This was vedrey Unique,
It did not seam Realisatic to me,No not this kind of test,The taask was  verey taxing on my mind!,,
12157.200000047684,,thank_you,1585001,all_done,,32,,,,,,,,,,,,,,,,,,,0,1
