rt,responses,trial_type,time_elapsed,stimulus,button_pressed,key_press,name_trial,city_type,rating,probe,probe_accuracy,response,correct,accuracy,problems,smooth,distraction,strategies,familiar,memorable,unique,realistic,similar,comments
11483,{worker_id:63b9ff9f64549294f0abe3c1},id_enter,11486,,,,,,,,,,,,,,,,,,,,,
8964,,fullscreen,20454,fullscreen,0,,,,,,,,,,,,,,,,,,,
8624,,intro_0,29081,instruct,,32,,,,,,,,,,,,,,,,,,
9670,,intro_1,38752,instruct,,32,,,,,,,,,,,,,,,,,,
6688,,intro_2,45440,instruct,,32,,,,,,,,,,,,,,,,,,
null,,instruct_dir_4,46946,instruct,,null,,,,,,,,,,,,,,,,,,
null,,thebreak,47494,break,,null,,,,,,,,,,,,,,,,,,
6587,,familiar_rating,54090,Albuquerque,,53,Albuquerque,US,5,,,,,,,,,,,,,,,
null,,confidence_buffer,54206,confidence_buffer,,null,,,,,,,,,,,,,,,,,,
5209,,unique_rating,59417,Albuquerque,,53,,,5,,,,,,,,,,,,,,,
null,,confidence_buffer,59524,confidence_buffer,,null,,,,,,,,,,,,,,,,,,
3085,,memorable_rating,62610,Albuquerque,,53,,,5,,,,,,,,,,,,,,,
null,,confidence_buffer,62712,confidence_buffer,,null,,,,,,,,,,,,,,,,,,
null,,thebreak,63226,break,,null,,,,,,,,,,,,,,,,,,
6159,,familiar_rating,69386,Lakehaven,,50,Lakehaven,Fictional,2,,,,,,,,,,,,,,,
null,,confidence_buffer,69492,confidence_buffer,,null,,,,,,,,,,,,,,,,,,
4693,,unique_rating,74186,Lakehaven,,52,,,4,,,,,,,,,,,,,,,
null,,confidence_buffer,74288,confidence_buffer,,null,,,,,,,,,,,,,,,,,,
5619,,memorable_rating,79907,Lakehaven,,50,,,2,,,,,,,,,,,,,,,
null,,confidence_buffer,80022,confidence_buffer,,null,,,,,,,,,,,,,,,,,,
null,,thebreak,80531,break,,null,,,,,,,,,,,,,,,,,,
5287,,familiar_rating,85819,Watkins Glen,,53,Watkins Glen,US,5,,,,,,,,,,,,,,,
null,,confidence_buffer,85931,confidence_buffer,,null,,,,,,,,,,,,,,,,,,
2744,,unique_rating,88675,Watkins Glen,,53,,,5,,,,,,,,,,,,,,,
null,,confidence_buffer,88778,confidence_buffer,,null,,,,,,,,,,,,,,,,,,
3512,,memorable_rating,92291,Watkins Glen,,50,,,2,,,,,,,,,,,,,,,
null,,confidence_buffer,92395,confidence_buffer,,null,,,,,,,,,,,,,,,,,,
8000,,probe_rating,100395,probe_rating,,52,,,,4,1,,,,,,,,,,,,,
null,,confidence_buffer,100505,confidence_buffer,,null,,,,,,,,,,,,,,,,,,
null,,thebreak,101019,break,,null,,,,,,,,,,,,,,,,,,
7120,,familiar_rating,108140,Fairhaven,,52,Fairhaven,Fictional,4,,,,,,,,,,,,,,,
null,,confidence_buffer,108246,confidence_buffer,,null,,,,,,,,,,,,,,,,,,
3510,,unique_rating,111757,Fairhaven,,51,,,3,,,,,,,,,,,,,,,
null,,confidence_buffer,111862,confidence_buffer,,null,,,,,,,,,,,,,,,,,,
1999,,memorable_rating,113862,Fairhaven,,50,,,2,,,,,,,,,,,,,,,
null,,confidence_buffer,113966,confidence_buffer,,null,,,,,,,,,,,,,,,,,,
null,,thebreak,114467,break,,null,,,,,,,,,,,,,,,,,,
3449,,familiar_rating,117918,West Palm Beach,,53,West Palm Beach,US,5,,,,,,,,,,,,,,,
null,,confidence_buffer,118027,confidence_buffer,,null,,,,,,,,,,,,,,,,,,
4209,,unique_rating,122238,West Palm Beach,,52,,,4,,,,,,,,,,,,,,,
null,,confidence_buffer,122355,confidence_buffer,,null,,,,,,,,,,,,,,,,,,
3778,,memorable_rating,126133,West Palm Beach,,52,,,4,,,,,,,,,,,,,,,
null,,confidence_buffer,126242,confidence_buffer,,null,,,,,,,,,,,,,,,,,,
null,,thebreak,126776,break,,null,,,,,,,,,,,,,,,,,,
3790,,familiar_rating,130567,Bowling Green,,53,Bowling Green,US,5,,,,,,,,,,,,,,,
null,,confidence_buffer,130682,confidence_buffer,,null,,,,,,,,,,,,,,,,,,
2907,,unique_rating,133591,Bowling Green,,53,,,5,,,,,,,,,,,,,,,
null,,confidence_buffer,133697,confidence_buffer,,null,,,,,,,,,,,,,,,,,,
2782,,memorable_rating,136479,Bowling Green,,53,,,5,,,,,,,,,,,,,,,
null,,confidence_buffer,136583,confidence_buffer,,null,,,,,,,,,,,,,,,,,,
2598,,probe_rating,139183,probe_rating,,52,,,,4,1,,,,,,,,,,,,,
null,,confidence_buffer,139288,confidence_buffer,,null,,,,,,,,,,,,,,,,,,
null,,thebreak,139802,break,,null,,,,,,,,,,,,,,,,,,
3919,,familiar_rating,143721,Rosehollow,,49,Rosehollow,Fictional,1,,,,,,,,,,,,,,,
null,,confidence_buffer,143830,confidence_buffer,,null,,,,,,,,,,,,,,,,,,
2993,,unique_rating,146822,Rosehollow,,53,,,5,,,,,,,,,,,,,,,
null,,confidence_buffer,146929,confidence_buffer,,null,,,,,,,,,,,,,,,,,,
4095,,memorable_rating,151024,Rosehollow,,51,,,3,,,,,,,,,,,,,,,
null,,confidence_buffer,151130,confidence_buffer,,null,,,,,,,,,,,,,,,,,,
null,,thebreak,151631,break,,null,,,,,,,,,,,,,,,,,,
4311,,familiar_rating,155945,Summershade,,49,Summershade,Fictional,1,,,,,,,,,,,,,,,
null,,confidence_buffer,156052,confidence_buffer,,null,,,,,,,,,,,,,,,,,,
2956,,unique_rating,159009,Summershade,,53,,,5,,,,,,,,,,,,,,,
null,,confidence_buffer,159124,confidence_buffer,,null,,,,,,,,,,,,,,,,,,
2669,,memorable_rating,161792,Summershade,,52,,,4,,,,,,,,,,,,,,,
null,,confidence_buffer,161907,confidence_buffer,,null,,,,,,,,,,,,,,,,,,
null,,thebreak,162421,break,,null,,,,,,,,,,,,,,,,,,
2410,,familiar_rating,164833,Clearbrook,,49,Clearbrook,Fictional,1,,,,,,,,,,,,,,,
null,,confidence_buffer,164937,confidence_buffer,,null,,,,,,,,,,,,,,,,,,
3543,,unique_rating,168482,Clearbrook,,51,,,3,,,,,,,,,,,,,,,
null,,confidence_buffer,168585,confidence_buffer,,null,,,,,,,,,,,,,,,,,,
2271,,memorable_rating,170856,Clearbrook,,50,,,2,,,,,,,,,,,,,,,
null,,confidence_buffer,170965,confidence_buffer,,null,,,,,,,,,,,,,,,,,,
null,,thebreak,171467,break,,null,,,,,,,,,,,,,,,,,,
3742,,familiar_rating,175209,Sammamish,,49,Sammamish,US,1,,,,,,,,,,,,,,,
null,,confidence_buffer,175323,confidence_buffer,,null,,,,,,,,,,,,,,,,,,
3446,,unique_rating,178769,Sammamish,,53,,,5,,,,,,,,,,,,,,,
null,,confidence_buffer,178879,confidence_buffer,,null,,,,,,,,,,,,,,,,,,
2346,,memorable_rating,181227,Sammamish,,49,,,1,,,,,,,,,,,,,,,
null,,confidence_buffer,181339,confidence_buffer,,null,,,,,,,,,,,,,,,,,,
null,,thebreak,181855,break,,null,,,,,,,,,,,,,,,,,,
5426,,familiar_rating,187282,Crestwood,,52,Crestwood,Fictional,4,,,,,,,,,,,,,,,
null,,confidence_buffer,187387,confidence_buffer,,null,,,,,,,,,,,,,,,,,,
2328,,unique_rating,189715,Crestwood,,51,,,3,,,,,,,,,,,,,,,
null,,confidence_buffer,189824,confidence_buffer,,null,,,,,,,,,,,,,,,,,,
2172,,memorable_rating,191995,Crestwood,,52,,,4,,,,,,,,,,,,,,,
null,,confidence_buffer,192105,confidence_buffer,,null,,,,,,,,,,,,,,,,,,
null,,thebreak,192616,break,,null,,,,,,,,,,,,,,,,,,
4812,,familiar_rating,197427,Manistee,,49,Manistee,US,1,,,,,,,,,,,,,,,
null,,confidence_buffer,197531,confidence_buffer,,null,,,,,,,,,,,,,,,,,,
1913,,probe_rating,199444,probe_rating,,49,,,,1,1,,,,,,,,,,,,,
null,,confidence_buffer,199547,confidence_buffer,,null,,,,,,,,,,,,,,,,,,
5776,,unique_rating,205324,Manistee,,53,,,5,,,,,,,,,,,,,,,
null,,confidence_buffer,205429,confidence_buffer,,null,,,,,,,,,,,,,,,,,,
2389,,memorable_rating,207819,Manistee,,50,,,2,,,,,,,,,,,,,,,
null,,confidence_buffer,207922,confidence_buffer,,null,,,,,,,,,,,,,,,,,,
null,,thebreak,208438,break,,null,,,,,,,,,,,,,,,,,,
3894,,familiar_rating,212332,Gardnerville,,49,Gardnerville,US,1,,,,,,,,,,,,,,,
null,,confidence_buffer,212446,confidence_buffer,,null,,,,,,,,,,,,,,,,,,
4598,,unique_rating,217045,Gardnerville,,52,,,4,,,,,,,,,,,,,,,
null,,confidence_buffer,217155,confidence_buffer,,null,,,,,,,,,,,,,,,,,,
3712,,memorable_rating,220869,Gardnerville,,49,,,1,,,,,,,,,,,,,,,
null,,confidence_buffer,220985,confidence_buffer,,null,,,,,,,,,,,,,,,,,,
null,,thebreak,221500,break,,null,,,,,,,,,,,,,,,,,,
4145,,familiar_rating,225646,Cape May,,50,Cape May,US,2,,,,,,,,,,,,,,,
null,,confidence_buffer,225748,confidence_buffer,,null,,,,,,,,,,,,,,,,,,
2727,,unique_rating,228476,Cape May,,52,,,4,,,,,,,,,,,,,,,
null,,confidence_buffer,228581,confidence_buffer,,null,,,,,,,,,,,,,,,,,,
2264,,memorable_rating,230846,Cape May,,52,,,4,,,,,,,,,,,,,,,
null,,confidence_buffer,230950,confidence_buffer,,null,,,,,,,,,,,,,,,,,,
null,,thebreak,231452,break,,null,,,,,,,,,,,,,,,,,,
8738,,familiar_rating,240191,North Arroya,,50,North Arroya,Fictional,2,,,,,,,,,,,,,,,
null,,confidence_buffer,240308,confidence_buffer,,null,,,,,,,,,,,,,,,,,,
3371,,unique_rating,243679,North Arroya,,52,,,4,,,,,,,,,,,,,,,
null,,confidence_buffer,243794,confidence_buffer,,null,,,,,,,,,,,,,,,,,,
2220,,memorable_rating,246015,North Arroya,,49,,,1,,,,,,,,,,,,,,,
null,,confidence_buffer,246120,confidence_buffer,,null,,,,,,,,,,,,,,,,,,
null,,thebreak,246635,break,,null,,,,,,,,,,,,,,,,,,
3754,,familiar_rating,250390,Brookmere,,49,Brookmere,Fictional,1,,,,,,,,,,,,,,,
null,,confidence_buffer,250497,confidence_buffer,,null,,,,,,,,,,,,,,,,,,
7367,,unique_rating,257864,Brookmere,,52,,,4,,,,,,,,,,,,,,,
null,,confidence_buffer,257968,confidence_buffer,,null,,,,,,,,,,,,,,,,,,
4639,,memorable_rating,262607,Brookmere,,49,,,1,,,,,,,,,,,,,,,
null,,confidence_buffer,262713,confidence_buffer,,null,,,,,,,,,,,,,,,,,,
null,,thebreak,263228,break,,null,,,,,,,,,,,,,,,,,,
3877,,familiar_rating,267105,Berkeley Springs,,49,Berkeley Springs,US,1,,,,,,,,,,,,,,,
null,,confidence_buffer,267211,confidence_buffer,,null,,,,,,,,,,,,,,,,,,
4141,,unique_rating,271353,Berkeley Springs,,52,,,4,,,,,,,,,,,,,,,
null,,confidence_buffer,271468,confidence_buffer,,null,,,,,,,,,,,,,,,,,,
3525,,memorable_rating,274993,Berkeley Springs,,51,,,3,,,,,,,,,,,,,,,
null,,confidence_buffer,275095,confidence_buffer,,null,,,,,,,,,,,,,,,,,,
null,,thebreak,275595,break,,null,,,,,,,,,,,,,,,,,,
6293,,familiar_rating,281890,Elmsbury,,49,Elmsbury,Fictional,1,,,,,,,,,,,,,,,
null,,confidence_buffer,281997,confidence_buffer,,null,,,,,,,,,,,,,,,,,,
2756,,unique_rating,284752,Elmsbury,,52,,,4,,,,,,,,,,,,,,,
null,,confidence_buffer,284860,confidence_buffer,,null,,,,,,,,,,,,,,,,,,
2381,,memorable_rating,287242,Elmsbury,,51,,,3,,,,,,,,,,,,,,,
null,,confidence_buffer,287343,confidence_buffer,,null,,,,,,,,,,,,,,,,,,
null,,thebreak,287858,break,,null,,,,,,,,,,,,,,,,,,
5767,,familiar_rating,293627,Barnard,,49,Barnard,US,1,,,,,,,,,,,,,,,
null,,confidence_buffer,293736,confidence_buffer,,null,,,,,,,,,,,,,,,,,,
2746,,unique_rating,296483,Barnard,,51,,,3,,,,,,,,,,,,,,,
null,,confidence_buffer,296593,confidence_buffer,,null,,,,,,,,,,,,,,,,,,
2057,,memorable_rating,298651,Barnard,,50,,,2,,,,,,,,,,,,,,,
null,,confidence_buffer,298753,confidence_buffer,,null,,,,,,,,,,,,,,,,,,
null,,thebreak,299266,break,,null,,,,,,,,,,,,,,,,,,
6991,,familiar_rating,306259,Natchez,,52,Natchez,US,4,,,,,,,,,,,,,,,
null,,confidence_buffer,306370,confidence_buffer,,null,,,,,,,,,,,,,,,,,,
4199,,unique_rating,310570,Natchez,,53,,,5,,,,,,,,,,,,,,,
null,,confidence_buffer,310685,confidence_buffer,,null,,,,,,,,,,,,,,,,,,
3519,,memorable_rating,314204,Natchez,,52,,,4,,,,,,,,,,,,,,,
null,,confidence_buffer,314313,confidence_buffer,,null,,,,,,,,,,,,,,,,,,
null,,thebreak,314829,break,,null,,,,,,,,,,,,,,,,,,
2807,,familiar_rating,317636,Hawthorne Bluffs,,49,Hawthorne Bluffs,Fictional,1,,,,,,,,,,,,,,,
null,,confidence_buffer,317748,confidence_buffer,,null,,,,,,,,,,,,,,,,,,
3918,,unique_rating,321668,Hawthorne Bluffs,,53,,,5,,,,,,,,,,,,,,,
null,,confidence_buffer,321778,confidence_buffer,,null,,,,,,,,,,,,,,,,,,
2321,,memorable_rating,324100,Hawthorne Bluffs,,52,,,4,,,,,,,,,,,,,,,
null,,confidence_buffer,324205,confidence_buffer,,null,,,,,,,,,,,,,,,,,,
null,,thebreak,324708,break,,null,,,,,,,,,,,,,,,,,,
4416,,familiar_rating,329124,Hot Springs,,53,Hot Springs,US,5,,,,,,,,,,,,,,,
null,,confidence_buffer,329230,confidence_buffer,,null,,,,,,,,,,,,,,,,,,
3870,,unique_rating,333101,Hot Springs,,51,,,3,,,,,,,,,,,,,,,
null,,confidence_buffer,333212,confidence_buffer,,null,,,,,,,,,,,,,,,,,,
2232,,memorable_rating,335446,Hot Springs,,52,,,4,,,,,,,,,,,,,,,
null,,confidence_buffer,335556,confidence_buffer,,null,,,,,,,,,,,,,,,,,,
null,,thebreak,336072,break,,null,,,,,,,,,,,,,,,,,,
4598,,familiar_rating,340670,Hilo,,49,Hilo,US,1,,,,,,,,,,,,,,,
null,,confidence_buffer,340782,confidence_buffer,,null,,,,,,,,,,,,,,,,,,
2919,,unique_rating,343702,Hilo,,53,,,5,,,,,,,,,,,,,,,
null,,confidence_buffer,343809,confidence_buffer,,null,,,,,,,,,,,,,,,,,,
2100,,memorable_rating,345910,Hilo,,53,,,5,,,,,,,,,,,,,,,
null,,confidence_buffer,346022,confidence_buffer,,null,,,,,,,,,,,,,,,,,,
null,,thebreak,346538,break,,null,,,,,,,,,,,,,,,,,,
2019,,familiar_rating,348558,Riverlyn,,49,Riverlyn,Fictional,1,,,,,,,,,,,,,,,
null,,confidence_buffer,348661,confidence_buffer,,null,,,,,,,,,,,,,,,,,,
2577,,unique_rating,351238,Riverlyn,,52,,,4,,,,,,,,,,,,,,,
null,,confidence_buffer,351351,confidence_buffer,,null,,,,,,,,,,,,,,,,,,
2022,,memorable_rating,353373,Riverlyn,,50,,,2,,,,,,,,,,,,,,,
null,,confidence_buffer,353489,confidence_buffer,,null,,,,,,,,,,,,,,,,,,
null,,thebreak,354004,break,,null,,,,,,,,,,,,,,,,,,
7081,,familiar_rating,361087,Falconridge,,50,Falconridge,Fictional,2,,,,,,,,,,,,,,,
null,,confidence_buffer,361200,confidence_buffer,,null,,,,,,,,,,,,,,,,,,
2078,,unique_rating,363280,Falconridge,,53,,,5,,,,,,,,,,,,,,,
null,,confidence_buffer,363393,confidence_buffer,,null,,,,,,,,,,,,,,,,,,
2551,,memorable_rating,365943,Falconridge,,52,,,4,,,,,,,,,,,,,,,
null,,confidence_buffer,366054,confidence_buffer,,null,,,,,,,,,,,,,,,,,,
null,,thebreak,366556,break,,null,,,,,,,,,,,,,,,,,,
6373,,familiar_rating,372930,Leesburg,,53,Leesburg,US,5,,,,,,,,,,,,,,,
null,,confidence_buffer,373032,confidence_buffer,,null,,,,,,,,,,,,,,,,,,
3255,,unique_rating,376288,Leesburg,,51,,,3,,,,,,,,,,,,,,,
null,,confidence_buffer,376402,confidence_buffer,,null,,,,,,,,,,,,,,,,,,
2485,,memorable_rating,378888,Leesburg,,53,,,5,,,,,,,,,,,,,,,
null,,confidence_buffer,378999,confidence_buffer,,null,,,,,,,,,,,,,,,,,,
null,,thebreak,379516,break,,null,,,,,,,,,,,,,,,,,,
2694,,familiar_rating,382209,Cedarwyn,,49,Cedarwyn,Fictional,1,,,,,,,,,,,,,,,
null,,confidence_buffer,382322,confidence_buffer,,null,,,,,,,,,,,,,,,,,,
6335,,unique_rating,388658,Cedarwyn,,52,,,4,,,,,,,,,,,,,,,
null,,confidence_buffer,388762,confidence_buffer,,null,,,,,,,,,,,,,,,,,,
2254,,memorable_rating,391018,Cedarwyn,,50,,,2,,,,,,,,,,,,,,,
null,,confidence_buffer,391131,confidence_buffer,,null,,,,,,,,,,,,,,,,,,
null,,thebreak,391645,break,,null,,,,,,,,,,,,,,,,,,
6100,,familiar_rating,397746,Oakridge,,53,Oakridge,Fictional,5,,,,,,,,,,,,,,,
null,,confidence_buffer,397854,confidence_buffer,,null,,,,,,,,,,,,,,,,,,
2858,,unique_rating,400713,Oakridge,,51,,,3,,,,,,,,,,,,,,,
null,,confidence_buffer,400818,confidence_buffer,,null,,,,,,,,,,,,,,,,,,
1709,,memorable_rating,402529,Oakridge,,53,,,5,,,,,,,,,,,,,,,
null,,confidence_buffer,402640,confidence_buffer,,null,,,,,,,,,,,,,,,,,,
null,,thebreak,403158,break,,null,,,,,,,,,,,,,,,,,,
2173,,familiar_rating,405330,Sierra Hollow,,49,Sierra Hollow,Fictional,1,,,,,,,,,,,,,,,
null,,confidence_buffer,405444,confidence_buffer,,null,,,,,,,,,,,,,,,,,,
2774,,unique_rating,408219,Sierra Hollow,,52,,,4,,,,,,,,,,,,,,,
null,,confidence_buffer,408335,confidence_buffer,,null,,,,,,,,,,,,,,,,,,
3116,,probe_rating,411450,probe_rating,,52,,,,4,1,,,,,,,,,,,,,
null,,confidence_buffer,411561,confidence_buffer,,null,,,,,,,,,,,,,,,,,,
7098,,memorable_rating,418659,Sierra Hollow,,51,,,3,,,,,,,,,,,,,,,
null,,confidence_buffer,418766,confidence_buffer,,null,,,,,,,,,,,,,,,,,,
null,,thebreak,419267,break,,null,,,,,,,,,,,,,,,,,,
5407,,familiar_rating,424675,Lake of the Ozarks,,49,Lake of the Ozarks,US,1,,,,,,,,,,,,,,,
null,,confidence_buffer,424788,confidence_buffer,,null,,,,,,,,,,,,,,,,,,
2838,,unique_rating,427627,Lake of the Ozarks,,53,,,5,,,,,,,,,,,,,,,
null,,confidence_buffer,427737,confidence_buffer,,null,,,,,,,,,,,,,,,,,,
2179,,memorable_rating,429916,Lake of the Ozarks,,52,,,4,,,,,,,,,,,,,,,
null,,confidence_buffer,430031,confidence_buffer,,null,,,,,,,,,,,,,,,,,,
null,,thebreak,430543,break,,null,,,,,,,,,,,,,,,,,,
5836,,intro_0,436380,instruct,,32,,,,,,,,,,,,,,,,,,
8352,,intro_1,444734,instruct,,32,,,,,,,,,,,,,,,,,,
16753,,intro_2,461487,instruct,,32,,,,,,,,,,,,,,,,,,
null,,instruct_dir_4,463000,instruct,,null,,,,,,,,,,,,,,,,,,
14550,,realistic_rating,477551,Barnard,,51,Barnard,US,3,,,,,,,,,,,,,,,
null,,confidence_buffer,477655,confidence_buffer,,null,,,,,,,,,,,,,,,,,,
4015,,pt2_unique_rating,481671,Barnard,,51,,,3,,,,,,,,,,,,,,,
null,,confidence_buffer,481777,confidence_buffer,,null,,,,,,,,,,,,,,,,,,
6174,,pt2_memorable_rating,487953,Barnard,,50,,,2,,,,,,,,,,,,,,,
null,,confidence_buffer,488058,confidence_buffer,,null,,,,,,,,,,,,,,,,,,
5165,,recognition_phase,493225,Barnard,,49,,,,,,old,1,1,,,,,,,,,,
null,,confidence_buffer,493334,confidence_buffer,,null,,,,,,,,,,,,,,,,,,
null,,thebreak,493845,break,,null,,,,,,,,,,,,,,,,,,
5931,,realistic_rating,499777,Newport,,53,Newport,US,5,,,,,,,,,,,,,,,
null,,confidence_buffer,499887,confidence_buffer,,null,,,,,,,,,,,,,,,,,,
7666,,pt2_unique_rating,507554,Newport,,49,,,1,,,,,,,,,,,,,,,
null,,confidence_buffer,507670,confidence_buffer,,null,,,,,,,,,,,,,,,,,,
5508,,pt2_memorable_rating,513178,Newport,,53,,,5,,,,,,,,,,,,,,,
null,,confidence_buffer,513288,confidence_buffer,,null,,,,,,,,,,,,,,,,,,
3360,,recognition_phase,516650,Newport,,52,,,,,,new,1,1,,,,,,,,,,
null,,confidence_buffer,516758,confidence_buffer,,null,,,,,,,,,,,,,,,,,,
null,,thebreak,517260,break,,null,,,,,,,,,,,,,,,,,,
6167,,realistic_rating,523427,Huntsville,,53,Huntsville,US,5,,,,,,,,,,,,,,,
null,,confidence_buffer,523532,confidence_buffer,,null,,,,,,,,,,,,,,,,,,
21575,,pt2_unique_rating,545108,Huntsville,,50,,,2,,,,,,,,,,,,,,,
null,,confidence_buffer,545222,confidence_buffer,,null,,,,,,,,,,,,,,,,,,
3901,,pt2_memorable_rating,549125,Huntsville,,52,,,4,,,,,,,,,,,,,,,
null,,confidence_buffer,549226,confidence_buffer,,null,,,,,,,,,,,,,,,,,,
2856,,recognition_phase,552084,Huntsville,,52,,,,,,new,1,1,,,,,,,,,,
null,,confidence_buffer,552195,confidence_buffer,,null,,,,,,,,,,,,,,,,,,
null,,thebreak,552709,break,,null,,,,,,,,,,,,,,,,,,
8400,,realistic_rating,561109,Montelake,,49,Montelake,Fictional,1,,,,,,,,,,,,,,,
null,,confidence_buffer,561222,confidence_buffer,,null,,,,,,,,,,,,,,,,,,
5447,,pt2_unique_rating,566670,Montelake,,53,,,5,,,,,,,,,,,,,,,
null,,confidence_buffer,566782,confidence_buffer,,null,,,,,,,,,,,,,,,,,,
4368,,pt2_memorable_rating,571150,Montelake,,50,,,2,,,,,,,,,,,,,,,
null,,confidence_buffer,571260,confidence_buffer,,null,,,,,,,,,,,,,,,,,,
3474,,probe_rating,574735,probe_rating,,52,,,,4,1,,,,,,,,,,,,,
null,,confidence_buffer,574851,confidence_buffer,,null,,,,,,,,,,,,,,,,,,
2843,,recognition_phase,577695,Montelake,,52,,,,,,new,1,1,,,,,,,,,,
null,,confidence_buffer,577798,confidence_buffer,,null,,,,,,,,,,,,,,,,,,
null,,thebreak,578314,break,,null,,,,,,,,,,,,,,,,,,
3638,,realistic_rating,581952,Riverlyn,,50,Riverlyn,Fictional,2,,,,,,,,,,,,,,,
null,,confidence_buffer,582064,confidence_buffer,,null,,,,,,,,,,,,,,,,,,
2853,,pt2_unique_rating,584918,Riverlyn,,53,,,5,,,,,,,,,,,,,,,
null,,confidence_buffer,585033,confidence_buffer,,null,,,,,,,,,,,,,,,,,,
4277,,pt2_memorable_rating,589312,Riverlyn,,50,,,2,,,,,,,,,,,,,,,
null,,confidence_buffer,589415,confidence_buffer,,null,,,,,,,,,,,,,,,,,,
3384,,recognition_phase,592800,Riverlyn,,49,,,,,,old,1,1,,,,,,,,,,
null,,confidence_buffer,592906,confidence_buffer,,null,,,,,,,,,,,,,,,,,,
null,,thebreak,593410,break,,null,,,,,,,,,,,,,,,,,,
5366,,realistic_rating,598777,Cape May,,53,Cape May,US,5,,,,,,,,,,,,,,,
null,,confidence_buffer,598877,confidence_buffer,,null,,,,,,,,,,,,,,,,,,
2811,,probe_rating,601689,probe_rating,,53,,,,5,1,,,,,,,,,,,,,
null,,confidence_buffer,601793,confidence_buffer,,null,,,,,,,,,,,,,,,,,,
5327,,pt2_unique_rating,607121,Cape May,,51,,,3,,,,,,,,,,,,,,,
null,,confidence_buffer,607228,confidence_buffer,,null,,,,,,,,,,,,,,,,,,
4901,,pt2_memorable_rating,612129,Cape May,,53,,,5,,,,,,,,,,,,,,,
null,,confidence_buffer,612239,confidence_buffer,,null,,,,,,,,,,,,,,,,,,
2809,,recognition_phase,615048,Cape May,,49,,,,,,old,1,1,,,,,,,,,,
null,,confidence_buffer,615154,confidence_buffer,,null,,,,,,,,,,,,,,,,,,
null,,thebreak,615670,break,,null,,,,,,,,,,,,,,,,,,
4637,,realistic_rating,620306,Bisbee,,51,Bisbee,US,3,,,,,,,,,,,,,,,
null,,confidence_buffer,620421,confidence_buffer,,null,,,,,,,,,,,,,,,,,,
3324,,pt2_unique_rating,623746,Bisbee,,53,,,5,,,,,,,,,,,,,,,
null,,confidence_buffer,623856,confidence_buffer,,null,,,,,,,,,,,,,,,,,,
3130,,pt2_memorable_rating,626986,Bisbee,,53,,,5,,,,,,,,,,,,,,,
null,,confidence_buffer,627095,confidence_buffer,,null,,,,,,,,,,,,,,,,,,
3387,,probe_rating,630483,probe_rating,,52,,,,4,1,,,,,,,,,,,,,
null,,confidence_buffer,630588,confidence_buffer,,null,,,,,,,,,,,,,,,,,,
3295,,recognition_phase,633883,Bisbee,,52,,,,,,new,1,1,,,,,,,,,,
null,,confidence_buffer,633998,confidence_buffer,,null,,,,,,,,,,,,,,,,,,
null,,thebreak,634512,break,,null,,,,,,,,,,,,,,,,,,
5953,,realistic_rating,640466,Tamarisk Hills,,53,Tamarisk Hills,Fictional,5,,,,,,,,,,,,,,,
null,,confidence_buffer,640568,confidence_buffer,,null,,,,,,,,,,,,,,,,,,
2602,,pt2_unique_rating,643171,Tamarisk Hills,,53,,,5,,,,,,,,,,,,,,,
null,,confidence_buffer,643282,confidence_buffer,,null,,,,,,,,,,,,,,,,,,
2505,,pt2_memorable_rating,645788,Tamarisk Hills,,53,,,5,,,,,,,,,,,,,,,
null,,confidence_buffer,645908,confidence_buffer,,null,,,,,,,,,,,,,,,,,,
4087,,recognition_phase,649996,Tamarisk Hills,,52,,,,,,new,1,1,,,,,,,,,,
null,,confidence_buffer,650102,confidence_buffer,,null,,,,,,,,,,,,,,,,,,
null,,thebreak,650603,break,,null,,,,,,,,,,,,,,,,,,
2896,,realistic_rating,653500,Cleveland,,53,Cleveland,US,5,,,,,,,,,,,,,,,
null,,confidence_buffer,653606,confidence_buffer,,null,,,,,,,,,,,,,,,,,,
6846,,pt2_unique_rating,660454,Cleveland,,49,,,1,,,,,,,,,,,,,,,
null,,confidence_buffer,660566,confidence_buffer,,null,,,,,,,,,,,,,,,,,,
3606,,pt2_memorable_rating,664173,Cleveland,,53,,,5,,,,,,,,,,,,,,,
null,,confidence_buffer,664286,confidence_buffer,,null,,,,,,,,,,,,,,,,,,
2280,,recognition_phase,666565,Cleveland,,52,,,,,,new,1,1,,,,,,,,,,
null,,confidence_buffer,666668,confidence_buffer,,null,,,,,,,,,,,,,,,,,,
null,,thebreak,667183,break,,null,,,,,,,,,,,,,,,,,,
6877,,realistic_rating,674062,Falconridge,,50,Falconridge,Fictional,2,,,,,,,,,,,,,,,
null,,confidence_buffer,674174,confidence_buffer,,null,,,,,,,,,,,,,,,,,,
2479,,pt2_unique_rating,676654,Falconridge,,53,,,5,,,,,,,,,,,,,,,
null,,confidence_buffer,676765,confidence_buffer,,null,,,,,,,,,,,,,,,,,,
2209,,pt2_memorable_rating,678974,Falconridge,,52,,,4,,,,,,,,,,,,,,,
null,,confidence_buffer,679077,confidence_buffer,,null,,,,,,,,,,,,,,,,,,
2642,,recognition_phase,681718,Falconridge,,49,,,,,,old,1,1,,,,,,,,,,
null,,confidence_buffer,681835,confidence_buffer,,null,,,,,,,,,,,,,,,,,,
null,,thebreak,682337,break,,null,,,,,,,,,,,,,,,,,,
3918,,realistic_rating,686255,Shreveport,,53,Shreveport,US,5,,,,,,,,,,,,,,,
null,,confidence_buffer,686371,confidence_buffer,,null,,,,,,,,,,,,,,,,,,
2338,,pt2_unique_rating,688711,Shreveport,,53,,,5,,,,,,,,,,,,,,,
null,,confidence_buffer,688827,confidence_buffer,,null,,,,,,,,,,,,,,,,,,
2004,,pt2_memorable_rating,690830,Shreveport,,53,,,5,,,,,,,,,,,,,,,
null,,confidence_buffer,690946,confidence_buffer,,null,,,,,,,,,,,,,,,,,,
3685,,recognition_phase,694631,Shreveport,,52,,,,,,new,1,1,,,,,,,,,,
null,,confidence_buffer,694733,confidence_buffer,,null,,,,,,,,,,,,,,,,,,
null,,thebreak,695236,break,,null,,,,,,,,,,,,,,,,,,
6355,,realistic_rating,701592,Stonebrook,,51,Stonebrook,Fictional,3,,,,,,,,,,,,,,,
null,,confidence_buffer,701707,confidence_buffer,,null,,,,,,,,,,,,,,,,,,
2453,,pt2_unique_rating,704160,Stonebrook,,51,,,3,,,,,,,,,,,,,,,
null,,confidence_buffer,704274,confidence_buffer,,null,,,,,,,,,,,,,,,,,,
3620,,pt2_memorable_rating,707896,Stonebrook,,52,,,4,,,,,,,,,,,,,,,
null,,confidence_buffer,708000,confidence_buffer,,null,,,,,,,,,,,,,,,,,,
2695,,recognition_phase,710696,Stonebrook,,52,,,,,,new,1,1,,,,,,,,,,
null,,confidence_buffer,710812,confidence_buffer,,null,,,,,,,,,,,,,,,,,,
null,,thebreak,711329,break,,null,,,,,,,,,,,,,,,,,,
5373,,realistic_rating,716703,Rosehollow,,49,Rosehollow,Fictional,1,,,,,,,,,,,,,,,
null,,confidence_buffer,716805,confidence_buffer,,null,,,,,,,,,,,,,,,,,,
3261,,pt2_unique_rating,720065,Rosehollow,,53,,,5,,,,,,,,,,,,,,,
null,,confidence_buffer,720167,confidence_buffer,,null,,,,,,,,,,,,,,,,,,
3160,,pt2_memorable_rating,723329,Rosehollow,,51,,,3,,,,,,,,,,,,,,,
null,,confidence_buffer,723439,confidence_buffer,,null,,,,,,,,,,,,,,,,,,
3658,,probe_rating,727097,probe_rating,,53,,,,5,1,,,,,,,,,,,,,
null,,confidence_buffer,727207,confidence_buffer,,null,,,,,,,,,,,,,,,,,,
2986,,recognition_phase,730193,Rosehollow,,49,,,,,,old,1,1,,,,,,,,,,
null,,confidence_buffer,730309,confidence_buffer,,null,,,,,,,,,,,,,,,,,,
null,,thebreak,730810,break,,null,,,,,,,,,,,,,,,,,,
4072,,realistic_rating,734882,West Palm Beach,,53,West Palm Beach,US,5,,,,,,,,,,,,,,,
null,,confidence_buffer,734990,confidence_buffer,,null,,,,,,,,,,,,,,,,,,
3517,,probe_rating,738506,probe_rating,,49,,,,1,1,,,,,,,,,,,,,
null,,confidence_buffer,738618,confidence_buffer,,null,,,,,,,,,,,,,,,,,,
5216,,pt2_unique_rating,743834,West Palm Beach,,51,,,3,,,,,,,,,,,,,,,
null,,confidence_buffer,743947,confidence_buffer,,null,,,,,,,,,,,,,,,,,,
4424,,pt2_memorable_rating,748371,West Palm Beach,,53,,,5,,,,,,,,,,,,,,,
null,,confidence_buffer,748479,confidence_buffer,,null,,,,,,,,,,,,,,,,,,
2762,,recognition_phase,751243,West Palm Beach,,49,,,,,,old,1,1,,,,,,,,,,
null,,confidence_buffer,751346,confidence_buffer,,null,,,,,,,,,,,,,,,,,,
null,,thebreak,751851,break,,null,,,,,,,,,,,,,,,,,,
4240,,realistic_rating,756092,Peoria,,53,Peoria,US,5,,,,,,,,,,,,,,,
null,,confidence_buffer,756196,confidence_buffer,,null,,,,,,,,,,,,,,,,,,
1919,,pt2_unique_rating,758116,Peoria,,53,,,5,,,,,,,,,,,,,,,
null,,confidence_buffer,758228,confidence_buffer,,null,,,,,,,,,,,,,,,,,,
2375,,pt2_memorable_rating,760604,Peoria,,53,,,5,,,,,,,,,,,,,,,
null,,confidence_buffer,760704,confidence_buffer,,null,,,,,,,,,,,,,,,,,,
2539,,recognition_phase,763244,Peoria,,52,,,,,,new,1,1,,,,,,,,,,
null,,confidence_buffer,763347,confidence_buffer,,null,,,,,,,,,,,,,,,,,,
null,,thebreak,763852,break,,null,,,,,,,,,,,,,,,,,,
4256,,realistic_rating,768108,Natchez,,53,Natchez,US,5,,,,,,,,,,,,,,,
null,,confidence_buffer,768218,confidence_buffer,,null,,,,,,,,,,,,,,,,,,
1722,,pt2_unique_rating,769939,Natchez,,53,,,5,,,,,,,,,,,,,,,
null,,confidence_buffer,770049,confidence_buffer,,null,,,,,,,,,,,,,,,,,,
1211,,pt2_memorable_rating,771261,Natchez,,53,,,5,,,,,,,,,,,,,,,
null,,confidence_buffer,771372,confidence_buffer,,null,,,,,,,,,,,,,,,,,,
2488,,recognition_phase,773861,Natchez,,49,,,,,,old,1,1,,,,,,,,,,
null,,confidence_buffer,773964,confidence_buffer,,null,,,,,,,,,,,,,,,,,,
null,,thebreak,774481,break,,null,,,,,,,,,,,,,,,,,,
5189,,realistic_rating,779670,Orchard Bend,,52,Orchard Bend,Fictional,4,,,,,,,,,,,,,,,
null,,confidence_buffer,779783,confidence_buffer,,null,,,,,,,,,,,,,,,,,,
2341,,pt2_unique_rating,782126,Orchard Bend,,53,,,5,,,,,,,,,,,,,,,
null,,confidence_buffer,782231,confidence_buffer,,null,,,,,,,,,,,,,,,,,,
1590,,pt2_memorable_rating,783821,Orchard Bend,,53,,,5,,,,,,,,,,,,,,,
null,,confidence_buffer,783929,confidence_buffer,,null,,,,,,,,,,,,,,,,,,
2611,,recognition_phase,786541,Orchard Bend,,52,,,,,,new,1,1,,,,,,,,,,
null,,confidence_buffer,786649,confidence_buffer,,null,,,,,,,,,,,,,,,,,,
null,,thebreak,787156,break,,null,,,,,,,,,,,,,,,,,,
4978,,realistic_rating,792135,Hollendale,,51,Hollendale,Fictional,3,,,,,,,,,,,,,,,
null,,confidence_buffer,792238,confidence_buffer,,null,,,,,,,,,,,,,,,,,,
3175,,pt2_unique_rating,795413,Hollendale,,52,,,4,,,,,,,,,,,,,,,
null,,confidence_buffer,795520,confidence_buffer,,null,,,,,,,,,,,,,,,,,,
2734,,pt2_memorable_rating,798255,Hollendale,,50,,,2,,,,,,,,,,,,,,,
null,,confidence_buffer,798356,confidence_buffer,,null,,,,,,,,,,,,,,,,,,
2147,,recognition_phase,800503,Hollendale,,52,,,,,,new,1,1,,,,,,,,,,
null,,confidence_buffer,800609,confidence_buffer,,null,,,,,,,,,,,,,,,,,,
null,,thebreak,801111,break,,null,,,,,,,,,,,,,,,,,,
3871,,realistic_rating,804983,North Arroya,,50,North Arroya,Fictional,2,,,,,,,,,,,,,,,
null,,confidence_buffer,805090,confidence_buffer,,null,,,,,,,,,,,,,,,,,,
2397,,pt2_unique_rating,807487,North Arroya,,53,,,5,,,,,,,,,,,,,,,
null,,confidence_buffer,807603,confidence_buffer,,null,,,,,,,,,,,,,,,,,,
3470,,pt2_memorable_rating,811072,North Arroya,,50,,,2,,,,,,,,,,,,,,,
null,,confidence_buffer,811183,confidence_buffer,,null,,,,,,,,,,,,,,,,,,
2240,,recognition_phase,813424,North Arroya,,49,,,,,,old,1,1,,,,,,,,,,
null,,confidence_buffer,813537,confidence_buffer,,null,,,,,,,,,,,,,,,,,,
null,,thebreak,814051,break,,null,,,,,,,,,,,,,,,,,,
5196,,realistic_rating,819248,Assateague Island,,49,Assateague Island,US,1,,,,,,,,,,,,,,,
null,,confidence_buffer,819352,confidence_buffer,,null,,,,,,,,,,,,,,,,,,
4576,,pt2_unique_rating,823928,Assateague Island,,53,,,5,,,,,,,,,,,,,,,
null,,confidence_buffer,824030,confidence_buffer,,null,,,,,,,,,,,,,,,,,,
2602,,pt2_memorable_rating,826633,Assateague Island,,49,,,1,,,,,,,,,,,,,,,
null,,confidence_buffer,826738,confidence_buffer,,null,,,,,,,,,,,,,,,,,,
4070,,recognition_phase,830809,Assateague Island,,52,,,,,,new,1,1,,,,,,,,,,
null,,confidence_buffer,830912,confidence_buffer,,null,,,,,,,,,,,,,,,,,,
null,,thebreak,831428,break,,null,,,,,,,,,,,,,,,,,,
7261,,realistic_rating,838690,Sisters,,53,Sisters,US,5,,,,,,,,,,,,,,,
null,,confidence_buffer,838806,confidence_buffer,,null,,,,,,,,,,,,,,,,,,
1907,,pt2_unique_rating,840713,Sisters,,53,,,5,,,,,,,,,,,,,,,
null,,confidence_buffer,840824,confidence_buffer,,null,,,,,,,,,,,,,,,,,,
2178,,pt2_memorable_rating,843002,Sisters,,53,,,5,,,,,,,,,,,,,,,
null,,confidence_buffer,843114,confidence_buffer,,null,,,,,,,,,,,,,,,,,,
2352,,recognition_phase,845466,Sisters,,52,,,,,,new,1,1,,,,,,,,,,
null,,confidence_buffer,845570,confidence_buffer,,null,,,,,,,,,,,,,,,,,,
null,,thebreak,846086,break,,null,,,,,,,,,,,,,,,,,,
3187,,realistic_rating,849274,Oakridge,,53,Oakridge,Fictional,5,,,,,,,,,,,,,,,
null,,confidence_buffer,849377,confidence_buffer,,null,,,,,,,,,,,,,,,,,,
2802,,pt2_unique_rating,852178,Oakridge,,51,,,3,,,,,,,,,,,,,,,
null,,confidence_buffer,852281,confidence_buffer,,null,,,,,,,,,,,,,,,,,,
3369,,pt2_memorable_rating,855651,Oakridge,,53,,,5,,,,,,,,,,,,,,,
null,,confidence_buffer,855757,confidence_buffer,,null,,,,,,,,,,,,,,,,,,
2285,,recognition_phase,858043,Oakridge,,49,,,,,,old,1,1,,,,,,,,,,
null,,confidence_buffer,858147,confidence_buffer,,null,,,,,,,,,,,,,,,,,,
null,,thebreak,858663,break,,null,,,,,,,,,,,,,,,,,,
4781,,realistic_rating,863444,Summershade,,49,Summershade,Fictional,1,,,,,,,,,,,,,,,
null,,confidence_buffer,863560,confidence_buffer,,null,,,,,,,,,,,,,,,,,,
2211,,pt2_unique_rating,865772,Summershade,,53,,,5,,,,,,,,,,,,,,,
null,,confidence_buffer,865883,confidence_buffer,,null,,,,,,,,,,,,,,,,,,
2809,,pt2_memorable_rating,868692,Summershade,,52,,,4,,,,,,,,,,,,,,,
null,,confidence_buffer,868793,confidence_buffer,,null,,,,,,,,,,,,,,,,,,
1858,,recognition_phase,870652,Summershade,,49,,,,,,old,1,1,,,,,,,,,,
null,,confidence_buffer,870760,confidence_buffer,,null,,,,,,,,,,,,,,,,,,
null,,thebreak,871277,break,,null,,,,,,,,,,,,,,,,,,
4022,,realistic_rating,875299,Fairhaven,,53,Fairhaven,Fictional,5,,,,,,,,,,,,,,,
null,,confidence_buffer,875417,confidence_buffer,,null,,,,,,,,,,,,,,,,,,
2187,,pt2_unique_rating,877604,Fairhaven,,51,,,3,,,,,,,,,,,,,,,
null,,confidence_buffer,877710,confidence_buffer,,null,,,,,,,,,,,,,,,,,,
2534,,pt2_memorable_rating,880245,Fairhaven,,52,,,4,,,,,,,,,,,,,,,
null,,confidence_buffer,880352,confidence_buffer,,null,,,,,,,,,,,,,,,,,,
2093,,recognition_phase,882445,Fairhaven,,49,,,,,,old,1,1,,,,,,,,,,
null,,confidence_buffer,882548,confidence_buffer,,null,,,,,,,,,,,,,,,,,,
null,,thebreak,883062,break,,null,,,,,,,,,,,,,,,,,,
4445,,realistic_rating,887509,Maravilla Springs,,53,Maravilla Springs,Fictional,5,,,,,,,,,,,,,,,
null,,confidence_buffer,887612,confidence_buffer,,null,,,,,,,,,,,,,,,,,,
1312,,pt2_unique_rating,888925,Maravilla Springs,,53,,,5,,,,,,,,,,,,,,,
null,,confidence_buffer,889031,confidence_buffer,,null,,,,,,,,,,,,,,,,,,
5598,,pt2_memorable_rating,894630,Maravilla Springs,,51,,,3,,,,,,,,,,,,,,,
null,,confidence_buffer,894731,confidence_buffer,,null,,,,,,,,,,,,,,,,,,
3626,,recognition_phase,898359,Maravilla Springs,,52,,,,,,new,1,1,,,,,,,,,,
null,,confidence_buffer,898470,confidence_buffer,,null,,,,,,,,,,,,,,,,,,
null,,thebreak,898975,break,,null,,,,,,,,,,,,,,,,,,
5366,,realistic_rating,904342,Highvale,,51,Highvale,Fictional,3,,,,,,,,,,,,,,,
null,,confidence_buffer,904450,confidence_buffer,,null,,,,,,,,,,,,,,,,,,
2637,,pt2_unique_rating,907087,Highvale,,52,,,4,,,,,,,,,,,,,,,
null,,confidence_buffer,907188,confidence_buffer,,null,,,,,,,,,,,,,,,,,,
3272,,pt2_memorable_rating,910462,Highvale,,51,,,3,,,,,,,,,,,,,,,
null,,confidence_buffer,910571,confidence_buffer,,null,,,,,,,,,,,,,,,,,,
2186,,recognition_phase,912759,Highvale,,52,,,,,,new,1,1,,,,,,,,,,
null,,confidence_buffer,912875,confidence_buffer,,null,,,,,,,,,,,,,,,,,,
null,,thebreak,913390,break,,null,,,,,,,,,,,,,,,,,,
3408,,realistic_rating,916798,Delaware City,,53,Delaware City,US,5,,,,,,,,,,,,,,,
null,,confidence_buffer,916908,confidence_buffer,,null,,,,,,,,,,,,,,,,,,
3137,,pt2_unique_rating,920048,Delaware City,,52,,,4,,,,,,,,,,,,,,,
null,,confidence_buffer,920162,confidence_buffer,,null,,,,,,,,,,,,,,,,,,
2612,,pt2_memorable_rating,922775,Delaware City,,53,,,5,,,,,,,,,,,,,,,
null,,confidence_buffer,922885,confidence_buffer,,null,,,,,,,,,,,,,,,,,,
3082,,recognition_phase,925967,Delaware City,,52,,,,,,new,1,1,,,,,,,,,,
null,,confidence_buffer,926077,confidence_buffer,,null,,,,,,,,,,,,,,,,,,
null,,thebreak,926591,break,,null,,,,,,,,,,,,,,,,,,
5152,,realistic_rating,931745,Sitka,,50,Sitka,US,2,,,,,,,,,,,,,,,
null,,confidence_buffer,931848,confidence_buffer,,null,,,,,,,,,,,,,,,,,,
2840,,pt2_unique_rating,934689,Sitka,,53,,,5,,,,,,,,,,,,,,,
null,,confidence_buffer,934791,confidence_buffer,,null,,,,,,,,,,,,,,,,,,
2617,,pt2_memorable_rating,937409,Sitka,,51,,,3,,,,,,,,,,,,,,,
null,,confidence_buffer,937511,confidence_buffer,,null,,,,,,,,,,,,,,,,,,
3953,,recognition_phase,941464,Sitka,,52,,,,,,new,1,1,,,,,,,,,,
null,,confidence_buffer,941577,confidence_buffer,,null,,,,,,,,,,,,,,,,,,
null,,thebreak,942086,break,,null,,,,,,,,,,,,,,,,,,
5132,,realistic_rating,947217,New Verdan,,51,New Verdan,Fictional,3,,,,,,,,,,,,,,,
null,,confidence_buffer,947333,confidence_buffer,,null,,,,,,,,,,,,,,,,,,
2372,,pt2_unique_rating,949706,New Verdan,,52,,,4,,,,,,,,,,,,,,,
null,,confidence_buffer,949808,confidence_buffer,,null,,,,,,,,,,,,,,,,,,
1777,,pt2_memorable_rating,951584,New Verdan,,51,,,3,,,,,,,,,,,,,,,
null,,confidence_buffer,951688,confidence_buffer,,null,,,,,,,,,,,,,,,,,,
2512,,recognition_phase,954201,New Verdan,,52,,,,,,new,1,1,,,,,,,,,,
null,,confidence_buffer,954309,confidence_buffer,,null,,,,,,,,,,,,,,,,,,
null,,thebreak,954824,break,,null,,,,,,,,,,,,,,,,,,
3209,,realistic_rating,958034,Manistee,,50,Manistee,US,2,,,,,,,,,,,,,,,
null,,confidence_buffer,958147,confidence_buffer,,null,,,,,,,,,,,,,,,,,,
3910,,probe_rating,962059,probe_rating,,50,,,,2,1,,,,,,,,,,,,,
null,,confidence_buffer,962171,confidence_buffer,,null,,,,,,,,,,,,,,,,,,
2743,,pt2_unique_rating,964915,Manistee,,53,,,5,,,,,,,,,,,,,,,
null,,confidence_buffer,965026,confidence_buffer,,null,,,,,,,,,,,,,,,,,,
5863,,pt2_memorable_rating,970889,Manistee,,50,,,2,,,,,,,,,,,,,,,
null,,confidence_buffer,971005,confidence_buffer,,null,,,,,,,,,,,,,,,,,,
2870,,recognition_phase,973875,Manistee,,49,,,,,,old,1,1,,,,,,,,,,
null,,confidence_buffer,973985,confidence_buffer,,null,,,,,,,,,,,,,,,,,,
null,,thebreak,974489,break,,null,,,,,,,,,,,,,,,,,,
3914,,realistic_rating,978404,Berkeley Springs,,53,Berkeley Springs,US,5,,,,,,,,,,,,,,,
null,,confidence_buffer,978508,confidence_buffer,,null,,,,,,,,,,,,,,,,,,
2647,,pt2_unique_rating,981155,Berkeley Springs,,53,,,5,,,,,,,,,,,,,,,
null,,confidence_buffer,981271,confidence_buffer,,null,,,,,,,,,,,,,,,,,,
1772,,pt2_memorable_rating,983044,Berkeley Springs,,53,,,5,,,,,,,,,,,,,,,
null,,confidence_buffer,983160,confidence_buffer,,null,,,,,,,,,,,,,,,,,,
2452,,recognition_phase,985613,Berkeley Springs,,49,,,,,,old,1,1,,,,,,,,,,
null,,confidence_buffer,985717,confidence_buffer,,null,,,,,,,,,,,,,,,,,,
null,,thebreak,986231,break,,null,,,,,,,,,,,,,,,,,,
3253,,realistic_rating,989485,Medora,,51,Medora,US,3,,,,,,,,,,,,,,,
null,,confidence_buffer,989596,confidence_buffer,,null,,,,,,,,,,,,,,,,,,
2575,,pt2_unique_rating,992172,Medora,,53,,,5,,,,,,,,,,,,,,,
null,,confidence_buffer,992289,confidence_buffer,,null,,,,,,,,,,,,,,,,,,
2644,,pt2_memorable_rating,994932,Medora,,51,,,3,,,,,,,,,,,,,,,
null,,confidence_buffer,995039,confidence_buffer,,null,,,,,,,,,,,,,,,,,,
3029,,recognition_phase,998069,Medora,,52,,,,,,new,1,1,,,,,,,,,,
null,,confidence_buffer,998177,confidence_buffer,,null,,,,,,,,,,,,,,,,,,
null,,thebreak,998692,break,,null,,,,,,,,,,,,,,,,,,
5713,,realistic_rating,1004406,Baymarsh,,49,Baymarsh,Fictional,1,,,,,,,,,,,,,,,
null,,confidence_buffer,1004516,confidence_buffer,,null,,,,,,,,,,,,,,,,,,
2400,,pt2_unique_rating,1006917,Baymarsh,,53,,,5,,,,,,,,,,,,,,,
null,,confidence_buffer,1007019,confidence_buffer,,null,,,,,,,,,,,,,,,,,,
4450,,pt2_memorable_rating,1011470,Baymarsh,,52,,,4,,,,,,,,,,,,,,,
null,,confidence_buffer,1011583,confidence_buffer,,null,,,,,,,,,,,,,,,,,,
3879,,recognition_phase,1015463,Baymarsh,,52,,,,,,new,1,1,,,,,,,,,,
null,,confidence_buffer,1015568,confidence_buffer,,null,,,,,,,,,,,,,,,,,,
null,,thebreak,1016080,break,,null,,,,,,,,,,,,,,,,,,
9359,,realistic_rating,1025440,Albuquerque,,53,Albuquerque,US,5,,,,,,,,,,,,,,,
null,,confidence_buffer,1025551,confidence_buffer,,null,,,,,,,,,,,,,,,,,,
1392,,pt2_unique_rating,1026944,Albuquerque,,53,,,5,,,,,,,,,,,,,,,
null,,confidence_buffer,1027046,confidence_buffer,,null,,,,,,,,,,,,,,,,,,
1937,,pt2_memorable_rating,1028983,Albuquerque,,53,,,5,,,,,,,,,,,,,,,
null,,confidence_buffer,1029096,confidence_buffer,,null,,,,,,,,,,,,,,,,,,
1848,,recognition_phase,1030944,Albuquerque,,49,,,,,,old,1,1,,,,,,,,,,
null,,confidence_buffer,1031060,confidence_buffer,,null,,,,,,,,,,,,,,,,,,
null,,thebreak,1031562,break,,null,,,,,,,,,,,,,,,,,,
6094,,realistic_rating,1037656,Solara Glen,,49,Solara Glen,Fictional,1,,,,,,,,,,,,,,,
null,,confidence_buffer,1037770,confidence_buffer,,null,,,,,,,,,,,,,,,,,,
3453,,pt2_unique_rating,1041223,Solara Glen,,53,,,5,,,,,,,,,,,,,,,
null,,confidence_buffer,1041327,confidence_buffer,,null,,,,,,,,,,,,,,,,,,
2850,,pt2_memorable_rating,1044177,Solara Glen,,50,,,2,,,,,,,,,,,,,,,
null,,confidence_buffer,1044290,confidence_buffer,,null,,,,,,,,,,,,,,,,,,
2526,,recognition_phase,1046817,Solara Glen,,52,,,,,,new,1,1,,,,,,,,,,
null,,confidence_buffer,1046925,confidence_buffer,,null,,,,,,,,,,,,,,,,,,
null,,thebreak,1047428,break,,null,,,,,,,,,,,,,,,,,,
7605,,realistic_rating,1055033,Willowford,,53,Willowford,Fictional,5,,,,,,,,,,,,,,,
null,,confidence_buffer,1055135,confidence_buffer,,null,,,,,,,,,,,,,,,,,,
1658,,pt2_unique_rating,1056794,Willowford,,53,,,5,,,,,,,,,,,,,,,
null,,confidence_buffer,1056896,confidence_buffer,,null,,,,,,,,,,,,,,,,,,
2353,,pt2_memorable_rating,1059249,Willowford,,52,,,4,,,,,,,,,,,,,,,
null,,confidence_buffer,1059360,confidence_buffer,,null,,,,,,,,,,,,,,,,,,
2104,,recognition_phase,1061465,Willowford,,52,,,,,,new,1,1,,,,,,,,,,
null,,confidence_buffer,1061575,confidence_buffer,,null,,,,,,,,,,,,,,,,,,
null,,thebreak,1062087,break,,null,,,,,,,,,,,,,,,,,,
4200,,realistic_rating,1066289,Watkins Glen,,53,Watkins Glen,US,5,,,,,,,,,,,,,,,
null,,confidence_buffer,1066399,confidence_buffer,,null,,,,,,,,,,,,,,,,,,
2211,,probe_rating,1068610,probe_rating,,50,,,,2,1,,,,,,,,,,,,,
null,,confidence_buffer,1068727,confidence_buffer,,null,,,,,,,,,,,,,,,,,,
3875,,pt2_unique_rating,1072602,Watkins Glen,,53,,,5,,,,,,,,,,,,,,,
null,,confidence_buffer,1072715,confidence_buffer,,null,,,,,,,,,,,,,,,,,,
5871,,pt2_memorable_rating,1078587,Watkins Glen,,51,,,3,,,,,,,,,,,,,,,
null,,confidence_buffer,1078702,confidence_buffer,,null,,,,,,,,,,,,,,,,,,
2588,,recognition_phase,1081291,Watkins Glen,,49,,,,,,old,1,1,,,,,,,,,,
null,,confidence_buffer,1081400,confidence_buffer,,null,,,,,,,,,,,,,,,,,,
null,,thebreak,1081914,break,,null,,,,,,,,,,,,,,,,,,
3928,,realistic_rating,1085843,Alliance,,53,Alliance,US,5,,,,,,,,,,,,,,,
null,,confidence_buffer,1085946,confidence_buffer,,null,,,,,,,,,,,,,,,,,,
1976,,pt2_unique_rating,1087924,Alliance,,53,,,5,,,,,,,,,,,,,,,
null,,confidence_buffer,1088027,confidence_buffer,,null,,,,,,,,,,,,,,,,,,
1976,,pt2_memorable_rating,1090003,Alliance,,53,,,5,,,,,,,,,,,,,,,
null,,confidence_buffer,1090111,confidence_buffer,,null,,,,,,,,,,,,,,,,,,
2501,,recognition_phase,1092611,Alliance,,52,,,,,,new,1,1,,,,,,,,,,
null,,confidence_buffer,1092721,confidence_buffer,,null,,,,,,,,,,,,,,,,,,
null,,thebreak,1093236,break,,null,,,,,,,,,,,,,,,,,,
3703,,realistic_rating,1096940,Hot Springs,,53,Hot Springs,US,5,,,,,,,,,,,,,,,
null,,confidence_buffer,1097043,confidence_buffer,,null,,,,,,,,,,,,,,,,,,
2985,,pt2_unique_rating,1100029,Hot Springs,,53,,,5,,,,,,,,,,,,,,,
null,,confidence_buffer,1100144,confidence_buffer,,null,,,,,,,,,,,,,,,,,,
1987,,pt2_memorable_rating,1102132,Hot Springs,,53,,,5,,,,,,,,,,,,,,,
null,,confidence_buffer,1102244,confidence_buffer,,null,,,,,,,,,,,,,,,,,,
1881,,recognition_phase,1104125,Hot Springs,,49,,,,,,old,1,1,,,,,,,,,,
null,,confidence_buffer,1104236,confidence_buffer,,null,,,,,,,,,,,,,,,,,,
null,,thebreak,1104737,break,,null,,,,,,,,,,,,,,,,,,
6436,,realistic_rating,1111173,Briarfield,,51,Briarfield,Fictional,3,,,,,,,,,,,,,,,
null,,confidence_buffer,1111280,confidence_buffer,,null,,,,,,,,,,,,,,,,,,
2916,,pt2_unique_rating,1114197,Briarfield,,53,,,5,,,,,,,,,,,,,,,
null,,confidence_buffer,1114308,confidence_buffer,,null,,,,,,,,,,,,,,,,,,
3722,,pt2_memorable_rating,1118030,Briarfield,,52,,,4,,,,,,,,,,,,,,,
null,,confidence_buffer,1118147,confidence_buffer,,null,,,,,,,,,,,,,,,,,,
5011,,recognition_phase,1123158,Briarfield,,50,,,,,,old,0,0.975,,,,,,,,,,
null,,confidence_buffer,1123260,confidence_buffer,,null,,,,,,,,,,,,,,,,,,
null,,thebreak,1123774,break,,null,,,,,,,,,,,,,,,,,,
8016,,realistic_rating,1131791,Lake of the Ozarks,,51,Lake of the Ozarks,US,3,,,,,,,,,,,,,,,
null,,confidence_buffer,1131905,confidence_buffer,,null,,,,,,,,,,,,,,,,,,
5564,,pt2_unique_rating,1137469,Lake of the Ozarks,,53,,,5,,,,,,,,,,,,,,,
null,,confidence_buffer,1137580,confidence_buffer,,null,,,,,,,,,,,,,,,,,,
1833,,pt2_memorable_rating,1139415,Lake of the Ozarks,,53,,,5,,,,,,,,,,,,,,,
null,,confidence_buffer,1139519,confidence_buffer,,null,,,,,,,,,,,,,,,,,,
2248,,recognition_phase,1141768,Lake of the Ozarks,,49,,,,,,old,1,0.975609756097561,,,,,,,,,,
null,,confidence_buffer,1141873,confidence_buffer,,null,,,,,,,,,,,,,,,,,,
null,,thebreak,1142374,break,,null,,,,,,,,,,,,,,,,,,
5016,,realistic_rating,1147391,Abilene,,53,Abilene,US,5,,,,,,,,,,,,,,,
null,,confidence_buffer,1147506,confidence_buffer,,null,,,,,,,,,,,,,,,,,,
1974,,pt2_unique_rating,1149480,Abilene,,53,,,5,,,,,,,,,,,,,,,
null,,confidence_buffer,1149588,confidence_buffer,,null,,,,,,,,,,,,,,,,,,
1306,,pt2_memorable_rating,1150896,Abilene,,53,,,5,,,,,,,,,,,,,,,
null,,confidence_buffer,1151006,confidence_buffer,,null,,,,,,,,,,,,,,,,,,
4779,,recognition_phase,1155786,Abilene,,52,,,,,,new,1,0.9761904761904762,,,,,,,,,,
null,,confidence_buffer,1155895,confidence_buffer,,null,,,,,,,,,,,,,,,,,,
null,,thebreak,1156411,break,,null,,,,,,,,,,,,,,,,,,
3991,,realistic_rating,1160401,Cedarwyn,,50,Cedarwyn,Fictional,2,,,,,,,,,,,,,,,
null,,confidence_buffer,1160512,confidence_buffer,,null,,,,,,,,,,,,,,,,,,
4856,,probe_rating,1165369,probe_rating,,51,,,,3,1,,,,,,,,,,,,,
null,,confidence_buffer,1165475,confidence_buffer,,null,,,,,,,,,,,,,,,,,,
2478,,pt2_unique_rating,1167953,Cedarwyn,,52,,,4,,,,,,,,,,,,,,,
null,,confidence_buffer,1168057,confidence_buffer,,null,,,,,,,,,,,,,,,,,,
3287,,pt2_memorable_rating,1171344,Cedarwyn,,51,,,3,,,,,,,,,,,,,,,
null,,confidence_buffer,1171454,confidence_buffer,,null,,,,,,,,,,,,,,,,,,
2011,,recognition_phase,1173466,Cedarwyn,,49,,,,,,old,1,0.9767441860465116,,,,,,,,,,
null,,confidence_buffer,1173581,confidence_buffer,,null,,,,,,,,,,,,,,,,,,
null,,thebreak,1174081,break,,null,,,,,,,,,,,,,,,,,,
8687,,realistic_rating,1182769,Linden Trace,,51,Linden Trace,Fictional,3,,,,,,,,,,,,,,,
null,,confidence_buffer,1182882,confidence_buffer,,null,,,,,,,,,,,,,,,,,,
2351,,pt2_unique_rating,1185235,Linden Trace,,53,,,5,,,,,,,,,,,,,,,
null,,confidence_buffer,1185349,confidence_buffer,,null,,,,,,,,,,,,,,,,,,
3415,,pt2_memorable_rating,1188763,Linden Trace,,51,,,3,,,,,,,,,,,,,,,
null,,confidence_buffer,1188875,confidence_buffer,,null,,,,,,,,,,,,,,,,,,
2991,,recognition_phase,1191867,Linden Trace,,52,,,,,,new,1,0.9772727272727273,,,,,,,,,,
null,,confidence_buffer,1191977,confidence_buffer,,null,,,,,,,,,,,,,,,,,,
null,,thebreak,1192490,break,,null,,,,,,,,,,,,,,,,,,
4593,,realistic_rating,1197084,Lakehaven,,52,Lakehaven,Fictional,4,,,,,,,,,,,,,,,
null,,confidence_buffer,1197196,confidence_buffer,,null,,,,,,,,,,,,,,,,,,
4238,,pt2_unique_rating,1201435,Lakehaven,,51,,,3,,,,,,,,,,,,,,,
null,,confidence_buffer,1201541,confidence_buffer,,null,,,,,,,,,,,,,,,,,,
2094,,pt2_memorable_rating,1203636,Lakehaven,,51,,,3,,,,,,,,,,,,,,,
null,,confidence_buffer,1203751,confidence_buffer,,null,,,,,,,,,,,,,,,,,,
2293,,recognition_phase,1206045,Lakehaven,,49,,,,,,old,1,0.9777777777777777,,,,,,,,,,
null,,confidence_buffer,1206160,confidence_buffer,,null,,,,,,,,,,,,,,,,,,
null,,thebreak,1206661,break,,null,,,,,,,,,,,,,,,,,,
5391,,realistic_rating,1212054,Hilo,,52,Hilo,US,4,,,,,,,,,,,,,,,
null,,confidence_buffer,1212165,confidence_buffer,,null,,,,,,,,,,,,,,,,,,
22,,pt2_unique_rating,1212188,Hilo,,52,,,4,,,,,,,,,,,,,,,
null,,confidence_buffer,1212293,confidence_buffer,,null,,,,,,,,,,,,,,,,,,
4879,,probe_rating,1217172,probe_rating,,50,,,,2,1,,,,,,,,,,,,,
null,,confidence_buffer,1217287,confidence_buffer,,null,,,,,,,,,,,,,,,,,,
4166,,pt2_memorable_rating,1221454,Hilo,,53,,,5,,,,,,,,,,,,,,,
null,,confidence_buffer,1221565,confidence_buffer,,null,,,,,,,,,,,,,,,,,,
2136,,recognition_phase,1223701,Hilo,,49,,,,,,old,1,0.9782608695652174,,,,,,,,,,
null,,confidence_buffer,1223815,confidence_buffer,,null,,,,,,,,,,,,,,,,,,
null,,thebreak,1224332,break,,null,,,,,,,,,,,,,,,,,,
4593,,realistic_rating,1228926,Sammamish,,49,Sammamish,US,1,,,,,,,,,,,,,,,
null,,confidence_buffer,1229039,confidence_buffer,,null,,,,,,,,,,,,,,,,,,
2135,,pt2_unique_rating,1231173,Sammamish,,53,,,5,,,,,,,,,,,,,,,
null,,confidence_buffer,1231278,confidence_buffer,,null,,,,,,,,,,,,,,,,,,
2831,,pt2_memorable_rating,1234110,Sammamish,,50,,,2,,,,,,,,,,,,,,,
null,,confidence_buffer,1234212,confidence_buffer,,null,,,,,,,,,,,,,,,,,,
1546,,recognition_phase,1235758,Sammamish,,49,,,,,,old,1,0.9787234042553191,,,,,,,,,,
null,,confidence_buffer,1235871,confidence_buffer,,null,,,,,,,,,,,,,,,,,,
null,,thebreak,1236380,break,,null,,,,,,,,,,,,,,,,,,
3497,,realistic_rating,1239878,Bowling Green,,53,Bowling Green,US,5,,,,,,,,,,,,,,,
null,,confidence_buffer,1239985,confidence_buffer,,null,,,,,,,,,,,,,,,,,,
1349,,pt2_unique_rating,1241335,Bowling Green,,53,,,5,,,,,,,,,,,,,,,
null,,confidence_buffer,1241442,confidence_buffer,,null,,,,,,,,,,,,,,,,,,
1164,,pt2_memorable_rating,1242607,Bowling Green,,53,,,5,,,,,,,,,,,,,,,
null,,confidence_buffer,1242714,confidence_buffer,,null,,,,,,,,,,,,,,,,,,
1508,,recognition_phase,1244223,Bowling Green,,49,,,,,,old,1,0.9791666666666666,,,,,,,,,,
null,,confidence_buffer,1244325,confidence_buffer,,null,,,,,,,,,,,,,,,,,,
null,,thebreak,1244827,break,,null,,,,,,,,,,,,,,,,,,
6594,,realistic_rating,1251422,Millstone,,53,Millstone,Fictional,5,,,,,,,,,,,,,,,
null,,confidence_buffer,1251532,confidence_buffer,,null,,,,,,,,,,,,,,,,,,
1554,,pt2_unique_rating,1253086,Millstone,,53,,,5,,,,,,,,,,,,,,,
null,,confidence_buffer,1253193,confidence_buffer,,null,,,,,,,,,,,,,,,,,,
725,,pt2_memorable_rating,1253919,Millstone,,53,,,5,,,,,,,,,,,,,,,
null,,confidence_buffer,1254029,confidence_buffer,,null,,,,,,,,,,,,,,,,,,
2697,,recognition_phase,1256726,Millstone,,52,,,,,,new,1,0.9795918367346939,,,,,,,,,,
null,,confidence_buffer,1256838,confidence_buffer,,null,,,,,,,,,,,,,,,,,,
null,,thebreak,1257341,break,,null,,,,,,,,,,,,,,,,,,
4010,,realistic_rating,1261352,Sierra Hollow,,51,Sierra Hollow,Fictional,3,,,,,,,,,,,,,,,
null,,confidence_buffer,1261463,confidence_buffer,,null,,,,,,,,,,,,,,,,,,
2440,,pt2_unique_rating,1263904,Sierra Hollow,,52,,,4,,,,,,,,,,,,,,,
null,,confidence_buffer,1264009,confidence_buffer,,null,,,,,,,,,,,,,,,,,,
1814,,pt2_memorable_rating,1265824,Sierra Hollow,,52,,,4,,,,,,,,,,,,,,,
null,,confidence_buffer,1265929,confidence_buffer,,null,,,,,,,,,,,,,,,,,,
2110,,recognition_phase,1268040,Sierra Hollow,,49,,,,,,old,1,0.98,,,,,,,,,,
null,,confidence_buffer,1268143,confidence_buffer,,null,,,,,,,,,,,,,,,,,,
null,,thebreak,1268659,break,,null,,,,,,,,,,,,,,,,,,
9752,,realistic_rating,1278412,Hawthorne Bluffs,,52,Hawthorne Bluffs,Fictional,4,,,,,,,,,,,,,,,
null,,confidence_buffer,1278517,confidence_buffer,,null,,,,,,,,,,,,,,,,,,
2491,,probe_rating,1281009,probe_rating,,53,,,,5,1,,,,,,,,,,,,,
null,,confidence_buffer,1281114,confidence_buffer,,null,,,,,,,,,,,,,,,,,,
2295,,pt2_unique_rating,1283410,Hawthorne Bluffs,,53,,,5,,,,,,,,,,,,,,,
null,,confidence_buffer,1283514,confidence_buffer,,null,,,,,,,,,,,,,,,,,,
2191,,pt2_memorable_rating,1285706,Hawthorne Bluffs,,53,,,5,,,,,,,,,,,,,,,
null,,confidence_buffer,1285817,confidence_buffer,,null,,,,,,,,,,,,,,,,,,
1737,,recognition_phase,1287555,Hawthorne Bluffs,,49,,,,,,old,1,0.9803921568627451,,,,,,,,,,
null,,confidence_buffer,1287656,confidence_buffer,,null,,,,,,,,,,,,,,,,,,
null,,thebreak,1288169,break,,null,,,,,,,,,,,,,,,,,,
3497,,realistic_rating,1291667,West Talora,,51,West Talora,Fictional,3,,,,,,,,,,,,,,,
null,,confidence_buffer,1291772,confidence_buffer,,null,,,,,,,,,,,,,,,,,,
1813,,pt2_unique_rating,1293587,West Talora,,53,,,5,,,,,,,,,,,,,,,
null,,confidence_buffer,1293688,confidence_buffer,,null,,,,,,,,,,,,,,,,,,
1977,,pt2_memorable_rating,1295666,West Talora,,50,,,2,,,,,,,,,,,,,,,
null,,confidence_buffer,1295770,confidence_buffer,,null,,,,,,,,,,,,,,,,,,
3007,,recognition_phase,1298778,West Talora,,52,,,,,,new,1,0.9807692307692307,,,,,,,,,,
null,,confidence_buffer,1298887,confidence_buffer,,null,,,,,,,,,,,,,,,,,,
null,,thebreak,1299402,break,,null,,,,,,,,,,,,,,,,,,
4769,,realistic_rating,1304172,Brookmere,,51,Brookmere,Fictional,3,,,,,,,,,,,,,,,
null,,confidence_buffer,1304276,confidence_buffer,,null,,,,,,,,,,,,,,,,,,
4335,,pt2_unique_rating,1308612,Brookmere,,52,,,4,,,,,,,,,,,,,,,
null,,confidence_buffer,1308724,confidence_buffer,,null,,,,,,,,,,,,,,,,,,
1878,,pt2_memorable_rating,1310604,Brookmere,,51,,,3,,,,,,,,,,,,,,,
null,,confidence_buffer,1310713,confidence_buffer,,null,,,,,,,,,,,,,,,,,,
1602,,recognition_phase,1312317,Brookmere,,49,,,,,,old,1,0.9811320754716981,,,,,,,,,,
null,,confidence_buffer,1312418,confidence_buffer,,null,,,,,,,,,,,,,,,,,,
null,,thebreak,1312920,break,,null,,,,,,,,,,,,,,,,,,
2466,,realistic_rating,1315388,Leesburg,,53,Leesburg,US,5,,,,,,,,,,,,,,,
null,,confidence_buffer,1315489,confidence_buffer,,null,,,,,,,,,,,,,,,,,,
2595,,probe_rating,1318085,probe_rating,,53,,,,5,1,,,,,,,,,,,,,
null,,confidence_buffer,1318200,confidence_buffer,,null,,,,,,,,,,,,,,,,,,
4042,,pt2_unique_rating,1322244,Leesburg,,51,,,3,,,,,,,,,,,,,,,
null,,confidence_buffer,1322360,confidence_buffer,,null,,,,,,,,,,,,,,,,,,
1868,,pt2_memorable_rating,1324229,Leesburg,,53,,,5,,,,,,,,,,,,,,,
null,,confidence_buffer,1324333,confidence_buffer,,null,,,,,,,,,,,,,,,,,,
1519,,recognition_phase,1325853,Leesburg,,49,,,,,,old,1,0.9814814814814815,,,,,,,,,,
null,,confidence_buffer,1325959,confidence_buffer,,null,,,,,,,,,,,,,,,,,,
null,,thebreak,1326475,break,,null,,,,,,,,,,,,,,,,,,
3570,,realistic_rating,1330045,Livingston,,53,Livingston,US,5,,,,,,,,,,,,,,,
null,,confidence_buffer,1330160,confidence_buffer,,null,,,,,,,,,,,,,,,,,,
2589,,pt2_unique_rating,1332750,Livingston,,52,,,4,,,,,,,,,,,,,,,
null,,confidence_buffer,1332855,confidence_buffer,,null,,,,,,,,,,,,,,,,,,
2358,,pt2_memorable_rating,1335213,Livingston,,53,,,5,,,,,,,,,,,,,,,
null,,confidence_buffer,1335323,confidence_buffer,,null,,,,,,,,,,,,,,,,,,
2257,,recognition_phase,1337581,Livingston,,52,,,,,,new,1,0.9818181818181818,,,,,,,,,,
null,,confidence_buffer,1337692,confidence_buffer,,null,,,,,,,,,,,,,,,,,,
null,,thebreak,1338194,break,,null,,,,,,,,,,,,,,,,,,
3362,,realistic_rating,1341558,Elmsbury,,51,Elmsbury,Fictional,3,,,,,,,,,,,,,,,
null,,confidence_buffer,1341668,confidence_buffer,,null,,,,,,,,,,,,,,,,,,
2241,,pt2_unique_rating,1343910,Elmsbury,,52,,,4,,,,,,,,,,,,,,,
null,,confidence_buffer,1344015,confidence_buffer,,null,,,,,,,,,,,,,,,,,,
2583,,pt2_memorable_rating,1346599,Elmsbury,,52,,,4,,,,,,,,,,,,,,,
null,,confidence_buffer,1346710,confidence_buffer,,null,,,,,,,,,,,,,,,,,,
2063,,recognition_phase,1348774,Elmsbury,,49,,,,,,old,1,0.9821428571428571,,,,,,,,,,
null,,confidence_buffer,1348884,confidence_buffer,,null,,,,,,,,,,,,,,,,,,
null,,thebreak,1349400,break,,null,,,,,,,,,,,,,,,,,,
4303,,realistic_rating,1353703,Clearbrook,,51,Clearbrook,Fictional,3,,,,,,,,,,,,,,,
null,,confidence_buffer,1353817,confidence_buffer,,null,,,,,,,,,,,,,,,,,,
1637,,pt2_unique_rating,1355455,Clearbrook,,52,,,4,,,,,,,,,,,,,,,
null,,confidence_buffer,1355570,confidence_buffer,,null,,,,,,,,,,,,,,,,,,
2371,,pt2_memorable_rating,1357943,Clearbrook,,52,,,4,,,,,,,,,,,,,,,
null,,confidence_buffer,1358048,confidence_buffer,,null,,,,,,,,,,,,,,,,,,
2158,,probe_rating,1360206,probe_rating,,50,,,,2,1,,,,,,,,,,,,,
null,,confidence_buffer,1360322,confidence_buffer,,null,,,,,,,,,,,,,,,,,,
7355,,recognition_phase,1367679,Clearbrook,,51,,,,,,new,0,0.9649122807017544,,,,,,,,,,
null,,confidence_buffer,1367792,confidence_buffer,,null,,,,,,,,,,,,,,,,,,
null,,thebreak,1368308,break,,null,,,,,,,,,,,,,,,,,,
3820,,realistic_rating,1372129,Folly Beach,,50,Folly Beach,US,2,,,,,,,,,,,,,,,
null,,confidence_buffer,1372230,confidence_buffer,,null,,,,,,,,,,,,,,,,,,
2523,,pt2_unique_rating,1374755,Folly Beach,,53,,,5,,,,,,,,,,,,,,,
null,,confidence_buffer,1374866,confidence_buffer,,null,,,,,,,,,,,,,,,,,,
998,,pt2_memorable_rating,1375864,Folly Beach,,53,,,5,,,,,,,,,,,,,,,
null,,confidence_buffer,1375977,confidence_buffer,,null,,,,,,,,,,,,,,,,,,
4239,,recognition_phase,1380217,Folly Beach,,52,,,,,,new,1,0.9655172413793104,,,,,,,,,,
null,,confidence_buffer,1380328,confidence_buffer,,null,,,,,,,,,,,,,,,,,,
null,,thebreak,1380838,break,,null,,,,,,,,,,,,,,,,,,
2650,,realistic_rating,1383488,Crestwood,,53,Crestwood,Fictional,5,,,,,,,,,,,,,,,
null,,confidence_buffer,1383592,confidence_buffer,,null,,,,,,,,,,,,,,,,,,
2353,,pt2_unique_rating,1385946,Crestwood,,51,,,3,,,,,,,,,,,,,,,
null,,confidence_buffer,1386057,confidence_buffer,,null,,,,,,,,,,,,,,,,,,
1790,,pt2_memorable_rating,1387849,Crestwood,,53,,,5,,,,,,,,,,,,,,,
null,,confidence_buffer,1387959,confidence_buffer,,null,,,,,,,,,,,,,,,,,,
1674,,recognition_phase,1389633,Crestwood,,49,,,,,,old,1,0.9661016949152542,,,,,,,,,,
null,,confidence_buffer,1389741,confidence_buffer,,null,,,,,,,,,,,,,,,,,,
null,,thebreak,1390247,break,,null,,,,,,,,,,,,,,,,,,
3313,,realistic_rating,1393561,Gardnerville,,51,Gardnerville,US,3,,,,,,,,,,,,,,,
null,,confidence_buffer,1393673,confidence_buffer,,null,,,,,,,,,,,,,,,,,,
1864,,pt2_unique_rating,1395539,Gardnerville,,51,,,3,,,,,,,,,,,,,,,
null,,confidence_buffer,1395654,confidence_buffer,,null,,,,,,,,,,,,,,,,,,
2554,,pt2_memorable_rating,1398209,Gardnerville,,50,,,2,,,,,,,,,,,,,,,
null,,confidence_buffer,1398320,confidence_buffer,,null,,,,,,,,,,,,,,,,,,
2698,,recognition_phase,1401019,Gardnerville,,49,,,,,,old,1,0.9666666666666667,,,,,,,,,,
null,,confidence_buffer,1401135,confidence_buffer,,null,,,,,,,,,,,,,,,,,,
null,,thebreak,1401638,break,,null,,,,,,,,,,,,,,,,,,
,,survey,1857707,survey-questions,,,,,,,,,,,none,high,No,I didn't use a particular strategy. I do think that I remembered most of the names quite well.,As I said in the previous question, some of the cities I definitely knew existed and some of them I have visited. Others I was pretty sure that I'd heard of them.,Some are just memorable like Bowling Green. Others are fairly generic and may not be really memorable.,Some names like Fairhaven don't seem unique, like there may be one in every state. West Palm Beach would probably be pretty unique to tropical states kinds of states.,Some names like Sammimish ie spelling? just don't seem realistic.,No, I haven't.,I did try to open the study on Chrome. It didn't work. I had to use Firefox.
