rt,responses,trial_type,time_elapsed,stimulus,button_pressed,key_press,name_trial,city_type,rating,probe,probe_accuracy,response,correct,accuracy,problems,smooth,distraction,strategies,familiar,memorable,unique,realistic,similar,comments
9359.699999988079,{worker_id:6007a7996fbeef04ce080f90},id_enter,9362,,,,,,,,,,,,,,,,,,,,,
6514.699999988079,,fullscreen,15880,fullscreen,0,,,,,,,,,,,,,,,,,,,
10300.300000011921,,intro_0,26183,instruct,,32,,,,,,,,,,,,,,,,,,
10364.699999988079,,intro_1,36550,instruct,,32,,,,,,,,,,,,,,,,,,
8203.5,,intro_2,44754,instruct,,32,,,,,,,,,,,,,,,,,,
null,,instruct_dir_4,46257,instruct,,null,,,,,,,,,,,,,,,,,,
null,,thebreak,46760,break,,null,,,,,,,,,,,,,,,,,,
19437.30000001192,,familiar_rating,66199,Livingston,,49,Livingston,US,1,,,,,,,,,,,,,,,
null,,confidence_buffer,66302,confidence_buffer,,null,,,,,,,,,,,,,,,,,,
4104.199999988079,,probe_rating,70408,probe_rating,,53,,,,5,1,,,,,,,,,,,,,
null,,confidence_buffer,70511,confidence_buffer,,null,,,,,,,,,,,,,,,,,,
14345.90000000596,,unique_rating,84858,Livingston,,51,,,3,,,,,,,,,,,,,,,
null,,confidence_buffer,84961,confidence_buffer,,null,,,,,,,,,,,,,,,,,,
5465.300000011921,,memorable_rating,90428,Livingston,,52,,,4,,,,,,,,,,,,,,,
null,,confidence_buffer,90531,confidence_buffer,,null,,,,,,,,,,,,,,,,,,
null,,thebreak,91033,break,,null,,,,,,,,,,,,,,,,,,
7954.300000011921,,familiar_rating,98989,Watkins Glen,,49,Watkins Glen,US,1,,,,,,,,,,,,,,,
null,,confidence_buffer,99091,confidence_buffer,,null,,,,,,,,,,,,,,,,,,
1263.5999999940395,,unique_rating,100356,Watkins Glen,,49,,,1,,,,,,,,,,,,,,,
null,,confidence_buffer,100458,confidence_buffer,,null,,,,,,,,,,,,,,,,,,
12856.199999988079,,memorable_rating,113316,Watkins Glen,,50,,,2,,,,,,,,,,,,,,,
null,,confidence_buffer,113419,confidence_buffer,,null,,,,,,,,,,,,,,,,,,
null,,thebreak,113922,break,,null,,,,,,,,,,,,,,,,,,
14251.5,,familiar_rating,128175,Elmsbury,,49,Elmsbury,Fictional,1,,,,,,,,,,,,,,,
null,,confidence_buffer,128278,confidence_buffer,,null,,,,,,,,,,,,,,,,,,
4887.800000011921,,unique_rating,133167,Elmsbury,,49,,,1,,,,,,,,,,,,,,,
null,,confidence_buffer,133270,confidence_buffer,,null,,,,,,,,,,,,,,,,,,
2827.800000011921,,memorable_rating,136099,Elmsbury,,49,,,1,,,,,,,,,,,,,,,
null,,confidence_buffer,136202,confidence_buffer,,null,,,,,,,,,,,,,,,,,,
null,,thebreak,136705,break,,null,,,,,,,,,,,,,,,,,,
8202.40000000596,,familiar_rating,144909,Shreveport,,52,Shreveport,US,4,,,,,,,,,,,,,,,
null,,confidence_buffer,145012,confidence_buffer,,null,,,,,,,,,,,,,,,,,,
6458.5,,unique_rating,151471,Shreveport,,51,,,3,,,,,,,,,,,,,,,
null,,confidence_buffer,151574,confidence_buffer,,null,,,,,,,,,,,,,,,,,,
2532.4000000059605,,memorable_rating,154108,Shreveport,,51,,,3,,,,,,,,,,,,,,,
null,,confidence_buffer,154212,confidence_buffer,,null,,,,,,,,,,,,,,,,,,
null,,thebreak,154714,break,,null,,,,,,,,,,,,,,,,,,
7276,,familiar_rating,161992,Barnard,,50,Barnard,US,2,,,,,,,,,,,,,,,
null,,confidence_buffer,162094,confidence_buffer,,null,,,,,,,,,,,,,,,,,,
2248,,unique_rating,164344,Barnard,,49,,,1,,,,,,,,,,,,,,,
null,,confidence_buffer,164447,confidence_buffer,,null,,,,,,,,,,,,,,,,,,
1762.9000000059605,,memorable_rating,166211,Barnard,,49,,,1,,,,,,,,,,,,,,,
null,,confidence_buffer,166314,confidence_buffer,,null,,,,,,,,,,,,,,,,,,
null,,thebreak,166816,break,,null,,,,,,,,,,,,,,,,,,
10698.5,,familiar_rating,177516,Solara Glen,,49,Solara Glen,Fictional,1,,,,,,,,,,,,,,,
null,,confidence_buffer,177619,confidence_buffer,,null,,,,,,,,,,,,,,,,,,
6816.9000000059605,,unique_rating,184437,Solara Glen,,52,,,4,,,,,,,,,,,,,,,
null,,confidence_buffer,184539,confidence_buffer,,null,,,,,,,,,,,,,,,,,,
6133.9000000059605,,memorable_rating,190674,Solara Glen,,50,,,2,,,,,,,,,,,,,,,
null,,confidence_buffer,190776,confidence_buffer,,null,,,,,,,,,,,,,,,,,,
null,,thebreak,191278,break,,null,,,,,,,,,,,,,,,,,,
5721.5,,familiar_rating,197001,Maplehurst,,49,Maplehurst,Fictional,1,,,,,,,,,,,,,,,
null,,confidence_buffer,197103,confidence_buffer,,null,,,,,,,,,,,,,,,,,,
6675.5,,unique_rating,203780,Maplehurst,,50,,,2,,,,,,,,,,,,,,,
null,,confidence_buffer,203883,confidence_buffer,,null,,,,,,,,,,,,,,,,,,
3093.4000000059605,,memorable_rating,206977,Maplehurst,,50,,,2,,,,,,,,,,,,,,,
null,,confidence_buffer,207080,confidence_buffer,,null,,,,,,,,,,,,,,,,,,
null,,thebreak,207582,break,,null,,,,,,,,,,,,,,,,,,
7487.5,,familiar_rating,215071,Athens,,52,Athens,US,4,,,,,,,,,,,,,,,
null,,confidence_buffer,215173,confidence_buffer,,null,,,,,,,,,,,,,,,,,,
5437,,unique_rating,220612,Athens,,49,,,1,,,,,,,,,,,,,,,
null,,confidence_buffer,220715,confidence_buffer,,null,,,,,,,,,,,,,,,,,,
3591.2000000178814,,memorable_rating,224307,Athens,,50,,,2,,,,,,,,,,,,,,,
null,,confidence_buffer,224410,confidence_buffer,,null,,,,,,,,,,,,,,,,,,
1698.4000000059605,,probe_rating,226109,probe_rating,,50,,,,2,1,,,,,,,,,,,,,
null,,confidence_buffer,226212,confidence_buffer,,null,,,,,,,,,,,,,,,,,,
null,,thebreak,226715,break,,null,,,,,,,,,,,,,,,,,,
9840.90000000596,,familiar_rating,236557,Maravilla Springs,,49,Maravilla Springs,Fictional,1,,,,,,,,,,,,,,,
null,,confidence_buffer,236660,confidence_buffer,,null,,,,,,,,,,,,,,,,,,
3619.2000000178814,,probe_rating,240281,probe_rating,,53,,,,5,1,,,,,,,,,,,,,
null,,confidence_buffer,240383,confidence_buffer,,null,,,,,,,,,,,,,,,,,,
4301.0999999940395,,unique_rating,244686,Maravilla Springs,,50,,,2,,,,,,,,,,,,,,,
null,,confidence_buffer,244788,confidence_buffer,,null,,,,,,,,,,,,,,,,,,
2080.199999988079,,memorable_rating,246869,Maravilla Springs,,50,,,2,,,,,,,,,,,,,,,
null,,confidence_buffer,246972,confidence_buffer,,null,,,,,,,,,,,,,,,,,,
null,,thebreak,247475,break,,null,,,,,,,,,,,,,,,,,,
4794.700000017881,,familiar_rating,252271,Peoria,,52,Peoria,US,4,,,,,,,,,,,,,,,
null,,confidence_buffer,252373,confidence_buffer,,null,,,,,,,,,,,,,,,,,,
5637.899999976158,,unique_rating,258012,Peoria,,51,,,3,,,,,,,,,,,,,,,
null,,confidence_buffer,258115,confidence_buffer,,null,,,,,,,,,,,,,,,,,,
3321.199999988079,,memorable_rating,261438,Peoria,,51,,,3,,,,,,,,,,,,,,,
null,,confidence_buffer,261541,confidence_buffer,,null,,,,,,,,,,,,,,,,,,
null,,thebreak,262043,break,,null,,,,,,,,,,,,,,,,,,
5978.299999982119,,familiar_rating,268023,Boulder,,53,Boulder,US,5,,,,,,,,,,,,,,,
null,,confidence_buffer,268126,confidence_buffer,,null,,,,,,,,,,,,,,,,,,
3748.9000000059605,,unique_rating,271876,Boulder,,51,,,3,,,,,,,,,,,,,,,
null,,confidence_buffer,271979,confidence_buffer,,null,,,,,,,,,,,,,,,,,,
2053.9000000059605,,memorable_rating,274034,Boulder,,51,,,3,,,,,,,,,,,,,,,
null,,confidence_buffer,274137,confidence_buffer,,null,,,,,,,,,,,,,,,,,,
null,,thebreak,274639,break,,null,,,,,,,,,,,,,,,,,,
3418.9000000059605,,familiar_rating,278059,Tamarisk Hills,,49,Tamarisk Hills,Fictional,1,,,,,,,,,,,,,,,
null,,confidence_buffer,278162,confidence_buffer,,null,,,,,,,,,,,,,,,,,,
6645.800000011921,,unique_rating,284809,Tamarisk Hills,,51,,,3,,,,,,,,,,,,,,,
null,,confidence_buffer,284912,confidence_buffer,,null,,,,,,,,,,,,,,,,,,
4160.300000011921,,probe_rating,289074,probe_rating,,51,,,,3,1,,,,,,,,,,,,,
null,,confidence_buffer,289176,confidence_buffer,,null,,,,,,,,,,,,,,,,,,
3458,,memorable_rating,292636,Tamarisk Hills,,50,,,2,,,,,,,,,,,,,,,
null,,confidence_buffer,292738,confidence_buffer,,null,,,,,,,,,,,,,,,,,,
null,,thebreak,293240,break,,null,,,,,,,,,,,,,,,,,,
3312.100000023842,,familiar_rating,296553,Crestwood,,49,Crestwood,Fictional,1,,,,,,,,,,,,,,,
null,,confidence_buffer,296656,confidence_buffer,,null,,,,,,,,,,,,,,,,,,
3980.800000011921,,unique_rating,300638,Crestwood,,49,,,1,,,,,,,,,,,,,,,
null,,confidence_buffer,300741,confidence_buffer,,null,,,,,,,,,,,,,,,,,,
1849.9000000059605,,memorable_rating,302592,Crestwood,,49,,,1,,,,,,,,,,,,,,,
null,,confidence_buffer,302695,confidence_buffer,,null,,,,,,,,,,,,,,,,,,
null,,thebreak,303197,break,,null,,,,,,,,,,,,,,,,,,
5603.0999999940395,,familiar_rating,308801,Hanover,,52,Hanover,US,4,,,,,,,,,,,,,,,
null,,confidence_buffer,308903,confidence_buffer,,null,,,,,,,,,,,,,,,,,,
5337.600000023842,,unique_rating,314242,Hanover,,49,,,1,,,,,,,,,,,,,,,
null,,confidence_buffer,314345,confidence_buffer,,null,,,,,,,,,,,,,,,,,,
1936.199999988079,,memorable_rating,316283,Hanover,,49,,,1,,,,,,,,,,,,,,,
null,,confidence_buffer,316386,confidence_buffer,,null,,,,,,,,,,,,,,,,,,
null,,thebreak,316888,break,,null,,,,,,,,,,,,,,,,,,
4519.799999982119,,familiar_rating,321409,Orr,,51,Orr,US,3,,,,,,,,,,,,,,,
null,,confidence_buffer,321511,confidence_buffer,,null,,,,,,,,,,,,,,,,,,
3494.5,,unique_rating,325007,Orr,,51,,,3,,,,,,,,,,,,,,,
null,,confidence_buffer,325110,confidence_buffer,,null,,,,,,,,,,,,,,,,,,
2445.5,,memorable_rating,327557,Orr,,51,,,3,,,,,,,,,,,,,,,
null,,confidence_buffer,327660,confidence_buffer,,null,,,,,,,,,,,,,,,,,,
null,,thebreak,328162,break,,null,,,,,,,,,,,,,,,,,,
2773.4000000059605,,familiar_rating,330937,Silverpine,,49,Silverpine,Fictional,1,,,,,,,,,,,,,,,
null,,confidence_buffer,331039,confidence_buffer,,null,,,,,,,,,,,,,,,,,,
2623.9000000059605,,unique_rating,333665,Silverpine,,49,,,1,,,,,,,,,,,,,,,
null,,confidence_buffer,333767,confidence_buffer,,null,,,,,,,,,,,,,,,,,,
2979.699999988079,,memorable_rating,336748,Silverpine,,49,,,1,,,,,,,,,,,,,,,
null,,confidence_buffer,336850,confidence_buffer,,null,,,,,,,,,,,,,,,,,,
null,,thebreak,337351,break,,null,,,,,,,,,,,,,,,,,,
5398.5,,familiar_rating,342751,Bowling Green,,53,Bowling Green,US,5,,,,,,,,,,,,,,,
null,,confidence_buffer,342854,confidence_buffer,,null,,,,,,,,,,,,,,,,,,
3784.5999999940395,,unique_rating,346640,Bowling Green,,51,,,3,,,,,,,,,,,,,,,
null,,confidence_buffer,346742,confidence_buffer,,null,,,,,,,,,,,,,,,,,,
7289.9000000059605,,memorable_rating,354034,Bowling Green,,51,,,3,,,,,,,,,,,,,,,
null,,confidence_buffer,354135,confidence_buffer,,null,,,,,,,,,,,,,,,,,,
null,,thebreak,354638,break,,null,,,,,,,,,,,,,,,,,,
3522.5,,familiar_rating,358162,Hilo,,49,Hilo,US,1,,,,,,,,,,,,,,,
null,,confidence_buffer,358265,confidence_buffer,,null,,,,,,,,,,,,,,,,,,
2727,,unique_rating,360994,Hilo,,49,,,1,,,,,,,,,,,,,,,
null,,confidence_buffer,361097,confidence_buffer,,null,,,,,,,,,,,,,,,,,,
1908.0999999940395,,memorable_rating,363006,Hilo,,49,,,1,,,,,,,,,,,,,,,
null,,confidence_buffer,363109,confidence_buffer,,null,,,,,,,,,,,,,,,,,,
2555.199999988079,,probe_rating,365666,probe_rating,,52,,,,4,1,,,,,,,,,,,,,
null,,confidence_buffer,365769,confidence_buffer,,null,,,,,,,,,,,,,,,,,,
null,,thebreak,366271,break,,null,,,,,,,,,,,,,,,,,,
2977.2999999821186,,familiar_rating,369250,Hollendale,,49,Hollendale,Fictional,1,,,,,,,,,,,,,,,
null,,confidence_buffer,369352,confidence_buffer,,null,,,,,,,,,,,,,,,,,,
2470,,unique_rating,371824,Hollendale,,50,,,2,,,,,,,,,,,,,,,
null,,confidence_buffer,371926,confidence_buffer,,null,,,,,,,,,,,,,,,,,,
2482.5999999940395,,memorable_rating,374410,Hollendale,,50,,,2,,,,,,,,,,,,,,,
null,,confidence_buffer,374513,confidence_buffer,,null,,,,,,,,,,,,,,,,,,
null,,thebreak,375015,break,,null,,,,,,,,,,,,,,,,,,
3805.2000000178814,,familiar_rating,378821,Summershade,,49,Summershade,Fictional,1,,,,,,,,,,,,,,,
null,,confidence_buffer,378924,confidence_buffer,,null,,,,,,,,,,,,,,,,,,
2810.699999988079,,unique_rating,381736,Summershade,,52,,,4,,,,,,,,,,,,,,,
null,,confidence_buffer,381839,confidence_buffer,,null,,,,,,,,,,,,,,,,,,
8315.399999976158,,memorable_rating,390156,Summershade,,53,,,5,,,,,,,,,,,,,,,
null,,confidence_buffer,390259,confidence_buffer,,null,,,,,,,,,,,,,,,,,,
null,,thebreak,390762,break,,null,,,,,,,,,,,,,,,,,,
15470.5,,familiar_rating,406233,Baymarsh,,49,Baymarsh,Fictional,1,,,,,,,,,,,,,,,
null,,confidence_buffer,406336,confidence_buffer,,null,,,,,,,,,,,,,,,,,,
2916.800000011921,,unique_rating,409255,Baymarsh,,50,,,2,,,,,,,,,,,,,,,
null,,confidence_buffer,409358,confidence_buffer,,null,,,,,,,,,,,,,,,,,,
2343.800000011921,,memorable_rating,411703,Baymarsh,,50,,,2,,,,,,,,,,,,,,,
null,,confidence_buffer,411806,confidence_buffer,,null,,,,,,,,,,,,,,,,,,
2701.399999976158,,probe_rating,414508,probe_rating,,51,,,,3,1,,,,,,,,,,,,,
null,,confidence_buffer,414611,confidence_buffer,,null,,,,,,,,,,,,,,,,,,
null,,thebreak,415114,break,,null,,,,,,,,,,,,,,,,,,
3697.5999999940395,,familiar_rating,418813,Rosehollow,,49,Rosehollow,Fictional,1,,,,,,,,,,,,,,,
null,,confidence_buffer,418915,confidence_buffer,,null,,,,,,,,,,,,,,,,,,
2259.800000011921,,unique_rating,421177,Rosehollow,,50,,,2,,,,,,,,,,,,,,,
null,,confidence_buffer,421279,confidence_buffer,,null,,,,,,,,,,,,,,,,,,
3147.7999999821186,,memorable_rating,424428,Rosehollow,,50,,,2,,,,,,,,,,,,,,,
null,,confidence_buffer,424531,confidence_buffer,,null,,,,,,,,,,,,,,,,,,
null,,thebreak,425034,break,,null,,,,,,,,,,,,,,,,,,
2680.199999988079,,familiar_rating,427715,Juniper Creek,,49,Juniper Creek,Fictional,1,,,,,,,,,,,,,,,
null,,confidence_buffer,427818,confidence_buffer,,null,,,,,,,,,,,,,,,,,,
4720.200000017881,,unique_rating,432540,Juniper Creek,,51,,,3,,,,,,,,,,,,,,,
null,,confidence_buffer,432643,confidence_buffer,,null,,,,,,,,,,,,,,,,,,
2845.7999999821186,,memorable_rating,435489,Juniper Creek,,50,,,2,,,,,,,,,,,,,,,
null,,confidence_buffer,435591,confidence_buffer,,null,,,,,,,,,,,,,,,,,,
null,,thebreak,436093,break,,null,,,,,,,,,,,,,,,,,,
5408.0999999940395,,familiar_rating,441503,Gatlinburg,,53,Gatlinburg,US,5,,,,,,,,,,,,,,,
null,,confidence_buffer,441605,confidence_buffer,,null,,,,,,,,,,,,,,,,,,
3930,,unique_rating,445537,Gatlinburg,,50,,,2,,,,,,,,,,,,,,,
null,,confidence_buffer,445640,confidence_buffer,,null,,,,,,,,,,,,,,,,,,
2715.7999999821186,,memorable_rating,448357,Gatlinburg,,50,,,2,,,,,,,,,,,,,,,
null,,confidence_buffer,448460,confidence_buffer,,null,,,,,,,,,,,,,,,,,,
null,,thebreak,448962,break,,null,,,,,,,,,,,,,,,,,,
4932.699999988079,,familiar_rating,453896,Cleveland,,53,Cleveland,US,5,,,,,,,,,,,,,,,
null,,confidence_buffer,453997,confidence_buffer,,null,,,,,,,,,,,,,,,,,,
2861.199999988079,,unique_rating,456860,Cleveland,,49,,,1,,,,,,,,,,,,,,,
null,,confidence_buffer,456963,confidence_buffer,,null,,,,,,,,,,,,,,,,,,
1960.9000000059605,,probe_rating,458925,probe_rating,,50,,,,2,1,,,,,,,,,,,,,
null,,confidence_buffer,459028,confidence_buffer,,null,,,,,,,,,,,,,,,,,,
2491.9000000059605,,memorable_rating,461521,Cleveland,,49,,,1,,,,,,,,,,,,,,,
null,,confidence_buffer,461624,confidence_buffer,,null,,,,,,,,,,,,,,,,,,
null,,thebreak,462127,break,,null,,,,,,,,,,,,,,,,,,
4779.100000023842,,familiar_rating,466908,Driftwood Bay,,50,Driftwood Bay,Fictional,2,,,,,,,,,,,,,,,
null,,confidence_buffer,467011,confidence_buffer,,null,,,,,,,,,,,,,,,,,,
2647.800000011921,,unique_rating,469660,Driftwood Bay,,51,,,3,,,,,,,,,,,,,,,
null,,confidence_buffer,469763,confidence_buffer,,null,,,,,,,,,,,,,,,,,,
3072.9000000059605,,probe_rating,472837,probe_rating,,53,,,,5,1,,,,,,,,,,,,,
null,,confidence_buffer,472940,confidence_buffer,,null,,,,,,,,,,,,,,,,,,
4547.5999999940395,,memorable_rating,477489,Driftwood Bay,,51,,,3,,,,,,,,,,,,,,,
null,,confidence_buffer,477591,confidence_buffer,,null,,,,,,,,,,,,,,,,,,
null,,thebreak,478093,break,,null,,,,,,,,,,,,,,,,,,
5648,,familiar_rating,483743,Redgrove,,49,Redgrove,Fictional,1,,,,,,,,,,,,,,,
null,,confidence_buffer,483845,confidence_buffer,,null,,,,,,,,,,,,,,,,,,
2676.199999988079,,unique_rating,486522,Redgrove,,50,,,2,,,,,,,,,,,,,,,
null,,confidence_buffer,486625,confidence_buffer,,null,,,,,,,,,,,,,,,,,,
2212.5999999940395,,memorable_rating,488839,Redgrove,,50,,,2,,,,,,,,,,,,,,,
null,,confidence_buffer,488941,confidence_buffer,,null,,,,,,,,,,,,,,,,,,
null,,thebreak,489444,break,,null,,,,,,,,,,,,,,,,,,
6063.200000017881,,familiar_rating,495508,Okoboji,,50,Okoboji,US,2,,,,,,,,,,,,,,,
null,,confidence_buffer,495611,confidence_buffer,,null,,,,,,,,,,,,,,,,,,
2161.699999988079,,unique_rating,497774,Okoboji,,51,,,3,,,,,,,,,,,,,,,
null,,confidence_buffer,497877,confidence_buffer,,null,,,,,,,,,,,,,,,,,,
3284.699999988079,,memorable_rating,501162,Okoboji,,51,,,3,,,,,,,,,,,,,,,
null,,confidence_buffer,501265,confidence_buffer,,null,,,,,,,,,,,,,,,,,,
1596.5,,probe_rating,502863,probe_rating,,49,,,,1,1,,,,,,,,,,,,,
null,,confidence_buffer,502966,confidence_buffer,,null,,,,,,,,,,,,,,,,,,
null,,thebreak,503468,break,,null,,,,,,,,,,,,,,,,,,
3753.5999999940395,,familiar_rating,507223,Orchard Bend,,49,Orchard Bend,Fictional,1,,,,,,,,,,,,,,,
null,,confidence_buffer,507326,confidence_buffer,,null,,,,,,,,,,,,,,,,,,
3529.5,,unique_rating,510856,Orchard Bend,,50,,,2,,,,,,,,,,,,,,,
null,,confidence_buffer,510959,confidence_buffer,,null,,,,,,,,,,,,,,,,,,
3297.7000000178814,,memorable_rating,514258,Orchard Bend,,51,,,3,,,,,,,,,,,,,,,
null,,confidence_buffer,514360,confidence_buffer,,null,,,,,,,,,,,,,,,,,,
null,,thebreak,514863,break,,null,,,,,,,,,,,,,,,,,,
3955.100000023842,,familiar_rating,518819,Manistee,,49,Manistee,US,1,,,,,,,,,,,,,,,
null,,confidence_buffer,518922,confidence_buffer,,null,,,,,,,,,,,,,,,,,,
3288.4000000059605,,unique_rating,522212,Manistee,,50,,,2,,,,,,,,,,,,,,,
null,,confidence_buffer,522315,confidence_buffer,,null,,,,,,,,,,,,,,,,,,
3570.0999999940395,,memorable_rating,525886,Manistee,,49,,,1,,,,,,,,,,,,,,,
null,,confidence_buffer,525989,confidence_buffer,,null,,,,,,,,,,,,,,,,,,
null,,thebreak,526492,break,,null,,,,,,,,,,,,,,,,,,
6537.300000011921,,intro_0,533030,instruct,,32,,,,,,,,,,,,,,,,,,
9836.699999988079,,intro_1,542868,instruct,,32,,,,,,,,,,,,,,,,,,
18569.90000000596,,intro_2,561439,instruct,,32,,,,,,,,,,,,,,,,,,
null,,instruct_dir_4,562942,instruct,,null,,,,,,,,,,,,,,,,,,
18962.30000001192,,realistic_rating,581906,Clearbrook,,51,Clearbrook,Fictional,3,,,,,,,,,,,,,,,
null,,confidence_buffer,582009,confidence_buffer,,null,,,,,,,,,,,,,,,,,,
5255.9000000059605,,pt2_unique_rating,587266,Clearbrook,,50,,,2,,,,,,,,,,,,,,,
null,,confidence_buffer,587369,confidence_buffer,,null,,,,,,,,,,,,,,,,,,
4110.399999976158,,pt2_memorable_rating,591481,Clearbrook,,50,,,2,,,,,,,,,,,,,,,
null,,confidence_buffer,591584,confidence_buffer,,null,,,,,,,,,,,,,,,,,,
6018.9000000059605,,recognition_phase,597604,Clearbrook,,51,,,,,,new,1,1,,,,,,,,,,
null,,confidence_buffer,597708,confidence_buffer,,null,,,,,,,,,,,,,,,,,,
null,,thebreak,598210,break,,null,,,,,,,,,,,,,,,,,,
8605.5,,realistic_rating,606817,Hanover,,52,Hanover,US,4,,,,,,,,,,,,,,,
null,,confidence_buffer,606920,confidence_buffer,,null,,,,,,,,,,,,,,,,,,
5127.9000000059605,,pt2_unique_rating,612049,Hanover,,49,,,1,,,,,,,,,,,,,,,
null,,confidence_buffer,612152,confidence_buffer,,null,,,,,,,,,,,,,,,,,,
3165.7000000178814,,pt2_memorable_rating,615319,Hanover,,49,,,1,,,,,,,,,,,,,,,
null,,confidence_buffer,615422,confidence_buffer,,null,,,,,,,,,,,,,,,,,,
4590.699999988079,,recognition_phase,620014,Hanover,,50,,,,,,old,1,1,,,,,,,,,,
null,,confidence_buffer,620117,confidence_buffer,,null,,,,,,,,,,,,,,,,,,
null,,thebreak,620619,break,,null,,,,,,,,,,,,,,,,,,
6054.199999988079,,realistic_rating,626675,Silverpine,,50,Silverpine,Fictional,2,,,,,,,,,,,,,,,
null,,confidence_buffer,626778,confidence_buffer,,null,,,,,,,,,,,,,,,,,,
2802.0999999940395,,pt2_unique_rating,629581,Silverpine,,50,,,2,,,,,,,,,,,,,,,
null,,confidence_buffer,629684,confidence_buffer,,null,,,,,,,,,,,,,,,,,,
4232,,pt2_memorable_rating,633917,Silverpine,,50,,,2,,,,,,,,,,,,,,,
null,,confidence_buffer,634019,confidence_buffer,,null,,,,,,,,,,,,,,,,,,
4878.5999999940395,,recognition_phase,638899,Silverpine,,50,,,,,,old,1,1,,,,,,,,,,
null,,confidence_buffer,639002,confidence_buffer,,null,,,,,,,,,,,,,,,,,,
null,,thebreak,639505,break,,null,,,,,,,,,,,,,,,,,,
10260,,realistic_rating,649766,Crestwood,,51,Crestwood,Fictional,3,,,,,,,,,,,,,,,
null,,confidence_buffer,649868,confidence_buffer,,null,,,,,,,,,,,,,,,,,,
3172.5999999940395,,pt2_unique_rating,653042,Crestwood,,50,,,2,,,,,,,,,,,,,,,
null,,confidence_buffer,653145,confidence_buffer,,null,,,,,,,,,,,,,,,,,,
2413.4000000059605,,probe_rating,655560,probe_rating,,50,,,,2,1,,,,,,,,,,,,,
null,,confidence_buffer,655664,confidence_buffer,,null,,,,,,,,,,,,,,,,,,
3026.399999976158,,pt2_memorable_rating,658691,Crestwood,,50,,,2,,,,,,,,,,,,,,,
null,,confidence_buffer,658794,confidence_buffer,,null,,,,,,,,,,,,,,,,,,
3369.0999999940395,,recognition_phase,662164,Crestwood,,50,,,,,,old,1,1,,,,,,,,,,
null,,confidence_buffer,662267,confidence_buffer,,null,,,,,,,,,,,,,,,,,,
null,,thebreak,662770,break,,null,,,,,,,,,,,,,,,,,,
8159.9000000059605,,realistic_rating,670931,Gatlinburg,,53,Gatlinburg,US,5,,,,,,,,,,,,,,,
null,,confidence_buffer,671034,confidence_buffer,,null,,,,,,,,,,,,,,,,,,
2761.5,,pt2_unique_rating,673797,Gatlinburg,,51,,,3,,,,,,,,,,,,,,,
null,,confidence_buffer,673899,confidence_buffer,,null,,,,,,,,,,,,,,,,,,
1942.0999999940395,,probe_rating,675843,probe_rating,,52,,,,4,1,,,,,,,,,,,,,
null,,confidence_buffer,675946,confidence_buffer,,null,,,,,,,,,,,,,,,,,,
2999.2999999821186,,pt2_memorable_rating,678947,Gatlinburg,,51,,,3,,,,,,,,,,,,,,,
null,,confidence_buffer,679050,confidence_buffer,,null,,,,,,,,,,,,,,,,,,
4489.0999999940395,,recognition_phase,683541,Gatlinburg,,49,,,,,,old,1,1,,,,,,,,,,
null,,confidence_buffer,683644,confidence_buffer,,null,,,,,,,,,,,,,,,,,,
null,,thebreak,684146,break,,null,,,,,,,,,,,,,,,,,,
5536.4000000059605,,realistic_rating,689684,Cape May,,52,Cape May,US,4,,,,,,,,,,,,,,,
null,,confidence_buffer,689787,confidence_buffer,,null,,,,,,,,,,,,,,,,,,
3318.199999988079,,pt2_unique_rating,693107,Cape May,,52,,,4,,,,,,,,,,,,,,,
null,,confidence_buffer,693209,confidence_buffer,,null,,,,,,,,,,,,,,,,,,
2537.9000000059605,,pt2_memorable_rating,695749,Cape May,,52,,,4,,,,,,,,,,,,,,,
null,,confidence_buffer,695852,confidence_buffer,,null,,,,,,,,,,,,,,,,,,
2846.4000000059605,,recognition_phase,698700,Cape May,,52,,,,,,new,1,1,,,,,,,,,,
null,,confidence_buffer,698803,confidence_buffer,,null,,,,,,,,,,,,,,,,,,
null,,thebreak,699306,break,,null,,,,,,,,,,,,,,,,,,
6331.5,,realistic_rating,705638,Fairhaven,,51,Fairhaven,Fictional,3,,,,,,,,,,,,,,,
null,,confidence_buffer,705741,confidence_buffer,,null,,,,,,,,,,,,,,,,,,
1703.5,,probe_rating,707446,probe_rating,,50,,,,2,1,,,,,,,,,,,,,
null,,confidence_buffer,707549,confidence_buffer,,null,,,,,,,,,,,,,,,,,,
1787.5999999940395,,pt2_unique_rating,709338,Fairhaven,,50,,,2,,,,,,,,,,,,,,,
null,,confidence_buffer,709441,confidence_buffer,,null,,,,,,,,,,,,,,,,,,
2864.5999999940395,,pt2_memorable_rating,712307,Fairhaven,,50,,,2,,,,,,,,,,,,,,,
null,,confidence_buffer,712410,confidence_buffer,,null,,,,,,,,,,,,,,,,,,
3348.7000000178814,,recognition_phase,715760,Fairhaven,,52,,,,,,new,1,1,,,,,,,,,,
null,,confidence_buffer,715863,confidence_buffer,,null,,,,,,,,,,,,,,,,,,
null,,thebreak,716366,break,,null,,,,,,,,,,,,,,,,,,
8267.5,,realistic_rating,724635,Newport,,53,Newport,US,5,,,,,,,,,,,,,,,
null,,confidence_buffer,724738,confidence_buffer,,null,,,,,,,,,,,,,,,,,,
2260.0999999940395,,pt2_unique_rating,726999,Newport,,50,,,2,,,,,,,,,,,,,,,
null,,confidence_buffer,727102,confidence_buffer,,null,,,,,,,,,,,,,,,,,,
1831.7999999821186,,probe_rating,728935,probe_rating,,51,,,,3,1,,,,,,,,,,,,,
null,,confidence_buffer,729038,confidence_buffer,,null,,,,,,,,,,,,,,,,,,
2568.600000023842,,pt2_memorable_rating,731608,Newport,,50,,,2,,,,,,,,,,,,,,,
null,,confidence_buffer,731711,confidence_buffer,,null,,,,,,,,,,,,,,,,,,
2628.5,,recognition_phase,734341,Newport,,52,,,,,,new,1,1,,,,,,,,,,
null,,confidence_buffer,734443,confidence_buffer,,null,,,,,,,,,,,,,,,,,,
null,,thebreak,734946,break,,null,,,,,,,,,,,,,,,,,,
5819.800000011921,,realistic_rating,740767,Hot Springs,,53,Hot Springs,US,5,,,,,,,,,,,,,,,
null,,confidence_buffer,740870,confidence_buffer,,null,,,,,,,,,,,,,,,,,,
3548.5999999940395,,pt2_unique_rating,744420,Hot Springs,,51,,,3,,,,,,,,,,,,,,,
null,,confidence_buffer,744523,confidence_buffer,,null,,,,,,,,,,,,,,,,,,
1761.0999999940395,,pt2_memorable_rating,746285,Hot Springs,,51,,,3,,,,,,,,,,,,,,,
null,,confidence_buffer,746388,confidence_buffer,,null,,,,,,,,,,,,,,,,,,
2537.7999999821186,,recognition_phase,748927,Hot Springs,,52,,,,,,new,1,1,,,,,,,,,,
null,,confidence_buffer,749030,confidence_buffer,,null,,,,,,,,,,,,,,,,,,
null,,thebreak,749532,break,,null,,,,,,,,,,,,,,,,,,
6442.700000017881,,realistic_rating,755976,Driftwood Bay,,53,Driftwood Bay,Fictional,5,,,,,,,,,,,,,,,
null,,confidence_buffer,756079,confidence_buffer,,null,,,,,,,,,,,,,,,,,,
3159.2999999821186,,pt2_unique_rating,759240,Driftwood Bay,,51,,,3,,,,,,,,,,,,,,,
null,,confidence_buffer,759343,confidence_buffer,,null,,,,,,,,,,,,,,,,,,
2350.2999999821186,,pt2_memorable_rating,761695,Driftwood Bay,,51,,,3,,,,,,,,,,,,,,,
null,,confidence_buffer,761798,confidence_buffer,,null,,,,,,,,,,,,,,,,,,
3813.5,,recognition_phase,765612,Driftwood Bay,,49,,,,,,old,1,1,,,,,,,,,,
null,,confidence_buffer,765715,confidence_buffer,,null,,,,,,,,,,,,,,,,,,
null,,thebreak,766218,break,,null,,,,,,,,,,,,,,,,,,
8089.0999999940395,,realistic_rating,774308,Redgrove,,52,Redgrove,Fictional,4,,,,,,,,,,,,,,,
null,,confidence_buffer,774411,confidence_buffer,,null,,,,,,,,,,,,,,,,,,
2377.5,,pt2_unique_rating,776789,Redgrove,,50,,,2,,,,,,,,,,,,,,,
null,,confidence_buffer,776892,confidence_buffer,,null,,,,,,,,,,,,,,,,,,
1959.4000000059605,,pt2_memorable_rating,778852,Redgrove,,50,,,2,,,,,,,,,,,,,,,
null,,confidence_buffer,778955,confidence_buffer,,null,,,,,,,,,,,,,,,,,,
3624.800000011921,,recognition_phase,782581,Redgrove,,49,,,,,,old,1,1,,,,,,,,,,
null,,confidence_buffer,782684,confidence_buffer,,null,,,,,,,,,,,,,,,,,,
null,,thebreak,783186,break,,null,,,,,,,,,,,,,,,,,,
7605.800000011921,,realistic_rating,790794,Orr,,50,Orr,US,2,,,,,,,,,,,,,,,
null,,confidence_buffer,790896,confidence_buffer,,null,,,,,,,,,,,,,,,,,,
2336.9000000059605,,probe_rating,793235,probe_rating,,50,,,,2,1,,,,,,,,,,,,,
null,,confidence_buffer,793338,confidence_buffer,,null,,,,,,,,,,,,,,,,,,
1871.4000000059605,,pt2_unique_rating,795210,Orr,,50,,,2,,,,,,,,,,,,,,,
null,,confidence_buffer,795313,confidence_buffer,,null,,,,,,,,,,,,,,,,,,
2687.800000011921,,pt2_memorable_rating,798002,Orr,,50,,,2,,,,,,,,,,,,,,,
null,,confidence_buffer,798106,confidence_buffer,,null,,,,,,,,,,,,,,,,,,
3068.5999999940395,,recognition_phase,801176,Orr,,50,,,,,,old,1,1,,,,,,,,,,
null,,confidence_buffer,801278,confidence_buffer,,null,,,,,,,,,,,,,,,,,,
null,,thebreak,801781,break,,null,,,,,,,,,,,,,,,,,,
5240,,realistic_rating,807022,Granton Ridge,,52,Granton Ridge,Fictional,4,,,,,,,,,,,,,,,
null,,confidence_buffer,807125,confidence_buffer,,null,,,,,,,,,,,,,,,,,,
2589.5999999940395,,pt2_unique_rating,809716,Granton Ridge,,51,,,3,,,,,,,,,,,,,,,
null,,confidence_buffer,809819,confidence_buffer,,null,,,,,,,,,,,,,,,,,,
2259.5,,pt2_memorable_rating,812080,Granton Ridge,,51,,,3,,,,,,,,,,,,,,,
null,,confidence_buffer,812182,confidence_buffer,,null,,,,,,,,,,,,,,,,,,
2777.5,,recognition_phase,814960,Granton Ridge,,52,,,,,,new,1,1,,,,,,,,,,
null,,confidence_buffer,815063,confidence_buffer,,null,,,,,,,,,,,,,,,,,,
null,,thebreak,815565,break,,null,,,,,,,,,,,,,,,,,,
6421,,realistic_rating,821988,Rosehollow,,51,Rosehollow,Fictional,3,,,,,,,,,,,,,,,
null,,confidence_buffer,822090,confidence_buffer,,null,,,,,,,,,,,,,,,,,,
2775.199999988079,,pt2_unique_rating,824867,Rosehollow,,51,,,3,,,,,,,,,,,,,,,
null,,confidence_buffer,824970,confidence_buffer,,null,,,,,,,,,,,,,,,,,,
2342.399999976158,,pt2_memorable_rating,827313,Rosehollow,,50,,,2,,,,,,,,,,,,,,,
null,,confidence_buffer,827416,confidence_buffer,,null,,,,,,,,,,,,,,,,,,
3721,,recognition_phase,831138,Rosehollow,,49,,,,,,old,1,1,,,,,,,,,,
null,,confidence_buffer,831241,confidence_buffer,,null,,,,,,,,,,,,,,,,,,
null,,thebreak,831743,break,,null,,,,,,,,,,,,,,,,,,
4882.5999999940395,,realistic_rating,836627,Meadowspire,,51,Meadowspire,Fictional,3,,,,,,,,,,,,,,,
null,,confidence_buffer,836730,confidence_buffer,,null,,,,,,,,,,,,,,,,,,
2630.899999976158,,pt2_unique_rating,839362,Meadowspire,,51,,,3,,,,,,,,,,,,,,,
null,,confidence_buffer,839465,confidence_buffer,,null,,,,,,,,,,,,,,,,,,
1945.8999999761581,,pt2_memorable_rating,841412,Meadowspire,,50,,,2,,,,,,,,,,,,,,,
null,,confidence_buffer,841515,confidence_buffer,,null,,,,,,,,,,,,,,,,,,
2645.5,,recognition_phase,844162,Meadowspire,,52,,,,,,new,1,1,,,,,,,,,,
null,,confidence_buffer,844265,confidence_buffer,,null,,,,,,,,,,,,,,,,,,
null,,thebreak,844767,break,,null,,,,,,,,,,,,,,,,,,
5155.5999999940395,,realistic_rating,849924,Summershade,,51,Summershade,Fictional,3,,,,,,,,,,,,,,,
null,,confidence_buffer,850027,confidence_buffer,,null,,,,,,,,,,,,,,,,,,
1818.4000000059605,,pt2_unique_rating,851847,Summershade,,51,,,3,,,,,,,,,,,,,,,
null,,confidence_buffer,851950,confidence_buffer,,null,,,,,,,,,,,,,,,,,,
2524.7000000178814,,pt2_memorable_rating,854476,Summershade,,51,,,3,,,,,,,,,,,,,,,
null,,confidence_buffer,854579,confidence_buffer,,null,,,,,,,,,,,,,,,,,,
3372.7999999821186,,recognition_phase,857953,Summershade,,49,,,,,,old,1,1,,,,,,,,,,
null,,confidence_buffer,858055,confidence_buffer,,null,,,,,,,,,,,,,,,,,,
null,,thebreak,858558,break,,null,,,,,,,,,,,,,,,,,,
4715.699999988079,,realistic_rating,863275,Maplehurst,,52,Maplehurst,Fictional,4,,,,,,,,,,,,,,,
null,,confidence_buffer,863378,confidence_buffer,,null,,,,,,,,,,,,,,,,,,
1880.800000011921,,pt2_unique_rating,865260,Maplehurst,,51,,,3,,,,,,,,,,,,,,,
null,,confidence_buffer,865362,confidence_buffer,,null,,,,,,,,,,,,,,,,,,
1946.0999999940395,,probe_rating,867309,probe_rating,,50,,,,2,1,,,,,,,,,,,,,
null,,confidence_buffer,867412,confidence_buffer,,null,,,,,,,,,,,,,,,,,,
2166.7999999821186,,pt2_memorable_rating,869580,Maplehurst,,50,,,2,,,,,,,,,,,,,,,
null,,confidence_buffer,869682,confidence_buffer,,null,,,,,,,,,,,,,,,,,,
3029,,recognition_phase,872712,Maplehurst,,50,,,,,,old,1,1,,,,,,,,,,
null,,confidence_buffer,872815,confidence_buffer,,null,,,,,,,,,,,,,,,,,,
null,,thebreak,873318,break,,null,,,,,,,,,,,,,,,,,,
3202.4000000059605,,realistic_rating,876521,Ravenport,,51,Ravenport,Fictional,3,,,,,,,,,,,,,,,
null,,confidence_buffer,876624,confidence_buffer,,null,,,,,,,,,,,,,,,,,,
2600.699999988079,,pt2_unique_rating,879226,Ravenport,,50,,,2,,,,,,,,,,,,,,,
null,,confidence_buffer,879329,confidence_buffer,,null,,,,,,,,,,,,,,,,,,
2422.4000000059605,,probe_rating,881753,probe_rating,,53,,,,5,1,,,,,,,,,,,,,
null,,confidence_buffer,881856,confidence_buffer,,null,,,,,,,,,,,,,,,,,,
1936.3999999761581,,pt2_memorable_rating,883794,Ravenport,,50,,,2,,,,,,,,,,,,,,,
null,,confidence_buffer,883897,confidence_buffer,,null,,,,,,,,,,,,,,,,,,
3706.5999999940395,,recognition_phase,887605,Ravenport,,52,,,,,,new,1,1,,,,,,,,,,
null,,confidence_buffer,887708,confidence_buffer,,null,,,,,,,,,,,,,,,,,,
null,,thebreak,888210,break,,null,,,,,,,,,,,,,,,,,,
4707.799999982119,,realistic_rating,892919,Elmsbury,,51,Elmsbury,Fictional,3,,,,,,,,,,,,,,,
null,,confidence_buffer,893022,confidence_buffer,,null,,,,,,,,,,,,,,,,,,
1896.7999999821186,,pt2_unique_rating,894921,Elmsbury,,50,,,2,,,,,,,,,,,,,,,
null,,confidence_buffer,895023,confidence_buffer,,null,,,,,,,,,,,,,,,,,,
1548.5,,pt2_memorable_rating,896573,Elmsbury,,50,,,2,,,,,,,,,,,,,,,
null,,confidence_buffer,896675,confidence_buffer,,null,,,,,,,,,,,,,,,,,,
4244.4000000059605,,recognition_phase,900921,Elmsbury,,50,,,,,,old,1,1,,,,,,,,,,
null,,confidence_buffer,901024,confidence_buffer,,null,,,,,,,,,,,,,,,,,,
null,,thebreak,901526,break,,null,,,,,,,,,,,,,,,,,,
6559.5999999940395,,realistic_rating,908087,Westridge,,51,Westridge,Fictional,3,,,,,,,,,,,,,,,
null,,confidence_buffer,908190,confidence_buffer,,null,,,,,,,,,,,,,,,,,,
2146.699999988079,,probe_rating,910338,probe_rating,,49,,,,1,1,,,,,,,,,,,,,
null,,confidence_buffer,910441,confidence_buffer,,null,,,,,,,,,,,,,,,,,,
1740.7000000178814,,pt2_unique_rating,912183,Westridge,,50,,,2,,,,,,,,,,,,,,,
null,,confidence_buffer,912286,confidence_buffer,,null,,,,,,,,,,,,,,,,,,
1188.6000000238419,,pt2_memorable_rating,913476,Westridge,,50,,,2,,,,,,,,,,,,,,,
null,,confidence_buffer,913578,confidence_buffer,,null,,,,,,,,,,,,,,,,,,
3121.7999999821186,,recognition_phase,916701,Westridge,,52,,,,,,new,1,1,,,,,,,,,,
null,,confidence_buffer,916804,confidence_buffer,,null,,,,,,,,,,,,,,,,,,
null,,thebreak,917307,break,,null,,,,,,,,,,,,,,,,,,
7980.9000000059605,,realistic_rating,925289,Coeur d'Alene,,49,Coeur d'Alene,US,1,,,,,,,,,,,,,,,
null,,confidence_buffer,925392,confidence_buffer,,null,,,,,,,,,,,,,,,,,,
3371,,pt2_unique_rating,928764,Coeur d'Alene,,51,,,3,,,,,,,,,,,,,,,
null,,confidence_buffer,928867,confidence_buffer,,null,,,,,,,,,,,,,,,,,,
1674.2000000178814,,pt2_memorable_rating,930542,Coeur d'Alene,,51,,,3,,,,,,,,,,,,,,,
null,,confidence_buffer,930645,confidence_buffer,,null,,,,,,,,,,,,,,,,,,
2822.800000011921,,recognition_phase,933469,Coeur d'Alene,,52,,,,,,new,1,1,,,,,,,,,,
null,,confidence_buffer,933572,confidence_buffer,,null,,,,,,,,,,,,,,,,,,
null,,thebreak,934074,break,,null,,,,,,,,,,,,,,,,,,
4342.4000000059605,,realistic_rating,938418,North Arroya,,51,North Arroya,Fictional,3,,,,,,,,,,,,,,,
null,,confidence_buffer,938521,confidence_buffer,,null,,,,,,,,,,,,,,,,,,
2301.100000023842,,pt2_unique_rating,940824,North Arroya,,50,,,2,,,,,,,,,,,,,,,
null,,confidence_buffer,940926,confidence_buffer,,null,,,,,,,,,,,,,,,,,,
2326.0999999940395,,probe_rating,943253,probe_rating,,52,,,,4,1,,,,,,,,,,,,,
null,,confidence_buffer,943356,confidence_buffer,,null,,,,,,,,,,,,,,,,,,
6886.5,,pt2_memorable_rating,950244,North Arroya,,51,,,3,,,,,,,,,,,,,,,
null,,confidence_buffer,950346,confidence_buffer,,null,,,,,,,,,,,,,,,,,,
2553.5999999940395,,recognition_phase,952901,North Arroya,,52,,,,,,new,1,1,,,,,,,,,,
null,,confidence_buffer,953003,confidence_buffer,,null,,,,,,,,,,,,,,,,,,
null,,thebreak,953505,break,,null,,,,,,,,,,,,,,,,,,
7465.800000011921,,realistic_rating,960972,Cody,,52,Cody,US,4,,,,,,,,,,,,,,,
null,,confidence_buffer,961075,confidence_buffer,,null,,,,,,,,,,,,,,,,,,
2265.699999988079,,pt2_unique_rating,963342,Cody,,51,,,3,,,,,,,,,,,,,,,
null,,confidence_buffer,963445,confidence_buffer,,null,,,,,,,,,,,,,,,,,,
2429.4000000059605,,pt2_memorable_rating,965876,Cody,,50,,,2,,,,,,,,,,,,,,,
null,,confidence_buffer,965978,confidence_buffer,,null,,,,,,,,,,,,,,,,,,
2497.5999999940395,,recognition_phase,968477,Cody,,52,,,,,,new,1,1,,,,,,,,,,
null,,confidence_buffer,968580,confidence_buffer,,null,,,,,,,,,,,,,,,,,,
null,,thebreak,969082,break,,null,,,,,,,,,,,,,,,,,,
3728.9000000059605,,realistic_rating,972812,New Verdan,,51,New Verdan,Fictional,3,,,,,,,,,,,,,,,
null,,confidence_buffer,972916,confidence_buffer,,null,,,,,,,,,,,,,,,,,,
2241.5,,pt2_unique_rating,975159,New Verdan,,50,,,2,,,,,,,,,,,,,,,
null,,confidence_buffer,975262,confidence_buffer,,null,,,,,,,,,,,,,,,,,,
2326.699999988079,,pt2_memorable_rating,977590,New Verdan,,50,,,2,,,,,,,,,,,,,,,
null,,confidence_buffer,977692,confidence_buffer,,null,,,,,,,,,,,,,,,,,,
4004,,recognition_phase,981698,New Verdan,,52,,,,,,new,1,1,,,,,,,,,,
null,,confidence_buffer,981800,confidence_buffer,,null,,,,,,,,,,,,,,,,,,
null,,thebreak,982302,break,,null,,,,,,,,,,,,,,,,,,
3352.5,,realistic_rating,985656,Riverlyn,,51,Riverlyn,Fictional,3,,,,,,,,,,,,,,,
null,,confidence_buffer,985759,confidence_buffer,,null,,,,,,,,,,,,,,,,,,
1933.2999999821186,,pt2_unique_rating,987694,Riverlyn,,51,,,3,,,,,,,,,,,,,,,
null,,confidence_buffer,987796,confidence_buffer,,null,,,,,,,,,,,,,,,,,,
2979.9000000059605,,pt2_memorable_rating,990777,Riverlyn,,51,,,3,,,,,,,,,,,,,,,
null,,confidence_buffer,990879,confidence_buffer,,null,,,,,,,,,,,,,,,,,,
2556.699999988079,,recognition_phase,993438,Riverlyn,,52,,,,,,new,1,1,,,,,,,,,,
null,,confidence_buffer,993540,confidence_buffer,,null,,,,,,,,,,,,,,,,,,
null,,thebreak,994042,break,,null,,,,,,,,,,,,,,,,,,
6080.5,,realistic_rating,1000124,Sammamish,,52,Sammamish,US,4,,,,,,,,,,,,,,,
null,,confidence_buffer,1000227,confidence_buffer,,null,,,,,,,,,,,,,,,,,,
2286.899999976158,,pt2_unique_rating,1002515,Sammamish,,52,,,4,,,,,,,,,,,,,,,
null,,confidence_buffer,1002618,confidence_buffer,,null,,,,,,,,,,,,,,,,,,
1797.1000000238419,,pt2_memorable_rating,1004416,Sammamish,,52,,,4,,,,,,,,,,,,,,,
null,,confidence_buffer,1004519,confidence_buffer,,null,,,,,,,,,,,,,,,,,,
3096.899999976158,,recognition_phase,1007618,Sammamish,,52,,,,,,new,1,1,,,,,,,,,,
null,,confidence_buffer,1007721,confidence_buffer,,null,,,,,,,,,,,,,,,,,,
null,,thebreak,1008223,break,,null,,,,,,,,,,,,,,,,,,
4948.100000023842,,realistic_rating,1013173,Berkeley Springs,,52,Berkeley Springs,US,4,,,,,,,,,,,,,,,
null,,confidence_buffer,1013276,confidence_buffer,,null,,,,,,,,,,,,,,,,,,
2460.199999988079,,pt2_unique_rating,1015738,Berkeley Springs,,51,,,3,,,,,,,,,,,,,,,
null,,confidence_buffer,1015841,confidence_buffer,,null,,,,,,,,,,,,,,,,,,
2405.5999999940395,,pt2_memorable_rating,1018248,Berkeley Springs,,51,,,3,,,,,,,,,,,,,,,
null,,confidence_buffer,1018350,confidence_buffer,,null,,,,,,,,,,,,,,,,,,
2052.2000000178814,,recognition_phase,1020403,Berkeley Springs,,52,,,,,,new,1,1,,,,,,,,,,
null,,confidence_buffer,1020506,confidence_buffer,,null,,,,,,,,,,,,,,,,,,
null,,thebreak,1021007,break,,null,,,,,,,,,,,,,,,,,,
4708,,realistic_rating,1025717,Sierra Hollow,,50,Sierra Hollow,Fictional,2,,,,,,,,,,,,,,,
null,,confidence_buffer,1025820,confidence_buffer,,null,,,,,,,,,,,,,,,,,,
2581.300000011921,,pt2_unique_rating,1028403,Sierra Hollow,,50,,,2,,,,,,,,,,,,,,,
null,,confidence_buffer,1028505,confidence_buffer,,null,,,,,,,,,,,,,,,,,,
2926.9000000059605,,pt2_memorable_rating,1031433,Sierra Hollow,,50,,,2,,,,,,,,,,,,,,,
null,,confidence_buffer,1031536,confidence_buffer,,null,,,,,,,,,,,,,,,,,,
2997.2000000178814,,recognition_phase,1034535,Sierra Hollow,,50,,,,,,old,0,0.9642857142857143,,,,,,,,,,
null,,confidence_buffer,1034638,confidence_buffer,,null,,,,,,,,,,,,,,,,,,
null,,thebreak,1035141,break,,null,,,,,,,,,,,,,,,,,,
4031.7999999821186,,realistic_rating,1039174,Park City,,51,Park City,US,3,,,,,,,,,,,,,,,
null,,confidence_buffer,1039277,confidence_buffer,,null,,,,,,,,,,,,,,,,,,
1984,,probe_rating,1041262,probe_rating,,49,,,,1,1,,,,,,,,,,,,,
null,,confidence_buffer,1041365,confidence_buffer,,null,,,,,,,,,,,,,,,,,,
2346.5,,pt2_unique_rating,1043713,Park City,,49,,,1,,,,,,,,,,,,,,,
null,,confidence_buffer,1043816,confidence_buffer,,null,,,,,,,,,,,,,,,,,,
2817.4000000059605,,pt2_memorable_rating,1046635,Park City,,49,,,1,,,,,,,,,,,,,,,
null,,confidence_buffer,1046737,confidence_buffer,,null,,,,,,,,,,,,,,,,,,
4496.0999999940395,,recognition_phase,1051235,Park City,,52,,,,,,new,1,0.9655172413793104,,,,,,,,,,
null,,confidence_buffer,1051338,confidence_buffer,,null,,,,,,,,,,,,,,,,,,
null,,thebreak,1051840,break,,null,,,,,,,,,,,,,,,,,,
5392.199999988079,,realistic_rating,1057234,Golden Trace,,50,Golden Trace,Fictional,2,,,,,,,,,,,,,,,
null,,confidence_buffer,1057337,confidence_buffer,,null,,,,,,,,,,,,,,,,,,
2745.4000000059605,,pt2_unique_rating,1060084,Golden Trace,,51,,,3,,,,,,,,,,,,,,,
null,,confidence_buffer,1060186,confidence_buffer,,null,,,,,,,,,,,,,,,,,,
1668.5,,pt2_memorable_rating,1061856,Golden Trace,,50,,,2,,,,,,,,,,,,,,,
null,,confidence_buffer,1061957,confidence_buffer,,null,,,,,,,,,,,,,,,,,,
2569.5999999940395,,recognition_phase,1064528,Golden Trace,,52,,,,,,new,1,0.9666666666666667,,,,,,,,,,
null,,confidence_buffer,1064631,confidence_buffer,,null,,,,,,,,,,,,,,,,,,
null,,thebreak,1065134,break,,null,,,,,,,,,,,,,,,,,,
4433,,realistic_rating,1069568,Bowling Green,,52,Bowling Green,US,4,,,,,,,,,,,,,,,
null,,confidence_buffer,1069670,confidence_buffer,,null,,,,,,,,,,,,,,,,,,
2404.5,,pt2_unique_rating,1072076,Bowling Green,,51,,,3,,,,,,,,,,,,,,,
null,,confidence_buffer,1072179,confidence_buffer,,null,,,,,,,,,,,,,,,,,,
1951.0999999940395,,pt2_memorable_rating,1074131,Bowling Green,,51,,,3,,,,,,,,,,,,,,,
null,,confidence_buffer,1074234,confidence_buffer,,null,,,,,,,,,,,,,,,,,,
3311.600000023842,,recognition_phase,1077547,Bowling Green,,49,,,,,,old,1,0.967741935483871,,,,,,,,,,
null,,confidence_buffer,1077649,confidence_buffer,,null,,,,,,,,,,,,,,,,,,
null,,thebreak,1078152,break,,null,,,,,,,,,,,,,,,,,,
4331,,realistic_rating,1082484,Athens,,52,Athens,US,4,,,,,,,,,,,,,,,
null,,confidence_buffer,1082588,confidence_buffer,,null,,,,,,,,,,,,,,,,,,
2904.600000023842,,pt2_unique_rating,1085493,Athens,,51,,,3,,,,,,,,,,,,,,,
null,,confidence_buffer,1085596,confidence_buffer,,null,,,,,,,,,,,,,,,,,,
1708.0999999940395,,probe_rating,1087306,probe_rating,,49,,,,1,1,,,,,,,,,,,,,
null,,confidence_buffer,1087409,confidence_buffer,,null,,,,,,,,,,,,,,,,,,
1946.199999988079,,pt2_memorable_rating,1089356,Athens,,50,,,2,,,,,,,,,,,,,,,
null,,confidence_buffer,1089459,confidence_buffer,,null,,,,,,,,,,,,,,,,,,
2415.300000011921,,recognition_phase,1091875,Athens,,49,,,,,,old,1,0.96875,,,,,,,,,,
null,,confidence_buffer,1091978,confidence_buffer,,null,,,,,,,,,,,,,,,,,,
null,,thebreak,1092480,break,,null,,,,,,,,,,,,,,,,,,
3851.2000000178814,,realistic_rating,1096333,Oakridge,,52,Oakridge,Fictional,4,,,,,,,,,,,,,,,
null,,confidence_buffer,1096436,confidence_buffer,,null,,,,,,,,,,,,,,,,,,
2388.300000011921,,pt2_unique_rating,1098825,Oakridge,,51,,,3,,,,,,,,,,,,,,,
null,,confidence_buffer,1098929,confidence_buffer,,null,,,,,,,,,,,,,,,,,,
2552.399999976158,,pt2_memorable_rating,1101482,Oakridge,,50,,,2,,,,,,,,,,,,,,,
null,,confidence_buffer,1101585,confidence_buffer,,null,,,,,,,,,,,,,,,,,,
3289.5999999940395,,recognition_phase,1104876,Oakridge,,51,,,,,,new,1,0.9696969696969697,,,,,,,,,,
null,,confidence_buffer,1104979,confidence_buffer,,null,,,,,,,,,,,,,,,,,,
null,,thebreak,1105481,break,,null,,,,,,,,,,,,,,,,,,
6765,,realistic_rating,1112248,Peoria,,52,Peoria,US,4,,,,,,,,,,,,,,,
null,,confidence_buffer,1112350,confidence_buffer,,null,,,,,,,,,,,,,,,,,,
2820.300000011921,,pt2_unique_rating,1115172,Peoria,,51,,,3,,,,,,,,,,,,,,,
null,,confidence_buffer,1115275,confidence_buffer,,null,,,,,,,,,,,,,,,,,,
2394.5999999940395,,pt2_memorable_rating,1117671,Peoria,,51,,,3,,,,,,,,,,,,,,,
null,,confidence_buffer,1117773,confidence_buffer,,null,,,,,,,,,,,,,,,,,,
1804.8999999761581,,probe_rating,1119580,probe_rating,,49,,,,1,1,,,,,,,,,,,,,
null,,confidence_buffer,1119682,confidence_buffer,,null,,,,,,,,,,,,,,,,,,
4008.5,,recognition_phase,1123692,Peoria,,50,,,,,,old,1,0.9705882352941176,,,,,,,,,,
null,,confidence_buffer,1123794,confidence_buffer,,null,,,,,,,,,,,,,,,,,,
null,,thebreak,1124297,break,,null,,,,,,,,,,,,,,,,,,
3998.5,,realistic_rating,1128297,Juniper Creek,,52,Juniper Creek,Fictional,4,,,,,,,,,,,,,,,
null,,confidence_buffer,1128400,confidence_buffer,,null,,,,,,,,,,,,,,,,,,
4537.800000011921,,pt2_unique_rating,1132939,Juniper Creek,,51,,,3,,,,,,,,,,,,,,,
null,,confidence_buffer,1133042,confidence_buffer,,null,,,,,,,,,,,,,,,,,,
1430,,pt2_memorable_rating,1134473,Juniper Creek,,51,,,3,,,,,,,,,,,,,,,
null,,confidence_buffer,1134575,confidence_buffer,,null,,,,,,,,,,,,,,,,,,
4253.5,,recognition_phase,1138830,Juniper Creek,,49,,,,,,old,1,0.9714285714285714,,,,,,,,,,
null,,confidence_buffer,1138933,confidence_buffer,,null,,,,,,,,,,,,,,,,,,
null,,thebreak,1139436,break,,null,,,,,,,,,,,,,,,,,,
4636.199999988079,,realistic_rating,1144074,Orchard Bend,,51,Orchard Bend,Fictional,3,,,,,,,,,,,,,,,
null,,confidence_buffer,1144177,confidence_buffer,,null,,,,,,,,,,,,,,,,,,
1909.7999999821186,,pt2_unique_rating,1146088,Orchard Bend,,51,,,3,,,,,,,,,,,,,,,
null,,confidence_buffer,1146191,confidence_buffer,,null,,,,,,,,,,,,,,,,,,
1321.2000000178814,,pt2_memorable_rating,1147514,Orchard Bend,,51,,,3,,,,,,,,,,,,,,,
null,,confidence_buffer,1147617,confidence_buffer,,null,,,,,,,,,,,,,,,,,,
2215.5,,recognition_phase,1149834,Orchard Bend,,49,,,,,,old,1,0.9722222222222222,,,,,,,,,,
null,,confidence_buffer,1149936,confidence_buffer,,null,,,,,,,,,,,,,,,,,,
null,,thebreak,1150438,break,,null,,,,,,,,,,,,,,,,,,
6220,,realistic_rating,1156660,Bar Harbor,,53,Bar Harbor,US,5,,,,,,,,,,,,,,,
null,,confidence_buffer,1156763,confidence_buffer,,null,,,,,,,,,,,,,,,,,,
2294.2000000178814,,pt2_unique_rating,1159058,Bar Harbor,,51,,,3,,,,,,,,,,,,,,,
null,,confidence_buffer,1159161,confidence_buffer,,null,,,,,,,,,,,,,,,,,,
1369.199999988079,,pt2_memorable_rating,1160532,Bar Harbor,,51,,,3,,,,,,,,,,,,,,,
null,,confidence_buffer,1160635,confidence_buffer,,null,,,,,,,,,,,,,,,,,,
1604.199999988079,,probe_rating,1162241,probe_rating,,50,,,,2,1,,,,,,,,,,,,,
null,,confidence_buffer,1162344,confidence_buffer,,null,,,,,,,,,,,,,,,,,,
3372.699999988079,,recognition_phase,1165718,Bar Harbor,,51,,,,,,new,1,0.972972972972973,,,,,,,,,,
null,,confidence_buffer,1165821,confidence_buffer,,null,,,,,,,,,,,,,,,,,,
null,,thebreak,1166323,break,,null,,,,,,,,,,,,,,,,,,
4611,,realistic_rating,1170935,Maravilla Springs,,51,Maravilla Springs,Fictional,3,,,,,,,,,,,,,,,
null,,confidence_buffer,1171038,confidence_buffer,,null,,,,,,,,,,,,,,,,,,
1404.5,,probe_rating,1172444,probe_rating,,51,,,,3,1,,,,,,,,,,,,,
null,,confidence_buffer,1172547,confidence_buffer,,null,,,,,,,,,,,,,,,,,,
3975.300000011921,,pt2_unique_rating,1176524,Maravilla Springs,,50,,,2,,,,,,,,,,,,,,,
null,,confidence_buffer,1176626,confidence_buffer,,null,,,,,,,,,,,,,,,,,,
1966.1000000238419,,pt2_memorable_rating,1178594,Maravilla Springs,,50,,,2,,,,,,,,,,,,,,,
null,,confidence_buffer,1178697,confidence_buffer,,null,,,,,,,,,,,,,,,,,,
5008.199999988079,,recognition_phase,1183706,Maravilla Springs,,51,,,,,,new,0,0.9473684210526315,,,,,,,,,,
null,,confidence_buffer,1183809,confidence_buffer,,null,,,,,,,,,,,,,,,,,,
null,,thebreak,1184311,break,,null,,,,,,,,,,,,,,,,,,
4005.699999988079,,realistic_rating,1188318,Lake of the Ozarks,,52,Lake of the Ozarks,US,4,,,,,,,,,,,,,,,
null,,confidence_buffer,1188420,confidence_buffer,,null,,,,,,,,,,,,,,,,,,
1679.9000000059605,,pt2_unique_rating,1190101,Lake of the Ozarks,,52,,,4,,,,,,,,,,,,,,,
null,,confidence_buffer,1190203,confidence_buffer,,null,,,,,,,,,,,,,,,,,,
3299,,pt2_memorable_rating,1193504,Lake of the Ozarks,,52,,,4,,,,,,,,,,,,,,,
null,,confidence_buffer,1193607,confidence_buffer,,null,,,,,,,,,,,,,,,,,,
4191.799999982119,,recognition_phase,1197800,Lake of the Ozarks,,52,,,,,,new,1,0.9487179487179487,,,,,,,,,,
null,,confidence_buffer,1197902,confidence_buffer,,null,,,,,,,,,,,,,,,,,,
null,,thebreak,1198405,break,,null,,,,,,,,,,,,,,,,,,
6442.899999976158,,realistic_rating,1204849,Briarfield,,52,Briarfield,Fictional,4,,,,,,,,,,,,,,,
null,,confidence_buffer,1204952,confidence_buffer,,null,,,,,,,,,,,,,,,,,,
2205.300000011921,,pt2_unique_rating,1207159,Briarfield,,51,,,3,,,,,,,,,,,,,,,
null,,confidence_buffer,1207261,confidence_buffer,,null,,,,,,,,,,,,,,,,,,
4088.2000000178814,,pt2_memorable_rating,1211351,Briarfield,,51,,,3,,,,,,,,,,,,,,,
null,,confidence_buffer,1211453,confidence_buffer,,null,,,,,,,,,,,,,,,,,,
4751.399999976158,,recognition_phase,1216206,Briarfield,,51,,,,,,new,1,0.95,,,,,,,,,,
null,,confidence_buffer,1216308,confidence_buffer,,null,,,,,,,,,,,,,,,,,,
null,,thebreak,1216811,break,,null,,,,,,,,,,,,,,,,,,
8185.300000011921,,realistic_rating,1224998,Albuquerque,,53,Albuquerque,US,5,,,,,,,,,,,,,,,
null,,confidence_buffer,1225101,confidence_buffer,,null,,,,,,,,,,,,,,,,,,
1973.2999999821186,,pt2_unique_rating,1227075,Albuquerque,,51,,,3,,,,,,,,,,,,,,,
null,,confidence_buffer,1227178,confidence_buffer,,null,,,,,,,,,,,,,,,,,,
1263.7000000178814,,pt2_memorable_rating,1228443,Albuquerque,,51,,,3,,,,,,,,,,,,,,,
null,,confidence_buffer,1228546,confidence_buffer,,null,,,,,,,,,,,,,,,,,,
2039.199999988079,,probe_rating,1230586,probe_rating,,49,,,,1,1,,,,,,,,,,,,,
null,,confidence_buffer,1230689,confidence_buffer,,null,,,,,,,,,,,,,,,,,,
3642.0999999940395,,recognition_phase,1234332,Albuquerque,,51,,,,,,new,1,0.9512195121951219,,,,,,,,,,
null,,confidence_buffer,1234435,confidence_buffer,,null,,,,,,,,,,,,,,,,,,
null,,thebreak,1234937,break,,null,,,,,,,,,,,,,,,,,,
4767.800000011921,,realistic_rating,1239706,Manistee,,51,Manistee,US,3,,,,,,,,,,,,,,,
null,,confidence_buffer,1239810,confidence_buffer,,null,,,,,,,,,,,,,,,,,,
2074.9000000059605,,probe_rating,1241886,probe_rating,,50,,,,2,1,,,,,,,,,,,,,
null,,confidence_buffer,1241989,confidence_buffer,,null,,,,,,,,,,,,,,,,,,
1447.699999988079,,pt2_unique_rating,1243438,Manistee,,50,,,2,,,,,,,,,,,,,,,
null,,confidence_buffer,1243540,confidence_buffer,,null,,,,,,,,,,,,,,,,,,
2051.300000011921,,pt2_memorable_rating,1245593,Manistee,,50,,,2,,,,,,,,,,,,,,,
null,,confidence_buffer,1245695,confidence_buffer,,null,,,,,,,,,,,,,,,,,,
3989,,recognition_phase,1249686,Manistee,,50,,,,,,old,1,0.9523809523809523,,,,,,,,,,
null,,confidence_buffer,1249788,confidence_buffer,,null,,,,,,,,,,,,,,,,,,
null,,thebreak,1250291,break,,null,,,,,,,,,,,,,,,,,,
3217,,realistic_rating,1253510,Baymarsh,,52,Baymarsh,Fictional,4,,,,,,,,,,,,,,,
null,,confidence_buffer,1253612,confidence_buffer,,null,,,,,,,,,,,,,,,,,,
2745.5,,pt2_unique_rating,1256359,Baymarsh,,51,,,3,,,,,,,,,,,,,,,
null,,confidence_buffer,1256462,confidence_buffer,,null,,,,,,,,,,,,,,,,,,
3971.0999999940395,,pt2_memorable_rating,1260435,Baymarsh,,51,,,3,,,,,,,,,,,,,,,
null,,confidence_buffer,1260537,confidence_buffer,,null,,,,,,,,,,,,,,,,,,
4053.0999999940395,,recognition_phase,1264592,Baymarsh,,50,,,,,,old,1,0.9534883720930233,,,,,,,,,,
null,,confidence_buffer,1264695,confidence_buffer,,null,,,,,,,,,,,,,,,,,,
null,,thebreak,1265197,break,,null,,,,,,,,,,,,,,,,,,
7248.399999976158,,realistic_rating,1272447,Hollendale,,51,Hollendale,Fictional,3,,,,,,,,,,,,,,,
null,,confidence_buffer,1272550,confidence_buffer,,null,,,,,,,,,,,,,,,,,,
2133,,pt2_unique_rating,1274684,Hollendale,,50,,,2,,,,,,,,,,,,,,,
null,,confidence_buffer,1274787,confidence_buffer,,null,,,,,,,,,,,,,,,,,,
1553.199999988079,,pt2_memorable_rating,1276342,Hollendale,,50,,,2,,,,,,,,,,,,,,,
null,,confidence_buffer,1276445,confidence_buffer,,null,,,,,,,,,,,,,,,,,,
3147.4000000059605,,recognition_phase,1279594,Hollendale,,50,,,,,,old,1,0.9545454545454546,,,,,,,,,,
null,,confidence_buffer,1279696,confidence_buffer,,null,,,,,,,,,,,,,,,,,,
null,,thebreak,1280198,break,,null,,,,,,,,,,,,,,,,,,
4956.300000011921,,realistic_rating,1285156,Sisters,,50,Sisters,US,2,,,,,,,,,,,,,,,
null,,confidence_buffer,1285259,confidence_buffer,,null,,,,,,,,,,,,,,,,,,
3716.5999999940395,,pt2_unique_rating,1288977,Sisters,,51,,,3,,,,,,,,,,,,,,,
null,,confidence_buffer,1289079,confidence_buffer,,null,,,,,,,,,,,,,,,,,,
1550.7999999821186,,pt2_memorable_rating,1290632,Sisters,,51,,,3,,,,,,,,,,,,,,,
null,,confidence_buffer,1290734,confidence_buffer,,null,,,,,,,,,,,,,,,,,,
3326.100000023842,,recognition_phase,1294062,Sisters,,52,,,,,,new,1,0.9555555555555556,,,,,,,,,,
null,,confidence_buffer,1294164,confidence_buffer,,null,,,,,,,,,,,,,,,,,,
null,,thebreak,1294666,break,,null,,,,,,,,,,,,,,,,,,
4853.199999988079,,realistic_rating,1299521,Shreveport,,53,Shreveport,US,5,,,,,,,,,,,,,,,
null,,confidence_buffer,1299624,confidence_buffer,,null,,,,,,,,,,,,,,,,,,
3661.2999999821186,,pt2_unique_rating,1303287,Shreveport,,51,,,3,,,,,,,,,,,,,,,
null,,confidence_buffer,1303389,confidence_buffer,,null,,,,,,,,,,,,,,,,,,
1873,,pt2_memorable_rating,1305263,Shreveport,,51,,,3,,,,,,,,,,,,,,,
null,,confidence_buffer,1305366,confidence_buffer,,null,,,,,,,,,,,,,,,,,,
3000.5999999940395,,recognition_phase,1308369,Shreveport,,49,,,,,,old,1,0.9565217391304348,,,,,,,,,,
null,,confidence_buffer,1308471,confidence_buffer,,null,,,,,,,,,,,,,,,,,,
null,,thebreak,1308974,break,,null,,,,,,,,,,,,,,,,,,
4813.100000023842,,realistic_rating,1313788,Tamarisk Hills,,51,Tamarisk Hills,Fictional,3,,,,,,,,,,,,,,,
null,,confidence_buffer,1313890,confidence_buffer,,null,,,,,,,,,,,,,,,,,,
1942.800000011921,,pt2_unique_rating,1315834,Tamarisk Hills,,51,,,3,,,,,,,,,,,,,,,
null,,confidence_buffer,1315936,confidence_buffer,,null,,,,,,,,,,,,,,,,,,
1645.699999988079,,pt2_memorable_rating,1317583,Tamarisk Hills,,50,,,2,,,,,,,,,,,,,,,
null,,confidence_buffer,1317686,confidence_buffer,,null,,,,,,,,,,,,,,,,,,
3207,,recognition_phase,1320894,Tamarisk Hills,,50,,,,,,old,1,0.9574468085106383,,,,,,,,,,
null,,confidence_buffer,1320998,confidence_buffer,,null,,,,,,,,,,,,,,,,,,
null,,thebreak,1321501,break,,null,,,,,,,,,,,,,,,,,,
3817.300000011921,,realistic_rating,1325320,Watkins Glen,,51,Watkins Glen,US,3,,,,,,,,,,,,,,,
null,,confidence_buffer,1325422,confidence_buffer,,null,,,,,,,,,,,,,,,,,,
2213.2999999821186,,pt2_unique_rating,1327637,Watkins Glen,,50,,,2,,,,,,,,,,,,,,,
null,,confidence_buffer,1327740,confidence_buffer,,null,,,,,,,,,,,,,,,,,,
1331.6000000238419,,pt2_memorable_rating,1329073,Watkins Glen,,50,,,2,,,,,,,,,,,,,,,
null,,confidence_buffer,1329176,confidence_buffer,,null,,,,,,,,,,,,,,,,,,
2819.4000000059605,,recognition_phase,1331997,Watkins Glen,,51,,,,,,new,0,0.9375,,,,,,,,,,
null,,confidence_buffer,1332099,confidence_buffer,,null,,,,,,,,,,,,,,,,,,
null,,thebreak,1332602,break,,null,,,,,,,,,,,,,,,,,,
5574.199999988079,,realistic_rating,1338178,Gardnerville,,52,Gardnerville,US,4,,,,,,,,,,,,,,,
null,,confidence_buffer,1338281,confidence_buffer,,null,,,,,,,,,,,,,,,,,,
1972.3999999761581,,pt2_unique_rating,1340254,Gardnerville,,50,,,2,,,,,,,,,,,,,,,
null,,confidence_buffer,1340358,confidence_buffer,,null,,,,,,,,,,,,,,,,,,
1000.2999999821186,,pt2_memorable_rating,1341359,Gardnerville,,50,,,2,,,,,,,,,,,,,,,
null,,confidence_buffer,1341462,confidence_buffer,,null,,,,,,,,,,,,,,,,,,
2267.800000011921,,recognition_phase,1343731,Gardnerville,,51,,,,,,new,1,0.9387755102040817,,,,,,,,,,
null,,confidence_buffer,1343834,confidence_buffer,,null,,,,,,,,,,,,,,,,,,
null,,thebreak,1344336,break,,null,,,,,,,,,,,,,,,,,,
4058.7999999821186,,realistic_rating,1348396,Boulder,,53,Boulder,US,5,,,,,,,,,,,,,,,
null,,confidence_buffer,1348499,confidence_buffer,,null,,,,,,,,,,,,,,,,,,
2371.4000000059605,,pt2_unique_rating,1350872,Boulder,,50,,,2,,,,,,,,,,,,,,,
null,,confidence_buffer,1350974,confidence_buffer,,null,,,,,,,,,,,,,,,,,,
1872.699999988079,,pt2_memorable_rating,1352848,Boulder,,50,,,2,,,,,,,,,,,,,,,
null,,confidence_buffer,1352951,confidence_buffer,,null,,,,,,,,,,,,,,,,,,
2408.600000023842,,recognition_phase,1355361,Boulder,,49,,,,,,old,1,0.94,,,,,,,,,,
null,,confidence_buffer,1355464,confidence_buffer,,null,,,,,,,,,,,,,,,,,,
null,,thebreak,1355966,break,,null,,,,,,,,,,,,,,,,,,
3707.399999976158,,realistic_rating,1359675,Livingston,,52,Livingston,US,4,,,,,,,,,,,,,,,
null,,confidence_buffer,1359778,confidence_buffer,,null,,,,,,,,,,,,,,,,,,
3441,,pt2_unique_rating,1363220,Livingston,,50,,,2,,,,,,,,,,,,,,,
null,,confidence_buffer,1363323,confidence_buffer,,null,,,,,,,,,,,,,,,,,,
2043,,pt2_memorable_rating,1365367,Livingston,,50,,,2,,,,,,,,,,,,,,,
null,,confidence_buffer,1365470,confidence_buffer,,null,,,,,,,,,,,,,,,,,,
3532.7000000178814,,recognition_phase,1369004,Livingston,,50,,,,,,old,1,0.9411764705882353,,,,,,,,,,
null,,confidence_buffer,1369107,confidence_buffer,,null,,,,,,,,,,,,,,,,,,
null,,thebreak,1369609,break,,null,,,,,,,,,,,,,,,,,,
6062.0999999940395,,realistic_rating,1375672,Custer,,51,Custer,US,3,,,,,,,,,,,,,,,
null,,confidence_buffer,1375775,confidence_buffer,,null,,,,,,,,,,,,,,,,,,
2020.199999988079,,probe_rating,1377797,probe_rating,,52,,,,4,1,,,,,,,,,,,,,
null,,confidence_buffer,1377900,confidence_buffer,,null,,,,,,,,,,,,,,,,,,
2899.300000011921,,pt2_unique_rating,1380801,Custer,,50,,,2,,,,,,,,,,,,,,,
null,,confidence_buffer,1380904,confidence_buffer,,null,,,,,,,,,,,,,,,,,,
3048.9000000059605,,pt2_memorable_rating,1383955,Custer,,50,,,2,,,,,,,,,,,,,,,
null,,confidence_buffer,1384057,confidence_buffer,,null,,,,,,,,,,,,,,,,,,
2556,,recognition_phase,1386615,Custer,,52,,,,,,new,1,0.9423076923076923,,,,,,,,,,
null,,confidence_buffer,1386718,confidence_buffer,,null,,,,,,,,,,,,,,,,,,
null,,thebreak,1387220,break,,null,,,,,,,,,,,,,,,,,,
9841.199999988079,,realistic_rating,1397063,Solara Glen,,51,Solara Glen,Fictional,3,,,,,,,,,,,,,,,
null,,confidence_buffer,1397166,confidence_buffer,,null,,,,,,,,,,,,,,,,,,
2397.399999976158,,pt2_unique_rating,1399565,Solara Glen,,50,,,2,,,,,,,,,,,,,,,
null,,confidence_buffer,1399667,confidence_buffer,,null,,,,,,,,,,,,,,,,,,
2761.5999999940395,,pt2_memorable_rating,1402430,Solara Glen,,50,,,2,,,,,,,,,,,,,,,
null,,confidence_buffer,1402534,confidence_buffer,,null,,,,,,,,,,,,,,,,,,
3320.2999999821186,,recognition_phase,1405856,Solara Glen,,50,,,,,,old,1,0.9433962264150944,,,,,,,,,,
null,,confidence_buffer,1405958,confidence_buffer,,null,,,,,,,,,,,,,,,,,,
null,,thebreak,1406461,break,,null,,,,,,,,,,,,,,,,,,
6593.300000011921,,realistic_rating,1413056,Hilo,,51,Hilo,US,3,,,,,,,,,,,,,,,
null,,confidence_buffer,1413159,confidence_buffer,,null,,,,,,,,,,,,,,,,,,
1779.9000000059605,,pt2_unique_rating,1414941,Hilo,,50,,,2,,,,,,,,,,,,,,,
null,,confidence_buffer,1415043,confidence_buffer,,null,,,,,,,,,,,,,,,,,,
3073.7000000178814,,pt2_memorable_rating,1418118,Hilo,,50,,,2,,,,,,,,,,,,,,,
null,,confidence_buffer,1418222,confidence_buffer,,null,,,,,,,,,,,,,,,,,,
1191,,probe_rating,1419414,probe_rating,,50,,,,2,1,,,,,,,,,,,,,
null,,confidence_buffer,1419517,confidence_buffer,,null,,,,,,,,,,,,,,,,,,
4123.5,,recognition_phase,1423642,Hilo,,51,,,,,,new,0,0.9259259259259259,,,,,,,,,,
null,,confidence_buffer,1423745,confidence_buffer,,null,,,,,,,,,,,,,,,,,,
null,,thebreak,1424248,break,,null,,,,,,,,,,,,,,,,,,
3202.4000000059605,,realistic_rating,1427452,Stonebrook,,52,Stonebrook,Fictional,4,,,,,,,,,,,,,,,
null,,confidence_buffer,1427555,confidence_buffer,,null,,,,,,,,,,,,,,,,,,
4061.399999976158,,pt2_unique_rating,1431618,Stonebrook,,50,,,2,,,,,,,,,,,,,,,
null,,confidence_buffer,1431721,confidence_buffer,,null,,,,,,,,,,,,,,,,,,
1377.0999999940395,,pt2_memorable_rating,1433099,Stonebrook,,50,,,2,,,,,,,,,,,,,,,
null,,confidence_buffer,1433202,confidence_buffer,,null,,,,,,,,,,,,,,,,,,
2621.300000011921,,recognition_phase,1435825,Stonebrook,,50,,,,,,old,0,0.9090909090909091,,,,,,,,,,
null,,confidence_buffer,1435928,confidence_buffer,,null,,,,,,,,,,,,,,,,,,
null,,thebreak,1436430,break,,null,,,,,,,,,,,,,,,,,,
3774.2000000178814,,realistic_rating,1440205,Delaro Park,,51,Delaro Park,Fictional,3,,,,,,,,,,,,,,,
null,,confidence_buffer,1440309,confidence_buffer,,null,,,,,,,,,,,,,,,,,,
2263.300000011921,,pt2_unique_rating,1442573,Delaro Park,,50,,,2,,,,,,,,,,,,,,,
null,,confidence_buffer,1442675,confidence_buffer,,null,,,,,,,,,,,,,,,,,,
1310.0999999940395,,pt2_memorable_rating,1443987,Delaro Park,,50,,,2,,,,,,,,,,,,,,,
null,,confidence_buffer,1444090,confidence_buffer,,null,,,,,,,,,,,,,,,,,,
3960.9000000059605,,recognition_phase,1448052,Delaro Park,,52,,,,,,new,1,0.9107142857142857,,,,,,,,,,
null,,confidence_buffer,1448155,confidence_buffer,,null,,,,,,,,,,,,,,,,,,
null,,thebreak,1448657,break,,null,,,,,,,,,,,,,,,,,,
6524.800000011921,,realistic_rating,1455184,Barnard,,51,Barnard,US,3,,,,,,,,,,,,,,,
null,,confidence_buffer,1455286,confidence_buffer,,null,,,,,,,,,,,,,,,,,,
1785.7999999821186,,pt2_unique_rating,1457073,Barnard,,50,,,2,,,,,,,,,,,,,,,
null,,confidence_buffer,1457176,confidence_buffer,,null,,,,,,,,,,,,,,,,,,
3036.9000000059605,,pt2_memorable_rating,1460215,Barnard,,50,,,2,,,,,,,,,,,,,,,
null,,confidence_buffer,1460317,confidence_buffer,,null,,,,,,,,,,,,,,,,,,
3452,,recognition_phase,1463771,Barnard,,50,,,,,,old,1,0.9122807017543859,,,,,,,,,,
null,,confidence_buffer,1463874,confidence_buffer,,null,,,,,,,,,,,,,,,,,,
null,,thebreak,1464376,break,,null,,,,,,,,,,,,,,,,,,
5940.5999999940395,,realistic_rating,1470318,Cleveland,,53,Cleveland,US,5,,,,,,,,,,,,,,,
null,,confidence_buffer,1470421,confidence_buffer,,null,,,,,,,,,,,,,,,,,,
2148.5999999940395,,pt2_unique_rating,1472571,Cleveland,,50,,,2,,,,,,,,,,,,,,,
null,,confidence_buffer,1472673,confidence_buffer,,null,,,,,,,,,,,,,,,,,,
1596,,pt2_memorable_rating,1474271,Cleveland,,50,,,2,,,,,,,,,,,,,,,
null,,confidence_buffer,1474374,confidence_buffer,,null,,,,,,,,,,,,,,,,,,
5727.5,,recognition_phase,1480103,Cleveland,,50,,,,,,old,1,0.9137931034482759,,,,,,,,,,
null,,confidence_buffer,1480206,confidence_buffer,,null,,,,,,,,,,,,,,,,,,
null,,thebreak,1480709,break,,null,,,,,,,,,,,,,,,,,,
4402.4000000059605,,realistic_rating,1485113,Okoboji,,51,Okoboji,US,3,,,,,,,,,,,,,,,
null,,confidence_buffer,1485215,confidence_buffer,,null,,,,,,,,,,,,,,,,,,
1656.699999988079,,pt2_unique_rating,1486874,Okoboji,,51,,,3,,,,,,,,,,,,,,,
null,,confidence_buffer,1486976,confidence_buffer,,null,,,,,,,,,,,,,,,,,,
2258.9000000059605,,pt2_memorable_rating,1489236,Okoboji,,51,,,3,,,,,,,,,,,,,,,
null,,confidence_buffer,1489338,confidence_buffer,,null,,,,,,,,,,,,,,,,,,
2893.699999988079,,recognition_phase,1492233,Okoboji,,50,,,,,,old,1,0.9152542372881356,,,,,,,,,,
null,,confidence_buffer,1492336,confidence_buffer,,null,,,,,,,,,,,,,,,,,,
null,,thebreak,1492838,break,,null,,,,,,,,,,,,,,,,,,
4016.0999999940395,,realistic_rating,1496855,Huntsville,,52,Huntsville,US,4,,,,,,,,,,,,,,,
null,,confidence_buffer,1496957,confidence_buffer,,null,,,,,,,,,,,,,,,,,,
1807,,pt2_unique_rating,1498766,Huntsville,,50,,,2,,,,,,,,,,,,,,,
null,,confidence_buffer,1498868,confidence_buffer,,null,,,,,,,,,,,,,,,,,,
1946.7000000178814,,pt2_memorable_rating,1500817,Huntsville,,49,,,1,,,,,,,,,,,,,,,
null,,confidence_buffer,1500919,confidence_buffer,,null,,,,,,,,,,,,,,,,,,
2865,,recognition_phase,1503786,Huntsville,,51,,,,,,new,1,0.9166666666666666,,,,,,,,,,
null,,confidence_buffer,1503888,confidence_buffer,,null,,,,,,,,,,,,,,,,,,
null,,thebreak,1504391,break,,null,,,,,,,,,,,,,,,,,,
,,survey,1674550,survey-questions,,,,,,,,,,,none,high,no I was focused,I did not think to use a strategy,Have I heard of this at some point,Would I likely recall hearing of it,Something not plain,Something that sounds normal,no,
