rt,responses,trial_type,time_elapsed,stimulus,button_pressed,key_press,name_trial,city_type,rating,probe,probe_accuracy,response,correct,accuracy,problems,smooth,distraction,strategies,familiar,memorable,unique,realistic,similar,comments
6738.199999988079,{worker_id:66919e2f0a86d780d3c3e591},id_enter,6745,,,,,,,,,,,,,,,,,,,,,
83848.89999997616,,fullscreen,90601,fullscreen,0,,,,,,,,,,,,,,,,,,,
10550.800000011921,,intro_0,101155,instruct,,32,,,,,,,,,,,,,,,,,,
16595.099999964237,,intro_1,117753,instruct,,32,,,,,,,,,,,,,,,,,,
7393,,intro_2,125148,instruct,,32,,,,,,,,,,,,,,,,,,
null,,instruct_dir_4,126650,instruct,,null,,,,,,,,,,,,,,,,,,
null,,thebreak,127154,break,,null,,,,,,,,,,,,,,,,,,
7148.099999964237,,familiar_rating,134305,Coeur d'Alene,,49,Coeur d'Alene,US,1,,,,,,,,,,,,,,,
null,,confidence_buffer,134408,confidence_buffer,,null,,,,,,,,,,,,,,,,,,
4422.400000035763,,unique_rating,138833,Coeur d'Alene,,49,,,1,,,,,,,,,,,,,,,
null,,confidence_buffer,138937,confidence_buffer,,null,,,,,,,,,,,,,,,,,,
5211.800000011921,,memorable_rating,144151,Coeur d'Alene,,49,,,1,,,,,,,,,,,,,,,
null,,confidence_buffer,144253,confidence_buffer,,null,,,,,,,,,,,,,,,,,,
null,,thebreak,144755,break,,null,,,,,,,,,,,,,,,,,,
5770.699999988079,,familiar_rating,150527,Bowling Green,,52,Bowling Green,US,4,,,,,,,,,,,,,,,
null,,confidence_buffer,150630,confidence_buffer,,null,,,,,,,,,,,,,,,,,,
3927.199999988079,,unique_rating,154558,Bowling Green,,52,,,4,,,,,,,,,,,,,,,
null,,confidence_buffer,154660,confidence_buffer,,null,,,,,,,,,,,,,,,,,,
2281,,memorable_rating,156942,Bowling Green,,52,,,4,,,,,,,,,,,,,,,
null,,confidence_buffer,157045,confidence_buffer,,null,,,,,,,,,,,,,,,,,,
null,,thebreak,157547,break,,null,,,,,,,,,,,,,,,,,,
3930.699999988079,,familiar_rating,161479,New Hope,,53,New Hope,US,5,,,,,,,,,,,,,,,
null,,confidence_buffer,161582,confidence_buffer,,null,,,,,,,,,,,,,,,,,,
3351.100000023842,,unique_rating,164935,New Hope,,53,,,5,,,,,,,,,,,,,,,
null,,confidence_buffer,165038,confidence_buffer,,null,,,,,,,,,,,,,,,,,,
1751.800000011921,,memorable_rating,166791,New Hope,,53,,,5,,,,,,,,,,,,,,,
null,,confidence_buffer,166893,confidence_buffer,,null,,,,,,,,,,,,,,,,,,
null,,thebreak,167396,break,,null,,,,,,,,,,,,,,,,,,
5425.5,,familiar_rating,172823,Hilo,,50,Hilo,US,2,,,,,,,,,,,,,,,
null,,confidence_buffer,172926,confidence_buffer,,null,,,,,,,,,,,,,,,,,,
4023.300000011921,,unique_rating,176951,Hilo,,51,,,3,,,,,,,,,,,,,,,
null,,confidence_buffer,177053,confidence_buffer,,null,,,,,,,,,,,,,,,,,,
3560.400000035763,,memorable_rating,180615,Hilo,,50,,,2,,,,,,,,,,,,,,,
null,,confidence_buffer,180717,confidence_buffer,,null,,,,,,,,,,,,,,,,,,
null,,thebreak,181220,break,,null,,,,,,,,,,,,,,,,,,
3598.399999976158,,familiar_rating,184820,Linden Trace,,49,Linden Trace,Fictional,1,,,,,,,,,,,,,,,
null,,confidence_buffer,184924,confidence_buffer,,null,,,,,,,,,,,,,,,,,,
4721,,unique_rating,189646,Linden Trace,,51,,,3,,,,,,,,,,,,,,,
null,,confidence_buffer,189748,confidence_buffer,,null,,,,,,,,,,,,,,,,,,
3482.400000035763,,memorable_rating,193233,Linden Trace,,50,,,2,,,,,,,,,,,,,,,
null,,confidence_buffer,193336,confidence_buffer,,null,,,,,,,,,,,,,,,,,,
null,,thebreak,193838,break,,null,,,,,,,,,,,,,,,,,,
3168.699999988079,,familiar_rating,197009,Solara Glen,,49,Solara Glen,Fictional,1,,,,,,,,,,,,,,,
null,,confidence_buffer,197112,confidence_buffer,,null,,,,,,,,,,,,,,,,,,
4974.100000023842,,unique_rating,202087,Solara Glen,,51,,,3,,,,,,,,,,,,,,,
null,,confidence_buffer,202191,confidence_buffer,,null,,,,,,,,,,,,,,,,,,
2575.699999988079,,memorable_rating,204769,Solara Glen,,51,,,3,,,,,,,,,,,,,,,
null,,confidence_buffer,204871,confidence_buffer,,null,,,,,,,,,,,,,,,,,,
null,,thebreak,205373,break,,null,,,,,,,,,,,,,,,,,,
7426.800000011921,,familiar_rating,212802,Leesburg,,53,Leesburg,US,5,,,,,,,,,,,,,,,
null,,confidence_buffer,212904,confidence_buffer,,null,,,,,,,,,,,,,,,,,,
6112.900000035763,,probe_rating,219019,probe_rating,,53,,,,5,1,,,,,,,,,,,,,
null,,confidence_buffer,219124,confidence_buffer,,null,,,,,,,,,,,,,,,,,,
4721.100000023842,,unique_rating,223847,Leesburg,,53,,,5,,,,,,,,,,,,,,,
null,,confidence_buffer,223949,confidence_buffer,,null,,,,,,,,,,,,,,,,,,
1279.5999999642372,,memorable_rating,225230,Leesburg,,53,,,5,,,,,,,,,,,,,,,
null,,confidence_buffer,225333,confidence_buffer,,null,,,,,,,,,,,,,,,,,,
null,,thebreak,225836,break,,null,,,,,,,,,,,,,,,,,,
3472.699999988079,,familiar_rating,229310,Juniper Creek,,49,Juniper Creek,Fictional,1,,,,,,,,,,,,,,,
null,,confidence_buffer,229412,confidence_buffer,,null,,,,,,,,,,,,,,,,,,
5644.399999976158,,unique_rating,235058,Juniper Creek,,50,,,2,,,,,,,,,,,,,,,
null,,confidence_buffer,235161,confidence_buffer,,null,,,,,,,,,,,,,,,,,,
4796.199999988079,,memorable_rating,239959,Juniper Creek,,52,,,4,,,,,,,,,,,,,,,
null,,confidence_buffer,240063,confidence_buffer,,null,,,,,,,,,,,,,,,,,,
null,,thebreak,240565,break,,null,,,,,,,,,,,,,,,,,,
7938,,familiar_rating,248506,Carmel,,51,Carmel,US,3,,,,,,,,,,,,,,,
null,,confidence_buffer,248608,confidence_buffer,,null,,,,,,,,,,,,,,,,,,
3278.5,,unique_rating,251889,Carmel,,51,,,3,,,,,,,,,,,,,,,
null,,confidence_buffer,251991,confidence_buffer,,null,,,,,,,,,,,,,,,,,,
1946.300000011921,,memorable_rating,253939,Carmel,,51,,,3,,,,,,,,,,,,,,,
null,,confidence_buffer,254043,confidence_buffer,,null,,,,,,,,,,,,,,,,,,
null,,thebreak,254544,break,,null,,,,,,,,,,,,,,,,,,
4774.800000011921,,familiar_rating,259321,Athens,,53,Athens,US,5,,,,,,,,,,,,,,,
null,,confidence_buffer,259423,confidence_buffer,,null,,,,,,,,,,,,,,,,,,
3729.7000000476837,,unique_rating,263156,Athens,,52,,,4,,,,,,,,,,,,,,,
null,,confidence_buffer,263260,confidence_buffer,,null,,,,,,,,,,,,,,,,,,
3429.699999988079,,memorable_rating,266692,Athens,,53,,,5,,,,,,,,,,,,,,,
null,,confidence_buffer,266795,confidence_buffer,,null,,,,,,,,,,,,,,,,,,
null,,thebreak,267297,break,,null,,,,,,,,,,,,,,,,,,
3291.600000023842,,familiar_rating,270591,Sunmere,,49,Sunmere,Fictional,1,,,,,,,,,,,,,,,
null,,confidence_buffer,270694,confidence_buffer,,null,,,,,,,,,,,,,,,,,,
4392.400000035763,,unique_rating,275089,Sunmere,,52,,,4,,,,,,,,,,,,,,,
null,,confidence_buffer,275191,confidence_buffer,,null,,,,,,,,,,,,,,,,,,
5857.5,,memorable_rating,281051,Sunmere,,49,,,1,,,,,,,,,,,,,,,
null,,confidence_buffer,281154,confidence_buffer,,null,,,,,,,,,,,,,,,,,,
null,,thebreak,281657,break,,null,,,,,,,,,,,,,,,,,,
3904.7000000476837,,familiar_rating,285565,Hollendale,,49,Hollendale,Fictional,1,,,,,,,,,,,,,,,
null,,confidence_buffer,285668,confidence_buffer,,null,,,,,,,,,,,,,,,,,,
4090.899999976158,,unique_rating,289761,Hollendale,,52,,,4,,,,,,,,,,,,,,,
null,,confidence_buffer,289863,confidence_buffer,,null,,,,,,,,,,,,,,,,,,
2833.800000011921,,memorable_rating,292700,Hollendale,,50,,,2,,,,,,,,,,,,,,,
null,,confidence_buffer,292804,confidence_buffer,,null,,,,,,,,,,,,,,,,,,
null,,thebreak,293306,break,,null,,,,,,,,,,,,,,,,,,
4812,,familiar_rating,298119,Ravenport,,49,Ravenport,Fictional,1,,,,,,,,,,,,,,,
null,,confidence_buffer,298222,confidence_buffer,,null,,,,,,,,,,,,,,,,,,
9732,,probe_rating,307957,probe_rating,,50,,,,2,1,,,,,,,,,,,,,
null,,confidence_buffer,308061,confidence_buffer,,null,,,,,,,,,,,,,,,,,,
9001.299999952316,,unique_rating,317064,Ravenport,,51,,,3,,,,,,,,,,,,,,,
null,,confidence_buffer,317166,confidence_buffer,,null,,,,,,,,,,,,,,,,,,
3233.100000023842,,memorable_rating,320401,Ravenport,,52,,,4,,,,,,,,,,,,,,,
null,,confidence_buffer,320504,confidence_buffer,,null,,,,,,,,,,,,,,,,,,
null,,thebreak,321006,break,,null,,,,,,,,,,,,,,,,,,
9079.899999976158,,familiar_rating,330088,Gatlinburg,,51,Gatlinburg,US,3,,,,,,,,,,,,,,,
null,,confidence_buffer,330191,confidence_buffer,,null,,,,,,,,,,,,,,,,,,
5350,,unique_rating,335543,Gatlinburg,,52,,,4,,,,,,,,,,,,,,,
null,,confidence_buffer,335645,confidence_buffer,,null,,,,,,,,,,,,,,,,,,
3360.399999976158,,memorable_rating,339006,Gatlinburg,,52,,,4,,,,,,,,,,,,,,,
null,,confidence_buffer,339109,confidence_buffer,,null,,,,,,,,,,,,,,,,,,
null,,thebreak,339612,break,,null,,,,,,,,,,,,,,,,,,
15717.900000035763,,familiar_rating,355332,Duck,,49,Duck,US,1,,,,,,,,,,,,,,,
null,,confidence_buffer,355436,confidence_buffer,,null,,,,,,,,,,,,,,,,,,
6112.699999988079,,unique_rating,361551,Duck,,53,,,5,,,,,,,,,,,,,,,
null,,confidence_buffer,361653,confidence_buffer,,null,,,,,,,,,,,,,,,,,,
1863.6000000238419,,memorable_rating,363518,Duck,,53,,,5,,,,,,,,,,,,,,,
null,,confidence_buffer,363621,confidence_buffer,,null,,,,,,,,,,,,,,,,,,
null,,thebreak,364123,break,,null,,,,,,,,,,,,,,,,,,
3267.199999988079,,familiar_rating,367393,Highvale,,49,Highvale,Fictional,1,,,,,,,,,,,,,,,
null,,confidence_buffer,367496,confidence_buffer,,null,,,,,,,,,,,,,,,,,,
4518.5,,unique_rating,372017,Highvale,,50,,,2,,,,,,,,,,,,,,,
null,,confidence_buffer,372120,confidence_buffer,,null,,,,,,,,,,,,,,,,,,
3230,,memorable_rating,375353,Highvale,,49,,,1,,,,,,,,,,,,,,,
null,,confidence_buffer,375454,confidence_buffer,,null,,,,,,,,,,,,,,,,,,
null,,thebreak,375957,break,,null,,,,,,,,,,,,,,,,,,
3787.5,,familiar_rating,379748,Meadowspire,,49,Meadowspire,Fictional,1,,,,,,,,,,,,,,,
null,,confidence_buffer,379851,confidence_buffer,,null,,,,,,,,,,,,,,,,,,
7491.800000011921,,unique_rating,387344,Meadowspire,,52,,,4,,,,,,,,,,,,,,,
null,,confidence_buffer,387446,confidence_buffer,,null,,,,,,,,,,,,,,,,,,
3951.600000023842,,memorable_rating,391399,Meadowspire,,49,,,1,,,,,,,,,,,,,,,
null,,confidence_buffer,391501,confidence_buffer,,null,,,,,,,,,,,,,,,,,,
null,,thebreak,392003,break,,null,,,,,,,,,,,,,,,,,,
4435.199999988079,,familiar_rating,396440,Lakehaven,,50,Lakehaven,Fictional,2,,,,,,,,,,,,,,,
null,,confidence_buffer,396543,confidence_buffer,,null,,,,,,,,,,,,,,,,,,
4385.300000011921,,unique_rating,400931,Lakehaven,,51,,,3,,,,,,,,,,,,,,,
null,,confidence_buffer,401035,confidence_buffer,,null,,,,,,,,,,,,,,,,,,
2507.899999976158,,memorable_rating,403545,Lakehaven,,50,,,2,,,,,,,,,,,,,,,
null,,confidence_buffer,403647,confidence_buffer,,null,,,,,,,,,,,,,,,,,,
null,,thebreak,404150,break,,null,,,,,,,,,,,,,,,,,,
3719.399999976158,,familiar_rating,407872,Maravilla Springs,,49,Maravilla Springs,Fictional,1,,,,,,,,,,,,,,,
null,,confidence_buffer,407975,confidence_buffer,,null,,,,,,,,,,,,,,,,,,
4607.599999964237,,unique_rating,412584,Maravilla Springs,,52,,,4,,,,,,,,,,,,,,,
null,,confidence_buffer,412687,confidence_buffer,,null,,,,,,,,,,,,,,,,,,
4198,,memorable_rating,416887,Maravilla Springs,,50,,,2,,,,,,,,,,,,,,,
null,,confidence_buffer,416989,confidence_buffer,,null,,,,,,,,,,,,,,,,,,
null,,thebreak,417492,break,,null,,,,,,,,,,,,,,,,,,
4442.699999988079,,familiar_rating,421936,Pine Hollow,,49,Pine Hollow,Fictional,1,,,,,,,,,,,,,,,
null,,confidence_buffer,422039,confidence_buffer,,null,,,,,,,,,,,,,,,,,,
6514.800000011921,,unique_rating,428556,Pine Hollow,,50,,,2,,,,,,,,,,,,,,,
null,,confidence_buffer,428659,confidence_buffer,,null,,,,,,,,,,,,,,,,,,
2448.699999988079,,memorable_rating,431110,Pine Hollow,,51,,,3,,,,,,,,,,,,,,,
null,,confidence_buffer,431212,confidence_buffer,,null,,,,,,,,,,,,,,,,,,
null,,thebreak,431715,break,,null,,,,,,,,,,,,,,,,,,
3112.300000011921,,familiar_rating,434830,Berkeley Springs,,49,Berkeley Springs,US,1,,,,,,,,,,,,,,,
null,,confidence_buffer,434933,confidence_buffer,,null,,,,,,,,,,,,,,,,,,
3629.199999988079,,unique_rating,438564,Berkeley Springs,,51,,,3,,,,,,,,,,,,,,,
null,,confidence_buffer,438667,confidence_buffer,,null,,,,,,,,,,,,,,,,,,
4667.600000023842,,memorable_rating,443337,Berkeley Springs,,50,,,2,,,,,,,,,,,,,,,
null,,confidence_buffer,443440,confidence_buffer,,null,,,,,,,,,,,,,,,,,,
null,,thebreak,443942,break,,null,,,,,,,,,,,,,,,,,,
16659.400000035763,,familiar_rating,460605,Delaware City,,49,Delaware City,US,1,,,,,,,,,,,,,,,
null,,confidence_buffer,460708,confidence_buffer,,null,,,,,,,,,,,,,,,,,,
3500.900000035763,,unique_rating,464211,Delaware City,,51,,,3,,,,,,,,,,,,,,,
null,,confidence_buffer,464314,confidence_buffer,,null,,,,,,,,,,,,,,,,,,
5085.300000011921,,memorable_rating,469402,Delaware City,,52,,,4,,,,,,,,,,,,,,,
null,,confidence_buffer,469506,confidence_buffer,,null,,,,,,,,,,,,,,,,,,
null,,thebreak,470009,break,,null,,,,,,,,,,,,,,,,,,
3381.699999988079,,familiar_rating,473393,Sammamish,,49,Sammamish,US,1,,,,,,,,,,,,,,,
null,,confidence_buffer,473496,confidence_buffer,,null,,,,,,,,,,,,,,,,,,
5740.399999976158,,unique_rating,479238,Sammamish,,53,,,5,,,,,,,,,,,,,,,
null,,confidence_buffer,479339,confidence_buffer,,null,,,,,,,,,,,,,,,,,,
4530.199999988079,,memorable_rating,483871,Sammamish,,49,,,1,,,,,,,,,,,,,,,
null,,confidence_buffer,483974,confidence_buffer,,null,,,,,,,,,,,,,,,,,,
null,,thebreak,484476,break,,null,,,,,,,,,,,,,,,,,,
2385.5,,familiar_rating,486863,Elmsbury,,49,Elmsbury,Fictional,1,,,,,,,,,,,,,,,
null,,confidence_buffer,486965,confidence_buffer,,null,,,,,,,,,,,,,,,,,,
3519.800000011921,,probe_rating,490486,probe_rating,,50,,,,2,1,,,,,,,,,,,,,
null,,confidence_buffer,490588,confidence_buffer,,null,,,,,,,,,,,,,,,,,,
3961.899999976158,,unique_rating,494551,Elmsbury,,51,,,3,,,,,,,,,,,,,,,
null,,confidence_buffer,494653,confidence_buffer,,null,,,,,,,,,,,,,,,,,,
3056.199999988079,,memorable_rating,497710,Elmsbury,,50,,,2,,,,,,,,,,,,,,,
null,,confidence_buffer,497812,confidence_buffer,,null,,,,,,,,,,,,,,,,,,
null,,thebreak,498314,break,,null,,,,,,,,,,,,,,,,,,
7844,,familiar_rating,506159,Millstone,,51,Millstone,Fictional,3,,,,,,,,,,,,,,,
null,,confidence_buffer,506262,confidence_buffer,,null,,,,,,,,,,,,,,,,,,
3376.399999976158,,unique_rating,509640,Millstone,,51,,,3,,,,,,,,,,,,,,,
null,,confidence_buffer,509742,confidence_buffer,,null,,,,,,,,,,,,,,,,,,
2999.199999988079,,memorable_rating,512742,Millstone,,51,,,3,,,,,,,,,,,,,,,
null,,confidence_buffer,512845,confidence_buffer,,null,,,,,,,,,,,,,,,,,,
null,,thebreak,513347,break,,null,,,,,,,,,,,,,,,,,,
4034.5,,familiar_rating,517383,Montelake,,49,Montelake,Fictional,1,,,,,,,,,,,,,,,
null,,confidence_buffer,517485,confidence_buffer,,null,,,,,,,,,,,,,,,,,,
4712.399999976158,,unique_rating,522199,Montelake,,52,,,4,,,,,,,,,,,,,,,
null,,confidence_buffer,522301,confidence_buffer,,null,,,,,,,,,,,,,,,,,,
2840.399999976158,,memorable_rating,525142,Montelake,,50,,,2,,,,,,,,,,,,,,,
null,,confidence_buffer,525244,confidence_buffer,,null,,,,,,,,,,,,,,,,,,
3595.600000023842,,probe_rating,528841,probe_rating,,53,,,,5,1,,,,,,,,,,,,,
null,,confidence_buffer,528944,confidence_buffer,,null,,,,,,,,,,,,,,,,,,
null,,thebreak,529446,break,,null,,,,,,,,,,,,,,,,,,
4574.699999988079,,familiar_rating,534023,North Arroya,,49,North Arroya,Fictional,1,,,,,,,,,,,,,,,
null,,confidence_buffer,534126,confidence_buffer,,null,,,,,,,,,,,,,,,,,,
5700.600000023842,,unique_rating,539829,North Arroya,,51,,,3,,,,,,,,,,,,,,,
null,,confidence_buffer,539932,confidence_buffer,,null,,,,,,,,,,,,,,,,,,
3193.900000035763,,memorable_rating,543127,North Arroya,,50,,,2,,,,,,,,,,,,,,,
null,,confidence_buffer,543229,confidence_buffer,,null,,,,,,,,,,,,,,,,,,
null,,thebreak,543731,break,,null,,,,,,,,,,,,,,,,,,
5386.800000011921,,familiar_rating,549120,Hanover,,52,Hanover,US,4,,,,,,,,,,,,,,,
null,,confidence_buffer,549223,confidence_buffer,,null,,,,,,,,,,,,,,,,,,
3732,,unique_rating,552957,Hanover,,52,,,4,,,,,,,,,,,,,,,
null,,confidence_buffer,553061,confidence_buffer,,null,,,,,,,,,,,,,,,,,,
2160.699999988079,,memorable_rating,555224,Hanover,,52,,,4,,,,,,,,,,,,,,,
null,,confidence_buffer,555326,confidence_buffer,,null,,,,,,,,,,,,,,,,,,
null,,thebreak,555828,break,,null,,,,,,,,,,,,,,,,,,
3759.400000035763,,familiar_rating,559590,Natchez,,49,Natchez,US,1,,,,,,,,,,,,,,,
null,,confidence_buffer,559692,confidence_buffer,,null,,,,,,,,,,,,,,,,,,
3744.800000011921,,unique_rating,563440,Natchez,,51,,,3,,,,,,,,,,,,,,,
null,,confidence_buffer,563543,confidence_buffer,,null,,,,,,,,,,,,,,,,,,
4041.400000035763,,probe_rating,567587,probe_rating,,49,,,,1,1,,,,,,,,,,,,,
null,,confidence_buffer,567689,confidence_buffer,,null,,,,,,,,,,,,,,,,,,
4327.599999964237,,memorable_rating,572019,Natchez,,50,,,2,,,,,,,,,,,,,,,
null,,confidence_buffer,572122,confidence_buffer,,null,,,,,,,,,,,,,,,,,,
null,,thebreak,572624,break,,null,,,,,,,,,,,,,,,,,,
5265.400000035763,,familiar_rating,577892,Gloucester,,53,Gloucester,US,5,,,,,,,,,,,,,,,
null,,confidence_buffer,577996,confidence_buffer,,null,,,,,,,,,,,,,,,,,,
4331.699999988079,,unique_rating,582329,Gloucester,,52,,,4,,,,,,,,,,,,,,,
null,,confidence_buffer,582432,confidence_buffer,,null,,,,,,,,,,,,,,,,,,
3775.2000000476837,,memorable_rating,586209,Gloucester,,52,,,4,,,,,,,,,,,,,,,
null,,confidence_buffer,586312,confidence_buffer,,null,,,,,,,,,,,,,,,,,,
null,,thebreak,586815,break,,null,,,,,,,,,,,,,,,,,,
17190.200000047684,,intro_0,604007,instruct,,32,,,,,,,,,,,,,,,,,,
13015.5,,intro_1,617023,instruct,,32,,,,,,,,,,,,,,,,,,
34493.799999952316,,intro_2,651518,instruct,,32,,,,,,,,,,,,,,,,,,
null,,instruct_dir_4,653020,instruct,,null,,,,,,,,,,,,,,,,,,
21865.19999998808,,realistic_rating,674887,Natchez,,51,Natchez,US,3,,,,,,,,,,,,,,,
null,,confidence_buffer,674991,confidence_buffer,,null,,,,,,,,,,,,,,,,,,
5866.599999964237,,pt2_unique_rating,680860,Natchez,,51,,,3,,,,,,,,,,,,,,,
null,,confidence_buffer,680964,confidence_buffer,,null,,,,,,,,,,,,,,,,,,
4300.400000035763,,pt2_memorable_rating,685268,Natchez,,51,,,3,,,,,,,,,,,,,,,
null,,confidence_buffer,685371,confidence_buffer,,null,,,,,,,,,,,,,,,,,,
3784.5,,recognition_phase,689158,Natchez,,49,,,,,,old,1,1,,,,,,,,,,
null,,confidence_buffer,689261,confidence_buffer,,null,,,,,,,,,,,,,,,,,,
null,,thebreak,689764,break,,null,,,,,,,,,,,,,,,,,,
6133.100000023842,,realistic_rating,695898,Hot Springs,,53,Hot Springs,US,5,,,,,,,,,,,,,,,
null,,confidence_buffer,696002,confidence_buffer,,null,,,,,,,,,,,,,,,,,,
4675,,pt2_unique_rating,700679,Hot Springs,,52,,,4,,,,,,,,,,,,,,,
null,,confidence_buffer,700780,confidence_buffer,,null,,,,,,,,,,,,,,,,,,
4000.600000023842,,pt2_memorable_rating,704782,Hot Springs,,52,,,4,,,,,,,,,,,,,,,
null,,confidence_buffer,704885,confidence_buffer,,null,,,,,,,,,,,,,,,,,,
4223.099999964237,,recognition_phase,709111,Hot Springs,,52,,,,,,new,1,1,,,,,,,,,,
null,,confidence_buffer,709215,confidence_buffer,,null,,,,,,,,,,,,,,,,,,
null,,thebreak,709718,break,,null,,,,,,,,,,,,,,,,,,
6991.399999976158,,realistic_rating,716712,Newport,,53,Newport,US,5,,,,,,,,,,,,,,,
null,,confidence_buffer,716814,confidence_buffer,,null,,,,,,,,,,,,,,,,,,
12153.400000035763,,pt2_unique_rating,728969,Newport,,51,,,3,,,,,,,,,,,,,,,
null,,confidence_buffer,729073,confidence_buffer,,null,,,,,,,,,,,,,,,,,,
3766.199999988079,,pt2_memorable_rating,732841,Newport,,52,,,4,,,,,,,,,,,,,,,
null,,confidence_buffer,732943,confidence_buffer,,null,,,,,,,,,,,,,,,,,,
3925.5,,recognition_phase,736870,Newport,,49,,,,,,old,0,0.6666666666666666,,,,,,,,,,
null,,confidence_buffer,736972,confidence_buffer,,null,,,,,,,,,,,,,,,,,,
null,,thebreak,737475,break,,null,,,,,,,,,,,,,,,,,,
5531.300000011921,,realistic_rating,743009,West Palm Beach,,53,West Palm Beach,US,5,,,,,,,,,,,,,,,
null,,confidence_buffer,743111,confidence_buffer,,null,,,,,,,,,,,,,,,,,,
2697.899999976158,,pt2_unique_rating,745811,West Palm Beach,,53,,,5,,,,,,,,,,,,,,,
null,,confidence_buffer,745914,confidence_buffer,,null,,,,,,,,,,,,,,,,,,
2534.199999988079,,pt2_memorable_rating,748451,West Palm Beach,,53,,,5,,,,,,,,,,,,,,,
null,,confidence_buffer,748554,confidence_buffer,,null,,,,,,,,,,,,,,,,,,
3604.900000035763,,recognition_phase,752163,West Palm Beach,,52,,,,,,new,1,0.75,,,,,,,,,,
null,,confidence_buffer,752267,confidence_buffer,,null,,,,,,,,,,,,,,,,,,
null,,thebreak,752769,break,,null,,,,,,,,,,,,,,,,,,
5997.400000035763,,realistic_rating,758768,Boulder,,53,Boulder,US,5,,,,,,,,,,,,,,,
null,,confidence_buffer,758872,confidence_buffer,,null,,,,,,,,,,,,,,,,,,
2654.100000023842,,pt2_unique_rating,761528,Boulder,,53,,,5,,,,,,,,,,,,,,,
null,,confidence_buffer,761631,confidence_buffer,,null,,,,,,,,,,,,,,,,,,
1722.300000011921,,pt2_memorable_rating,763356,Boulder,,53,,,5,,,,,,,,,,,,,,,
null,,confidence_buffer,763459,confidence_buffer,,null,,,,,,,,,,,,,,,,,,
3578.300000011921,,recognition_phase,767040,Boulder,,52,,,,,,new,1,0.8,,,,,,,,,,
null,,confidence_buffer,767142,confidence_buffer,,null,,,,,,,,,,,,,,,,,,
null,,thebreak,767644,break,,null,,,,,,,,,,,,,,,,,,
8666.800000011921,,realistic_rating,776313,Manistee,,50,Manistee,US,2,,,,,,,,,,,,,,,
null,,confidence_buffer,776416,confidence_buffer,,null,,,,,,,,,,,,,,,,,,
2932.900000035763,,pt2_unique_rating,779350,Manistee,,50,,,2,,,,,,,,,,,,,,,
null,,confidence_buffer,779453,confidence_buffer,,null,,,,,,,,,,,,,,,,,,
2115.300000011921,,pt2_memorable_rating,781570,Manistee,,50,,,2,,,,,,,,,,,,,,,
null,,confidence_buffer,781674,confidence_buffer,,null,,,,,,,,,,,,,,,,,,
4205.5,,recognition_phase,785883,Manistee,,49,,,,,,old,0,0.6666666666666666,,,,,,,,,,
null,,confidence_buffer,785986,confidence_buffer,,null,,,,,,,,,,,,,,,,,,
null,,thebreak,786487,break,,null,,,,,,,,,,,,,,,,,,
3983.399999976158,,realistic_rating,790473,Peoria,,53,Peoria,US,5,,,,,,,,,,,,,,,
null,,confidence_buffer,790576,confidence_buffer,,null,,,,,,,,,,,,,,,,,,
2943.399999976158,,pt2_unique_rating,793522,Peoria,,53,,,5,,,,,,,,,,,,,,,
null,,confidence_buffer,793625,confidence_buffer,,null,,,,,,,,,,,,,,,,,,
2294.199999988079,,pt2_memorable_rating,795920,Peoria,,53,,,5,,,,,,,,,,,,,,,
null,,confidence_buffer,796024,confidence_buffer,,null,,,,,,,,,,,,,,,,,,
2725.7000000476837,,recognition_phase,798752,Peoria,,52,,,,,,new,1,0.7142857142857143,,,,,,,,,,
null,,confidence_buffer,798854,confidence_buffer,,null,,,,,,,,,,,,,,,,,,
null,,thebreak,799356,break,,null,,,,,,,,,,,,,,,,,,
3793.899999976158,,realistic_rating,803151,Watkins Glen,,52,Watkins Glen,US,4,,,,,,,,,,,,,,,
null,,confidence_buffer,803253,confidence_buffer,,null,,,,,,,,,,,,,,,,,,
4276.400000035763,,pt2_unique_rating,807532,Watkins Glen,,53,,,5,,,,,,,,,,,,,,,
null,,confidence_buffer,807635,confidence_buffer,,null,,,,,,,,,,,,,,,,,,
3520.599999964237,,pt2_memorable_rating,811158,Watkins Glen,,52,,,4,,,,,,,,,,,,,,,
null,,confidence_buffer,811261,confidence_buffer,,null,,,,,,,,,,,,,,,,,,
3075.400000035763,,recognition_phase,814340,Watkins Glen,,52,,,,,,new,1,0.75,,,,,,,,,,
null,,confidence_buffer,814443,confidence_buffer,,null,,,,,,,,,,,,,,,,,,
null,,thebreak,814945,break,,null,,,,,,,,,,,,,,,,,,
8586.599999964237,,realistic_rating,823534,Delaware City,,51,Delaware City,US,3,,,,,,,,,,,,,,,
null,,confidence_buffer,823637,confidence_buffer,,null,,,,,,,,,,,,,,,,,,
2240,,pt2_unique_rating,825879,Delaware City,,51,,,3,,,,,,,,,,,,,,,
null,,confidence_buffer,825981,confidence_buffer,,null,,,,,,,,,,,,,,,,,,
2791.699999988079,,pt2_memorable_rating,828774,Delaware City,,50,,,2,,,,,,,,,,,,,,,
null,,confidence_buffer,828877,confidence_buffer,,null,,,,,,,,,,,,,,,,,,
3215.699999988079,,recognition_phase,832094,Delaware City,,52,,,,,,new,0,0.6666666666666666,,,,,,,,,,
null,,confidence_buffer,832196,confidence_buffer,,null,,,,,,,,,,,,,,,,,,
null,,thebreak,832698,break,,null,,,,,,,,,,,,,,,,,,
6211.700000047684,,realistic_rating,838911,Shreveport,,53,Shreveport,US,5,,,,,,,,,,,,,,,
null,,confidence_buffer,839014,confidence_buffer,,null,,,,,,,,,,,,,,,,,,
1958.699999988079,,pt2_unique_rating,840974,Shreveport,,53,,,5,,,,,,,,,,,,,,,
null,,confidence_buffer,841077,confidence_buffer,,null,,,,,,,,,,,,,,,,,,
4200.100000023842,,pt2_memorable_rating,845278,Shreveport,,51,,,3,,,,,,,,,,,,,,,
null,,confidence_buffer,845381,confidence_buffer,,null,,,,,,,,,,,,,,,,,,
2623.900000035763,,recognition_phase,848006,Shreveport,,52,,,,,,new,1,0.7,,,,,,,,,,
null,,confidence_buffer,848109,confidence_buffer,,null,,,,,,,,,,,,,,,,,,
null,,thebreak,848611,break,,null,,,,,,,,,,,,,,,,,,
4250.200000047684,,realistic_rating,852863,Lakehaven,,52,Lakehaven,Fictional,4,,,,,,,,,,,,,,,
null,,confidence_buffer,852965,confidence_buffer,,null,,,,,,,,,,,,,,,,,,
2016.800000011921,,pt2_unique_rating,854984,Lakehaven,,52,,,4,,,,,,,,,,,,,,,
null,,confidence_buffer,855085,confidence_buffer,,null,,,,,,,,,,,,,,,,,,
6319.800000011921,,probe_rating,861406,probe_rating,,52,,,,4,1,,,,,,,,,,,,,
null,,confidence_buffer,861508,confidence_buffer,,null,,,,,,,,,,,,,,,,,,
4241.399999976158,,pt2_memorable_rating,865751,Lakehaven,,51,,,3,,,,,,,,,,,,,,,
null,,confidence_buffer,865854,confidence_buffer,,null,,,,,,,,,,,,,,,,,,
5166.599999964237,,recognition_phase,871022,Lakehaven,,50,,,,,,old,1,0.7272727272727273,,,,,,,,,,
null,,confidence_buffer,871124,confidence_buffer,,null,,,,,,,,,,,,,,,,,,
null,,thebreak,871626,break,,null,,,,,,,,,,,,,,,,,,
4797.100000023842,,realistic_rating,876425,Montelake,,51,Montelake,Fictional,3,,,,,,,,,,,,,,,
null,,confidence_buffer,876528,confidence_buffer,,null,,,,,,,,,,,,,,,,,,
3614,,probe_rating,880144,probe_rating,,50,,,,2,1,,,,,,,,,,,,,
null,,confidence_buffer,880247,confidence_buffer,,null,,,,,,,,,,,,,,,,,,
2839.2999999523163,,pt2_unique_rating,883088,Montelake,,51,,,3,,,,,,,,,,,,,,,
null,,confidence_buffer,883189,confidence_buffer,,null,,,,,,,,,,,,,,,,,,
3210.899999976158,,pt2_memorable_rating,886403,Montelake,,50,,,2,,,,,,,,,,,,,,,
null,,confidence_buffer,886507,confidence_buffer,,null,,,,,,,,,,,,,,,,,,
6043.099999964237,,recognition_phase,892552,Montelake,,50,,,,,,old,1,0.75,,,,,,,,,,
null,,confidence_buffer,892655,confidence_buffer,,null,,,,,,,,,,,,,,,,,,
null,,thebreak,893158,break,,null,,,,,,,,,,,,,,,,,,
6550.699999988079,,realistic_rating,899710,Juniper Creek,,52,Juniper Creek,Fictional,4,,,,,,,,,,,,,,,
null,,confidence_buffer,899812,confidence_buffer,,null,,,,,,,,,,,,,,,,,,
5099.100000023842,,pt2_unique_rating,904913,Juniper Creek,,52,,,4,,,,,,,,,,,,,,,
null,,confidence_buffer,905016,confidence_buffer,,null,,,,,,,,,,,,,,,,,,
3372.899999976158,,pt2_memorable_rating,908391,Juniper Creek,,50,,,2,,,,,,,,,,,,,,,
null,,confidence_buffer,908493,confidence_buffer,,null,,,,,,,,,,,,,,,,,,
3328.199999988079,,probe_rating,911824,probe_rating,,52,,,,4,1,,,,,,,,,,,,,
null,,confidence_buffer,911927,confidence_buffer,,null,,,,,,,,,,,,,,,,,,
3296.7000000476837,,recognition_phase,915226,Juniper Creek,,50,,,,,,old,1,0.7692307692307693,,,,,,,,,,
null,,confidence_buffer,915329,confidence_buffer,,null,,,,,,,,,,,,,,,,,,
null,,thebreak,915831,break,,null,,,,,,,,,,,,,,,,,,
6753.800000011921,,realistic_rating,922588,Sunmere,,50,Sunmere,Fictional,2,,,,,,,,,,,,,,,
null,,confidence_buffer,922692,confidence_buffer,,null,,,,,,,,,,,,,,,,,,
5921.700000047684,,pt2_unique_rating,928616,Sunmere,,52,,,4,,,,,,,,,,,,,,,
null,,confidence_buffer,928719,confidence_buffer,,null,,,,,,,,,,,,,,,,,,
4676.5,,pt2_memorable_rating,933398,Sunmere,,49,,,1,,,,,,,,,,,,,,,
null,,confidence_buffer,933501,confidence_buffer,,null,,,,,,,,,,,,,,,,,,
4615.400000035763,,recognition_phase,938118,Sunmere,,50,,,,,,old,1,0.7857142857142857,,,,,,,,,,
null,,confidence_buffer,938221,confidence_buffer,,null,,,,,,,,,,,,,,,,,,
null,,thebreak,938723,break,,null,,,,,,,,,,,,,,,,,,
5345.900000035763,,realistic_rating,944071,Briarfield,,52,Briarfield,Fictional,4,,,,,,,,,,,,,,,
null,,confidence_buffer,944172,confidence_buffer,,null,,,,,,,,,,,,,,,,,,
1829.800000011921,,pt2_unique_rating,946004,Briarfield,,52,,,4,,,,,,,,,,,,,,,
null,,confidence_buffer,946107,confidence_buffer,,null,,,,,,,,,,,,,,,,,,
3141.7999999523163,,pt2_memorable_rating,949251,Briarfield,,49,,,1,,,,,,,,,,,,,,,
null,,confidence_buffer,949354,confidence_buffer,,null,,,,,,,,,,,,,,,,,,
3385.899999976158,,probe_rating,952742,probe_rating,,49,,,,1,1,,,,,,,,,,,,,
null,,confidence_buffer,952845,confidence_buffer,,null,,,,,,,,,,,,,,,,,,
3531.400000035763,,recognition_phase,956380,Briarfield,,52,,,,,,new,1,0.8,,,,,,,,,,
null,,confidence_buffer,956483,confidence_buffer,,null,,,,,,,,,,,,,,,,,,
null,,thebreak,956984,break,,null,,,,,,,,,,,,,,,,,,
5316.599999964237,,realistic_rating,962302,Elmsbury,,52,Elmsbury,Fictional,4,,,,,,,,,,,,,,,
null,,confidence_buffer,962404,confidence_buffer,,null,,,,,,,,,,,,,,,,,,
5586.699999988079,,pt2_unique_rating,967992,Elmsbury,,51,,,3,,,,,,,,,,,,,,,
null,,confidence_buffer,968095,confidence_buffer,,null,,,,,,,,,,,,,,,,,,
3142.300000011921,,probe_rating,971240,probe_rating,,49,,,,1,1,,,,,,,,,,,,,
null,,confidence_buffer,971343,confidence_buffer,,null,,,,,,,,,,,,,,,,,,
3965.300000011921,,pt2_memorable_rating,975310,Elmsbury,,49,,,1,,,,,,,,,,,,,,,
null,,confidence_buffer,975412,confidence_buffer,,null,,,,,,,,,,,,,,,,,,
4257.099999964237,,recognition_phase,979671,Elmsbury,,50,,,,,,old,1,0.8125,,,,,,,,,,
null,,confidence_buffer,979774,confidence_buffer,,null,,,,,,,,,,,,,,,,,,
null,,thebreak,980276,break,,null,,,,,,,,,,,,,,,,,,
5242.100000023842,,realistic_rating,985520,Cody,,52,Cody,US,4,,,,,,,,,,,,,,,
null,,confidence_buffer,985623,confidence_buffer,,null,,,,,,,,,,,,,,,,,,
3451.7000000476837,,pt2_unique_rating,989077,Cody,,52,,,4,,,,,,,,,,,,,,,
null,,confidence_buffer,989180,confidence_buffer,,null,,,,,,,,,,,,,,,,,,
3192.100000023842,,pt2_memorable_rating,992374,Cody,,50,,,2,,,,,,,,,,,,,,,
null,,confidence_buffer,992477,confidence_buffer,,null,,,,,,,,,,,,,,,,,,
2876.5,,recognition_phase,995356,Cody,,52,,,,,,new,1,0.8235294117647058,,,,,,,,,,
null,,confidence_buffer,995459,confidence_buffer,,null,,,,,,,,,,,,,,,,,,
null,,thebreak,995962,break,,null,,,,,,,,,,,,,,,,,,
5867.100000023842,,realistic_rating,1001831,Willowford,,52,Willowford,Fictional,4,,,,,,,,,,,,,,,
null,,confidence_buffer,1001934,confidence_buffer,,null,,,,,,,,,,,,,,,,,,
3359.2999999523163,,probe_rating,1005296,probe_rating,,52,,,,4,1,,,,,,,,,,,,,
null,,confidence_buffer,1005398,confidence_buffer,,null,,,,,,,,,,,,,,,,,,
3307.7999999523163,,pt2_unique_rating,1008708,Willowford,,52,,,4,,,,,,,,,,,,,,,
null,,confidence_buffer,1008810,confidence_buffer,,null,,,,,,,,,,,,,,,,,,
3820.199999988079,,pt2_memorable_rating,1012632,Willowford,,49,,,1,,,,,,,,,,,,,,,
null,,confidence_buffer,1012735,confidence_buffer,,null,,,,,,,,,,,,,,,,,,
2674,,recognition_phase,1015412,Willowford,,52,,,,,,new,1,0.8333333333333334,,,,,,,,,,
null,,confidence_buffer,1015515,confidence_buffer,,null,,,,,,,,,,,,,,,,,,
null,,thebreak,1016016,break,,null,,,,,,,,,,,,,,,,,,
4119.799999952316,,realistic_rating,1020138,Meadowspire,,51,Meadowspire,Fictional,3,,,,,,,,,,,,,,,
null,,confidence_buffer,1020241,confidence_buffer,,null,,,,,,,,,,,,,,,,,,
2907.399999976158,,pt2_unique_rating,1023150,Meadowspire,,51,,,3,,,,,,,,,,,,,,,
null,,confidence_buffer,1023252,confidence_buffer,,null,,,,,,,,,,,,,,,,,,
4449.200000047684,,pt2_memorable_rating,1027703,Meadowspire,,50,,,2,,,,,,,,,,,,,,,
null,,confidence_buffer,1027806,confidence_buffer,,null,,,,,,,,,,,,,,,,,,
2817.699999988079,,recognition_phase,1030627,Meadowspire,,49,,,,,,old,1,0.8421052631578947,,,,,,,,,,
null,,confidence_buffer,1030730,confidence_buffer,,null,,,,,,,,,,,,,,,,,,
null,,thebreak,1031233,break,,null,,,,,,,,,,,,,,,,,,
6758.399999976158,,realistic_rating,1037993,Maravilla Springs,,51,Maravilla Springs,Fictional,3,,,,,,,,,,,,,,,
null,,confidence_buffer,1038096,confidence_buffer,,null,,,,,,,,,,,,,,,,,,
2012.8999999761581,,pt2_unique_rating,1040110,Maravilla Springs,,52,,,4,,,,,,,,,,,,,,,
null,,confidence_buffer,1040212,confidence_buffer,,null,,,,,,,,,,,,,,,,,,
5348.199999988079,,pt2_memorable_rating,1045563,Maravilla Springs,,50,,,2,,,,,,,,,,,,,,,
null,,confidence_buffer,1045666,confidence_buffer,,null,,,,,,,,,,,,,,,,,,
2781.899999976158,,recognition_phase,1048450,Maravilla Springs,,50,,,,,,old,1,0.85,,,,,,,,,,
null,,confidence_buffer,1048553,confidence_buffer,,null,,,,,,,,,,,,,,,,,,
null,,thebreak,1049056,break,,null,,,,,,,,,,,,,,,,,,
4838.699999988079,,realistic_rating,1053897,Silverpine,,52,Silverpine,Fictional,4,,,,,,,,,,,,,,,
null,,confidence_buffer,1053999,confidence_buffer,,null,,,,,,,,,,,,,,,,,,
4317.100000023842,,probe_rating,1058318,probe_rating,,51,,,,3,1,,,,,,,,,,,,,
null,,confidence_buffer,1058420,confidence_buffer,,null,,,,,,,,,,,,,,,,,,
5262.099999964237,,pt2_unique_rating,1063684,Silverpine,,50,,,2,,,,,,,,,,,,,,,
null,,confidence_buffer,1063787,confidence_buffer,,null,,,,,,,,,,,,,,,,,,
14075.300000011921,,pt2_memorable_rating,1077864,Silverpine,,51,,,3,,,,,,,,,,,,,,,
null,,confidence_buffer,1077967,confidence_buffer,,null,,,,,,,,,,,,,,,,,,
4691.100000023842,,recognition_phase,1082660,Silverpine,,52,,,,,,new,1,0.8571428571428571,,,,,,,,,,
null,,confidence_buffer,1082763,confidence_buffer,,null,,,,,,,,,,,,,,,,,,
null,,thebreak,1083265,break,,null,,,,,,,,,,,,,,,,,,
4493.600000023842,,realistic_rating,1087761,Bar Harbor,,52,Bar Harbor,US,4,,,,,,,,,,,,,,,
null,,confidence_buffer,1087863,confidence_buffer,,null,,,,,,,,,,,,,,,,,,
3272.899999976158,,probe_rating,1091140,probe_rating,,53,,,,5,1,,,,,,,,,,,,,
null,,confidence_buffer,1091244,confidence_buffer,,null,,,,,,,,,,,,,,,,,,
6567.299999952316,,pt2_unique_rating,1097814,Bar Harbor,,52,,,4,,,,,,,,,,,,,,,
null,,confidence_buffer,1097915,confidence_buffer,,null,,,,,,,,,,,,,,,,,,
4347.199999988079,,pt2_memorable_rating,1102264,Bar Harbor,,52,,,4,,,,,,,,,,,,,,,
null,,confidence_buffer,1102366,confidence_buffer,,null,,,,,,,,,,,,,,,,,,
2934.2000000476837,,recognition_phase,1105304,Bar Harbor,,52,,,,,,new,1,0.8636363636363636,,,,,,,,,,
null,,confidence_buffer,1105406,confidence_buffer,,null,,,,,,,,,,,,,,,,,,
null,,thebreak,1105908,break,,null,,,,,,,,,,,,,,,,,,
4967.899999976158,,realistic_rating,1110878,Berkeley Springs,,52,Berkeley Springs,US,4,,,,,,,,,,,,,,,
null,,confidence_buffer,1110980,confidence_buffer,,null,,,,,,,,,,,,,,,,,,
5418.399999976158,,pt2_unique_rating,1116400,Berkeley Springs,,51,,,3,,,,,,,,,,,,,,,
null,,confidence_buffer,1116504,confidence_buffer,,null,,,,,,,,,,,,,,,,,,
3062.199999988079,,pt2_memorable_rating,1119568,Berkeley Springs,,50,,,2,,,,,,,,,,,,,,,
null,,confidence_buffer,1119670,confidence_buffer,,null,,,,,,,,,,,,,,,,,,
3201.800000011921,,recognition_phase,1122875,Berkeley Springs,,50,,,,,,old,1,0.8695652173913043,,,,,,,,,,
null,,confidence_buffer,1122979,confidence_buffer,,null,,,,,,,,,,,,,,,,,,
null,,thebreak,1123482,break,,null,,,,,,,,,,,,,,,,,,
4102,,realistic_rating,1127586,Livingston,,52,Livingston,US,4,,,,,,,,,,,,,,,
null,,confidence_buffer,1127688,confidence_buffer,,null,,,,,,,,,,,,,,,,,,
3752.5,,pt2_unique_rating,1131444,Livingston,,52,,,4,,,,,,,,,,,,,,,
null,,confidence_buffer,1131547,confidence_buffer,,null,,,,,,,,,,,,,,,,,,
3598.900000035763,,pt2_memorable_rating,1135147,Livingston,,50,,,2,,,,,,,,,,,,,,,
null,,confidence_buffer,1135251,confidence_buffer,,null,,,,,,,,,,,,,,,,,,
6576.699999988079,,recognition_phase,1141830,Livingston,,51,,,,,,new,1,0.875,,,,,,,,,,
null,,confidence_buffer,1141934,confidence_buffer,,null,,,,,,,,,,,,,,,,,,
null,,thebreak,1142436,break,,null,,,,,,,,,,,,,,,,,,
6114.200000047684,,realistic_rating,1148552,Hilo,,51,Hilo,US,3,,,,,,,,,,,,,,,
null,,confidence_buffer,1148655,confidence_buffer,,null,,,,,,,,,,,,,,,,,,
2576.699999988079,,pt2_unique_rating,1151235,Hilo,,51,,,3,,,,,,,,,,,,,,,
null,,confidence_buffer,1151338,confidence_buffer,,null,,,,,,,,,,,,,,,,,,
2676.800000011921,,pt2_memorable_rating,1154017,Hilo,,50,,,2,,,,,,,,,,,,,,,
null,,confidence_buffer,1154121,confidence_buffer,,null,,,,,,,,,,,,,,,,,,
3004.600000023842,,recognition_phase,1157127,Hilo,,50,,,,,,old,1,0.88,,,,,,,,,,
null,,confidence_buffer,1157229,confidence_buffer,,null,,,,,,,,,,,,,,,,,,
null,,thebreak,1157732,break,,null,,,,,,,,,,,,,,,,,,
6195.5,,realistic_rating,1163929,Coeur d'Alene,,49,Coeur d'Alene,US,1,,,,,,,,,,,,,,,
null,,confidence_buffer,1164033,confidence_buffer,,null,,,,,,,,,,,,,,,,,,
4223.100000023842,,pt2_unique_rating,1168258,Coeur d'Alene,,53,,,5,,,,,,,,,,,,,,,
null,,confidence_buffer,1168361,confidence_buffer,,null,,,,,,,,,,,,,,,,,,
3149.600000023842,,pt2_memorable_rating,1171512,Coeur d'Alene,,49,,,1,,,,,,,,,,,,,,,
null,,confidence_buffer,1171615,confidence_buffer,,null,,,,,,,,,,,,,,,,,,
3573.199999988079,,recognition_phase,1175190,Coeur d'Alene,,49,,,,,,old,1,0.8846153846153846,,,,,,,,,,
null,,confidence_buffer,1175292,confidence_buffer,,null,,,,,,,,,,,,,,,,,,
null,,thebreak,1175794,break,,null,,,,,,,,,,,,,,,,,,
5987.100000023842,,realistic_rating,1181782,Golden Trace,,51,Golden Trace,Fictional,3,,,,,,,,,,,,,,,
null,,confidence_buffer,1181886,confidence_buffer,,null,,,,,,,,,,,,,,,,,,
2383,,pt2_unique_rating,1184270,Golden Trace,,52,,,4,,,,,,,,,,,,,,,
null,,confidence_buffer,1184373,confidence_buffer,,null,,,,,,,,,,,,,,,,,,
3752.199999988079,,pt2_memorable_rating,1188127,Golden Trace,,49,,,1,,,,,,,,,,,,,,,
null,,confidence_buffer,1188229,confidence_buffer,,null,,,,,,,,,,,,,,,,,,
4280.100000023842,,recognition_phase,1192511,Golden Trace,,52,,,,,,new,1,0.8888888888888888,,,,,,,,,,
null,,confidence_buffer,1192613,confidence_buffer,,null,,,,,,,,,,,,,,,,,,
null,,thebreak,1193115,break,,null,,,,,,,,,,,,,,,,,,
5993.900000035763,,realistic_rating,1199110,East Ladera,,52,East Ladera,Fictional,4,,,,,,,,,,,,,,,
null,,confidence_buffer,1199213,confidence_buffer,,null,,,,,,,,,,,,,,,,,,
4129.100000023842,,pt2_unique_rating,1203343,East Ladera,,51,,,3,,,,,,,,,,,,,,,
null,,confidence_buffer,1203445,confidence_buffer,,null,,,,,,,,,,,,,,,,,,
4016.400000035763,,pt2_memorable_rating,1207463,East Ladera,,50,,,2,,,,,,,,,,,,,,,
null,,confidence_buffer,1207564,confidence_buffer,,null,,,,,,,,,,,,,,,,,,
3816.699999988079,,recognition_phase,1211382,East Ladera,,52,,,,,,new,1,0.8928571428571429,,,,,,,,,,
null,,confidence_buffer,1211484,confidence_buffer,,null,,,,,,,,,,,,,,,,,,
null,,thebreak,1211986,break,,null,,,,,,,,,,,,,,,,,,
4640.600000023842,,realistic_rating,1216629,Racine,,51,Racine,US,3,,,,,,,,,,,,,,,
null,,confidence_buffer,1216732,confidence_buffer,,null,,,,,,,,,,,,,,,,,,
2756.599999964237,,pt2_unique_rating,1219491,Racine,,51,,,3,,,,,,,,,,,,,,,
null,,confidence_buffer,1219595,confidence_buffer,,null,,,,,,,,,,,,,,,,,,
5627.5,,pt2_memorable_rating,1225224,Racine,,49,,,1,,,,,,,,,,,,,,,
null,,confidence_buffer,1225328,confidence_buffer,,null,,,,,,,,,,,,,,,,,,
2668,,recognition_phase,1227999,Racine,,52,,,,,,new,1,0.896551724137931,,,,,,,,,,
null,,confidence_buffer,1228102,confidence_buffer,,null,,,,,,,,,,,,,,,,,,
null,,thebreak,1228605,break,,null,,,,,,,,,,,,,,,,,,
5006.300000011921,,realistic_rating,1233614,Ravenport,,51,Ravenport,Fictional,3,,,,,,,,,,,,,,,
null,,confidence_buffer,1233717,confidence_buffer,,null,,,,,,,,,,,,,,,,,,
5696.099999964237,,probe_rating,1239415,probe_rating,,49,,,,1,1,,,,,,,,,,,,,
null,,confidence_buffer,1239518,confidence_buffer,,null,,,,,,,,,,,,,,,,,,
2843.199999988079,,pt2_unique_rating,1242363,Ravenport,,51,,,3,,,,,,,,,,,,,,,
null,,confidence_buffer,1242467,confidence_buffer,,null,,,,,,,,,,,,,,,,,,
2585.800000011921,,pt2_memorable_rating,1245054,Ravenport,,50,,,2,,,,,,,,,,,,,,,
null,,confidence_buffer,1245156,confidence_buffer,,null,,,,,,,,,,,,,,,,,,
2586.400000035763,,recognition_phase,1247744,Ravenport,,49,,,,,,old,1,0.9,,,,,,,,,,
null,,confidence_buffer,1247847,confidence_buffer,,null,,,,,,,,,,,,,,,,,,
null,,thebreak,1248350,break,,null,,,,,,,,,,,,,,,,,,
5510.300000011921,,realistic_rating,1253863,Ironwood Heights,,51,Ironwood Heights,Fictional,3,,,,,,,,,,,,,,,
null,,confidence_buffer,1253965,confidence_buffer,,null,,,,,,,,,,,,,,,,,,
2407.5,,pt2_unique_rating,1256374,Ironwood Heights,,52,,,4,,,,,,,,,,,,,,,
null,,confidence_buffer,1256477,confidence_buffer,,null,,,,,,,,,,,,,,,,,,
2743.5,,pt2_memorable_rating,1259222,Ironwood Heights,,50,,,2,,,,,,,,,,,,,,,
null,,confidence_buffer,1259325,confidence_buffer,,null,,,,,,,,,,,,,,,,,,
3103.399999976158,,recognition_phase,1262430,Ironwood Heights,,52,,,,,,new,1,0.9032258064516129,,,,,,,,,,
null,,confidence_buffer,1262533,confidence_buffer,,null,,,,,,,,,,,,,,,,,,
null,,thebreak,1263035,break,,null,,,,,,,,,,,,,,,,,,
4529.699999988079,,realistic_rating,1267566,Tamarisk Hills,,52,Tamarisk Hills,Fictional,4,,,,,,,,,,,,,,,
null,,confidence_buffer,1267669,confidence_buffer,,null,,,,,,,,,,,,,,,,,,
4735.699999988079,,pt2_unique_rating,1272407,Tamarisk Hills,,51,,,3,,,,,,,,,,,,,,,
null,,confidence_buffer,1272508,confidence_buffer,,null,,,,,,,,,,,,,,,,,,
3778.099999964237,,pt2_memorable_rating,1276288,Tamarisk Hills,,49,,,1,,,,,,,,,,,,,,,
null,,confidence_buffer,1276390,confidence_buffer,,null,,,,,,,,,,,,,,,,,,
3170.699999988079,,probe_rating,1279564,probe_rating,,50,,,,2,1,,,,,,,,,,,,,
null,,confidence_buffer,1279667,confidence_buffer,,null,,,,,,,,,,,,,,,,,,
2650.199999988079,,recognition_phase,1282320,Tamarisk Hills,,52,,,,,,new,1,0.90625,,,,,,,,,,
null,,confidence_buffer,1282423,confidence_buffer,,null,,,,,,,,,,,,,,,,,,
null,,thebreak,1282926,break,,null,,,,,,,,,,,,,,,,,,
5736.5,,realistic_rating,1288665,Summershade,,52,Summershade,Fictional,4,,,,,,,,,,,,,,,
null,,confidence_buffer,1288767,confidence_buffer,,null,,,,,,,,,,,,,,,,,,
4046.599999964237,,pt2_unique_rating,1292816,Summershade,,52,,,4,,,,,,,,,,,,,,,
null,,confidence_buffer,1292919,confidence_buffer,,null,,,,,,,,,,,,,,,,,,
3701.5,,pt2_memorable_rating,1296622,Summershade,,52,,,4,,,,,,,,,,,,,,,
null,,confidence_buffer,1296725,confidence_buffer,,null,,,,,,,,,,,,,,,,,,
5192.5,,recognition_phase,1301921,Summershade,,51,,,,,,new,1,0.9090909090909091,,,,,,,,,,
null,,confidence_buffer,1302025,confidence_buffer,,null,,,,,,,,,,,,,,,,,,
null,,thebreak,1302527,break,,null,,,,,,,,,,,,,,,,,,
4064.899999976158,,realistic_rating,1306594,Bowling Green,,52,Bowling Green,US,4,,,,,,,,,,,,,,,
null,,confidence_buffer,1306697,confidence_buffer,,null,,,,,,,,,,,,,,,,,,
2487.199999988079,,pt2_unique_rating,1309188,Bowling Green,,52,,,4,,,,,,,,,,,,,,,
null,,confidence_buffer,1309291,confidence_buffer,,null,,,,,,,,,,,,,,,,,,
1588.7999999523163,,pt2_memorable_rating,1310882,Bowling Green,,52,,,4,,,,,,,,,,,,,,,
null,,confidence_buffer,1310985,confidence_buffer,,null,,,,,,,,,,,,,,,,,,
3319.900000035763,,recognition_phase,1314307,Bowling Green,,49,,,,,,old,1,0.9117647058823529,,,,,,,,,,
null,,confidence_buffer,1314410,confidence_buffer,,null,,,,,,,,,,,,,,,,,,
null,,thebreak,1314913,break,,null,,,,,,,,,,,,,,,,,,
19691.80000001192,,realistic_rating,1334607,Pine Hollow,,52,Pine Hollow,Fictional,4,,,,,,,,,,,,,,,
null,,confidence_buffer,1334709,confidence_buffer,,null,,,,,,,,,,,,,,,,,,
3185.7999999523163,,pt2_unique_rating,1337897,Pine Hollow,,51,,,3,,,,,,,,,,,,,,,
null,,confidence_buffer,1337999,confidence_buffer,,null,,,,,,,,,,,,,,,,,,
3431.100000023842,,pt2_memorable_rating,1341432,Pine Hollow,,50,,,2,,,,,,,,,,,,,,,
null,,confidence_buffer,1341534,confidence_buffer,,null,,,,,,,,,,,,,,,,,,
3216.300000011921,,recognition_phase,1344752,Pine Hollow,,50,,,,,,old,1,0.9142857142857143,,,,,,,,,,
null,,confidence_buffer,1344854,confidence_buffer,,null,,,,,,,,,,,,,,,,,,
null,,thebreak,1345356,break,,null,,,,,,,,,,,,,,,,,,
7033.400000035763,,realistic_rating,1352392,Abilene,,53,Abilene,US,5,,,,,,,,,,,,,,,
null,,confidence_buffer,1352494,confidence_buffer,,null,,,,,,,,,,,,,,,,,,
3663.699999988079,,pt2_unique_rating,1356160,Abilene,,53,,,5,,,,,,,,,,,,,,,
null,,confidence_buffer,1356263,confidence_buffer,,null,,,,,,,,,,,,,,,,,,
6342,,pt2_memorable_rating,1362606,Abilene,,51,,,3,,,,,,,,,,,,,,,
null,,confidence_buffer,1362709,confidence_buffer,,null,,,,,,,,,,,,,,,,,,
3768.100000023842,,recognition_phase,1366478,Abilene,,52,,,,,,new,1,0.9166666666666666,,,,,,,,,,
null,,confidence_buffer,1366580,confidence_buffer,,null,,,,,,,,,,,,,,,,,,
null,,thebreak,1367082,break,,null,,,,,,,,,,,,,,,,,,
6772.300000011921,,realistic_rating,1373856,North Arroya,,50,North Arroya,Fictional,2,,,,,,,,,,,,,,,
null,,confidence_buffer,1373959,confidence_buffer,,null,,,,,,,,,,,,,,,,,,
3514.5,,pt2_unique_rating,1377476,North Arroya,,52,,,4,,,,,,,,,,,,,,,
null,,confidence_buffer,1377580,confidence_buffer,,null,,,,,,,,,,,,,,,,,,
4197.600000023842,,pt2_memorable_rating,1381779,North Arroya,,50,,,2,,,,,,,,,,,,,,,
null,,confidence_buffer,1381882,confidence_buffer,,null,,,,,,,,,,,,,,,,,,
10674,,probe_rating,1392559,probe_rating,,51,,,,3,1,,,,,,,,,,,,,
null,,confidence_buffer,1392661,confidence_buffer,,null,,,,,,,,,,,,,,,,,,
3514.800000011921,,recognition_phase,1396179,North Arroya,,49,,,,,,old,1,0.918918918918919,,,,,,,,,,
null,,confidence_buffer,1396282,confidence_buffer,,null,,,,,,,,,,,,,,,,,,
null,,thebreak,1396785,break,,null,,,,,,,,,,,,,,,,,,
4495.699999988079,,realistic_rating,1401284,Westridge,,52,Westridge,Fictional,4,,,,,,,,,,,,,,,
null,,confidence_buffer,1401387,confidence_buffer,,null,,,,,,,,,,,,,,,,,,
2307.5,,pt2_unique_rating,1403697,Westridge,,52,,,4,,,,,,,,,,,,,,,
null,,confidence_buffer,1403799,confidence_buffer,,null,,,,,,,,,,,,,,,,,,
3095.5,,pt2_memorable_rating,1406897,Westridge,,51,,,3,,,,,,,,,,,,,,,
null,,confidence_buffer,1407001,confidence_buffer,,null,,,,,,,,,,,,,,,,,,
4153.899999976158,,recognition_phase,1411158,Westridge,,52,,,,,,new,1,0.9210526315789473,,,,,,,,,,
null,,confidence_buffer,1411261,confidence_buffer,,null,,,,,,,,,,,,,,,,,,
null,,thebreak,1411764,break,,null,,,,,,,,,,,,,,,,,,
4138.599999964237,,realistic_rating,1415904,Hanover,,53,Hanover,US,5,,,,,,,,,,,,,,,
null,,confidence_buffer,1416007,confidence_buffer,,null,,,,,,,,,,,,,,,,,,
3681.800000011921,,pt2_unique_rating,1419692,Hanover,,53,,,5,,,,,,,,,,,,,,,
null,,confidence_buffer,1419795,confidence_buffer,,null,,,,,,,,,,,,,,,,,,
5186.400000035763,,pt2_memorable_rating,1424983,Hanover,,51,,,3,,,,,,,,,,,,,,,
null,,confidence_buffer,1425085,confidence_buffer,,null,,,,,,,,,,,,,,,,,,
2268.900000035763,,recognition_phase,1427356,Hanover,,49,,,,,,old,1,0.9230769230769231,,,,,,,,,,
null,,confidence_buffer,1427460,confidence_buffer,,null,,,,,,,,,,,,,,,,,,
null,,thebreak,1427963,break,,null,,,,,,,,,,,,,,,,,,
4251.799999952316,,realistic_rating,1432216,Redgrove,,52,Redgrove,Fictional,4,,,,,,,,,,,,,,,
null,,confidence_buffer,1432319,confidence_buffer,,null,,,,,,,,,,,,,,,,,,
3881.400000035763,,pt2_unique_rating,1436203,Redgrove,,51,,,3,,,,,,,,,,,,,,,
null,,confidence_buffer,1436306,confidence_buffer,,null,,,,,,,,,,,,,,,,,,
2500.100000023842,,pt2_memorable_rating,1438808,Redgrove,,50,,,2,,,,,,,,,,,,,,,
null,,confidence_buffer,1438911,confidence_buffer,,null,,,,,,,,,,,,,,,,,,
2589.7000000476837,,recognition_phase,1441503,Redgrove,,52,,,,,,new,1,0.925,,,,,,,,,,
null,,confidence_buffer,1441604,confidence_buffer,,null,,,,,,,,,,,,,,,,,,
null,,thebreak,1442107,break,,null,,,,,,,,,,,,,,,,,,
3915.399999976158,,realistic_rating,1446024,New Hope,,53,New Hope,US,5,,,,,,,,,,,,,,,
null,,confidence_buffer,1446127,confidence_buffer,,null,,,,,,,,,,,,,,,,,,
4747,,pt2_unique_rating,1450877,New Hope,,53,,,5,,,,,,,,,,,,,,,
null,,confidence_buffer,1450979,confidence_buffer,,null,,,,,,,,,,,,,,,,,,
3925.400000035763,,pt2_memorable_rating,1454907,New Hope,,53,,,5,,,,,,,,,,,,,,,
null,,confidence_buffer,1455011,confidence_buffer,,null,,,,,,,,,,,,,,,,,,
4125,,recognition_phase,1459140,New Hope,,49,,,,,,old,1,0.926829268292683,,,,,,,,,,
null,,confidence_buffer,1459243,confidence_buffer,,null,,,,,,,,,,,,,,,,,,
null,,thebreak,1459746,break,,null,,,,,,,,,,,,,,,,,,
4461.5,,realistic_rating,1464209,Sisters,,50,Sisters,US,2,,,,,,,,,,,,,,,
null,,confidence_buffer,1464312,confidence_buffer,,null,,,,,,,,,,,,,,,,,,
4528,,pt2_unique_rating,1468843,Sisters,,52,,,4,,,,,,,,,,,,,,,
null,,confidence_buffer,1468945,confidence_buffer,,null,,,,,,,,,,,,,,,,,,
3524.800000011921,,pt2_memorable_rating,1472472,Sisters,,52,,,4,,,,,,,,,,,,,,,
null,,confidence_buffer,1472575,confidence_buffer,,null,,,,,,,,,,,,,,,,,,
2590.800000011921,,recognition_phase,1475168,Sisters,,52,,,,,,new,1,0.9285714285714286,,,,,,,,,,
null,,confidence_buffer,1475272,confidence_buffer,,null,,,,,,,,,,,,,,,,,,
null,,thebreak,1475774,break,,null,,,,,,,,,,,,,,,,,,
6312.600000023842,,realistic_rating,1482089,Cedarwyn,,52,Cedarwyn,Fictional,4,,,,,,,,,,,,,,,
null,,confidence_buffer,1482191,confidence_buffer,,null,,,,,,,,,,,,,,,,,,
2830.800000011921,,pt2_unique_rating,1485024,Cedarwyn,,52,,,4,,,,,,,,,,,,,,,
null,,confidence_buffer,1485127,confidence_buffer,,null,,,,,,,,,,,,,,,,,,
1944,,pt2_memorable_rating,1487072,Cedarwyn,,50,,,2,,,,,,,,,,,,,,,
null,,confidence_buffer,1487174,confidence_buffer,,null,,,,,,,,,,,,,,,,,,
3135.399999976158,,recognition_phase,1490312,Cedarwyn,,52,,,,,,new,1,0.9302325581395349,,,,,,,,,,
null,,confidence_buffer,1490416,confidence_buffer,,null,,,,,,,,,,,,,,,,,,
null,,thebreak,1490919,break,,null,,,,,,,,,,,,,,,,,,
4655.399999976158,,realistic_rating,1495576,Maplehurst,,52,Maplehurst,Fictional,4,,,,,,,,,,,,,,,
null,,confidence_buffer,1495679,confidence_buffer,,null,,,,,,,,,,,,,,,,,,
5648.300000011921,,pt2_unique_rating,1501329,Maplehurst,,51,,,3,,,,,,,,,,,,,,,
null,,confidence_buffer,1501432,confidence_buffer,,null,,,,,,,,,,,,,,,,,,
2630.199999988079,,pt2_memorable_rating,1504065,Maplehurst,,50,,,2,,,,,,,,,,,,,,,
null,,confidence_buffer,1504166,confidence_buffer,,null,,,,,,,,,,,,,,,,,,
4982.200000047684,,recognition_phase,1509150,Maplehurst,,51,,,,,,new,1,0.9318181818181818,,,,,,,,,,
null,,confidence_buffer,1509253,confidence_buffer,,null,,,,,,,,,,,,,,,,,,
null,,thebreak,1509756,break,,null,,,,,,,,,,,,,,,,,,
5735.700000047684,,realistic_rating,1515494,Gardnerville,,51,Gardnerville,US,3,,,,,,,,,,,,,,,
null,,confidence_buffer,1515596,confidence_buffer,,null,,,,,,,,,,,,,,,,,,
1688.800000011921,,pt2_unique_rating,1517286,Gardnerville,,51,,,3,,,,,,,,,,,,,,,
null,,confidence_buffer,1517390,confidence_buffer,,null,,,,,,,,,,,,,,,,,,
2215.600000023842,,pt2_memorable_rating,1519607,Gardnerville,,50,,,2,,,,,,,,,,,,,,,
null,,confidence_buffer,1519708,confidence_buffer,,null,,,,,,,,,,,,,,,,,,
4368.399999976158,,recognition_phase,1524078,Gardnerville,,52,,,,,,new,1,0.9333333333333333,,,,,,,,,,
null,,confidence_buffer,1524180,confidence_buffer,,null,,,,,,,,,,,,,,,,,,
null,,thebreak,1524681,break,,null,,,,,,,,,,,,,,,,,,
5155.900000035763,,realistic_rating,1529839,Hollendale,,51,Hollendale,Fictional,3,,,,,,,,,,,,,,,
null,,confidence_buffer,1529941,confidence_buffer,,null,,,,,,,,,,,,,,,,,,
2487.5,,pt2_unique_rating,1532430,Hollendale,,51,,,3,,,,,,,,,,,,,,,
null,,confidence_buffer,1532534,confidence_buffer,,null,,,,,,,,,,,,,,,,,,
2463.300000011921,,pt2_memorable_rating,1534998,Hollendale,,50,,,2,,,,,,,,,,,,,,,
null,,confidence_buffer,1535101,confidence_buffer,,null,,,,,,,,,,,,,,,,,,
2799.099999964237,,recognition_phase,1537902,Hollendale,,50,,,,,,old,1,0.9347826086956522,,,,,,,,,,
null,,confidence_buffer,1538004,confidence_buffer,,null,,,,,,,,,,,,,,,,,,
null,,thebreak,1538507,break,,null,,,,,,,,,,,,,,,,,,
4714.700000047684,,realistic_rating,1543222,Oakridge,,53,Oakridge,Fictional,5,,,,,,,,,,,,,,,
null,,confidence_buffer,1543325,confidence_buffer,,null,,,,,,,,,,,,,,,,,,
3143.599999964237,,pt2_unique_rating,1546470,Oakridge,,53,,,5,,,,,,,,,,,,,,,
null,,confidence_buffer,1546572,confidence_buffer,,null,,,,,,,,,,,,,,,,,,
1472.5999999642372,,pt2_memorable_rating,1548046,Oakridge,,53,,,5,,,,,,,,,,,,,,,
null,,confidence_buffer,1548150,confidence_buffer,,null,,,,,,,,,,,,,,,,,,
3071.400000035763,,recognition_phase,1551223,Oakridge,,52,,,,,,new,1,0.9361702127659575,,,,,,,,,,
null,,confidence_buffer,1551324,confidence_buffer,,null,,,,,,,,,,,,,,,,,,
null,,thebreak,1551826,break,,null,,,,,,,,,,,,,,,,,,
6130.600000023842,,realistic_rating,1557959,Carmel,,52,Carmel,US,4,,,,,,,,,,,,,,,
null,,confidence_buffer,1558062,confidence_buffer,,null,,,,,,,,,,,,,,,,,,
5704.200000047684,,pt2_unique_rating,1563768,Carmel,,52,,,4,,,,,,,,,,,,,,,
null,,confidence_buffer,1563872,confidence_buffer,,null,,,,,,,,,,,,,,,,,,
3142.5,,pt2_memorable_rating,1567016,Carmel,,51,,,3,,,,,,,,,,,,,,,
null,,confidence_buffer,1567120,confidence_buffer,,null,,,,,,,,,,,,,,,,,,
2371.099999964237,,recognition_phase,1569494,Carmel,,49,,,,,,old,1,0.9375,,,,,,,,,,
null,,confidence_buffer,1569596,confidence_buffer,,null,,,,,,,,,,,,,,,,,,
null,,thebreak,1570098,break,,null,,,,,,,,,,,,,,,,,,
4716.600000023842,,realistic_rating,1574816,Millstone,,53,Millstone,Fictional,5,,,,,,,,,,,,,,,
null,,confidence_buffer,1574919,confidence_buffer,,null,,,,,,,,,,,,,,,,,,
2868.900000035763,,pt2_unique_rating,1577790,Millstone,,53,,,5,,,,,,,,,,,,,,,
null,,confidence_buffer,1577892,confidence_buffer,,null,,,,,,,,,,,,,,,,,,
2154.5,,pt2_memorable_rating,1580048,Millstone,,53,,,5,,,,,,,,,,,,,,,
null,,confidence_buffer,1580152,confidence_buffer,,null,,,,,,,,,,,,,,,,,,
2950.300000011921,,probe_rating,1583106,probe_rating,,49,,,,1,1,,,,,,,,,,,,,
null,,confidence_buffer,1583209,confidence_buffer,,null,,,,,,,,,,,,,,,,,,
3253.599999964237,,recognition_phase,1586464,Millstone,,49,,,,,,old,1,0.9387755102040817,,,,,,,,,,
null,,confidence_buffer,1586567,confidence_buffer,,null,,,,,,,,,,,,,,,,,,
null,,thebreak,1587069,break,,null,,,,,,,,,,,,,,,,,,
11916.100000023842,,realistic_rating,1598988,Gatlinburg,,52,Gatlinburg,US,4,,,,,,,,,,,,,,,
null,,confidence_buffer,1599092,confidence_buffer,,null,,,,,,,,,,,,,,,,,,
2146.699999988079,,pt2_unique_rating,1601240,Gatlinburg,,52,,,4,,,,,,,,,,,,,,,
null,,confidence_buffer,1601343,confidence_buffer,,null,,,,,,,,,,,,,,,,,,
2068.399999976158,,pt2_memorable_rating,1603414,Gatlinburg,,50,,,2,,,,,,,,,,,,,,,
null,,confidence_buffer,1603516,confidence_buffer,,null,,,,,,,,,,,,,,,,,,
3306.100000023842,,probe_rating,1606824,probe_rating,,53,,,,5,1,,,,,,,,,,,,,
null,,confidence_buffer,1606928,confidence_buffer,,null,,,,,,,,,,,,,,,,,,
3238.100000023842,,recognition_phase,1610169,Gatlinburg,,50,,,,,,old,1,0.94,,,,,,,,,,
null,,confidence_buffer,1610272,confidence_buffer,,null,,,,,,,,,,,,,,,,,,
null,,thebreak,1610773,break,,null,,,,,,,,,,,,,,,,,,
4906.099999964237,,realistic_rating,1615681,Highvale,,52,Highvale,Fictional,4,,,,,,,,,,,,,,,
null,,confidence_buffer,1615784,confidence_buffer,,null,,,,,,,,,,,,,,,,,,
2701.699999988079,,pt2_unique_rating,1618488,Highvale,,52,,,4,,,,,,,,,,,,,,,
null,,confidence_buffer,1618591,confidence_buffer,,null,,,,,,,,,,,,,,,,,,
2056,,pt2_memorable_rating,1620649,Highvale,,50,,,2,,,,,,,,,,,,,,,
null,,confidence_buffer,1620754,confidence_buffer,,null,,,,,,,,,,,,,,,,,,
4766.300000011921,,recognition_phase,1625524,Highvale,,52,,,,,,new,0,0.9215686274509803,,,,,,,,,,
null,,confidence_buffer,1625626,confidence_buffer,,null,,,,,,,,,,,,,,,,,,
null,,thebreak,1626129,break,,null,,,,,,,,,,,,,,,,,,
5255,,realistic_rating,1631388,Sammamish,,49,Sammamish,US,1,,,,,,,,,,,,,,,
null,,confidence_buffer,1631492,confidence_buffer,,null,,,,,,,,,,,,,,,,,,
3977,,pt2_unique_rating,1635471,Sammamish,,53,,,5,,,,,,,,,,,,,,,
null,,confidence_buffer,1635574,confidence_buffer,,null,,,,,,,,,,,,,,,,,,
9265.099999964237,,pt2_memorable_rating,1644841,Sammamish,,53,,,5,,,,,,,,,,,,,,,
null,,confidence_buffer,1644943,confidence_buffer,,null,,,,,,,,,,,,,,,,,,
3985.899999976158,,recognition_phase,1648931,Sammamish,,49,,,,,,old,1,0.9230769230769231,,,,,,,,,,
null,,confidence_buffer,1649035,confidence_buffer,,null,,,,,,,,,,,,,,,,,,
null,,thebreak,1649537,break,,null,,,,,,,,,,,,,,,,,,
5391.399999976158,,realistic_rating,1654932,Duck,,49,Duck,US,1,,,,,,,,,,,,,,,
null,,confidence_buffer,1655037,confidence_buffer,,null,,,,,,,,,,,,,,,,,,
3424.900000035763,,pt2_unique_rating,1658464,Duck,,52,,,4,,,,,,,,,,,,,,,
null,,confidence_buffer,1658568,confidence_buffer,,null,,,,,,,,,,,,,,,,,,
4261.5,,pt2_memorable_rating,1662832,Duck,,53,,,5,,,,,,,,,,,,,,,
null,,confidence_buffer,1662935,confidence_buffer,,null,,,,,,,,,,,,,,,,,,
3359.100000023842,,recognition_phase,1666297,Duck,,49,,,,,,old,1,0.9245283018867925,,,,,,,,,,
null,,confidence_buffer,1666399,confidence_buffer,,null,,,,,,,,,,,,,,,,,,
null,,thebreak,1666901,break,,null,,,,,,,,,,,,,,,,,,
4504.300000011921,,realistic_rating,1671409,Leesburg,,53,Leesburg,US,5,,,,,,,,,,,,,,,
null,,confidence_buffer,1671513,confidence_buffer,,null,,,,,,,,,,,,,,,,,,
2613,,pt2_unique_rating,1674128,Leesburg,,53,,,5,,,,,,,,,,,,,,,
null,,confidence_buffer,1674231,confidence_buffer,,null,,,,,,,,,,,,,,,,,,
1287.699999988079,,pt2_memorable_rating,1675521,Leesburg,,53,,,5,,,,,,,,,,,,,,,
null,,confidence_buffer,1675623,confidence_buffer,,null,,,,,,,,,,,,,,,,,,
3423.699999988079,,recognition_phase,1679048,Leesburg,,49,,,,,,old,1,0.9259259259259259,,,,,,,,,,
null,,confidence_buffer,1679151,confidence_buffer,,null,,,,,,,,,,,,,,,,,,
null,,thebreak,1679653,break,,null,,,,,,,,,,,,,,,,,,
6974.300000011921,,realistic_rating,1686630,Solara Glen,,50,Solara Glen,Fictional,2,,,,,,,,,,,,,,,
null,,confidence_buffer,1686732,confidence_buffer,,null,,,,,,,,,,,,,,,,,,
5762,,pt2_unique_rating,1692496,Solara Glen,,52,,,4,,,,,,,,,,,,,,,
null,,confidence_buffer,1692598,confidence_buffer,,null,,,,,,,,,,,,,,,,,,
2877.899999976158,,pt2_memorable_rating,1695478,Solara Glen,,50,,,2,,,,,,,,,,,,,,,
null,,confidence_buffer,1695580,confidence_buffer,,null,,,,,,,,,,,,,,,,,,
5360.699999988079,,recognition_phase,1700944,Solara Glen,,49,,,,,,old,1,0.9272727272727272,,,,,,,,,,
null,,confidence_buffer,1701047,confidence_buffer,,null,,,,,,,,,,,,,,,,,,
null,,thebreak,1701549,break,,null,,,,,,,,,,,,,,,,,,
4082.699999988079,,realistic_rating,1705634,Gloucester,,53,Gloucester,US,5,,,,,,,,,,,,,,,
null,,confidence_buffer,1705738,confidence_buffer,,null,,,,,,,,,,,,,,,,,,
3683.800000011921,,pt2_unique_rating,1709423,Gloucester,,53,,,5,,,,,,,,,,,,,,,
null,,confidence_buffer,1709526,confidence_buffer,,null,,,,,,,,,,,,,,,,,,
4787.5,,pt2_memorable_rating,1714316,Gloucester,,53,,,5,,,,,,,,,,,,,,,
null,,confidence_buffer,1714420,confidence_buffer,,null,,,,,,,,,,,,,,,,,,
2552.600000023842,,recognition_phase,1716976,Gloucester,,49,,,,,,old,1,0.9285714285714286,,,,,,,,,,
null,,confidence_buffer,1717079,confidence_buffer,,null,,,,,,,,,,,,,,,,,,
null,,thebreak,1717581,break,,null,,,,,,,,,,,,,,,,,,
4952.900000035763,,realistic_rating,1722536,Linden Trace,,50,Linden Trace,Fictional,2,,,,,,,,,,,,,,,
null,,confidence_buffer,1722639,confidence_buffer,,null,,,,,,,,,,,,,,,,,,
4725.600000023842,,probe_rating,1727368,probe_rating,,50,,,,2,1,,,,,,,,,,,,,
null,,confidence_buffer,1727471,confidence_buffer,,null,,,,,,,,,,,,,,,,,,
2693.100000023842,,pt2_unique_rating,1730166,Linden Trace,,51,,,3,,,,,,,,,,,,,,,
null,,confidence_buffer,1730269,confidence_buffer,,null,,,,,,,,,,,,,,,,,,
2707.199999988079,,pt2_memorable_rating,1732979,Linden Trace,,50,,,2,,,,,,,,,,,,,,,
null,,confidence_buffer,1733082,confidence_buffer,,null,,,,,,,,,,,,,,,,,,
4471.199999988079,,recognition_phase,1737556,Linden Trace,,50,,,,,,old,1,0.9298245614035088,,,,,,,,,,
null,,confidence_buffer,1737658,confidence_buffer,,null,,,,,,,,,,,,,,,,,,
null,,thebreak,1738161,break,,null,,,,,,,,,,,,,,,,,,
5283.800000011921,,realistic_rating,1743446,Athens,,53,Athens,US,5,,,,,,,,,,,,,,,
null,,confidence_buffer,1743548,confidence_buffer,,null,,,,,,,,,,,,,,,,,,
1441.9000000357628,,pt2_unique_rating,1744992,Athens,,53,,,5,,,,,,,,,,,,,,,
null,,confidence_buffer,1745094,confidence_buffer,,null,,,,,,,,,,,,,,,,,,
1168.5,,pt2_memorable_rating,1746264,Athens,,53,,,5,,,,,,,,,,,,,,,
null,,confidence_buffer,1746367,confidence_buffer,,null,,,,,,,,,,,,,,,,,,
2633,,probe_rating,1749004,probe_rating,,50,,,,2,1,,,,,,,,,,,,,
null,,confidence_buffer,1749108,confidence_buffer,,null,,,,,,,,,,,,,,,,,,
2592.699999988079,,recognition_phase,1751703,Athens,,49,,,,,,old,1,0.9310344827586207,,,,,,,,,,
null,,confidence_buffer,1751805,confidence_buffer,,null,,,,,,,,,,,,,,,,,,
null,,thebreak,1752307,break,,null,,,,,,,,,,,,,,,,,,
4010.600000023842,,realistic_rating,1756320,Ashford Hills,,52,Ashford Hills,Fictional,4,,,,,,,,,,,,,,,
null,,confidence_buffer,1756423,confidence_buffer,,null,,,,,,,,,,,,,,,,,,
3454.2000000476837,,pt2_unique_rating,1759879,Ashford Hills,,50,,,2,,,,,,,,,,,,,,,
null,,confidence_buffer,1759982,confidence_buffer,,null,,,,,,,,,,,,,,,,,,
2538.400000035763,,pt2_memorable_rating,1762523,Ashford Hills,,50,,,2,,,,,,,,,,,,,,,
null,,confidence_buffer,1762626,confidence_buffer,,null,,,,,,,,,,,,,,,,,,
4544.399999976158,,recognition_phase,1767173,Ashford Hills,,51,,,,,,new,1,0.9322033898305084,,,,,,,,,,
null,,confidence_buffer,1767276,confidence_buffer,,null,,,,,,,,,,,,,,,,,,
null,,thebreak,1767778,break,,null,,,,,,,,,,,,,,,,,,
4572,,realistic_rating,1772353,Delaro Park,,51,Delaro Park,Fictional,3,,,,,,,,,,,,,,,
null,,confidence_buffer,1772456,confidence_buffer,,null,,,,,,,,,,,,,,,,,,
8062.700000047684,,pt2_unique_rating,1780521,Delaro Park,,51,,,3,,,,,,,,,,,,,,,
null,,confidence_buffer,1780623,confidence_buffer,,null,,,,,,,,,,,,,,,,,,
2726.599999964237,,pt2_memorable_rating,1783352,Delaro Park,,50,,,2,,,,,,,,,,,,,,,
null,,confidence_buffer,1783455,confidence_buffer,,null,,,,,,,,,,,,,,,,,,
3509.199999988079,,recognition_phase,1786968,Delaro Park,,52,,,,,,new,1,0.9333333333333333,,,,,,,,,,
null,,confidence_buffer,1787070,confidence_buffer,,null,,,,,,,,,,,,,,,,,,
null,,thebreak,1787573,break,,null,,,,,,,,,,,,,,,,,,
,,survey,2006808,survey-questions,,,,,,,,,,,none,high,just this,cities in my state were easy to remember,if i knew what state the city was in,if i ever heard of the city,if it was a wacky name,if it could be true,nope,it was fun
